File: PMMA/Calibration_Data/Aalto/Aalto_Cone_65kW_3.csv
Time,Mass,HRR,Back Surface Temperature 1,Back Surface Temperature 3
[s],[g],[kW/m2],[K],[K]
0,72.88,0,304,303
1,72.93,0.5,304,304
2,72.76,0.5,304,304
3,72.76,0.5,304,304
4,72.78,0.9,304,304
5,72.94,0,305,304
6,72.94,0,305,304
7,72.99,0,305,305
8,72.94,1.3,305,305
9,72.94,0,305,305
10,72.93,0,305,305
11,72.93,0,305,305
12,72.93,29.5,305,305
13,72.88,121.7,306,305
14,72.81,159.3,306,305
15,72.75,196.9,306,305
16,72.75,289.6,306,305
17,72.62,365.9,306,305
18,72.43,438.8,306,306
19,72.24,523.8,306,306
20,72.24,543.6,306,306
21,71.97,569,306,306
22,71.52,616.5,306,306
23,71.18,652.1,307,307
24,71.18,652.9,308,307
25,70.82,651.2,309,307
26,70.25,668.3,309,308
27,70.25,691,310,308
28,70.08,706.4,311,309
29,69.91,721.8,312,309
30,69.29,707.7,313,309
31,69.29,718.6,314,310
32,68.92,733.7,314,311
33,68.39,912.3,315,311
34,68,762.7,316,312
35,68,753.3,317,312
36,67.59,777.3,318,313
37,67,786.6,319,314
38,67,775.1,319,315
39,66.54,760.3,320,316
40,65.94,745.5,321,317
41,65.54,754.4,322,318
42,65.54,765,323,318
43,65.12,758.5,323,319
44,64.47,793.4,324,320
45,64.47,811.6,325,322
46,64.06,795.3,326,323
47,63.47,820.6,327,324
48,63.05,826.2,328,325
49,63.05,813.6,328,326
50,62.63,792.5,329,327
51,62.04,790.8,330,328
52,62.04,804.3,331,329
53,61.8,799.1,332,273
54,61.56,793.9,332,331
55,60.98,773.3,333,332
56,60.58,762.3,334,333
57,60.58,783.3,335,335
58,60.15,779.8,336,336
59,59.56,792.2,337,337
60,59.19,804.6,337,338
61,58.78,785.7,338,341
62,58.78,786.8,339,342
63,58.36,775.1,340,343
64,57.71,763.1,341,344
65,57.28,766.8,342,346
66,57.28,769.3,342,347
67,56.87,750,343,349
68,56.24,758.6,344,350
69,55.83,759.7,345,351
70,55.83,886.3,346,352
71,55.43,764.5,346,354
72,54.76,777,347,355
73,54.76,767.9,348,356
74,54.76,758.8,349,357
75,54.28,761.5,350,359
76,53.68,774.5,351,360
77,53.25,787.5,351,361
78,53.25,801.8,352,362
79,52.84,778.3,353,364
80,52.24,783.3,353,366
81,51.81,782.5,353,367
82,51.81,774,353,368
83,51.4,754.1,356,369
84,50.79,760.4,356,370
85,50.39,782.1,357,373
86,50.39,796.4,358,374
87,49.95,795.5,359,375
88,49.41,781.9,360,376
89,48.99,787.6,362,378
90,48.99,788,363,379
91,48.99,788.4,363,380
92,48.54,781.6,364,381
93,48.07,796,361,382
94,47.79,792.7,363,384
95,47.79,822.1,363,385
96,47.46,812.3,364,386
97,46.89,786.9,366,387
98,46.46,786.4,366,388
99,46.46,758.6,367,388
100,46.03,789,368,388
101,45.38,807.7,369,389
102,45.38,788.7,369,389
103,44.97,811,370,389
104,44.38,826.9,371,390
105,43.96,805.1,372,391
106,43.96,923,373,391
107,43.55,773.1,375,392
108,42.97,789.1,376,393
109,42.97,814.4,377,395
110,42.48,824.5,378,396
111,41.9,816.7,379,397
112,41.5,815.3,380,398
113,41.5,813.8,381,399
114,41.09,976,382,400
115,40.5,819.5,383,401
116,40.5,824.9,386,402
117,40.01,826.1,387,404
118,39.35,829.1,388,406
119,39.35,816.4,389,407
120,38.94,816.3,390,408
121,38.37,816.1,392,409
122,37.95,847.6,393,410
123,37.95,845.6,395,412
124,37.52,841.4,396,413
125,36.91,833.4,397,415
126,36.91,843.2,398,416
127,36.91,852.9,398,416
128,36.43,855.1,401,417
129,35.61,850.5,402,419
130,35.61,853.9,404,421
131,35.13,848.1,405,423
132,34.49,869.6,406,424
133,34.07,867.5,408,425
134,34.07,862.3,409,427
135,34.07,857,410,428
136,33.56,864.7,412,429
137,32.95,872.3,413,431
138,32.95,864.1,415,432
139,32.43,833.7,416,434
140,31.83,871.2,418,435
141,31.37,874.7,418,436
142,31.37,867,421,438
143,30.93,891.5,423,439
144,30.31,875.6,424,441
145,29.87,890.5,426,444
146,29.87,931.7,427,445
147,29.41,952.6,429,446
148,28.7,939.1,431,448
149,28.7,940,432,450
150,28.24,975.1,435,451
151,27.59,979.7,437,453
152,27.13,954,439,455
153,27.13,939.2,440,458
154,26.64,1097,442,460
155,25.91,967.4,444,462
156,25.91,994.8,446,464
157,25.49,1005,448,465
158,24.82,985.5,450,467
159,24.36,981.8,452,469
160,24.36,986.4,455,471
161,23.87,991,456,475
162,23.16,998.3,458,475
163,22.67,1007.7,460,479
164,22.67,982.9,462,481
165,21.92,972.2,464,483
166,21.42,995.9,467,486
167,21.42,1012,471,487
168,20.84,1012.1,473,490
169,20.09,1038.3,475,491
170,19.56,1032.8,478,496
171,19.56,1001.7,480,498
172,19.06,991.4,483,501
173,18.23,989.5,485,503
174,18.23,1017.9,487,505
175,18.23,1046.3,488,506
176,17.45,1074.8,491,509
177,16.75,1055.3,497,512
178,16.24,1068.7,502,516
179,16.24,1072.2,508,520
180,15.72,1114.6,513,533
181,14.95,1108.2,518,541
182,14.39,1067.6,524,550
183,14.39,1100.7,529,558
184,14.42,1089.9,354,566
185,14.09,1071.3,539,574
186,14.09,1118.3,541,580
187,13.56,1150.5,546,585
188,12.7,1166.8,550,590
189,12.09,1177.6,559,595
190,12.09,1229.6,559,600
191,11.48,1247.1,571,605
192,10.57,1300.9,576,610
193,10.57,1303.9,578,620
194,9.97,1293.7,583,624
195,9.18,1287,589,629
196,8.61,1222.5,594,634
197,8.61,1246.3,566,639
198,7.96,1242.5,607,645
199,7,1218.7,613,650
200,7,1237,627,653
201,6.33,1176.6,637,670
202,5.45,1099.4,649,685
203,5.16,993,661,705
204,5.16,902,676,719
205,4.51,824.4,700,734
206,3.71,766.3,727,767
207,3.21,725.8,756,799
208,3.21,675.3,815,829
209,2.49,616.6,828,855
210,2.49,562.3,854,902
211,2.13,509.1,877,924
212,1.68,483,896,941
213,1.68,461.9,912,958
214,1.36,430.2,927,973
215,0.96,379,939,988
216,0.71,353.1,949,993
217,0.71,332.3,970,1003
218,0.5,311.3,976,1016
219,0.18,291.6,983,1024
220,0,270.8,990,1027
221,0,248.9,993,1033
222,-0.12,230.3,1004,1045
223,-0.35,214.9,1014,1054
224,-0.46,239.2,1020,1064
225,-0.46,190.3,1057,1113
226,-0.58,184.2,1058,1101
227,-0.71,164.6,1052,1106
228,-0.82,153.5,1068,1140
229,-0.82,144.9,1084,1133
230,-0.91,140.4,1086,1147
231,-0.98,135.9,1108,1160
232,-0.98,121.9,1113,1149
233,-1.08,112.7,1117,1148
234,-1.16,105.1,1122,1177
235,-1.19,100.5,1122,1193
236,-1.19,94.2,1114,1180
237,-1.27,86.4,1104,1204
238,-1.27,80.2,1091,1217
239,-1.33,68.4,1077,1209
240,-1.39,63.1,1074,1150
241,-1.39,64.6,1066,1122
242,-1.43,58.2,1061,1039
243,-1.48,55,1050,1040
244,-1.48,51.4,1027,1010
245,-1.48,47.7,1004,980
246,-1.51,44.3,1000,909
247,-1.56,41.5,994,889
248,-1.61,42.8,988,887
249,-1.61,36.2,982,877
250,-1.64,37.1,971,883
251,-1.64,31.1,960,889
252,-1.65,31.9,962,878
253,-1.65,32.4,961,853
254,-1.69,26.1,958,846
255,-1.74,25.9,949,842
256,-1.74,26.8,945,836
257,-1.76,26.5,942,838
258,-1.76,19.1,936,833
259,-1.78,19.9,932,836
260,-1.78,19.5,928,831
261,-1.77,19.6,924,834
262,-1.79,20.2,925,837
263,-1.8,15.2,919,828
264,-1.8,15.2,919,825
265,-1.81,15.2,920,807
266,-1.83,15.9,919,806
267,-1.83,15.5,925,804
268,-1.83,14.9,924,811
269,-1.83,14.6,921,827
270,-1.81,25.8,915,807
271,-1.81,15.1,914,804
272,-1.82,14.3,911,811
273,-1.82,14,908,802
274,-1.83,14,905,797
275,-1.83,13.3,899,806
276,-1.83,13.7,895,812
277,-1.83,14,889,830
278,-1.85,13.7,893,842
279,-1.85,13.8,887,836
280,-1.85,13.4,884,835
281,-1.85,13,884,819
282,-1.84,13.1,877,819
283,-1.85,12.7,880,853
284,-1.85,12.2,883,840
285,-1.84,6.6,884,831
286,-1.83,6.6,888,841
287,-1.83,6.6,882,855
288,-1.84,7.5,885,860
289,-1.84,7.5,894,852
290,-1.84,7.3,895,846
291,-1.84,7,895,840
292,-1.85,6.6,901,844
293,-1.84,6.3,904,840
294,-1.84,5.9,899,833
295,-1.84,6.3,899,841
296,-1.86,5.9,902,841
297,-1.86,5.6,901,832
298,-1.87,5.1,896,824
299,-1.87,5.2,887,827
300,-1.86,4.4,887,839
301,-1.85,4.4,886,847
302,-1.85,4,877,849
303,-1.84,3.5,877,843
304,-1.85,4.4,882,850
305,-1.84,4,886,851
306,-1.84,3.6,892,843
307,-1.86,3.2,897,846
308,-1.86,3.2,899,845
309,-1.86,2.4,900,853
310,-1.85,2.4,894,849
311,-1.84,2,895,853
312,-1.83,1.6,898,851
313,-1.83,1.6,897,848
314,-1.88,1.2,894,854
315,-1.88,0.7,894,860
316,-1.87,0.7,895,854
317,-1.87,0.7,893,839
318,-1.84,0.3,891,845
319,-1.84,1.2,894,852
320,-1.84,1.2,897,855
321,-1.84,1.2,893,844
322,-1.83,1.2,894,842
323,-1.83,0.8,892,845
324,-1.81,0.8,893,840
325,-1.75,1.2,899,844
326,-1.75,1.2,898,852
327,-1.75,7.2,896,847
328,-1.75,1.6,899,858
329,-1.76,1.2,892,860
330,-1.77,1.6,894,862
331,-1.77,1.6,893,860
332,-1.77,1.6,891,861
333,-1.78,1.8,889,862
334,-1.78,2,891,857
335,-1.8,2,888,860
336,-1.81,2,883,854
337,-1.81,2,877,831
338,-1.8,2,888,839
339,-1.78,2,888,842
340,-1.78,2,884,845
341,-1.8,2,884,846
342,-1.81,2,882,853
343,-1.84,2,885,849
344,-1.84,2,889,833
345,-1.81,1.6,887,838
346,-1.82,1.6,886,838
347,-1.82,1.4,889,839
348,-1.82,1.2,891,840
349,-1.85,0.8,888,841
350,-1.82,0.4,894,831
351,-1.82,0.4,899,834
352,-1.84,0,887,838
353,-1.86,0,883,842
354,-1.86,0,886,843
355,-1.86,0,891,850
356,-1.88,0,896,844
357,-1.88,0,891,846
358,-1.88,0,892,825
359,-1.88,0,892,840
360,-1.9,0,890,849
361,-1.9,0,893,855
362,-1.89,0,894,857
363,-1.88,0,894,848
364,-1.88,0,894,838
365,-1.88,0,894,840
366,-1.91,0,890,844
367,-1.91,0,892,839
368,-1.88,0,894,842
369,-1.9,0,887,848
370,-1.9,5.3,886,849
371,-1.9,0,893,853
372,-1.9,0,893,853
373,-1.9,0,894,856
374,-1.9,0,893,852
375,-1.9,0,891,848
376,-1.91,0,887,845
377,-1.93,0,888,840
378,-1.93,0,895,846
379,-1.93,0,899,838
380,-1.95,0,901,852
381,-1.92,0,901,856
382,-1.92,0,901,849
383,-1.94,0,896,849
384,-1.94,0,893,852
385,-1.95,0,894,855
386,-1.95,0,891,846
387,-1.95,0,889,843
388,-1.95,0,886,851
389,-1.92,0,885,840
390,-1.92,0,888,844
391,-1.92,0.4,890,847
392,-1.91,0.4,887,854
393,-1.95,0.4,889,852
394,-1.96,0.8,881,852
395,-1.98,0.8,886,846
396,-1.98,0.8,889,849
397,-1.98,0.8,890,851
398,-1.97,0.8,891,848
399,-1.96,0.4,888,839
400,-1.96,0.4,898,835
401,-1.97,0.4,898,846
402,-1.97,0,897,837
403,-1.97,0,899,834
404,-2,0,897,829
405,-1.98,0,892,837
406,-1.98,0,894,832
407,-1.99,0,901,820
408,-2.01,0,902,836
409,-2.01,0,896,840
410,-2.04,0,889,831
411,-2.07,0,889,845
412,-2.07,5.3,886,850
413,-2.07,0,885,845
414,-2.06,0,893,841
415,-2.05,0,890,838
416,-2.05,0,887,847
417,-2.05,0,883,840
418,-2.06,0,886,835
419,-2.06,0,894,839
420,-2.03,0,893,851
421,-2.02,0,895,851
422,-2.02,0,895,851
423,-2.02,0,891,843
424,-2.06,0,895,853
425,-2.06,0,892,849
426,-2.04,0,890,852
427,-2.07,0,890,849
428,-2.06,0,883,851
429,-2.06,0,882,850
430,-2.03,0,889,843
431,-2.06,0,892,837
432,-2.06,0,893,835
433,-2.06,0,894,833
434,-2.09,0,891,845
435,-2.07,0,893,851
436,-2.08,0,898,839
437,-2.1,0,901,853
438,-2.1,0,901,846
439,-2.09,0,902,851
440,-2.09,0,901,857
441,-2.11,0,905,860
442,-2.11,0,903,857
443,-2.11,0,901,852
444,-2.1,0,898,857
445,-2.11,0,896,848
446,-2.11,0,887,845
447,-2.11,0.4,883,847
448,-2.09,0.8,882,857
449,-2.1,0.8,880,856
450,-2.1,0.8,876,856
451,-2.1,0.8,877,850
452,-2.06,0.8,879,858
453,-2.09,0.4,883,855
454,-2.09,0.8,890,853
455,-2.09,0.4,890,851
456,-2.06,0,889,851
457,-2.06,0,896,845
458,-2.09,0,889,843
459,-2.09,0,888,848
460,-2.09,0,893,849
461,-2.1,0,896,841
462,-2.07,0,895,844
463,-2.07,5.7,892,845
464,-2.08,0,892,835
465,-2.09,0,896,833
466,-2.1,0,901,846
467,-2.1,0,902,844
468,-2.11,0,897,848
469,-2.06,0,898,840
470,-2.06,0,898,851
471,-2.09,0,896,844
472,-2.06,0,886,852
473,-2.06,0,886,851
474,-2.07,0,892,855
475,-2.09,0,895,861
476,-2.07,0,887,865
477,-2.07,0,888,861
478,-2.05,0,892,852
479,-2.07,0,893,845
480,-2.07,0,891,830
481,-2.08,0,890,844
482,-2.1,0,891,840
483,-2.1,0,895,829
484,-2.1,0,898,817
485,-2.1,0,899,832
486,-2.1,0,902,837
487,-2.11,0,900,834
488,-2.11,0,896,855
489,-2.11,0,890,854
490,-2.09,0,886,840
491,-2.07,0,892,845
492,-2.09,0,895,847
493,-2.09,0,896,834
494,-2.06,0,898,845
495,-2.03,0,899,849
496,-2.03,0,896,850
497,-2.04,0.4,897,847
498,-2.09,0.4,902,835
499,-2.07,0.9,904,847
500,-2.07,0.9,897,858
501,-2.08,0.9,899,851
502,-2.08,0.9,897,844
503,-2.08,0.9,887,846
504,-2.06,6.2,883,858
505,-2.08,0.9,887,851
506,-2.07,0.9,884,861
507,-2.07,0.4,881,854
508,-2.03,0.4,881,854
509,-2.03,0.4,885,851
510,-2.02,0,887,851
511,-2.02,0,894,852