File: PMMA/Calibration_Data/DBI-Lund/DBI-Lund_Cone_50kW_1.csv
Time,Mass,HRR,Back Surface Temperature 1
[s],[g],[kW/m2],[K]
0,73.92,1.9288,297.256
1,73.914,1.75833,297.249
2,73.8672,1.49626,297.25
3,74.0075,1.43435,297.224
4,74.08865,0.910551,297.185
5,74.0844,0.367887,297.12
6,74.0261,0.250522,297.092
7,73.9816,0.265601,297.066
8,73.9532,0.265585,297.017
9,73.7345,0.291193,296.944
10,73.6345,0.310308,296.934
11,73.6119,0.34117,296.912
12,73.5971,0.462362,296.902
13,73.5956,0.523299,296.887
14,73.5872,0.599139,296.835
15,73.5586,0.694749,296.81
16,73.5479,0.708425,296.807
17,73.5513,0.510188,296.816
18,73.5488,0.339581,296.823
19,73.5423,0.303651,296.833
20,73.5464,0.237368,296.9
21,73.5517,0.229321,297.013
22,73.5526,0.251508,297.055
23,73.5359,-0.227056,297.102
24,73.5094,-0.624896,297.366
25,73.5013,4.99805,297.5
26,73.4673,8.66409,297.675
27,73.4113,40.8474,297.87
28,73.3793,105.754,297.921
29,73.3707,135.603,298.32
30,73.4569,183.52,298.898
31,73.508,268.287,299.095
32,73.4178,291.202,299.467
33,73.2542,323.065,300.09
34,73.0608,384.346,300.343
35,72.8286,407.749,300.8
36,72.6375,433.97,301.584
37,72.4634,475.175,302.434
38,72.2584,474.737,302.831
39,72.0521,482.565,303.433
40,71.8468,511.746,304.403
41,71.6105,520.974,304.795
42,71.37251,510.852,305.502
43,71.1527,522.704,306.636
44,70.927,545.921,307.109
45,70.6873,560.456,307.981
46,70.4392,552.044,309.311
47,70.2141,551.176,309.77
48,69.9877,564.705,310.437
49,69.7381,566.508,311.864
50,69.4945,569.339,312.56
51,69.2485,566.319,313.465
52,69.0108,578.722,314.984
53,68.7784,592.883,315.614
54,68.558,600.669,316.508
55,68.3298,581.212,318.076
56,68.06961,564.71,319.777
57,67.8107,579.602,320.426
58,67.5619,590.203,321.411
59,67.3159,614.525,323.08
60,67.0602,641.099,323.775
61,66.8038,635.881,324.872
62,66.5627,635.255,326.693
63,66.3191,644.207,327.41
64,66.0624,646.332,328.553
65,65.8033,631.212,330.258
66,65.5258,620.267,330.966
67,65.24829,617.764,332.018
68,64.99353,616.206,333.93
69,64.7294,616.152,334.771
70,64.459,627.208,335.835
71,64.2094,625.248,337.759
72,63.9549,632.365,339.63
73,63.6717,642.647,340.425
74,63.4068,647.686,341.621
75,63.1375,643.146,343.493
76,62.8667,640.388,344.18
77,62.5883,637.256,345.2
78,62.327,629.848,346.969
79,62.06922,627.567,347.719
80,61.7883,654.839,348.801
81,61.5207,654.599,350.539
82,61.2361,646.159,351.264
83,60.9412,666.512,352.297
84,60.6508,667.922,354.045
85,60.3535,663.442,354.838
86,60.0802,691.022,355.875
87,59.82783,690.694,357.705
88,59.5447,677.923,359.519
89,59.25803,669.35,360.294
90,58.9917,660.305,361.398
91,58.7166,698.511,363.289
92,58.4347,728.922,364.068
93,58.1282,715.612,365.094
94,57.8198,700.313,366.974
95,57.5506,709.036,367.689
96,57.28225,683.247,368.763
97,56.9861,685.462,370.526
98,56.6792,703.426,371.304
99,56.3792,680.221,372.21
100,56.0755,678.717,373.839
101,55.7504,692.198,374.547
102,55.4688,692.496,375.514
103,55.2168,699.044,377.161
104,54.92018,706.395,378.772
105,54.62,693.978,379.454
106,54.3091,706.085,380.319
107,53.9795,735.941,381.919
108,53.6844,750.12,382.617
109,53.4052,753.151,382.712
110,53.0182,725.32,385.445
111,52.7533,704.405,386.245
112,52.4341,706.245,387.333
113,52.1281,719,389.139
114,51.83776,727.385,389.784
115,51.5626,729.881,390.439
116,51.292,733.783,391.65
117,50.8992,729.267,393.341
118,50.6189,738.756,394.361
119,50.3134,725.137,396.204
120,50.0061,707.596,398.114
121,49.7,704.298,398.875
122,49.3711,712.397,399.95
123,49.0277,732.006,401.888
124,48.73921,744.651,402.618
125,48.476,752.188,403.712
126,48.1894,751.285,405.541
127,47.895,750.454,406.358
128,47.5906,743.724,407.408
129,47.2718,761.252,409.38
130,46.9625,780.933,410.169
131,46.6535,795.75,411.248
132,46.3411,760.393,412.987
133,46.0336,729.603,413.76
134,45.7372,750.117,414.875
135,45.4437,771.212,416.641
136,45.1194,782.781,418.372
137,44.7871,783.309,419.136
138,44.4549,744.96,420.096
139,44.1228,733.507,421.85
140,43.799,747.926,422.633
141,43.4671,755.969,423.668
142,43.133,781.676,425.351
143,42.7878,796.129,425.976
144,42.4644,785.256,426.965
145,42.1567,783.926,428.634
146,41.8393,795.967,429.385
147,41.49831,803.945,430.368
148,41.1645,829.706,432.102
149,40.8195,850.571,432.882
150,40.4838,813.181,433.866
151,40.1421,770.849,435.602
152,39.7937,763.641,436.401
153,39.4996,774.786,437.52
154,39.1955,785.433,439.344
155,38.8608,800.225,441.141
156,38.5268,809.036,441.927
157,38.198,821.821,442.98
158,37.8743,818.323,444.85
159,37.5456,811.426,445.551
160,37.1941,831.255,446.639
161,36.814,830.616,448.539
162,36.4627,821.212,449.337
163,36.1489,823.452,450.36
164,35.8181,810.275,452.145
165,35.4602,802.216,452.926
166,35.1145,829.338,453.925
167,34.7743,825.042,455.669
168,34.4195,805.636,456.465
169,34.046,837.122,457.4
170,33.6873,858.165,459.092
171,33.3679,863.984,460.789
172,33.0327,893.035,461.541
173,32.693,880.546,462.567
174,32.3651,850.123,464.233
175,32.0263,844.683,464.939
176,31.6775,869.216,465.83
177,31.316,888.955,467.511
178,30.9424,892.692,468.311
179,30.585,895.426,469.255
180,30.218,881.59,471.039
181,29.85662,872.701,471.826
182,29.51413,871.132,472.784
183,29.1626,885.794,474.542
184,28.7794,901.526,475.363
185,28.4047,902.786,476.366
186,28.0398,903.499,478.188
187,27.6469,909.846,480.047
188,27.2771,884.551,480.912
189,26.9176,926.079,481.901
190,26.536,946.175,483.85
191,26.1767,919.144,484.747
192,25.7854,926.722,485.871
193,25.3735,926.356,487.924
194,24.9823,925.205,488.868
195,24.6108,910.272,490.03
196,24.2379,924.204,492.177
197,23.8354,951.316,493.18
198,23.4458,923.715,494.405
199,23.07534,941.679,496.705
200,22.6948,981.751,497.767
201,22.3002,933.651,499.109
202,21.8995,890.513,501.592
203,21.5172,890.877,504.094
204,21.1387,921.576,505.214
205,20.7505,944.943,506.758
206,20.3707,954.889,509.532
207,19.9785,962.338,510.799
208,19.578,942.421,512.468
209,19.1909,989.99,515.569
210,18.8144,1043.62,516.937
211,18.434,991.138,518.867
212,18.0591,945.251,521.913
213,17.67417,953.922,524.45
214,17.1767,992.137,526.066
215,16.8881,1051.24,528.993
216,16.2824,961.441,534.373
217,15.9419,993.213,537.562
218,15.5413,1001.68,543.647
219,15.1183,1000.29,546.495
220,14.6936,1031.75,550.043
221,14.2805,1063.36,556.263
222,13.8549,1013.65,562.351
223,13.4066,961.272,565.064
224,12.9776,1002.25,568.446
225,12.5459,1056.31,574.611
226,12.0821,1078.16,577.461
227,11.6203,1031.1,580.587
228,11.2018,1123.23,586.264
229,10.7867,1236.88,588.813
230,10.3471,1151.06,591.894
231,9.894865,1064.79,597.594
232,9.42643,1070.73,600.093
233,8.935844,1161.8,603.217
234,8.448062,1211.11,609.297
235,7.995606,1215.2,612.156
236,7.528164,1155.08,615.43
237,7.042406,1144.91,621.285
238,6.558101,1196.86,625.846
239,6.079651,1204.09,627.459
240,5.590996,1227.56,629.181
241,5.071481,1208.52,632.486
242,4.577536,1160.38,633.973
243,4.110958,1125.01,636.466
244,3.646769,1065.5,641.672
245,3.212027,993.883,644.328
246,2.793928,965.922,648.452
247,2.382765,1051.97,657.303
248,1.992321,1068.89,661.812
249,1.602933,961.13,669.277
250,1.250223,876.851,686.059
251,0.954459,791.056,694.428
252,0.676034,722.208,709.193
253,0.413272,659.115,742.869
254,0.177593,559.775,788.96
255,-0.038036,522.325,811.861
256,-0.218755,492.686,836.924
257,-0.374396,417.815,898.345
258,-0.535851,342.221,931.806
259,-0.681606,318.018,959.855
260,-0.785713,298.124,1012.86
261,-0.852646,252.959,1037.028
262,-0.910645,238.071,1038.249
263,-0.977271,225.232,1029.904
264,-1.040734,191.135,1022.36
265,-1.101084,174.544,1008.764
266,-1.177744,162.069,983.205
267,-1.24341,141.323,971.675
268,-1.270172,133.006,961.373
269,-1.308224,126.167,945.707
270,-1.359586,113.299,934.83
271,-1.388136,108.056,930.861
272,-1.412449,103.022,926.27
273,-1.456892,91.0353,912.537
274,-1.497391,84.777,904.55
275,-1.51313,81.2639,894.819
276,-1.503216,73.2767,873.282
277,-1.512604,65.2705,862.015
278,-1.550298,62.9003,855.465
279,-1.584694,60.0889,844.489
280,-1.611905,54.8205,840.081
281,-1.619142,52.6219,832.29
282,-1.615464,50.2791,822.934
283,-1.62703,46.5258,820.328
284,-1.664653,45.2149,817.946
285,-1.701539,43.2442,811.287
286,-1.742804,38.6362,807.416
287,-1.770314,36.1336,802.744
288,-1.762069,34.1333,798.943
289,-1.751356,30.6536,794.407
290,-1.755956,28.763,790.677
291,-1.746849,26.7137,791.272
292,-1.74385,23.9551,787.976
293,-1.777355,21.4776,784.909
294,-1.808529,20.3936,785.141
295,-1.788354,19.3601,783.762
296,-1.777502,17.4354,782.424
297,-1.805704,16.6577,780.431
298,-1.829635,15.3446,776.536
299,-1.841388,13.3778,774.682
300,-1.839586,12.8316,772.56
301,-1.83768,12.4445,769.557
302,-1.843225,11.0091,768.514
303,-1.850852,10.1947,764.413
304,-1.842751,9.48345,762.6
305,-1.841632,8.25331,763.086
306,-1.989287,7.63964,762.217
307,-2.236931,6.97896,762.179
308,-2.374,5.949,761.776
309,-2.454884,5.57244,761.458
310,-2.351126,4.87468,758.889
311,-2.025555,4.29198,757.155
312,-1.823225,4.32897,757.53
313,-1.807577,4.32403,758.727
314,-1.824255,4.02523,759.182
315,-1.841122,3.82,758.61
316,-1.846092,3.79627,758.929
317,-1.826256,3.78581,758.405
318,-1.810715,3.70657,757.741
319,-1.804156,3.60027,759.437
320,-1.816982,3.60412,759.228
321,-1.836631,3.55107,757.771
322,-1.86361,3.49649,757.648
323,-1.889469,3.83216,761.149
324,-1.878375,3.83732,764.641
325,-1.849227,3.68538,765.168
326,-1.851295,3.44382,764.685
327,-1.875697,3.13217,764.821
328,-1.876951,3.04744,765.201
329,-1.884081,3.04421,767.053
330,-1.903617,2.63059,769.694
331,-1.902044,2.52646,770.777
332,-1.890118,2.69451,770.271
333,-1.887,2.61335,768.651
334,-1.903169,2.43147,767.683
335,-1.929645,2.37891,765.435
336,-1.934139,1.96474,762.101
337,-1.920919,1.6561,760.869
338,-1.912895,1.69966,761.542
339,-1.910805,1.84494,762.013
340,-1.908897,1.76551,763.668
341,-1.91868,1.63965,765.011
342,-1.934417,1.638,764.543
343,-1.929295,1.60775,765.438
344,-1.91,1.17186,767.529
345,-1.897137,0.847746,768.322
346,-1.90368,1.00275,767.214
347,-1.910859,1.17347,765.914
348,-1.920423,1.1939,763.634
349,-1.94996,0.613195,760.391
350,-1.967344,0.555078,759.176
351,-1.954375,0.848385,757.164
352,-1.941051,1.05138,755.473
353,-1.936872,1.57547,755.419