File: PMMA/Calibration_Data/DBI-Lund/DBI-Lund_TGA_N2_20K_1.csv
Time,Temperature,Mass
[s],[K],[mg]
0,299.357,5.80E+00
2,299.346,5.79E+00
4,299.342,5.79E+00
6,299.339,5.79E+00
8,299.34,5.79E+00
10,299.351,5.79E+00
12,299.37,5.79E+00
14,299.402,5.79E+00
16,299.447,5.79E+00
18,299.514,5.80E+00
20,299.605,5.79E+00
22,299.719,5.79E+00
24,299.862,5.79E+00
26,300.0319,5.79E+00
28,300.234,5.79E+00
30,300.466,5.79E+00
32,300.733,5.79E+00
34,301.038,5.79E+00
36,301.376,5.79E+00
38,301.751,5.79E+00
40,302.1607,5.79312
42,302.61,5.79301
44,303.0933,5.80056
46,303.61,5.808
48,304.16,5.80721
50,304.741,5.80597
52,305.356,5.80428
54,305.996,5.78072
56,306.665,5.76967
58,307.355,5.77125
60,308.067,5.77891
62,308.8038,5.78545
64,309.56,5.7876
66,310.336,5.79334
68,311.128,5.79436
70,311.936,5.79278
72,312.757,5.78895
74,313.589,5.78816
76,314.427,5.78827
78,315.274,5.79097
80,316.128,5.79459
82,316.989,5.79414
84,317.855,5.79368
86,318.7227,5.792
88,319.593,5.79413
90,320.463,5.79424
92,321.332,5.79368
94,322.199,5.79165
96,323.068,5.78815
98,323.936,5.78376
100,324.8,5.7823
102,325.66,5.78545
104,326.515,5.78737
106,327.366,5.78444
108,328.211,5.78444
110,329.049,5.78444
112,329.8822,5.78704
114,330.714,5.78861
116,331.54,5.78928
118,332.361,5.78996
120,333.177,5.79131
122,333.989,5.78804
124,334.795,5.7894
126,335.591,5.78861
128,336.385,5.78342
130,337.175,5.78501
132,337.9627,5.78568
134,338.743,5.78354
136,339.516,5.78252
138,340.284,5.7841
140,341.048,5.78444
142,341.813,5.78219
144,342.574,5.78084
146,343.329,5.78084
148,344.0748,5.78084
150,344.819,5.78038
152,345.561,5.78072
154,346.301,5.78264
156,347.038,5.78332
158,347.772,5.78422
160,348.506,5.77948
162,349.234,5.77463
164,349.96,5.77475
166,350.682,5.78061
168,351.404,5.78229
170,352.124,5.78263
172,352.843,5.77993
174,353.563,5.78083
176,354.2821,5.78184
178,355.0008,5.78218
180,355.716,5.78218
182,356.433,5.78218
184,357.15,5.78218
186,357.867,5.77948
188,358.582,5.77767
190,359.295,5.77587
192,360.01,5.77587
194,360.726,5.77689
196,361.442,5.77925
198,362.1589,5.78094
200,362.876,5.78027
202,363.596,5.78061
204,364.313,5.77903
206,365.029,5.77802
208,365.741,5.77959
210,366.458,5.77993
212,367.1729,5.77892
214,367.892,5.77892
216,368.606,5.77745
218,369.3212,5.7761
220,370.034,5.77813
222,370.748,5.7788
224,371.464,5.78016
226,372.18,5.78016
228,372.894,5.7788
230,373.605,5.77914
232,374.312,5.78038
234,375.0222,5.78038
236,375.731,5.78038
238,376.44,5.7788
240,377.147,5.77722
242,377.851,5.77587
244,378.552,5.77587
246,379.252,5.77722
248,379.952,5.77722
250,380.652,5.77903
252,381.349,5.78026
254,382.045,5.78026
256,382.738,5.77768
258,383.429,5.77519
260,384.117,5.77519
262,384.806,5.77881
264,385.491,5.78117
266,386.177,5.78151
268,386.862,5.77982
270,387.55,5.77835
272,388.238,5.77733
274,388.923,5.78162
276,389.606,5.78501
278,390.292,5.78467
280,390.974,5.78399
282,391.656,5.78467
284,392.332,5.77914
286,393.007,5.76776
288,393.677,5.7717
290,394.347,5.77069
292,395.02,5.77317
294,395.696,5.77159
296,396.3749,5.77057
298,397.051,5.76989
300,397.725,5.77147
302,398.395,5.77407
304,399.069,5.77745
306,399.742,5.77925
308,400.418,5.77598
310,401.0903,5.77316
312,401.762,5.77452
314,402.433,5.77588
316,403.105,5.77689
318,403.777,5.77543
320,404.449,5.77261
322,405.1182,5.76956
324,405.786,5.76753
326,406.457,5.77114
328,407.129,5.77317
330,407.802,5.77474
332,408.474,5.78038
334,409.147,5.79008
336,409.818,5.78929
338,410.485,5.77723
340,411.152,5.7619
342,411.8182,5.75468
344,412.489,5.75806
346,413.162,5.76561
348,413.8328,5.76888
350,414.503,5.77114
352,415.172,5.77136
354,415.842,5.769
356,416.51,5.77249
358,417.179,5.77024
360,417.849,5.76392
362,418.52,5.76077
364,419.19,5.76156
366,419.862,5.76223
368,420.533,5.76302
370,421.202,5.76573
372,421.869,5.7664
374,422.539,5.76482
376,423.2107,5.76279
378,423.882,5.76121
380,424.551,5.75964
382,425.22,5.75828
384,425.8872,5.75964
386,426.555,5.75964
388,427.222,5.75964
390,427.889,5.75931
392,428.556,5.75829
394,429.2232,5.75659
396,429.891,5.75794
398,430.562,5.7593
400,431.23,5.75987
402,431.9002,5.76189
404,432.564,5.76347
406,433.233,5.76144
408,433.897,5.75614
410,434.561,5.75479
412,435.224,5.75704
414,435.888,5.75704
416,436.5511,5.75423
418,437.214,5.75243
420,437.879,5.75096
422,438.544,5.75119
424,439.208,5.75187
426,439.872,5.75187
428,440.536,5.75029
430,441.201,5.75029
432,441.865,5.75029
434,442.529,5.74871
436,443.192,5.74871
438,443.855,5.74871
440,444.518,5.74735
442,445.182,5.74735
444,445.848,5.74983
446,446.514,5.75017
448,447.177,5.74577
450,447.84,5.74239
452,448.502,5.74318
454,449.165,5.74589
456,449.829,5.74589
458,450.492,5.74409
460,451.156,5.73766
462,451.8201,5.73202
464,452.484,5.73202
466,453.1489,5.73462
468,453.815,5.73687
470,454.482,5.73867
472,455.147,5.74679
474,455.812,5.75085
476,456.477,5.7389
478,457.142,5.73642
480,457.807,5.73146
482,458.471,5.71985
484,459.138,5.71917
486,459.806,5.72188
488,460.474,5.71906
490,461.141,5.71568
492,461.809,5.71421
494,462.477,5.71297
496,463.146,5.71409
498,463.814,5.71612
500,464.483,5.71613
502,465.1501,5.7168
504,465.818,5.71827
506,466.488,5.71895
508,467.157,5.71962
510,467.825,5.71884
512,468.492,5.71579
514,469.16,5.70486
516,469.828,5.69854
518,470.494,5.70057
520,471.162,5.70124
522,471.827,5.70125
524,472.494,5.69967
526,473.16,5.69764
528,473.8322,5.69764
530,474.5011,5.699
532,475.169,5.699
534,475.833,5.69764
536,476.5,5.69505
538,477.169,5.69505
540,477.835,5.6928
542,478.4998,5.68874
544,479.162,5.68479
546,479.83,5.68468
548,480.498,5.69178
550,481.168,5.68738
552,481.832,5.67679
554,482.497,5.66833
556,483.161,5.66541
558,483.826,5.67048
560,484.494,5.67386
562,485.162,5.67318
564,485.83,5.67318
566,486.495,5.6742
568,487.163,5.67059
570,487.83,5.66867
572,488.498,5.66788
574,489.166,5.67476
576,489.831,5.67183
578,490.497,5.65864
580,491.163,5.64748
582,491.829,5.63914
584,492.498,5.64116
586,493.165,5.64252
588,493.834,5.64432
590,494.5,5.64511
592,495.164,5.64444
594,495.828,5.64309
596,496.4931,5.64241
598,497.158,5.63801
600,497.824,5.63598
602,498.491,5.63136
604,499.155,5.62742
606,499.82,5.62539
608,500.483,5.62325
610,501.147,5.61908
612,501.813,5.61569
614,502.478,5.61569
616,503.144,5.61727
618,503.809,5.61885
620,504.474,5.61693
622,505.137,5.61569
624,505.801,5.61422
626,506.466,5.61558
628,507.132,5.6114
630,507.801,5.60622
632,508.469,5.60623
634,509.137,5.60363
636,509.802,5.59856
638,510.467,5.59856
640,511.13,5.60138
642,511.792,5.60227
644,512.4589,5.6016
646,513.125,5.59867
648,513.789,5.59427
650,514.45,5.59111
652,515.117,5.5945
654,515.784,5.59698
656,516.454,5.59698
658,517.12,5.59698
660,517.7878,5.59698
662,518.4532,5.59698
664,519.117,5.59517
666,519.782,5.59359
668,520.4479,5.59134
670,521.114,5.58841
672,521.78,5.58841
674,522.446,5.58774
676,523.112,5.58852
678,523.7788,5.58852
680,524.447,5.58774
682,525.1143,5.5857
684,525.781,5.58255
686,526.445,5.58255
688,527.108,5.58514
690,527.773,5.58514
692,528.44,5.58063
694,529.1067,5.57939
696,529.772,5.5777
698,530.438,5.57579
700,531.106,5.57444
702,531.775,5.57579
704,532.443,5.57579
706,533.112,5.57613
708,533.779,5.57714
710,534.444,5.57613
712,535.108,5.57477
714,535.774,5.57364
716,536.44,5.5706
718,537.108,5.5662
720,537.777,5.56564
722,538.447,5.56632
724,539.116,5.56722
726,539.784,5.56869
728,540.454,5.56677
730,541.126,5.56407
732,541.7973,5.56181
734,542.469,5.55989
736,543.138,5.55538
738,543.808,5.55358
740,544.482,5.55358
742,545.156,5.55346
744,545.832,5.55346
746,546.504,5.55211
748,547.174,5.55211
750,547.844,5.54918
752,548.514,5.54783
754,549.185,5.54625
756,549.856,5.544
758,550.527,5.54208
760,551.1979,5.53983
762,551.868,5.53757
764,552.538,5.53352
766,553.208,5.52969
768,553.878,5.53126
770,554.5457,5.53453
772,555.211,5.53216
774,555.877,5.5228
776,556.544,5.51942
778,557.212,5.51807
780,557.879,5.51627
782,558.5461,5.51323
784,559.213,5.51548
786,559.878,5.51751
788,560.542,5.51097
790,561.207,5.50184
792,561.872,5.49801
794,562.539,5.49418
796,563.205,5.49034
798,563.869,5.49136
800,564.533,5.49136
802,565.197,5.48798
804,565.862,5.48268
806,566.525,5.47399
808,567.188,5.46531
810,567.847,5.4625
812,568.508,5.46566
814,569.169,5.46397
816,569.832,5.46104
818,570.496,5.45066
820,571.1572,5.44378
822,571.819,5.43972
824,572.478,5.43499
826,573.138,5.43285
828,573.799,5.43138
830,574.462,5.42778
832,575.123,5.42676
834,575.785,5.4253
836,576.4488,5.41605
838,577.112,5.40906
840,577.775,5.40523
842,578.433,5.3961
844,579.093,5.38708
846,579.755,5.3837
848,580.419,5.37626
850,581.081,5.3695
852,581.742,5.36758
854,582.404,5.36375
856,583.0662,5.36082
858,583.728,5.35846
860,584.389,5.35361
862,585.052,5.35079
864,585.713,5.3474
866,586.378,5.33918
868,587.041,5.32835
870,587.703,5.31946
872,588.365,5.31055
874,589.026,5.30514
876,589.687,5.30232
878,590.348,5.29905
880,591.012,5.28992
882,591.6778,5.28135
884,592.343,5.27323
886,593.008,5.26467
888,593.671,5.26309
890,594.337,5.26151
892,595.004,5.25971
894,595.671,5.2508
896,596.336,5.23716
898,597.001,5.22104
900,597.668,5.21113
902,598.335,5.20278
904,599.002,5.19489
906,599.672,5.18316
908,600.339,5.17212
910,601.005,5.16829
912,601.669,5.15814
914,602.334,5.14496
916,602.999,5.13312
918,603.664,5.11644
920,604.332,5.10437
922,604.998,5.09073
924,605.663,5.07405
926,606.326,5.06356
928,606.992,5.05319
930,607.658,5.03944
932,608.325,5.02874
934,608.99,5.01938
936,609.657,5.00755
938,610.3238,4.97914
940,610.991,4.95569
942,611.658,4.92965
944,612.3227,4.90902
946,612.988,4.89302
948,613.65,4.87791
950,614.314,4.86033
952,614.978,4.84127
954,615.646,4.81738
956,616.3129,4.79269
958,616.978,4.77082
960,617.6436,4.75064
962,618.308,4.73238
964,618.974,4.69541
966,619.638,4.651
968,620.303,4.62371
970,620.967,4.597
972,621.633,4.57378
974,622.299,4.54921
976,622.963,4.52181
978,623.624,4.48698
980,624.2852,4.45057
982,624.947,4.41574
984,625.609,4.37843
986,626.272,4.33908
988,626.935,4.30436
990,627.6,4.27055
992,628.263,4.23031
994,628.927,4.19199
996,629.591,4.15208
998,630.255,4.10834
1000,630.92,4.06708
1002,631.582,4.02109
1004,632.249,3.97375
1006,632.909,3.92708
1008,633.5722,3.88289
1010,634.233,3.83645
1012,634.897,3.78527
1014,635.561,3.7359
1016,636.225,3.68844
1018,636.889,3.63422
1020,637.555,3.58237
1022,638.22,3.53175
1024,638.885,3.47686
1026,639.548,3.42342
1028,640.211,3.36481
1030,640.877,3.30991
1032,641.542,3.26166
1034,642.21,3.21004
1036,642.874,3.14748
1038,643.54,3.08436
1040,644.207,3.02867
1042,644.8733,2.97152
1044,645.542,2.91369
1046,646.207,2.8544
1048,646.875,2.79319
1050,647.54,2.73491
1052,648.209,2.6817
1054,648.878,2.62038
1056,649.547,2.56108
1058,650.213,2.50529
1060,650.882,2.44555
1062,651.553,2.38738
1064,652.2253,2.33282
1066,652.895,2.27522
1068,653.564,2.21807
1070,654.234,2.16047
1072,654.9029,2.09993
1074,655.574,2.03794
1076,656.244,1.98552
1078,656.915,1.93773
1080,657.5868,1.88813
1082,658.257,1.82951
1084,658.928,1.76999
1086,659.597,1.71058
1088,660.269,1.65625
1090,660.9393,1.5991
1092,661.612,1.54397
1094,662.281,1.48942
1096,662.951,1.43486
1098,663.617,1.37973
1100,664.287,1.32056
1102,664.956,1.26622
1104,665.6252,1.21595
1106,666.2939,1.16105
1108,666.968,1.10976
1110,667.641,1.05814
1112,668.3131,1.00876
1114,668.984,0.96141
1116,669.652,0.91385
1118,670.322,0.86763
1120,670.991,0.8278398
1122,671.661,0.7872601
1124,672.332,0.74746
1126,673.002,0.70576
1128,673.673,0.67047
1130,674.344,0.63429
1132,675.015,0.59901
1134,675.687,0.56711
1136,676.358,0.536
1138,677.028,0.50331
1140,677.698,0.47118
1142,678.368,0.44198
1144,679.037,0.41639
1146,679.705,0.39407
1148,680.375,0.37074
1150,681.044,0.34278
1152,681.711,0.3203601
1154,682.379,0.30119
1156,683.046,0.2836
1158,683.716,0.26422
1160,684.386,0.24799
1162,685.058,0.2341199
1164,685.7277,0.22037
1166,686.396,0.20808
1168,687.062,0.195
1170,687.731,0.1817
1172,688.4,0.17258
1174,689.0669,0.1662599
1176,689.732,0.15588
1178,690.398,0.14349
1180,691.063,0.13774
1182,691.726,0.12996
1184,692.388,0.1179
1186,693.05,0.11102
1188,693.715,0.10618
1190,694.382,0.09478998
1192,695.0481,0.08498972
1194,695.713,0.08442016
1196,696.381,0.07912012
1198,697.0497,0.07201976
1200,697.723,0.06852004
1202,698.395,0.06785014
1204,699.067,0.06954026
1206,699.735,0.06954026
1208,700.403,0.06570994
1210,701.07,0.05916986
1212,701.7349,0.05511972
1214,702.4,0.05589982
1216,703.0639,0.05297024
1218,703.728,0.05094024
1220,704.392,0.04935974
1222,705.057,0.04698986
1224,705.718,0.04925012
1226,706.378,0.04722998
1228,707.037,0.03910998
1230,707.697,0.03325024
1232,708.353,0.0345999
1234,709.013,0.0345999
1236,709.672,0.03278972
1238,710.332,0.03392014
1240,710.989,0.03561026
1242,711.6481,0.03707998
1244,712.308,0.03798014
1246,712.9661,0.03369974
1248,713.626,0.02929986
1250,714.285,0.02783014
1252,714.946,0.02783014
1254,715.606,0.02648976
1256,716.267,0.02614988
1258,716.9291,0.02614988
1260,717.591,0.02478978
1262,718.253,0.02637028
1264,718.914,0.02929
1266,719.576,0.02726986
1268,720.238,0.02263972
1270,720.902,0.02231028
1272,721.567,0.0238902
1274,722.233,0.02771994
1276,722.898,0.03189014
1278,723.563,0.02681978
1280,724.225,0.01971014
1282,724.891,0.01892018
1284,725.558,0.02365994
1286,726.226,0.02535006
1288,726.893,0.02378
1290,727.559,0.02220008
1292,728.226,0.02568994
1294,728.894,0.02568994
1296,729.56,0.02568994
1298,730.229,0.02568994
1300,730.895,0.0238902
1302,731.5641,0.02129992
1304,732.232,0.02072978
1306,732.9,0.02072978
1308,733.569,0.02275978
1310,734.237,0.0244499
1312,734.906,0.02377014
1314,735.574,0.02377014
1316,736.244,0.02196982
1318,736.912,0.0203899
1320,737.58,0.01904024
1322,738.245,0.01769
1324,738.9122,0.01769
1326,739.581,0.02107024
1328,740.25,0.02208002
1330,740.919,0.02208002
1332,741.588,0.02129006
1334,742.257,0.01701024
1336,742.926,0.01701024
1338,743.595,0.01666978
1340,744.267,0.01735012
1342,744.935,0.02151974
1344,745.603,0.02242976
1346,746.269,0.0183599
1348,746.937,0.01587982
1350,747.604,0.0157702
1352,748.271,0.0157702
1354,748.939,0.01926992
1356,749.6069,0.02535006
1358,750.273,0.02716024
1360,750.94,0.02084984
1362,751.606,0.01701024
1364,752.273,0.01792026
1366,752.938,0.02208002
1368,753.601,0.02547012
1370,754.264,0.0224199
1372,754.93,0.01881984
1374,755.6001,0.01599988
1376,756.268,0.01599988
1378,756.935,0.01745974
1380,757.6,0.01701024
1382,758.268,0.01678984
1384,758.936,0.01881984
1386,759.603,0.02074022
1388,760.269,0.01938012
1390,760.938,0.01938012
1392,761.606,0.0178002
1394,762.273,0.0178002
1396,762.934,0.01914986
1398,763.599,0.01959994
1400,764.2629,0.01769
1402,764.929,0.01509972
1404,765.596,0.01587982
1406,766.265,0.01914986
1408,766.933,0.01948974
1410,767.599,0.01756994
1412,768.264,0.0198302
1414,768.929,0.02568994
1416,769.5941,0.04170026
1418,770.258,0.03098998
1420,770.9201,0.00911992
1422,771.583,0.01160986
1424,772.247,0.00642002
1426,772.914,0.0074298
1428,773.581,0.01465022
1430,774.2482,0.02083998
1432,774.914,0.02535006
1434,775.58,0.02141012
1436,776.247,0.01802002
1438,776.913,0.01599002
1440,777.578,0.00878004
1442,778.246,0.00686024
1444,778.913,0.01892018
1446,779.58,0.02671016
1448,780.246,0.02704018
1450,780.91,0.02635984
1452,781.575,0.02107024
1454,782.243,0.01317992
1456,782.912,0.01103972
1458,783.579,0.01138018
1460,784.246,0.01306972
1462,784.913,0.01520992
1464,785.581,0.01553994
1466,786.248,0.01589026
1468,786.914,0.01611008
1470,787.581,0.01305986
1472,788.246,0.01035996
1474,788.914,0.0094598
1476,789.58,0.0094598
1478,790.248,0.01339974
1480,790.914,0.01656016
1482,791.5849,0.01690004
1484,792.254,0.01790982
1486,792.9212,0.02062016
1488,793.585,0.02117986
1490,794.252,0.01644996
1492,794.9178,0.01216028
1494,795.587,0.01081004
1496,796.254,0.01216028
1498,796.921,0.01081004
1500,797.588,0.01081004
1502,798.254,0.01227976
1504,798.9211,0.01363
1506,799.589,0.01498024
1508,800.258,0.01566
1510,800.927,0.01644996
1512,801.596,0.01745974
1514,802.265,0.01745974
1516,802.9339,0.01959994
1518,803.601,0.02196982
1520,804.266,0.01904024
1522,804.93,0.01227976
1524,805.5959,0.01069984
1526,806.265,0.01363
1528,806.934,0.01623014
1530,807.601,0.01262022
1532,808.2676,0.0051794
1534,808.933,0.00348
1536,809.6005,0.01260978
1538,810.266,0.02107024
1540,810.932,0.01904024
1542,811.5976,0.01238996
1544,812.266,0.0129601
1546,812.933,0.01611008
1548,813.602,0.01938012
1550,814.268,0.02196982
1552,814.935,0.01859016
1554,815.599,0.01048002
1556,816.266,0.00663984
1558,816.93,0.0087899
1560,817.5948,0.01341018
1562,818.259,0.01341018
1564,818.923,0.01509972
1566,819.588,0.01904024
1568,820.254,0.02287984
1570,820.92,0.0244499
1572,821.586,0.01881984
1574,822.25,0.01193988
1576,822.914,0.00878004
1578,823.5789,0.01938012
1580,824.244,0.0265901
1582,824.9098,0.01948974
1584,825.574,0.01474998
1586,826.237,0.01227976
1588,826.899,0.01102986
1590,827.565,0.00596994
1592,828.231,0.0038222
1594,828.9,0.00923012
1596,829.566,0.01193988
1598,830.231,0.01035996
1600,830.897,0.00935018
1602,831.5661,0.00900972
1604,832.234,0.00608014
1606,832.899,0.0052896
1608,833.562,0.00732018
1610,834.229,0.01069984
1612,834.8956,0.01474998
1614,835.563,0.01566
1616,836.227,0.0087899
1618,836.892,0.0011194
1620,837.557,0.0021286
1622,838.225,0.01172006
1624,838.891,0.01869978
1626,839.558,0.01790982
1628,840.224,0.01306972
1630,840.8926,0.01002008
1632,841.561,0.00969006
1634,842.2301,0.0109301
1636,842.897,0.0109301
1638,843.563,0.00766006
1640,844.229,0.00551
1642,844.895,0.01227976
1644,845.5612,0.01847996
1646,846.228,0.03110018
1648,846.895,0.03156012
1650,847.565,0.01363
1652,848.234,0.0047328
1654,848.901,0.01181982
1656,849.5668,0.01284004
1658,850.233,0.0068701
1660,850.901,0.0048372
1662,851.567,0.00642002
1664,852.2331,0.00720998
1666,852.901,0.01103972
1668,853.571,0.01306972
1670,854.239,0.00720998
1672,854.906,0.0046226
1674,855.572,0.01396988
1676,856.24,0.01836976
1678,856.907,0.01498024
1680,857.574,0.01126012
1682,858.2421,0.00821976
1684,858.911,0.00821976
1686,859.579,0.0068701
1688,860.246,0.00585974
1690,860.916,0.0051794
1692,861.584,0.0051794
1694,862.25,0.0051794
1696,862.914,0.00708992
1698,863.581,0.00845002
1700,864.25,0.01048002
1702,864.919,0.0094598
1704,865.588,0.0094598
1706,866.255,0.00935018
1708,866.922,0.00935018
1710,867.587,0.01002008
1712,868.254,0.01035996
1714,868.921,0.01238996
1716,869.588,0.01069984
1718,870.254,0.0096802
1720,870.92,0.01103972
1722,871.587,0.01227976
1724,872.2549,0.01272984
1726,872.924,0.01802002
1728,873.591,0.02716024
1730,874.259,0.02760974
1732,874.925,0.01532012
1734,875.593,0.0042688
1736,876.259,-0.00203
1738,876.927,0.0029174
1740,877.594,0.00990988
1742,878.262,0.01542974
1744,878.93,0.02580014
1746,879.597,0.0048372
1748,880.262,-0.01263994
1750,880.926,-0.0122902
1752,881.589,-0.0053128
1754,882.255,0.005742
1756,882.9247,0.01532012
1758,883.595,0.02062016
1760,884.263,0.02062016
1762,884.93,0.01859016
1764,885.599,0.02253996
1766,886.266,0.02456996
1768,886.933,0.01441996
1770,887.599,0.0039382
1772,888.266,0.0045008
1774,888.933,0.01723992
1776,889.601,0.01384982
1778,890.267,-0.0122902
1780,890.932,-0.0056492
1782,891.597,0.00799008
1784,892.264,0.01238996
1786,892.93,0.01193988
1788,893.599,0.03832002
1790,894.265,0.03775974
1792,894.933,0.00969006
1794,895.601,-0.01657988
1796,896.269,-0.0074501
1798,896.936,0.0048372
1800,897.601,0.03719018
1802,898.268,0.02568994
1804,898.933,-0.01015
1806,899.601,-0.01602018
1808,900.267,-0.00857994
1810,900.934,0.0006728
1812,901.599,0.0021286
1814,902.266,-0.00034974
1816,902.932,0.0001102
1818,903.599,0.0036018
1820,904.266,0.01002008
1822,904.934,0.01745974
1824,905.6003,0.03550006
1826,906.263,0.04710992
1828,906.927,0.03616996
1830,907.59,0.01690004
1832,908.255,0.00033002
1834,908.9196,-0.0210801
1836,909.586,-0.0290899
1838,910.2519,-0.0203
1840,910.92,-0.00879976
1842,911.587,0.0053998
1844,912.255,0.02231028
1846,912.92,0.01092024
1848,913.588,-0.0093699
1850,914.255,-0.00666014
1852,914.924,-0.0018212
1854,915.592,0.00777026
1856,916.262,0.00911992
1858,916.93,0.01059022
1860,917.598,0.01566
1862,918.266,0.01711986
1864,918.937,0.02175
1866,919.604,0.02095018
1868,920.269,-0.0014674
1870,920.936,-0.01038026
1872,921.605,-0.01060008
1874,922.2751,-0.0020416
1876,922.944,0.0031378
1878,923.609,0.0045008
1880,924.275,0.00608014
1882,924.942,0.0043906
1884,925.611,0.00708992
1886,926.279,0.00708992
1888,926.946,0.00708992
1890,927.613,0.005742
1892,928.28,0.0051794
1894,928.947,0.00911992
1896,929.615,0.01375006
1898,930.284,0.01745974
1900,930.953,0.0178002
1902,931.621,0.01420014
1904,932.292,0.0114898
1906,932.9591,0.01295024
1908,933.627,0.00969006
1910,934.292,0.0048372
1912,934.962,-0.0018096
1914,935.637,-0.00687996
1916,936.308,0.00642002
1918,936.979,0.0218602
1920,937.643,0.01271998
1922,938.31,0.01205008
1924,938.974,0.01972
1926,939.638,0.0039382
1928,940.302,-0.00812986
1930,940.9696,-0.01218
1932,941.638,0.00054984
1934,942.307,0.01183026
1936,942.975,0.00935018
1938,943.639,0.00799994
1940,944.302,0.00754
1942,944.966,0.0036018
1944,945.634,0.00923998
1946,946.302,0.01914986
1948,946.967,0.01306972
1950,947.634,0.0034916
1952,948.3,0.00787988
1954,948.968,0.0076502
1956,949.6348,0.00009976
1958,950.302,-0.0030508
1960,950.9671,-0.00845988
1962,951.633,-0.00609
1964,952.299,0.00832996
1966,952.965,0.01802988
1968,953.63,0.01802002
1970,954.296,0.01295024
1972,954.964,0.0051794
1974,955.6312,0.01262022
1976,956.298,0.03132986
1978,956.963,0.01238996
1980,957.627,-0.01364972
1982,958.292,-0.00012006
1984,958.959,0.0094598
1986,959.626,0.01216028
1988,960.292,0.01205994
1990,960.959,0.0046226
1992,961.624,-0.00857008
1994,962.289,-0.00058
1996,962.9544,0.01938012
1998,963.622,0.0332398
2000,964.288,0.01611008
2002,964.954,-0.0039614
2004,965.619,-0.0049706
2006,966.286,-0.0027086
2008,966.952,0.0048372
2010,967.621,0.00730974
2012,968.287,0.00730974
2014,968.9558,0.0051794
2016,969.622,0.0051794
2018,970.289,0.01217014
2020,970.955,0.00799008
2022,971.623,0.003712
2024,972.2904,0.0007772
2026,972.959,0.01453016
2028,973.625,0.0076502
2030,974.291,-0.0036192
2032,974.957,0.01216028
2034,975.6253,0.0184701
2036,976.293,0.03278972
2038,976.962,0.02637028
2040,977.628,0.00856022
2042,978.2964,0.01532012
2044,978.965,0.0028072
2046,979.632,-0.0056376
2048,980.299,-0.00642988
2050,980.966,-0.0040716
2052,981.634,0.0041586
2054,982.301,0.00799008
2056,982.968,0.00686024
2058,983.635,0.0049474
2060,984.3013,0.00348
2062,984.969,0.0021286
2064,985.639,0.0067599
2066,986.307,0.00653022
2068,986.974,0.0048372
2070,987.639,0.0048372
2072,988.308,0.00720998
2074,988.977,0.01386026
2076,989.646,0.0170201
2078,990.312,0.01723992
2080,990.98,0.01103972
2082,991.649,0.00584988
2084,992.319,0.0038222
2086,992.986,0.0025926
2088,993.651,0.0041702
2090,994.315,0.0051794
2092,994.983,0.0055216
2094,995.65,0.0055216
2096,996.319,0.0051794
2098,996.987,0.0028072
2100,997.655,0.00629996
2102,998.322,0.00980026
2104,998.9901,0.0116
2106,999.658,0.00866984
2108,1000.33,0.00866984