File: PMMA/Calibration_Data/DBI-Lund/DBI-Lund_TGA_N2_20K_2.csv
Time,Temperature,Mass
[s],[K],[mg]
0,298.736,4.90E+00
1.9998,298.738,4.85E+00
4.0002,298.741,4.72E+00
6,298.748,4.73E+00
7.9998,298.755,4.76E+00
10.0002,298.77,4.77E+00
12,298.793,4.78E+00
13.9998,298.828,4.78E+00
16.0002,298.88,4.79E+00
18,298.95,4.79E+00
19.9998,299.043,4.79E+00
22.0002,299.162,4.79E+00
24,299.305,4.80E+00
25.9998,299.481,4.80E+00
28.0002,299.686,4.80E+00
30,299.929,4.80E+00
31.9998,300.209,4.80E+00
34.0002,300.525,4.80E+00
36,300.876,4.80E+00
37.9998,301.264,4.80E+00
40.0002,301.69,4.80E+00
42,302.152,4.80193
43.9998,302.6493,4.81016
46.0002,303.182,4.81974
48,303.749,4.81782
49.9998,304.349,4.79877
52.0002,304.981,4.79866
54,305.637,4.79956
55.9998,306.317,4.80339
58.0002,307.021,4.80756
60,307.755,4.81049
61.9998,308.51,4.81151
64.0002,309.281,4.80993
66,310.0641,4.81027
67.9998,310.873,4.80835
70.0002,311.696,4.80824
72,312.532,4.80982
73.9998,313.373,4.81083
76.0002,314.2251,4.80858
78,315.085,4.80643
79.9998,315.951,4.80498
82.0002,316.822,4.80498
84,317.698,4.80565
85.9998,318.578,4.80734
88.0002,319.459,4.80959
90,320.341,4.80564
91.9998,321.222,4.80486
94.0002,322.1,4.80475
96,322.976,4.8026
97.9998,323.85,4.80035
100.0002,324.719,4.80103
102,325.587,4.80238
103.9998,326.451,4.80452
106.0002,327.311,4.80441
108,328.164,4.80407
109.9998,329.01,4.80306
112.0002,329.85,4.80464
114,330.684,4.80328
115.9998,331.512,4.8008
118.0002,332.338,4.7999
120,333.16,4.7999
121.9998,333.977,4.7999
124.0002,334.782,4.7999
126,335.583,4.79956
127.9998,336.38,4.79843
130.0002,337.175,4.79844
132,337.962,4.79979
133.9998,338.744,4.79945
136.0002,339.524,4.79843
138,340.301,4.79708
139.9998,341.072,4.7981
142.0002,341.834,4.79697
144,342.588,4.79551
145.9998,343.343,4.79393
148.0002,344.095,4.79393
150,344.844,4.79494
151.9998,345.59,4.79381
154.0002,346.328,4.7928
156,347.064,4.79111
157.9998,347.799,4.79246
160.0002,348.536,4.79246
162,349.271,4.79381
163.9998,350,4.79246
166.0002,350.724,4.79246
168,351.447,4.79313
169.9998,352.173,4.79381
172.0002,352.893,4.79381
174,353.612,4.79448
175.9998,354.323,4.79381
178.0002,355.0378,4.79381
180,355.7521,4.79381
181.9998,356.469,4.79381
184.0002,357.185,4.79381
186,357.901,4.79111
187.9998,358.618,4.79111
190.0002,359.334,4.79144
192,360.05,4.79246
193.9998,360.768,4.79246
196.0002,361.486,4.79381
198,362.204,4.79381
199.9998,362.919,4.79088
202.0002,363.636,4.79088
204,364.352,4.78953
205.9998,365.07,4.78953
208.0002,365.786,4.78953
210,366.5,4.78919
211.9998,367.214,4.78818
214.0002,367.925,4.78998
216,368.639,4.79122
217.9998,369.352,4.79258
220.0002,370.067,4.79393
222,370.783,4.79257
223.9998,371.4967,4.79257
226.0002,372.21,4.79122
228,372.921,4.79122
229.9998,373.632,4.79122
232.0002,374.343,4.79122
234,375.048,4.78987
235.9998,375.754,4.78987
238.0002,376.459,4.78987
240,377.165,4.78964
241.9998,377.8702,4.78964
244.0002,378.575,4.78964
246,379.278,4.79167
247.9998,379.981,4.79246
250.0002,380.679,4.79246
252,381.3748,4.79212
253.9998,382.069,4.79065
256.0002,382.765,4.78964
258,383.459,4.79099
259.9998,384.151,4.79031
262.0002,384.839,4.79167
264,385.529,4.79167
265.9998,386.22,4.79303
268.0002,386.909,4.79235
270,387.597,4.79099
271.9998,388.281,4.79031
274.0002,388.964,4.79031
276,389.644,4.79032
277.9998,390.324,4.79032
280.0002,391.006,4.79291
282,391.687,4.79956
283.9998,392.3668,4.79753
286.0002,393.044,4.78367
288,393.722,4.78164
289.9998,394.4,4.78401
292.0002,395.075,4.78784
294,395.749,4.78648
295.9998,396.424,4.78749
298.0002,397.0993,4.78783
300,397.774,4.78783
301.9998,398.443,4.78783
304.0002,399.114,4.7875
306,399.785,4.78648
307.9998,400.461,4.78648
310.0002,401.1328,4.78648
312,401.805,4.78818
313.9998,402.478,4.78919
316.0002,403.15,4.78919
318,403.823,4.78773
319.9998,404.493,4.78705
322.0002,405.159,4.78502
324,405.824,4.78502
325.9998,406.495,4.78795
328.0002,407.166,4.78795
330,407.836,4.78795
331.9998,408.504,4.78592
334.0002,409.174,4.78525
336,409.846,4.78525
337.9998,410.516,4.78356
340.0002,411.185,4.78209
342,411.851,4.78141
343.9998,412.522,4.78209
346.0002,413.194,4.78209
348,413.866,4.784
349.9998,414.536,4.78547
352.0002,415.205,4.78784
354,415.876,4.78615
355.9998,416.545,4.78277
358.0002,417.215,4.78175
360,417.8831,4.78029
361.9998,418.555,4.78097
364.0002,419.225,4.78097
366,419.894,4.77995
367.9998,420.561,4.77995
370.0002,421.228,4.78063
372,421.895,4.78063
373.9998,422.563,4.77983
376.0002,423.231,4.78175
378,423.902,4.78096
379.9998,424.5712,4.7778
382.0002,425.241,4.77622
384,425.909,4.77814
385.9998,426.578,4.77949
388.0002,427.2443,4.77724
390,427.911,4.77567
391.9998,428.58,4.77623
394.0002,429.248,4.77623
396,429.916,4.77555
397.9998,430.58,4.77115
400.0002,431.243,4.77014
402,431.906,4.77048
403.9998,432.568,4.77251
406.0002,433.232,4.77296
408,433.898,4.77397
409.9998,434.5639,4.77499
412.0002,435.231,4.77566
414,435.895,4.77566
415.9998,436.56,4.77285
418.0002,437.222,4.77285
420,437.885,4.77285
421.9998,438.548,4.76992
424.0002,439.214,4.76992
426,439.877,4.76992
427.9998,440.542,4.77093
430.0002,441.2067,4.77127
432,441.871,4.77127
433.9998,442.536,4.77127
436.0002,443.198,4.77443
438,443.86,4.77499
439.9998,444.5202,4.76991
442.0002,445.182,4.76732
444,445.848,4.76699
445.9998,446.513,4.76733
448.0002,447.1743,4.76608
450,447.836,4.76541
451.9998,448.501,4.76541
454.0002,449.166,4.76541
456,449.832,4.76541
457.9998,450.496,4.76395
460.0002,451.163,4.76248
462,451.829,4.76248
463.9998,452.495,4.76248
466.0002,453.161,4.76248
468,453.828,4.76282
469.9998,454.492,4.76236
472.0002,455.157,4.76597
474,455.821,4.76665
475.9998,456.489,4.76045
478.0002,457.154,4.75853
480,457.82,4.75131
481.9998,458.487,4.74635
484.0002,459.154,4.7512
486,459.822,4.7512
487.9998,460.489,4.74962
490.0002,461.155,4.74861
492,461.825,4.75007
493.9998,462.494,4.75109
496.0002,463.165,4.74996
498,463.833,4.75007
499.9998,464.498,4.74985
502.0002,465.164,4.74748
504,465.83,4.74714
505.9998,466.498,4.74433
508.0002,467.168,4.74365
510,467.836,4.74399
511.9998,468.504,4.74535
514.0002,469.17,4.74377
516,469.836,4.74105
517.9998,470.502,4.73993
520.0002,471.171,4.73835
522,471.84,4.73926
523.9998,472.509,4.7379
526.0002,473.176,4.73587
528,473.846,4.73485
529.9998,474.514,4.73509
532.0002,475.183,4.73272
534,475.851,4.72888
535.9998,476.518,4.72607
538.0002,477.184,4.72607
540,477.852,4.72607
541.9998,478.519,4.72472
544.0002,479.182,4.72472
546,479.8449,4.72573
547.9998,480.51,4.72539
550.0002,481.18,4.72302
552,481.85,4.72201
553.9998,482.516,4.7202
556.0002,483.181,4.7175
558,483.845,4.71536
559.9998,484.5141,4.714
562.0002,485.183,4.71186
564,485.852,4.70904
565.9998,486.519,4.7104
568.0002,487.182,4.7104
570,487.847,4.71321
571.9998,488.51,4.71355
574.0002,489.177,4.72077
576,489.844,4.71434
577.9998,490.512,4.69733
580.0002,491.1788,4.68751
582,491.848,4.68267
583.9998,492.515,4.68582
586.0002,493.183,4.68583
588,493.849,4.68763
589.9998,494.513,4.68977
592.0002,495.1798,4.69079
594,495.847,4.69
595.9998,496.52,4.68695
598.0002,497.189,4.68379
600,497.858,4.68244
601.9998,498.525,4.68086
604.0002,499.191,4.67985
606,499.857,4.67613
607.9998,500.5227,4.67365
610.0002,501.1901,4.67151
612,501.857,4.67106
613.9998,502.524,4.66971
616.0002,503.192,4.66813
618,503.86,4.66632
619.9998,504.526,4.66452
622.0002,505.193,4.66328
624,505.858,4.66023
625.9998,506.522,4.65843
628.0002,507.185,4.65674
630,507.848,4.65708
631.9998,508.512,4.6581
634.0002,509.177,4.65775
636,509.84,4.65652
637.9998,510.504,4.65516
640.0002,511.167,4.65516
642,511.83,4.65347
643.9998,512.494,4.65246
646.0002,513.156,4.65178
648,513.819,4.65009
649.9998,514.484,4.6484
652.0002,515.146,4.6484
654,515.809,4.6484
655.9998,516.469,4.64704
658.0002,517.133,4.64603
660,517.797,4.64569
661.9998,518.462,4.64569
664.0002,519.124,4.64434
666,519.787,4.64434
667.9998,520.4497,4.64434
670.0002,521.114,4.64298
672,521.778,4.64298
673.9998,522.442,4.64163
676.0002,523.108,4.64163
678,523.774,4.64028
679.9998,524.444,4.64028
682.0002,525.1119,4.63994
684,525.778,4.63836
685.9998,526.444,4.63836
688.0002,527.111,4.63701
690,527.779,4.63701
691.9998,528.447,4.63566
694.0002,529.114,4.63566
696,529.783,4.63498
697.9998,530.452,4.63431
700.0002,531.124,4.63431
702,531.795,4.63397
703.9998,532.463,4.63296
706.0002,533.129,4.63228
708,533.798,4.6316
709.9998,534.466,4.63059
712.0002,535.133,4.62889
714,535.799,4.62731
715.9998,536.469,4.62596
718.0002,537.139,4.6263
720,537.808,4.6263
721.9998,538.476,4.62439
724.0002,539.146,4.62213
726,539.814,4.62315
727.9998,540.482,4.62315
730.0002,541.15,4.62315
732,541.821,4.62033
733.9998,542.491,4.61875
736.0002,543.159,4.61605
738,543.825,4.61605
739.9998,544.494,4.61763
742.0002,545.1617,4.61841
744,545.83,4.61593
745.9998,546.497,4.61435
748.0002,547.164,4.61052
750,547.832,4.6059
751.9998,548.499,4.60387
754.0002,549.1662,4.60353
756,549.837,4.60353
757.9998,550.506,4.60353
760.0002,551.176,4.60218
762,551.843,4.6006
763.9998,552.51,4.59925
766.0002,553.179,4.59756
768,553.844,4.59655
769.9998,554.5102,4.59666
772.0002,555.175,4.59508
774,555.844,4.59158
775.9998,556.513,4.58832
778.0002,557.181,4.58471
780,557.849,4.58437
781.9998,558.517,4.58257
784.0002,559.185,4.58111
786,559.852,4.5793
787.9998,560.52,4.57547
790.0002,561.189,4.57152
792,561.857,4.5669
793.9998,562.524,4.56284
796.0002,563.192,4.56261
798,563.858,4.56273
799.9998,564.525,4.56284
802.0002,565.188,4.5607
804,565.853,4.55472
805.9998,566.519,4.543
808.0002,567.187,4.5448
810,567.853,4.54492
811.9998,568.516,4.53726
814.0002,569.18,4.5359
816,569.846,4.5323
817.9998,570.513,4.5262
820.0002,571.178,4.52316
822,571.846,4.52113
823.9998,572.509,4.51786
826.0002,573.173,4.51493
828,573.835,4.51121
829.9998,574.5,4.50794
832.0002,575.164,4.50434
834,575.828,4.50062
835.9998,576.492,4.49656
838.0002,577.158,4.48438
840,577.822,4.47559
841.9998,578.484,4.49205
844.0002,579.147,4.49306
846,579.811,4.47942
847.9998,580.475,4.46432
850.0002,581.136,4.44752
852,581.8,4.44583
853.9998,582.462,4.46499
856.0002,583.128,4.4677
858,583.792,4.45733
859.9998,584.457,4.44854
862.0002,585.123,4.44459
864,585.787,4.43941
865.9998,586.452,4.43264
868.0002,587.114,4.42949
870,587.776,4.42555
871.9998,588.439,4.41844
874.0002,589.102,4.40785
876,589.766,4.39838
877.9998,590.429,4.39398
880.0002,591.093,4.3897
882,591.756,4.38609
883.9998,592.417,4.38135
886.0002,593.078,4.37707
888,593.7392,4.37189
889.9998,594.402,4.36625
892.0002,595.063,4.35633
894,595.726,4.34652
895.9998,596.386,4.34111
898.0002,597.051,4.33818
900,597.714,4.33322
901.9998,598.378,4.32431
904.0002,599.041,4.31856
906,599.704,4.3118
907.9998,600.367,4.29828
910.0002,601.03,4.28847
912,601.692,4.27968
913.9998,602.354,4.27235
916.0002,603.016,4.26029
918,603.678,4.24428
919.9998,604.348,4.23842
922.0002,605.013,4.23098
924,605.677,4.21813
925.9998,606.3359,4.20696
928.0002,606.999,4.19626
930,607.6643,4.18442
931.9998,608.331,4.17146
934.0002,608.997,4.16448
936,609.6628,4.15805
937.9998,610.326,4.13336
940.0002,610.992,4.10912
942,611.655,4.08331
943.9998,612.322,4.06618
946.0002,612.987,4.05536
948,613.655,4.04352
949.9998,614.319,4.03045
952.0002,614.9848,4.01297
954,615.648,3.9946
955.9998,616.313,3.97577
958.0002,616.977,3.95672
960,617.642,3.93913
961.9998,618.309,3.91997
964.0002,618.974,3.88593
966,619.6402,3.85471
967.9998,620.3022,3.82844
970.0002,620.966,3.80499
972,621.632,3.78696
973.9998,622.298,3.76656
976.0002,622.964,3.74142
978,623.629,3.71346
979.9998,624.2951,3.67919
982.0002,624.96,3.64774
984,625.623,3.61776
985.9998,626.287,3.58676
988.0002,626.953,3.55485
990,627.6201,3.52036
991.9998,628.285,3.48948
994.0002,628.95,3.45589
996,629.613,3.42207
997.9998,630.2763,3.38994
1000,630.941,3.35297
1002,631.605,3.31126
1004,632.27,3.26493
1006,632.932,3.22074
1008,633.5962,3.18862
1010,634.26,3.15536
1012,634.924,3.11298
1014,635.588,3.06586
1016,636.25,3.02065
1018,636.913,2.97489
1020,637.5753,2.92991
1022,638.241,2.88403
1024,638.906,2.83838
1026,639.569,2.7916
1028,640.232,2.74189
1030,640.895,2.69274
1032,641.562,2.64618
1034,642.229,2.5958
1036,642.896,2.54429
1038,643.561,2.49571
1040,644.225,2.44757
1042,644.888,2.39775
1044,645.554,2.34815
1046,646.218,2.2972
1048,646.886,2.24794
1050,647.552,2.19766
1052,648.221,2.14592
1054,648.888,2.09237
1056,649.555,2.04086
1058,650.223,1.98991
1060,650.891,1.93603
1062,651.559,1.8853
1064,652.228,1.83412
1066,652.899,1.78948
1068,653.572,1.74338
1070,654.243,1.6975
1072,654.915,1.64497
1074,655.586,1.59346
1076,656.257,1.54533
1078,656.928,1.49573
1080,657.597,1.44636
1082,658.267,1.39788
1084,658.937,1.35054
1086,659.608,1.30037
1088,660.277,1.25472
1090,660.946,1.20625
1092,661.616,1.16003
1094,662.287,1.1128
1096,662.957,1.06579
1098,663.629,1.02059
1100,664.298,0.97009
1102,664.969,0.91993
1104,665.639,0.87653
1106,666.309,0.83561
1108,666.979,0.79537
1110,667.649,0.75513
1112,668.322,0.71454
1114,668.994,0.67452
1116,669.6631,0.6353
1118,670.334,0.59754
1120,671.005,0.56282
1122,671.676,0.529
1124,672.3462,0.49372
1126,673.015,0.45833
1128,673.686,0.4321702
1130,674.358,0.40681
1132,675.03,0.38077
1134,675.7,0.35316
1136,676.369,0.32621
1138,677.04,0.30333
1140,677.712,0.28055
1142,678.382,0.26038
1144,679.052,0.2411
1146,679.721,0.22306
1148,680.39,0.20627
1150,681.059,0.188
1152,681.73,0.17246
1154,682.397,0.15352
1156,683.068,0.13717
1158,683.735,0.12218
1160,684.404,0.10866
1162,685.069,0.09738015
1164,685.737,0.08587985
1166,686.405,0.07889
1168,687.074,0.07190015
1170,687.742,0.06311004
1172,688.408,0.05556012
1174,689.076,0.04552002
1176,689.745,0.03300983
1178,690.414,0.02591022
1180,691.08,0.01947995
1182,691.7468,0.01621018
1184,692.415,0.01384985
1186,693.087,0.00651994
1188,693.76,0.00044002
1190,694.433,-0.00509012
1192,695.107,-0.01286005
1194,695.776,-0.01624987
1196,696.447,-0.01986019
1198,697.115,-0.02256009
1200,697.783,-0.02391984
1202,698.4492,-0.02717981
1204,699.117,-0.02999976
1206,699.785,-0.03292996
1208,700.45,-0.03755017
1210,701.112,-0.03946999
1212,701.773,-0.04103995
1214,702.432,-0.04116
1216,703.09,-0.04250995
1218,703.745,-0.0440902
1220,704.406,-0.0440902
1222,705.063,-0.0440902
1224,705.717,-0.04544995
1226,706.37,-0.04882017
1228,707.025,-0.05164012
1230,707.682,-0.05333013
1232,708.337,-0.05355994
1234,708.9961,-0.05355994
1236,709.656,-0.05355994
1238,710.3169,-0.0539
1240,710.973,-0.05524995
1242,711.631,-0.05524995
1244,712.289,-0.05434002
1246,712.952,-0.05480013
1248,713.611,-0.05593007
1250,714.2721,-0.05794985
1252,714.93,-0.05794985
1254,715.592,-0.05896023
1256,716.253,-0.0592998
1258,716.915,-0.0592998
1260,717.577,-0.0592998
1262,718.24,-0.0592998
1264,718.904,-0.05772984
1266,719.57,-0.05909008
1268,720.235,-0.05909008
1270,720.8998,-0.05637009
1272,721.564,-0.05637009
1274,722.231,-0.05919984
1276,722.896,-0.06190023
1278,723.563,-0.06190023
1280,724.231,-0.05975991
1282,724.8991,-0.05818995
1284,725.57,-0.05750983
1286,726.2403,-0.05750983
1288,726.909,-0.05784009
1290,727.578,-0.05784009
1292,728.246,-0.05784009
1294,728.915,-0.05649014
1296,729.583,-0.0568302
1298,730.2522,-0.05784009
1300,730.921,-0.05852021
1302,731.59,-0.05919004
1304,732.261,-0.05884998
1306,732.932,-0.05884998
1308,733.6032,-0.05884998
1310,734.274,-0.05750003
1312,734.944,-0.05750983
1314,735.613,-0.05909008
1316,736.2819,-0.06088985
1318,736.95,-0.06088985
1320,737.621,-0.06088985
1322,738.29,-0.0622398
1324,738.96,-0.0622398
1326,739.629,-0.05897003
1328,740.296,-0.05796014
1330,740.963,-0.05796014
1332,741.63,-0.05728002
1334,742.299,-0.05885978
1336,742.97,-0.06021022
1338,743.639,-0.0595301
1340,744.305,-0.05919004
1342,744.971,-0.05818015
1344,745.637,-0.0595301
1346,746.306,-0.06313993
1348,746.9739,-0.06990977
1350,747.641,-0.07519981
1352,748.305,-0.06359024
1354,748.97,-0.05468008
1356,749.637,-0.04669014
1358,750.306,-0.04723992
1360,750.974,-0.0580699
1362,751.641,-0.06245981
1364,752.308,-0.05987016
1366,752.9742,-0.05637989
1368,753.64,-0.05524995
1370,754.3051,-0.0568302
1372,754.971,-0.05907979
1374,755.637,-0.06166993
1376,756.301,-0.06325018
1378,756.9653,-0.06313993
1380,757.632,-0.06009997
1382,758.299,-0.05760979
1384,758.967,-0.05625984
1386,759.633,-0.05468008
1388,760.296,-0.05603983
1390,760.96,-0.05762008
1392,761.6253,-0.05941985
1394,762.2911,-0.06078009
1396,762.958,-0.06009997
1398,763.625,-0.06044003
1400,764.294,-0.06201979
1402,764.959,-0.06303017
1404,765.625,-0.06156997
1406,766.289,-0.06291992
1408,766.955,-0.06291992
1410,767.618,-0.06144992
1412,768.284,-0.0565999
1414,768.948,-0.05073999
1416,769.613,-0.03292996
1418,770.2773,-0.04329983
1420,770.943,-0.06674976
1422,771.608,-0.06708002
1424,772.272,-0.07474999
1426,772.939,-0.07474999
1428,773.605,-0.06617989
1430,774.271,-0.05999021
1432,774.936,-0.05299007
1434,775.6,-0.05514019
1436,776.265,-0.05569977
1438,776.928,-0.05772984
1440,777.595,-0.06641019
1442,778.261,-0.06967996
1444,778.928,-0.05762008
1446,779.5949,-0.05253976
1448,780.263,-0.05152987
1450,780.927,-0.05152987
1452,781.593,-0.05649014
1454,782.259,-0.06325018
1456,782.927,-0.06539001
1458,783.595,-0.06539001
1460,784.259,-0.06708002
1462,784.923,-0.06673996
1464,785.588,-0.06619018
1466,786.256,-0.06438012
1468,786.924,-0.06235005
1470,787.593,-0.06032978
1472,788.259,-0.06032978
1474,788.927,-0.06032978
1476,789.592,-0.06032978
1478,790.259,-0.06168022
1480,790.925,-0.0610001
1482,791.593,-0.05965015
1484,792.261,-0.05965015
1486,792.929,-0.05965015
1488,793.594,-0.05965015
1490,794.261,-0.05997992
1492,794.927,-0.0610001
1494,795.594,-0.06235005
1496,796.259,-0.06235005
1498,796.9243,-0.0637
1500,797.591,-0.0637
1502,798.26,-0.0637
1504,798.929,-0.0637
1506,799.599,-0.0610001
1508,800.267,-0.06031998
1510,800.934,-0.0595301
1512,801.602,-0.05987016
1514,802.269,-0.05987016
1516,802.936,-0.06031998
1518,803.6031,-0.0607698
1520,804.271,-0.0607698
1522,804.939,-0.06212024
1524,805.604,-0.06212024
1526,806.269,-0.06190023
1528,806.933,-0.06190023
1530,807.604,-0.06190023
1532,808.272,-0.06392981
1534,808.94,-0.06460993
1536,809.606,-0.06325998
1538,810.273,-0.06325998
1540,810.94,-0.06325998
1542,811.607,-0.06066004
1544,812.274,-0.05963986
1546,812.94,-0.05760979
1548,813.607,-0.05693996
1550,814.272,-0.05625984
1552,814.939,-0.05693996
1554,815.603,-0.05840016
1556,816.27,-0.06054979
1558,816.934,-0.06212024
1560,817.6012,-0.06313993
1562,818.267,-0.06313993
1564,818.935,-0.06178998
1566,819.602,-0.0607698
1568,820.268,-0.06043023
1570,820.933,-0.06110986
1572,821.597,-0.06190023
1574,822.263,-0.06054979
1576,822.931,-0.06054979
1578,823.598,-0.05897003
1580,824.265,-0.05762008
1582,824.927,-0.05627013
1584,825.5909,-0.05627013
1586,826.256,-0.06168022
1588,826.923,-0.06764989
1590,827.59,-0.07891989
1592,828.256,-0.07893018
1594,828.923,-0.05772984
1596,829.589,-0.04983986
1598,830.257,-0.05277006
1600,830.923,-0.05818015
1602,831.592,-0.05975991
1604,832.26,-0.06245981
1606,832.928,-0.06021022
1608,833.595,-0.05818015
1610,834.262,-0.05941985
1612,834.927,-0.06291992
1614,835.595,-0.06291992
1616,836.264,-0.06156017
1618,836.932,-0.06156017
1620,837.598,-0.06156997
1622,838.265,-0.06257986
1624,838.93,-0.06190023
1626,839.595,-0.06156017
1628,840.261,-0.06178998
1630,840.929,-0.0624701
1632,841.598,-0.06347019
1634,842.265,-0.06448988
1636,842.932,-0.06583983
1638,843.598,-0.06438012
1640,844.266,-0.06178998
1642,844.932,-0.05818015
1644,845.599,-0.05400976
1646,846.266,-0.0494998
1648,846.936,-0.05490989
1650,847.605,-0.06426987
1652,848.2732,-0.0708001
1654,848.943,-0.0681002
1656,849.609,-0.06404006
1658,850.277,-0.06267982
1660,850.941,-0.06110986
1662,851.609,-0.05907979
1664,852.275,-0.05784009
1666,852.942,-0.05975011
1668,853.61,-0.06088005
1670,854.277,-0.05919004
1672,854.944,-0.05919004
1674,855.613,-0.05884998
1676,856.281,-0.05784009
1678,856.948,-0.05965015
1680,857.612,-0.06212024
1682,858.277,-0.06212024
1684,858.945,-0.06212024
1686,859.613,-0.06347019
1688,860.282,-0.06414982
1690,860.949,-0.06347999
1692,861.615,-0.06313993
1694,862.281,-0.06212024
1696,862.946,-0.0637
1698,863.613,-0.0637
1700,864.278,-0.06301988
1702,864.946,-0.06269011
1704,865.614,-0.06269011
1706,866.282,-0.06414982
1708,866.95,-0.06380976
1710,867.616,-0.06201979
1712,868.2813,-0.06031998
1714,868.946,-0.05965015
1716,869.609,-0.0580699
1718,870.275,-0.05762008
1720,870.942,-0.05625984
1722,871.612,-0.05794985
1724,872.2807,-0.05840996
1726,872.946,-0.05434982
1728,873.613,-0.04657009
1730,874.279,-0.04442977
1732,874.95,-0.05480013
1734,875.616,-0.06585012
1736,876.283,-0.07283017
1738,876.948,-0.06855002
1740,877.614,-0.06303017
1742,878.279,-0.05907979
1744,878.9422,-0.04870992
1746,879.607,-0.06730983
1748,880.276,-0.08388016
1750,880.944,-0.08106021
1752,881.611,-0.07046984
1754,882.275,-0.05987016
1756,882.942,-0.05649014
1758,883.611,-0.05649014
1760,884.279,-0.0580699
1762,884.946,-0.06190023
1764,885.611,-0.06347999
1766,886.277,-0.06212024
1768,886.942,-0.06134016
1770,887.6091,-0.05987016
1772,888.277,-0.05277006
1774,888.945,-0.03934994
1776,889.612,-0.04273976
1778,890.278,-0.07124992
1780,890.944,-0.07024003
1782,891.608,-0.06313993
1784,892.274,-0.0595301
1786,892.942,-0.05108005
1788,893.61,-0.02481017
1790,894.277,-0.03168977
1792,894.945,-0.06212024
1794,895.614,-0.08940981
1796,896.283,-0.0808402
1798,896.947,-0.0678699
1800,897.613,-0.03868011
1802,898.276,-0.05152987
1804,898.94,-0.08139978
1806,899.6,-0.08310008
1808,900.258,-0.07464023
1810,900.919,-0.06696977
1812,901.584,-0.06585012
1814,902.248,-0.06865978
1816,902.915,-0.07034979
1818,903.583,-0.07002002
1820,904.251,-0.06337023
1822,904.919,-0.05671015
1824,905.588,-0.0551299
1826,906.256,-0.05547976
1828,906.924,-0.05705021
1830,907.591,-0.06156997
1832,908.258,-0.0651602
1834,908.927,-0.0651602
1836,909.596,-0.0651602
1838,910.265,-0.06651995
1840,910.932,-0.0678699
1842,911.598,-0.0678699
1844,912.264,-0.06651995
1846,912.931,-0.06651995
1848,913.599,-0.06651995
1850,914.266,-0.06517
1852,914.933,-0.06482994
1854,915.6,-0.06178998
1856,916.266,-0.05999021
1858,916.932,-0.05897003
1860,917.596,-0.05897003
1862,918.2631,-0.05716977
1864,918.932,-0.04329983
1866,919.6,-0.04105024
1868,920.267,-0.07012978
1870,920.931,-0.07621999
1872,921.5968,-0.07688982
1874,922.262,-0.07452998
1876,922.928,-0.07002002
1878,923.594,-0.06527976
1880,924.259,-0.06110986
1882,924.927,-0.06245981
1884,925.595,-0.06257986
1886,926.264,-0.06257986
1888,926.93,-0.06257986
1890,927.596,-0.06190023
1892,928.262,-0.06122011
1894,928.929,-0.06053999
1896,929.598,-0.0595301
1898,930.266,-0.05818015
1900,930.932,-0.05987016
1902,931.599,-0.06132987
1904,932.268,-0.06066004
1906,932.936,-0.05637989
1908,933.6051,-0.05716977
1910,934.272,-0.06088985
1912,934.9401,-0.06754013
1914,935.607,-0.07261016
1916,936.275,-0.06833001
1918,936.941,-0.06460993
1920,937.607,-0.06360004
1922,938.274,-0.05232024
1924,938.941,-0.04329983
1926,939.61,-0.06043023
1928,940.277,-0.06911989
1930,940.944,-0.0695702
1932,941.6128,-0.06460993
1934,942.282,-0.05919984
1936,942.95,-0.05931009
1938,943.6143,-0.06200999
1940,944.2793,-0.05997992
1942,944.944,-0.0553602
1944,945.613,-0.05422977
1946,946.2791,-0.05762008
1948,946.947,-0.06066004
1950,947.614,-0.06269011
1952,948.283,-0.06561982
1954,948.95,-0.06708982
1956,949.617,-0.06674976
1958,950.2843,-0.06708982
1960,950.951,-0.06843977
1962,951.619,-0.06641019
1964,952.286,-0.06404986
1966,952.952,-0.06414982
1968,953.618,-0.0637098
1970,954.285,-0.06144992
1972,954.952,-0.06122011
1974,955.619,-0.05987016
1976,956.286,-0.05987016
1978,956.954,-0.05987016
1980,957.621,-0.05987016
1982,958.286,-0.05818015
1984,958.948,-0.05738978
1986,959.613,-0.05728002
1988,960.28,-0.05615008
1990,960.948,-0.05615008
1992,961.616,-0.05738978
1994,962.285,-0.05818015
1996,962.953,-0.05965015
1998,963.622,-0.05941985
2000,964.287,-0.05750003
2002,964.953,-0.05569977
2004,965.619,-0.05828991
2006,966.287,-0.06098981
2008,966.954,-0.06132987
2010,967.62,-0.06235005
2012,968.286,-0.06303017
2014,968.952,-0.06166993
2016,969.619,-0.06200999
2018,970.287,-0.06303017
2020,970.955,-0.06269011
2022,971.622,-0.06166993
2024,972.289,-0.06235005
2026,972.956,-0.0610001
2028,973.623,-0.0580699
2030,974.29,-0.05671995
2032,974.957,-0.05514019
2034,975.623,-0.05220999
2036,976.29,-0.05186993
2038,976.958,-0.05186993
2040,977.626,-0.05468008
2042,978.2929,-0.05468008
2044,978.96,-0.05603983
2046,979.627,-0.0580699
2048,980.295,-0.06054979
2050,980.962,-0.06088985
2052,981.632,-0.06088985
2054,982.302,-0.06088985
2056,982.972,-0.0595399
2058,983.638,-0.06088985
2060,984.301,-0.06088985
2062,984.9647,-0.06088985
2064,985.6323,-0.0595301
2066,986.302,-0.06088005
2068,986.969,-0.06054979
2070,987.635,-0.06088005
2072,988.301,-0.05941985
2074,988.97,-0.0551299
2076,989.639,-0.0494998
2078,990.306,-0.04770003
2080,990.974,-0.05051998
2082,991.642,-0.05637989
2084,992.31,-0.06021022
2086,992.976,-0.06325018
2088,993.641,-0.06166993
2090,994.307,-0.06066004
2092,994.974,-0.06031998
2094,995.643,-0.0610001
2096,996.309,-0.06212024
2098,996.976,-0.06313013
2100,997.642,-0.06156017
2102,998.311,-0.06213004
2104,998.979,-0.06460993
2106,999.646,-0.06404006
2108,1000.31,-0.05784009