File: PMMA/Calibration_Data/DBI-Lund/DBI-Lund_TGA_N2_20K_3.csv
Time,Temperature,Mass
[s],[K],[mg]
0,298.33,5.50E+00
2,298.33,5.51E+00
4,298.338,5.48E+00
6,298.347,5.45E+00
8,298.358,5.44E+00
10,298.3747,5.43E+00
12,298.401,5.43E+00
14,298.437,5.43E+00
16,298.492,5.43E+00
18,298.5673,5.43E+00
20,298.6668,5.43E+00
22,298.7912,5.43E+00
24,298.9429,5.43E+00
26,299.1249,5.43E+00
28,299.34,5.43E+00
30,299.5878,5.43E+00
32,299.874,5.44E+00
34,300.195,5.44E+00
36,300.556,5.44E+00
38,300.951,5.44E+00
40,301.3823,5.44E+00
42,301.852,5.43902
44,302.363,5.44871
46,302.905,5.45435
48,303.481,5.45333
50,304.087,5.43485
52,304.722,5.4353
54,305.385,5.43394
56,306.0729,5.43811
58,306.789,5.44014
60,307.529,5.44161
62,308.289,5.44228
64,309.073,5.44161
66,309.871,5.43834
68,310.686,5.44082
70,311.515,5.44352
72,312.359,5.44341
74,313.214,5.44431
76,314.0768,5.44319
78,314.948,5.44262
80,315.824,5.44049
82,316.705,5.44049
84,317.5912,5.44071
86,318.48,5.43834
88,319.369,5.43924
90,320.259,5.43811
92,321.146,5.43767
94,322.034,5.43755
96,322.915,5.43529
98,323.797,5.43394
100,324.673,5.43304
102,325.546,5.43259
104,326.413,5.43293
106,327.278,5.43158
108,328.137,5.4326
110,328.99,5.4326
112,329.835,5.4326
114,330.675,5.43124
116,331.509,5.43124
118,332.339,5.43191
120,333.1669,5.43191
122,333.9851,5.43191
124,334.796,5.4309
126,335.599,5.43045
128,336.403,5.42909
130,337.201,5.43045
132,337.994,5.4291
134,338.781,5.42741
136,339.563,5.42639
138,340.339,5.42504
140,341.112,5.42606
142,341.879,5.42572
144,342.638,5.42504
146,343.393,5.42369
148,344.144,5.42369
150,344.893,5.42335
152,345.641,5.42369
154,346.382,5.42233
156,347.121,5.42098
158,347.857,5.41997
160,348.59,5.41963
162,349.3192,5.41963
164,350.0472,5.41963
166,350.772,5.41963
168,351.497,5.4203
170,352.218,5.42098
172,352.9388,5.41963
174,353.659,5.42098
176,354.376,5.42098
178,355.096,5.42098
180,355.813,5.42098
182,356.5308,5.42064
184,357.247,5.41962
186,357.96,5.41827
188,358.675,5.41827
190,359.389,5.41827
192,360.1049,5.41827
194,360.8218,5.41827
196,361.54,5.41827
198,362.258,5.41861
200,362.972,5.41726
202,363.684,5.41726
204,364.4,5.41726
206,365.115,5.41726
208,365.8261,5.41726
210,366.5381,5.41692
212,367.253,5.41591
214,367.968,5.41591
216,368.681,5.41591
218,369.3942,5.41591
220,370.11,5.41726
222,370.827,5.41726
224,371.54,5.41726
226,372.253,5.41726
228,372.962,5.41726
230,373.671,5.41794
232,374.379,5.41794
234,375.09,5.41794
236,375.8,5.41726
238,376.505,5.41659
240,377.208,5.41501
242,377.9101,5.41501
244,378.6112,5.41501
246,379.311,5.41703
248,380.011,5.41703
250,380.712,5.41703
252,381.407,5.41669
254,382.1,5.41669
256,382.795,5.41501
258,383.489,5.41568
260,384.182,5.41568
262,384.872,5.41704
264,385.561,5.41704
266,386.248,5.41704
268,386.932,5.41636
270,387.6141,5.41636
272,388.297,5.41568
274,388.981,5.41568
276,389.667,5.41704
278,390.3498,5.41704
280,391.03,5.41963
282,391.706,5.42493
284,392.382,5.42143
286,393.056,5.40757
288,393.7317,5.40554
290,394.407,5.40791
292,395.082,5.41174
294,395.757,5.41106
296,396.432,5.41139
298,397.109,5.41173
300,397.783,5.41173
302,398.456,5.41309
304,399.1272,5.41309
306,399.8,5.41309
308,400.473,5.41173
310,401.145,5.41173
312,401.814,5.41309
314,402.482,5.41343
316,403.151,5.41343
318,403.823,5.41343
320,404.495,5.41343
322,405.167,5.41072
324,405.839,5.41072
326,406.509,5.4123
328,407.179,5.4123
330,407.849,5.4123
332,408.519,5.41095
334,409.188,5.41095
336,409.859,5.4096
338,410.5279,5.4096
340,411.196,5.4096
342,411.864,5.4096
344,412.534,5.41095
346,413.204,5.41061
348,413.875,5.40993
350,414.544,5.40813
352,415.213,5.40666
354,415.884,5.40531
356,416.555,5.4043
358,417.224,5.40565
360,417.892,5.40565
362,418.558,5.40633
364,419.226,5.40633
366,419.894,5.40531
368,420.564,5.40531
370,421.232,5.40599
372,421.902,5.40599
374,422.57,5.40407
376,423.24,5.40181
378,423.91,5.40148
380,424.58,5.40046
382,425.252,5.40046
384,425.92,5.40046
386,426.587,5.39911
388,427.253,5.39911
390,427.92,5.39945
392,428.586,5.39843
394,429.252,5.39843
396,429.921,5.39832
398,430.587,5.39798
400,431.2552,5.39596
402,431.919,5.39562
404,432.5849,5.39562
406,433.252,5.39562
408,433.919,5.39494
410,434.586,5.39494
412,435.249,5.39561
414,435.914,5.39561
416,436.579,5.39314
418,437.244,5.3928
420,437.908,5.3928
422,438.57,5.3901
424,439.232,5.3901
426,439.894,5.38875
428,440.5562,5.38875
430,441.217,5.38875
432,441.88,5.38739
434,442.544,5.38739
436,443.207,5.38672
438,443.869,5.38604
440,444.529,5.38321
442,445.192,5.38321
444,445.857,5.38356
446,446.521,5.38322
448,447.184,5.38355
450,447.848,5.38288
452,448.512,5.38254
454,449.178,5.38119
456,449.843,5.37995
458,450.506,5.37714
460,451.1678,5.37499
462,451.832,5.3742
464,452.4972,5.37285
466,453.164,5.37138
468,453.831,5.37138
470,454.498,5.37127
472,455.165,5.37352
474,455.829,5.37555
476,456.494,5.368
478,457.16,5.36473
480,457.826,5.35706
482,458.494,5.35086
484,459.163,5.35414
486,459.832,5.35391
488,460.4997,5.35052
490,461.1661,5.34726
492,461.834,5.34703
494,462.502,5.34636
496,463.171,5.3459
498,463.841,5.34692
500,464.511,5.34614
502,465.18,5.34354
504,465.848,5.34184
506,466.514,5.33892
508,467.181,5.33644
510,467.849,5.33667
512,468.518,5.33554
514,469.188,5.33171
516,469.856,5.3273
518,470.5221,5.32561
520,471.186,5.32347
522,471.851,5.32348
524,472.5182,5.3219
526,473.187,5.31874
528,473.858,5.31648
530,474.525,5.31694
532,475.194,5.31559
534,475.861,5.31254
536,476.528,5.30916
538,477.197,5.30758
540,477.865,5.306
542,478.534,5.30465
544,479.2,5.3033
546,479.865,5.30273
548,480.531,5.30172
550,481.2,5.30037
552,481.8679,5.29879
554,482.534,5.29619
556,483.199,5.29248
558,483.864,5.29034
560,484.5301,5.28808
562,485.192,5.28582
564,485.856,5.28379
566,486.521,5.28267
568,487.188,5.28064
570,487.852,5.28052
572,488.517,5.28188
574,489.184,5.29022
576,489.8532,5.28391
578,490.519,5.26779
580,491.185,5.25809
582,491.85,5.25325
584,492.517,5.25629
586,493.182,5.25607
588,493.847,5.25607
590,494.51,5.25595
592,495.1768,5.25505
594,495.84,5.25291
596,496.504,5.25133
598,497.1657,5.24704
600,497.831,5.24513
602,498.497,5.24445
604,499.1653,5.24389
606,499.832,5.24164
608,500.496,5.24006
610,501.161,5.2386
612,501.826,5.23713
614,502.495,5.23567
616,503.16,5.23499
618,503.827,5.23397
620,504.492,5.23262
622,505.157,5.23003
624,505.826,5.2272
626,506.491,5.2272
628,507.158,5.22619
630,507.824,5.22653
632,508.489,5.22721
634,509.154,5.22676
636,509.817,5.2271
638,510.484,5.22574
640,511.149,5.22574
642,511.8153,5.22472
644,512.481,5.22304
646,513.148,5.22237
648,513.813,5.22067
650,514.478,5.21931
652,515.1438,5.21898
654,515.8089,5.21898
656,516.4737,5.21898
658,517.139,5.21796
660,517.8039,5.21762
662,518.47,5.21762
664,519.135,5.21627
666,519.8013,5.21627
668,520.467,5.21627
670,521.135,5.21492
672,521.803,5.21492
674,522.472,5.21289
676,523.139,5.21222
678,523.805,5.21222
680,524.473,5.2112
682,525.142,5.21255
684,525.813,5.21221
686,526.476,5.21221
688,527.141,5.21086
690,527.805,5.21086
692,528.475,5.20951
694,529.143,5.20951
696,529.809,5.20748
698,530.474,5.20647
700,531.14,5.20545
702,531.807,5.20444
704,532.478,5.2041
706,533.148,5.20343
708,533.817,5.20275
710,534.482,5.20275
712,535.15,5.20004
714,535.818,5.19902
716,536.49,5.19868
718,537.159,5.19632
720,537.827,5.19632
722,538.495,5.19497
724,539.159,5.19339
726,539.826,5.19486
728,540.494,5.19351
730,541.163,5.19351
732,541.831,5.19079
734,542.498,5.18978
736,543.165,5.1873
738,543.832,5.18663
740,544.497,5.18685
742,545.161,5.18674
744,545.828,5.18527
746,546.4939,5.18459
748,547.1639,5.18392
750,547.832,5.18122
752,548.4991,5.17975
754,549.161,5.17817
756,549.824,5.17659
758,550.4871,5.17502
760,551.152,5.1722
762,551.817,5.17186
764,552.484,5.16949
766,553.151,5.16668
768,553.8167,5.16566
770,554.482,5.16577
772,555.147,5.16509
774,555.813,5.16318
776,556.478,5.15969
778,557.145,5.15552
780,557.809,5.15394
782,558.474,5.15236
784,559.139,5.14966
786,559.803,5.14661
788,560.467,5.14357
790,561.131,5.14143
792,561.795,5.13726
794,562.46,5.13466
796,563.124,5.13421
798,563.79,5.13308
800,564.454,5.13196
802,565.12,5.12745
804,565.783,5.12519
806,566.449,5.1217
808,567.112,5.11876
810,567.777,5.1128
812,568.443,5.1093
814,569.107,5.10626
816,569.769,5.10288
818,570.4301,5.09802
820,571.096,5.0943
822,571.762,5.09058
824,572.426,5.08641
826,573.091,5.08348
828,573.7562,5.0801
830,574.4238,5.0748
832,575.09,5.07007
834,575.753,5.06567
836,576.416,5.06229
838,577.079,5.05958
840,577.744,5.05586
842,578.4101,5.05
844,579.077,5.04482
846,579.745,5.03986
848,580.413,5.0358
850,581.079,5.0323
852,581.745,5.02802
854,582.407,5.02306
856,583.075,5.01844
858,583.74,5.01518
860,584.406,5.00898
862,585.071,5.00604
864,585.737,5.00356
866,586.403,4.99747
868,587.0701,4.9915
870,587.736,4.98463
872,588.401,4.97504
874,589.065,4.96423
876,589.73,4.95081
878,590.397,4.95137
880,591.063,4.95712
882,591.73,4.95058
884,592.397,4.94292
886,593.0653,4.93694
888,593.733,4.93187
890,594.4,4.92973
892,595.065,4.92296
894,595.7302,4.91395
896,596.396,4.90594
898,597.062,4.89907
900,597.727,4.89039
902,598.394,4.88069
904,599.06,4.87201
906,599.7282,4.86468
908,600.396,4.85387
910,601.063,4.8453
912,601.728,4.83493
914,602.39,4.82614
916,603.052,4.81498
918,603.718,4.80235
920,604.387,4.78927
922,605.056,4.77935
924,605.722,4.76706
926,606.386,4.75726
928,607.0488,4.74238
930,607.713,4.72986
932,608.379,4.71758
934,609.044,4.7124
936,609.708,4.70293
938,610.371,4.67802
940,611.039,4.65355
942,611.705,4.63022
944,612.369,4.61083
946,613.031,4.60012
948,613.697,4.58299
950,614.364,4.56586
952,615.033,4.54522
954,615.698,4.52697
956,616.363,4.50453
958,617.025,4.48514
960,617.689,4.46598
962,618.3519,4.45234
964,619.017,4.41503
966,619.683,4.37512
968,620.347,4.34829
970,621.012,4.32789
972,621.676,4.30073
974,622.342,4.27626
976,623.01,4.24425
978,623.674,4.21652
980,624.338,4.18124
982,625.001,4.15024
984,625.663,4.11462
986,626.326,4.08294
988,626.99,4.04495
990,627.654,4.01237
992,628.3202,3.97383
994,628.986,3.93821
996,629.652,3.89661
998,630.315,3.86144
1000,630.98,3.81669
1002,631.643,3.77486
1004,632.309,3.72707
1006,632.9713,3.68672
1008,633.638,3.63825
1010,634.3007,3.59575
1012,634.9658,3.54705
1014,635.631,3.49813
1016,636.298,3.44402
1018,636.963,3.39836
1020,637.63,3.33208
1022,638.296,3.28609
1024,638.963,3.25318
1026,639.628,3.20685
1028,640.294,3.14417
1030,640.959,3.09074
1032,641.623,3.03235
1034,642.288,2.97903
1036,642.954,2.9114
1038,643.62,2.86316
1040,644.287,2.80995
1042,644.955,2.75889
1044,645.624,2.69554
1046,646.291,2.6438
1048,646.958,2.58247
1050,647.625,2.52622
1052,648.2939,2.46219
1054,648.963,2.40797
1056,649.6312,2.34473
1058,650.3,2.29131
1060,650.9679,2.2301
1062,651.635,2.17745
1064,652.299,2.115
1066,652.965,2.06078
1068,653.634,1.99811
1070,654.304,1.94468
1072,654.974,1.88504
1074,655.643,1.83083
1076,656.31,1.76973
1078,656.98,1.71957
1080,657.65,1.66445
1082,658.321,1.61293
1084,658.991,1.55465
1086,659.662,1.50145
1088,660.331,1.44305
1090,660.997,1.39695
1092,661.665,1.33945
1094,662.335,1.28017
1096,663.006,1.21749
1098,663.675,1.16631
1100,664.343,1.10759
1102,665.013,1.05754
1104,665.682,1.00219
1106,666.351,0.9566502
1108,667.019,0.9057
1110,667.689,0.8622999
1112,668.36,0.8131398
1114,669.032,0.77234
1116,669.703,0.72647
1118,670.374,0.6881402
1120,671.045,0.64812
1122,671.7129,0.61318
1124,672.382,0.57282
1126,673.053,0.5396798
1128,673.725,0.5066501
1130,674.396,0.4789202
1132,675.067,0.446
1134,675.7371,0.41862
1136,676.407,0.3876202
1138,677.077,0.3649602
1140,677.747,0.3376802
1142,678.418,0.31468
1144,679.0869,0.29044
1146,679.755,0.2711698
1148,680.422,0.2513302
1150,681.09,0.23261
1152,681.76,0.21402
1154,682.428,0.19598
1156,683.097,0.17648
1158,683.7651,0.1613799
1160,684.433,0.14526
1162,685.098,0.13376
1164,685.765,0.12181
1166,686.433,0.1118898
1168,687.1,0.09982995
1170,687.765,0.08991015
1172,688.43,0.0784201
1174,689.095,0.06837985
1176,689.76,0.05834015
1178,690.425,0.0514701
1180,691.09,0.0434599
1182,691.754,0.03546015
1184,692.4192,0.0288101
1186,693.086,0.02216005
1188,693.752,0.01765995
1190,694.418,0.01247015
1192,695.081,0.0047025
1194,695.745,-0.0014025
1196,696.408,-0.00612975
1198,697.072,-0.01063975
1200,697.735,-1.19E-02
1202,698.398,-1.53E-02
1204,699.062,-1.90E-02
1206,699.727,-2.16E-02
1208,700.393,-2.48E-02
1210,701.06,-2.80E-02
1212,701.723,-3.11E-02
1214,702.387,-3.22E-02
1216,703.048,-3.39E-02
1218,703.7108,-3.54E-02
1220,704.373,-3.71E-02
1222,705.037,-3.93E-02
1224,705.702,-4.09E-02
1226,706.366,-4.46E-02
1228,707.029,-4.70E-02
1230,707.69,-4.83E-02
1232,708.351,-4.83E-02
1234,709.011,-4.99E-02
1236,709.673,-5.14E-02
1238,710.339,-0.0524601
1240,711.005,-0.0531399
1242,711.671,-0.0531399
1244,712.337,-0.0522302
1246,713.004,-0.05132985
1248,713.667,-0.0524601
1250,714.332,-0.05438015
1252,714.997,-0.05572985
1254,715.662,-0.0567402
1256,716.328,-0.0570801
1258,716.993,-0.0584298
1260,717.659,-0.0584298
1262,718.324,-0.05978005
1264,718.989,-0.0582098
1266,719.659,-0.0582098
1268,720.322,-0.0582098
1270,720.9841,-0.0568502
1272,721.643,-0.0568502
1274,722.307,-0.0583198
1276,722.973,-0.05967005
1278,723.639,-0.0610302
1280,724.305,-0.05956995
1282,724.968,-0.05956995
1284,725.632,-0.05956995
1286,726.2961,-0.05956995
1288,726.962,-0.05855025
1290,727.628,-0.05855025
1292,728.295,-0.05855025
1294,728.961,-0.05855025
1296,729.6271,-0.05855025
1298,730.292,-0.05855025
1300,730.958,-0.0582098
1302,731.623,-0.0582098
1304,732.288,-0.0578699
1306,732.9549,-0.0578699
1308,733.621,-0.0578699
1310,734.287,-0.0578699
1312,734.954,-0.05923005
1314,735.624,-0.05923005
1316,736.293,-0.05923005
1318,736.961,-0.05923005
1320,737.628,-0.05923005
1322,738.296,-0.06057975
1324,738.966,-0.06057975
1326,739.634,-0.05866025
1328,740.301,-0.0576499
1330,740.967,-0.0576499
1332,741.632,-0.0576499
1334,742.299,-0.05923005
1336,742.966,-0.06057975
1338,743.633,-0.05989995
1340,744.301,-0.05956005
1342,744.967,-0.05922015
1344,745.635,-0.05922015
1346,746.302,-0.06057975
1348,746.97,-0.06057975
1350,747.638,-0.06193
1352,748.304,-0.06193
1354,748.97,-0.0584298
1356,749.638,-0.05527995
1358,750.305,-0.0567402
1360,750.971,-0.06373015
1362,751.635,-0.06485985
1364,752.301,-0.0612502
1366,752.967,-0.0577599
1368,753.6321,-0.05527995
1370,754.2981,-0.0568601
1372,754.966,-0.06011995
1374,755.633,-0.0613602
1376,756.2991,-0.0613602
1378,756.965,-0.06023985
1380,757.632,-0.05866025
1382,758.298,-0.05764
1384,758.964,-0.05764
1386,759.629,-0.05764
1388,760.296,-0.05900015
1390,760.963,-0.05900015
1392,761.631,-0.05900015
1394,762.298,-0.05900015
1396,762.965,-0.05967005
1398,763.629,-0.06000995
1400,764.2972,-0.0609202
1402,764.963,-0.0612502
1404,765.6311,-0.05978995
1406,766.2932,-0.05978995
1408,766.959,-0.05978995
1410,767.623,-0.05978995
1412,768.289,-0.0565202
1414,768.954,-0.0520102
1416,769.618,-0.03600025
1418,770.284,-0.04670985
1420,770.95,-0.0668899
1422,771.617,-0.06507985
1424,772.281,-0.0715099
1426,772.946,-0.0715099
1428,773.613,-0.06429005
1430,774.281,-0.0580998
1432,774.95,-0.0531399
1434,775.615,-0.05594985
1436,776.282,-0.0578699
1438,776.949,-0.05989995
1440,777.614,-0.0671099
1442,778.279,-0.06802015
1444,778.9436,-0.05561985
1446,779.608,-0.05054005
1448,780.2729,-0.04953025
1450,780.938,-0.04953025
1452,781.606,-0.05382025
1454,782.274,-0.06057975
1456,782.941,-0.0627198
1458,783.606,-0.0627198
1460,784.271,-0.06440995
1462,784.936,-0.06407005
1464,785.605,-0.0621599
1466,786.272,-0.0614801
1468,786.94,-0.05989995
1470,787.608,-0.05923005
1472,788.2757,-0.06057975
1474,788.945,-0.06057975
1476,789.611,-0.06057975
1478,790.278,-0.06057975
1480,790.941,-0.05989995
1482,791.605,-0.05989995
1484,792.27,-0.05989995
1486,792.9359,-0.05922015
1488,793.604,-0.05922015
1490,794.272,-0.05922015
1492,794.9387,-0.05922015
1494,795.603,-0.05922015
1496,796.271,-0.06057975
1498,796.94,-0.06193
1500,797.61,-0.0612502
1502,798.279,-0.06056985
1504,798.949,-0.06056985
1506,799.617,-0.05922015
1508,800.284,-0.0585398
1510,800.951,-0.05877025
1512,801.617,-0.0580998
1514,802.285,-0.0580998
1516,802.951,-0.05923005
1518,803.615,-0.05967995
1520,804.28,-0.05967995
1522,804.945,-0.0610302
1524,805.612,-0.0610302
1526,806.281,-0.05945005
1528,806.95,-0.05945005
1530,807.618,-0.05945005
1532,808.284,-0.06012985
1534,808.951,-0.0608102
1536,809.619,-0.0608102
1538,810.288,-0.0614801
1540,810.957,-0.0621599
1542,811.625,-0.05923005
1544,812.296,-0.0582098
1546,812.965,-0.05617975
1548,813.632,-0.05550985
1550,814.298,-0.05483005
1552,814.963,-0.0568601
1554,815.6285,-0.0583198
1556,816.296,-0.05911015
1558,816.961,-0.05911015
1560,817.626,-0.05911015
1562,818.292,-0.05911015
1564,818.958,-0.05978995
1566,819.626,-0.06045985
1568,820.292,-0.06045985
1570,820.958,-0.06045985
1572,821.621,-0.06045985
1574,822.288,-0.05911015
1576,822.954,-0.05911015
1578,823.621,-0.05753
1580,824.288,-0.05617975
1582,824.954,-0.05483005
1584,825.621,-0.05483005
1586,826.288,-0.05866025
1588,826.955,-0.0614801
1590,827.62,-0.06451995
1592,828.285,-0.06519975
1594,828.95,-0.06374005
1596,829.618,-0.0620499
1598,830.284,-0.0620499
1600,830.952,-0.06306025
1602,831.616,-0.06340015
1604,832.283,-0.06474985
1606,832.948,-0.06396005
1608,833.6157,-0.06193
1610,834.2827,-0.0616
1612,834.948,-0.0616
1614,835.611,-0.06295025
1616,836.273,-0.0615901
1618,836.936,-0.06056985
1620,837.6032,-0.05990985
1622,838.27,-0.05889015
1624,838.938,-0.0575399
1626,839.605,-0.0575399
1628,840.273,-0.05889015
1630,840.941,-0.05956995
1632,841.607,-0.06023985
1634,842.274,-0.06056985
1636,842.939,-0.0615901
1638,843.61,-0.0615901
1640,844.279,-0.06046975
1642,844.948,-0.0582098
1644,845.609,-0.05404025
1646,846.272,-0.04953025
1648,846.937,-0.05494005
1650,847.604,-0.06429995
1652,848.27,-0.06936985
1654,848.937,-0.06497975
1656,849.606,-0.0609202
1658,850.276,-0.06022995
1660,850.945,-0.06056985
1662,851.612,-0.06090975
1664,852.278,-0.0624899
1666,852.944,-0.0624899
1668,853.61,-0.05956005
1670,854.2767,-0.05572985
1672,854.944,-0.05572985
1674,855.614,-0.05572985
1676,856.2811,-0.0570801
1678,856.947,-0.05889015
1680,857.612,-5.99E-02
1682,858.279,-5.99E-02
1684,858.947,-6.13E-02
1686,859.613,-6.26E-02
1688,860.28,-6.26E-02
1690,860.9471,-6.13E-02
1692,861.614,-6.13E-02
1694,862.28,-6.32E-02
1696,862.946,-6.43E-02
1698,863.613,-6.43E-02
1700,864.28,-6.23E-02
1702,864.947,-6.19E-02
1704,865.613,-6.16E-02
1706,866.279,-6.17E-02
1708,866.947,-6.03E-02
1710,867.614,-5.97E-02
1712,868.283,-5.93E-02
1714,868.95,-5.88E-02
1716,869.616,-5.72E-02
1718,870.28,-5.68E-02
1720,870.945,-5.54E-02
1722,871.612,-5.57E-02
1724,872.279,-5.69E-02
1726,872.946,-5.35E-02
1728,873.612,-4.57E-02
1730,874.279,-4.36E-02
1732,874.947,-5.39E-02
1734,875.615,-6.50E-02
1736,876.282,-7.20E-02
1738,876.949,-6.77E-02
1740,877.6157,-6.07E-02
1742,878.282,-5.52E-02
1744,878.948,-4.61E-02
1746,879.614,-6.47E-02
1748,880.282,-8.13E-02
1750,880.951,-7.99E-02
1752,881.62,-7.03E-02
1754,882.288,-6.00E-02
1756,882.957,-5.66E-02
1758,883.625,-5.66E-02
1760,884.293,-5.66E-02
1762,884.96,-6.11E-02
1764,885.627,-6.34E-02
1766,886.292,-6.17E-02
1768,886.958,-6.02E-02
1770,887.625,-5.84E-02
1772,888.293,-5.13E-02
1774,888.96,-3.66E-02
1776,889.6268,-4.10E-02
1778,890.294,-6.95E-02
1780,890.961,-6.85E-02
1782,891.629,-6.30E-02
1784,892.296,-6.07E-02
1786,892.963,-5.22E-02
1788,893.63,-2.60E-02
1790,894.297,-3.18E-02
1792,894.965,-6.15E-02
1794,895.634,-8.77E-02
1796,896.301,-7.78E-02
1798,896.968,-6.23E-02
1800,897.635,-3.17E-02
1802,898.304,-4.46E-02
1804,898.971,-7.89E-02
1806,899.638,-8.31E-02
1808,900.304,-7.57E-02
1810,900.972,-6.80E-02
1812,901.635,-6.66E-02
1814,902.3,-6.59E-02
1816,902.966,-6.49E-02
1818,903.635,-6.39E-02
1820,904.304,-6.13E-02
1822,904.97,-5.93E-02
1824,905.639,-5.91E-02
1826,906.308,-5.81E-02
1828,906.976,-5.81E-02
1830,907.645,-5.97E-02
1832,908.31,-6.13E-02
1834,908.976,-6.13E-02
1836,909.641,-6.13E-02
1838,910.306,-6.26E-02
1840,910.971,-6.40E-02
1842,911.638,-6.40E-02
1844,912.305,-6.26E-02
1846,912.973,-6.40E-02
1848,913.638,-6.40E-02
1850,914.303,-6.40E-02
1852,914.97,-6.40E-02
1854,915.637,-6.27E-02
1856,916.306,-6.16E-02
1858,916.973,-6.06E-02
1860,917.641,-6.06E-02
1862,918.305,-0.05606975
1864,918.971,-0.04219985
1866,919.636,-0.0399498
1868,920.304,-0.0703802
1870,920.972,-0.0764698
1872,921.639,-0.07714025
1874,922.307,-0.0747802
1876,922.974,-0.0702702
1878,923.64,-0.06552975
1880,924.3058,-0.0613602
1882,924.976,-0.0613602
1884,925.644,-0.06034985
1886,926.312,-0.06034985
1888,926.975,-0.06034985
1890,927.64,-0.06034985
1892,928.306,-0.0613701
1894,928.972,-0.06068975
1896,929.64,-0.0582098
1898,930.306,-0.0568601
1900,930.972,-0.0572
1902,931.637,-0.05866025
1904,932.303,-0.05934005
1906,932.969,-0.05505995
1908,933.636,-0.05438015
1910,934.302,-0.0580998
1912,934.969,-0.06474985
1914,935.636,-0.06981975
1916,936.305,-0.0655402
1918,936.974,-0.06182
1920,937.642,-0.0608102
1922,938.308,-0.05088985
1924,938.975,-0.04186985
1926,939.642,-0.06034985
1928,940.308,-0.06768025
1930,940.975,-0.06813015
1932,941.642,-0.06317025
1934,942.311,-0.0577599
1936,942.979,-0.0578699
1938,943.647,-0.0625999
1940,944.313,-0.0612502
1942,944.981,-0.0566302
1944,945.646,-0.0538098
1946,946.314,-0.05583985
1948,946.98,-0.05888025
1950,947.649,-0.06090975
1952,948.316,-0.0624899
1954,948.983,-0.06396005
1956,949.648,-0.06496985
1958,950.314,-0.06530975
1960,950.982,-0.06666
1962,951.6479,-0.06462995
1964,952.3145,-0.0622699
1966,952.9792,-0.0612502
1968,953.646,-0.05923005
1970,954.313,-0.05855025
1972,954.981,-0.05989995
1974,955.648,-0.06057975
1976,956.316,-0.06057975
1978,956.981,-0.06057975
1980,957.65,-0.06057975
1982,958.318,-0.05889015
1984,958.987,-0.05709
1986,959.652,-0.05550985
1988,960.319,-0.05404025
1990,960.986,-0.05505005
1992,961.654,-0.0566302
1994,962.32,-0.05878015
1996,962.9877,-0.05878015
1998,963.6548,-0.0572
2000,964.323,-0.05527995
2002,964.99,-0.05382025
2004,965.657,-0.0576499
2006,966.326,-0.0613602
2008,966.994,-0.0617001
2010,967.6632,-0.0627198
2012,968.33,-0.0627198
2014,968.999,-0.06056985
2016,969.666,-0.05956005
2018,970.332,-0.05956005
2020,971,-0.05989995
2022,971.668,-0.0612502
2024,972.3349,-0.0612502
2026,973.001,-0.06034985
2028,973.668,-0.05742
2030,974.338,-0.05606975
2032,975.005,-0.05606975
2034,975.67,-0.05449015
2036,976.3358,-0.05415025
2038,977.004,-0.05415025
2040,977.674,-0.05549995
2042,978.3432,-0.05549995
2044,979.009,-0.05549995
2046,979.672,-0.0578699
2048,980.336,-0.0613701
2050,981.002,-0.06171
2052,981.67,-0.06171
2054,982.337,-0.06171
2056,983.006,-0.06035975
2058,983.674,-0.06035975
2060,984.343,-0.06035975
2062,985.01,-0.06035975
2064,985.678,-0.05900015
2066,986.345,-0.06034985
2068,987.012,-0.05900015
2070,987.6776,-0.05900015
2072,988.344,-0.05900015
2074,989.009,-0.05471015
2076,989.6769,-0.0494098
2078,990.342,-0.0476102
2080,991.008,-0.05043005
2082,991.674,-0.0563002
2084,992.34,-0.06012985
2086,993.0062,-0.06317025
2088,993.672,-0.0629398
2090,994.34,-0.06193
2092,995.008,-0.0615901
2094,995.6756,-0.0615901
2096,996.341,-0.06193
2098,997.008,-0.0629398
2100,997.674,-0.0613701
2102,998.3412,-0.05978995
2104,999.006,-0.05978995
2106,999.673,-0.0611402
2108,1000.34,-0.05978995