File: PMMA/Calibration_Data/DBI-Lund/DBI-Lund_Gasification_25kW_3.csv
Time,Mass
[s],[g]
0,70.1
1,69.9388
2,69.8513
3,70.0092
4,70.121
5,70.0816
6,70.1444
7,69.9984
8,70.0669
9,70.0777
10,70.0232
11,69.8432
12,69.9804
13,69.88181
14,69.8244
15,70.0286
16,70.0374
17,70.0511
18,70.12908
19,70.1253
20,69.9958
21,70.076
22,70.0236
23,69.92989
24,69.9177
25,69.84664
26,69.9787
27,70.0933
28,70.1176
29,69.9638
30,70.1543
31,69.9958
32,69.8941
33,69.975
34,69.9364
35,70.0401
36,69.9738
37,70.1417
38,69.91662
39,70.0362
40,70.0371
41,70.0648
42,70.1743
43,70.003
44,70.0471
45,70.0263
46,69.9962
47,69.8267
48,69.8985
49,69.8482
50,69.9243
51,69.9291
52,70.0356
53,70.1225
54,70.0692
55,70.0748
56,70.05157
57,70.0353
58,69.9866
59,69.9505
60,69.8737
61,69.9868
62,69.9453
63,69.9461
64,69.8603
65,69.8477
66,69.84775
67,69.8059
68,69.7332
69,69.7173
70,69.8008
71,69.82792
72,69.8428
73,69.7779
74,69.9282
75,69.78016
76,69.8086
77,69.8278
78,69.7771
79,69.7511
80,69.8108
81,69.8039
82,69.7584
83,69.88449
84,69.8453
85,69.8965
86,69.9502
87,69.90381
88,69.8554
89,69.9903
90,69.8966
91,69.8993
92,69.8002
93,69.80531
94,69.6218
95,69.6702
96,69.684
97,69.6071
98,69.7062
99,69.7414
100,69.8168
101,69.72707
102,69.8793
103,69.7708
104,69.6608
105,69.6351
106,69.6528
107,69.7156
108,69.8027
109,69.8915
110,69.7163
111,69.6357
112,69.6957
113,69.7345
114,69.7777
115,69.8315
116,69.7739
117,69.6564
118,69.7081
119,69.6965
120,69.7925
121,69.8837
122,69.6582
123,69.5372
124,69.59187
125,69.6713
126,69.5759
127,69.6143
128,69.6369
129,69.68565
130,69.6425
131,69.6693
132,69.6303
133,69.5687
134,69.642
135,69.3481
136,69.58243
137,69.3955
138,69.3419
139,69.3144
140,69.3846
141,69.3351
142,69.26584
143,69.3332
144,69.3971
145,69.3217
146,69.3838
147,69.3332
148,69.1878
149,69.0719
150,69.1142
151,69.2082
152,69.147
153,69.1145
154,69.029
155,69.1801
156,69.0835
157,69.2219
158,69.1137
159,69.045
160,69.0327
161,68.9611
162,68.8369
163,68.8702
164,68.8404
165,68.7356
166,68.8522
167,68.7743
168,68.779
169,68.7585
170,68.8813
171,68.8023
172,68.7435
173,68.7091
174,68.5892
175,68.7236
176,68.5295
177,68.5732
178,68.4007
179,68.4935
180,68.4281
181,68.3539
182,68.3293
183,68.27626
184,68.2754
185,68.2403
186,68.1962
187,68.1314
188,68.0717
189,68.037
190,68.0539
191,67.9049
192,67.9659
193,67.8046
194,67.925
195,67.74294
196,67.7983
197,67.7808
198,67.7754
199,67.6127
200,67.7718
201,67.7163
202,67.5048
203,67.4541
204,67.3493
205,67.2527
206,67.1893
207,67.2158
208,67.14946
209,67.1072
210,67.1701
211,67.206
212,67.0347
213,67.1035
214,67.0556
215,67.0498
216,66.9192
217,67.054
218,66.9349
219,66.8582
220,66.8129
221,66.7634
222,66.5717
223,66.6083
224,66.4401
225,66.2976
226,66.4803
227,66.3172
228,66.30712
229,66.2599
230,66.3093
231,66.1621
232,65.9389
233,65.9828
234,65.7942
235,66.0096
236,65.9619
237,65.864
238,65.7748
239,65.8499
240,65.7567
241,65.8138
242,65.7657
243,65.661
244,65.5975
245,65.49578
246,65.5636
247,65.3664
248,65.3925
249,65.3502
250,65.3034
251,65.1234
252,65.0949
253,64.93653
254,64.85
255,64.8076
256,64.8315
257,64.7113
258,64.6754
259,64.479
260,64.5403
261,64.3652
262,64.3783
263,64.2315
264,64.2067
265,64.134
266,64.0743
267,64.0832
268,64.0192
269,64.017
270,63.7885
271,63.8227
272,63.7054
273,63.7199
274,63.6595
275,63.778
276,63.72
277,63.4948
278,63.5238
279,63.4334
280,63.3793
281,63.198
282,63.1277
283,63.0193
284,63.0343
285,63.03043
286,62.8894
287,62.8375
288,62.8583
289,62.8116
290,62.6397
291,62.7538
292,62.6891
293,62.4874
294,62.3867
295,62.3691
296,62.1961
297,62.2245
298,62.1817
299,62.0781
300,62.0492
301,62.0296
302,62.0553
303,61.788
304,61.7985
305,61.6847
306,61.561
307,61.5117
308,61.3793
309,61.1734
310,61.2764
311,61.1829
312,61.0562
313,60.95591
314,60.9755
315,60.8705
316,60.9167
317,60.7724
318,60.6308
319,60.7076
320,60.579
321,60.61697
322,60.5518
323,60.5523
324,60.31273
325,60.328
326,60.226
327,60.1727
328,59.9668
329,59.9392
330,59.8087
331,59.7419
332,59.7229
333,59.6846
334,59.6206
335,59.701
336,59.4698
337,59.4754
338,59.4411
339,59.41004
340,59.2713
341,59.2299
342,59.18911
343,58.9051
344,58.9067
345,58.6887
346,58.6584
347,58.5306
348,58.5275
349,58.2848
350,58.3296
351,58.1688
352,58.16112
353,58.0561
354,57.9466
355,57.7841
356,57.816
357,57.6103
358,57.5724
359,57.5665
360,57.6876
361,57.5753
362,57.4061
363,57.18647
364,57.1435
365,57.0432
366,57.0512
367,56.90098
368,57.0215
369,56.7809
370,56.6668
371,56.721
372,56.6579
373,56.4483
374,56.5044
375,56.262
376,56.2242
377,56.25322
378,55.9317
379,55.9996
380,55.8983
381,55.8249
382,55.6248
383,55.6598
384,55.5922
385,55.4078
386,55.3566
387,55.4963
388,55.2053
389,54.9257
390,54.952
391,54.9983
392,54.92785
393,54.9292
394,54.5556
395,54.3924
396,54.5321
397,54.494
398,54.4011
399,54.3286
400,54.1153
401,54.0445
402,53.9145
403,53.8617
404,53.8164
405,53.8252
406,53.7646
407,53.5966
408,53.3069
409,53.4372
410,53.3814
411,53.4127
412,53.3504
413,53.0895
414,52.76936
415,53.0828
416,52.9729
417,52.7356
418,52.5775
419,52.4857
420,52.2681
421,52.5193
422,52.4094
423,52.0696
424,52.0381
425,52.078
426,51.9922
427,51.7679
428,51.64831
429,51.5175
430,51.6868
431,51.5566
432,51.3913
433,51.2414
434,51.3434
435,51.0332
436,50.8724
437,50.8846
438,51.0465
439,50.7642
440,50.6394
441,50.4599
442,50.5128
443,50.3341
444,50.2195
445,49.9915
446,50.1162
447,50.0584
448,49.9335
449,49.6247
450,49.6037
451,49.4767
452,49.6042
453,49.5241
454,49.3944
455,49.2383
456,49.0639
457,48.8816
458,48.78273
459,48.80911
460,48.858
461,48.7056
462,48.6179
463,48.283
464,48.2278
465,48.1205
466,48.2309
467,48.0996
468,47.9548
469,47.7695
470,47.72283
471,47.554
472,47.4504
473,47.3588
474,47.4874
475,47.32865
476,47.2427
477,47.0913
478,46.9538
479,46.7771
480,46.7238
481,46.5274
482,46.5294
483,46.526
484,46.4779
485,46.4455
486,46.374
487,46.03451
488,45.8957
489,45.7633
490,45.7586
491,45.6856
492,45.6663
493,45.4262
494,45.30491
495,45.3344
496,45.2263
497,44.9123
498,44.971
499,44.792
500,44.8253
501,44.6354
502,44.4827
503,44.3181
504,44.4661
505,44.3673
506,44.1065
507,44.0358
508,44.0374
509,43.8588
510,43.81284
511,43.6852
512,43.6264
513,43.4982
514,43.2165
515,43.0588
516,43.1407
517,43.29315
518,42.9309
519,42.8106
520,42.7268
521,42.6966
522,42.5682
523,42.481
524,42.131
525,42.34302
526,42.1845
527,42.1125
528,41.88294
529,41.8552
530,41.5904
531,41.5841
532,41.4854
533,41.4666
534,41.3418
535,41.3853
536,41.1407
537,41.0472
538,40.8637
539,40.6699
540,40.6794
541,40.7207
542,40.6095
543,40.4098
544,40.2951
545,40.0649
546,39.8724
547,39.93532
548,39.9303
549,39.9439
550,39.8255
551,39.5502
552,39.2986
553,39.2893
554,39.2072
555,39.3077
556,39.18862
557,38.9483
558,38.751
559,38.6359
560,38.5777
561,38.5675
562,38.2943
563,38.2978
564,38.211
565,38.0399
566,37.9211
567,37.99247
568,37.605
569,37.7264
570,37.6148
571,37.3782
572,37.3357
573,37.2089
574,37.1232
575,37.0397
576,36.82746
577,36.7067
578,36.7933
579,36.4656
580,36.576
581,36.334
582,36.3124
583,36.101
584,36.0106
585,35.9543
586,35.7463
587,35.82482
588,35.5315
589,35.5764
590,35.3508
591,35.2636
592,35.1776
593,35.0648
594,34.92769
595,34.7263
596,34.7884
597,34.4882
598,34.5228
599,34.37143
600,34.3713
601,34.1405
602,34.0436
603,34.1224
604,33.8298
605,33.8078
606,33.6283
607,33.409
608,33.3907
609,33.32
610,32.9703
611,33.1589
612,32.9162
613,32.6819
614,32.9077
615,32.5773
616,32.5916
617,32.4085
618,32.3874
619,32.2079
620,32.1181
621,32.0301
622,31.9669
623,31.7708
624,31.7332
625,31.5559
626,31.4088
627,31.5603
628,31.232
629,31.1575
630,31.2065
631,30.9691
632,30.7018
633,30.8504
634,30.5007
635,30.3509
636,30.47
637,30.4196
638,30.1651
639,30.034
640,29.8425
641,29.813
642,29.9731
643,29.5501
644,29.3848
645,29.4121
646,29.4591
647,29.2465
648,29.13906
649,29.049
650,28.94104
651,28.7093
652,28.7893
653,28.5991
654,28.3762
655,28.3663
656,28.317
657,28.1033
658,28.066
659,27.7506
660,27.7532
661,27.8195
662,27.38124
663,27.4455
664,27.34361
665,27.1532
666,27.076
667,26.9783
668,26.7093
669,26.7383
670,26.6105
671,26.4478
672,26.50987
673,26.2182
674,26.1963
675,26.0574
676,25.933
677,25.8104
678,25.7963
679,25.4565
680,25.4705
681,25.4876
682,25.2139
683,25.1184
684,25.1605
685,24.9956
686,24.6768
687,24.7553
688,24.5986
689,24.48503
690,24.3198
691,24.40873
692,24.029
693,23.9971
694,24.0468
695,23.7673
696,23.6986
697,23.64113
698,23.4188
699,23.3263
700,23.21065
701,23.0298
702,23.0643
703,22.845
704,22.8967
705,22.6952
706,22.43937
707,22.4542
708,22.3357
709,22.1767
710,22.1394
711,22.0599
712,21.8268
713,21.8515
714,21.7499
715,21.4701
716,21.49986
717,21.28215
718,21.11882
719,21.1751
720,20.9757
721,20.7574
722,20.7653
723,20.6663
724,20.4219
725,20.5315
726,20.2301
727,20.1584
728,20.1618
729,20.0519
730,19.8159
731,19.7513
732,19.65
733,19.4521
734,19.3274
735,19.4594
736,19.1067
737,19.0743
738,19.13265
739,18.7344
740,18.9197
741,18.6209
742,18.6018
743,18.48
744,18.3021
745,18.2395
746,17.9917
747,18.0551
748,17.8814
749,17.7609
750,17.72226
751,17.5462
752,17.3587
753,17.5233
754,17.1411
755,17.2342
756,16.975
757,16.8839
758,16.9348
759,16.5732
760,16.5933
761,16.3377
762,16.3618
763,16.2865
764,16.1335
765,16.1629
766,15.8278
767,15.8705
768,15.6839
769,15.683
770,15.5032
771,15.4933
772,15.2799
773,15.2256
774,15.15071
775,15.1043
776,14.9106
777,14.9405
778,14.7041
779,14.4747
780,14.6281
781,14.4859
782,14.3828
783,14.2275
784,14.2994
785,14.114
786,13.96601
787,14.0706
788,13.9541
789,13.698
790,13.754
791,13.6913
792,13.4806
793,13.5086
794,13.3318
795,13.2464
796,13.2549
797,13.0811
798,13.03785
799,13.0651
800,12.7217
801,12.9442
802,12.6534
803,12.6697
804,12.6186
805,12.5596
806,12.4354
807,12.2673
808,12.4346
809,12.1947
810,12.2103
811,12.017
812,11.9873
813,11.9039
814,11.9047
815,11.8914
816,11.5427
817,11.8078
818,11.4654
819,11.4875
820,11.4776
821,11.22414
822,11.4471
823,11.1989
824,11.2463
825,11.0948
826,11.0622
827,11.0832
828,10.9703
829,10.8789
830,10.8242
831,10.7323
832,10.62712
833,10.636
834,10.5962
835,10.4655
836,10.4133
837,10.5418
838,10.3794
839,10.3187
840,10.1301
841,10.3716
842,10.2059
843,10.1186
844,10.0592
845,10.1379
846,9.844365
847,9.871575
848,9.973341
849,9.718085
850,9.634128
851,9.846094
852,9.636038
853,9.310867
854,9.478276
855,9.500319
856,9.296914
857,9.31255
858,9.447426
859,9.053522
860,9.115269
861,9.140536
862,9.115993
863,8.853146
864,9.079348
865,9.042421
866,8.816665
867,8.708222
868,8.728943
869,8.66123
870,8.558611
871,8.581366
872,8.579093
873,8.453326
874,8.362777
875,8.549647
876,8.316874
877,8.260151
878,8.148059
879,8.332229
880,8.063174
881,8.031619
882,8.089722
883,7.975757
884,7.990658
885,7.998369
886,7.764216
887,7.830957
888,7.888155
889,7.720137
890,7.65057
891,7.565268
892,7.459524
893,7.528534
894,7.566021
895,7.426925
896,7.400189
897,7.297013
898,7.418678
899,7.214914
900,7.145047
901,7.184669
902,7.063923
903,7.069457
904,7.171639
905,6.977029
906,7.007483
907,7.067385
908,6.726165
909,6.878326
910,6.904917
911,6.623193
912,6.794432
913,6.69836
914,6.622155
915,6.597776
916,6.528968
917,6.576625
918,6.379979
919,6.520553
920,6.426111
921,6.366507
922,6.415753
923,6.088045
924,6.310981
925,6.172259
926,6.190491
927,6.041953
928,6.069031
929,6.141285
930,5.882951
931,5.977594
932,5.895087
933,5.823856
934,5.942042
935,5.874476
936,5.73707
937,5.929859
938,5.624928
939,5.717423
940,5.641468
941,5.759541
942,5.617296
943,5.373216
944,5.49225
945,5.290034
946,5.370323
947,5.353159
948,5.340242
949,5.301307
950,5.306754
951,5.309972
952,5.151474
953,5.223665
954,5.077221
955,5.075753
956,5.059215
957,4.935445
958,5.072727
959,4.94132
960,5.066209
961,4.787822
962,4.941059
963,4.685982
964,4.81356
965,4.717958
966,4.836825
967,4.67849
968,4.672015
969,4.675273
970,4.514131
971,4.487501
972,4.392528
973,4.440951
974,4.404654
975,4.422261
976,4.44855
977,4.457181
978,4.323724
979,4.276609
980,4.148576
981,4.309776
982,4.073832
983,4.233135
984,4.073993
985,4.131155
986,3.986219
987,4.145897
988,3.991513
989,3.887522
990,3.906548
991,3.858265
992,3.770557
993,3.752857
994,3.853888
995,3.967204
996,3.641062
997,3.76718
998,3.517716
999,3.75539
1000,3.597054
1001,3.65779
1002,3.657431
1003,3.429953
1004,3.619652
1005,3.330346
1006,3.517143
1007,3.593215
1008,3.2912
1009,3.505022
1010,3.245041
1011,3.319446
1012,3.258198
1013,3.312833
1014,3.33794
1015,3.185294
1016,3.265289
1017,3.095915
1018,3.090642
1019,3.127233
1020,3.137358
1021,3.210878
1022,2.91688
1023,3.168873
1024,2.874246
1025,2.962469
1026,3.1113
1027,2.886201
1028,3.078841
1029,2.956407
1030,2.715825
1031,2.941578
1032,2.951084
1033,2.82938
1034,2.829185
1035,2.729416
1036,2.863473
1037,2.708521
1038,2.904492
1039,2.663666
1040,2.524156
1041,2.809032
1042,2.60396
1043,2.634165
1044,2.624924
1045,2.532479
1046,2.513149
1047,2.594072
1048,2.340222
1049,2.562572
1050,2.459933
1051,2.47133
1052,2.566251
1053,2.369466
1054,2.520845
1055,2.425829
1056,2.448284
1057,2.425101
1058,2.48495
1059,2.322889
1060,2.457549
1061,2.203621
1062,2.28215
1063,2.310189
1064,2.131227
1065,2.348416
1066,2.21187
1067,2.26431
1068,2.238622
1069,2.261989
1070,2.232499
1071,2.188528
1072,2.266087
1073,1.991739
1074,2.19335
1075,1.946463
1076,2.040161
1077,1.945691
1078,1.985607
1079,2.100348
1080,1.993149
1081,2.141085
1082,1.882768
1083,1.92931
1084,1.93228
1085,1.892928
1086,1.909802
1087,1.966106
1088,1.760973
1089,1.893581
1090,1.906016
1091,1.746955
1092,1.676041
1093,1.925694
1094,1.971274
1095,1.843153
1096,1.6428
1097,1.76723
1098,1.850367
1099,1.816012
1100,1.625186
1101,1.582762
1102,1.611414
1103,1.782588
1104,1.928846
1105,1.755054
1106,1.585602
1107,1.460029
1108,1.520473
1109,1.635349
1110,1.770704
1111,1.70332
1112,1.577697
1113,1.448287
1114,1.541659
1115,1.666442
1116,1.698017
1117,1.422453
1118,1.429866
1119,1.411912
1120,1.551888
1121,1.438443
1122,1.491447
1123,1.472762
1124,1.573727
1125,1.311678
1126,1.467533
1127,1.610087
1128,1.536415
1129,1.246175
1130,1.562596
1131,1.324722
1132,1.166463
1133,1.435865
1134,1.471719
1135,1.272836
1136,1.35346
1137,1.463573
1138,1.187896
1139,1.327631
1140,1.295388
1141,1.339747
1142,1.287248
1143,1.251701
1144,1.25494
1145,1.374658
1146,1.18246
1147,1.383624
1148,1.423362
1149,1.353035
1150,1.15171
1151,1.332795
1152,1.213662
1153,1.067132
1154,1.233748
1155,1.264615
1156,1.124815
1157,1.215194
1158,1.406355
1159,1.098676
1160,1.020268
1161,1.171698
1162,1.295399
1163,1.013736
1164,0.994346
1165,1.06858
1166,1.181423
1167,1.126992
1168,1.155306
1169,1.040652
1170,1.233559
1171,1.199984
1172,1.17884
1173,0.929391
1174,0.885651
1175,0.961847
1176,1.147973
1177,1.105069
1178,1.044732
1179,0.886989
1180,0.855301
1181,1.090937
1182,1.107986
1183,0.945326
1184,0.877245
1185,0.998955
1186,1.184099
1187,0.943149
1188,0.824329
1189,0.944407
1190,0.857106
1191,0.899836
1192,0.859941
1193,0.898095
1194,0.82443
1195,1.03785
1196,0.827384
1197,1.032064
1198,0.83096
1199,0.944357
1200,0.872659
1201,0.787662
1202,0.756877
1203,0.926178
1204,0.857336
1205,0.796404
1206,0.603127
1207,0.905412
1208,0.843564
1209,0.801634
1210,0.793816
1211,0.830456
1212,0.842309
1213,0.763873
1214,0.856905
1215,0.677438
1216,0.758291
1217,0.787425
1218,0.659055
1219,0.765552
1220,0.94627
1221,0.544176
1222,0.805158
1223,0.828295
1224,0.66311
1225,0.691712
1226,0.915842
1227,0.6715
1228,0.587713
1229,0.691687
1230,0.779829
1231,0.823486
1232,0.751871
1233,0.610096
1234,0.632354
1235,0.851874
1236,0.789221
1237,0.630424
1238,0.663161
1239,0.670147
1240,0.678554
1241,0.89818
1242,0.687603
1243,0.575196
1244,0.584177
1245,0.634442
1246,0.60833
1247,0.681204
1248,0.49741
1249,0.698551
1250,0.670482
1251,0.644127
1252,0.47962
1253,0.716271
1254,0.497428
1255,0.527523
1256,0.721515
1257,0.622216
1258,0.536218
1259,0.691182
1260,0.650558
1261,0.627857
1262,0.619467
1263,0.380947
1264,0.607799
1265,0.478031
1266,0.428505
1267,0.552491
1268,0.474089
1269,0.353435
1270,0.50731
1271,0.447914
1272,0.526254
1273,0.675525
1274,0.439679
1275,0.533455
1276,0.569352
1277,0.652939
1278,0.371789
1279,0.525206
1280,0.570521
1281,0.591145
1282,0.264643
1283,0.437227
1284,0.563527
1285,0.410242
1286,0.249601
1287,0.399622
1288,0.465172
1289,0.458403
1290,0.291112
1291,0.246031
1292,0.312837
1293,0.478431
1294,0.512115
1295,0.357973
1296,0.265872
1297,0.332868
1298,0.424764
1299,0.47021
1300,0.308323
1301,0.087135
1302,0.329133
1303,0.39533
1304,0.274559
1305,0.266546
1306,0.377921
1307,0.427603
1308,0.357005
1309,0.287796
1310,0.518021
1311,0.32996
1312,0.259638
1313,0.306043
1314,0.483203
1315,0.280957
1316,0.192898
1317,0.414537
1318,0.380769
1319,0.125492
1320,0.358108
1321,0.53125
1322,0.254913
1323,0.306544
1324,0.307369
1325,0.285171
1326,0.205017
1327,0.339298
1328,0.394392
1329,0.378642
1330,0.288454
1331,0.263857
1332,0.306144
1333,0.383363
1334,0.111207
1335,0.310831
1336,0.379308
1337,0.276924
1338,0.108134
1339,0.445779
1340,0.19626
1341,0.032054
1342,0.220642
1343,0.312012
1344,0.21182
1345,0.158422
1346,0.349612
1347,0.231387
1348,0.271736
1349,0.183764
1350,0.416878
1351,0.255305
1352,0.228319
1353,0.137332
1354,0.314266
1355,0.144585
1356,0.086297
1357,0.235125
1358,0.373522
1359,0.174998
1360,0.050425
1361,0.09175
1362,0.14489
1363,0.248191
1364,0.361941
1365,0.252253
1366,0.069593
1367,0.024064
1368,0.051977
1369,0.149655
1370,0.27947
1371,0.243003
1372,0.07587
1373,-0.061125
1374,-0.033317
1375,0.119661
1376,0.247178
1377,0.134903
1378,0.096976
1379,0.031131
1380,0.138124
1381,0.269662
1382,0.150237
1383,0.008438
1384,-0.009432
1385,0.001212
1386,0.157054
1387,0.250328
1388,0.131819