File: PMMA/Calibration_Data/DBI-Lund/DBI-Lund_Gasification_50kW_2.csv
Time,Mass
[s],[g]
0,67.7
1,67.6483
2,67.7159
3,67.7381
4,67.6198
5,67.7039
6,67.6345
7,67.6283
8,67.5561
9,67.5793
10,67.5437
11,67.5139
12,67.4776
13,67.4374
14,67.4952
15,67.4359
16,67.5718
17,67.3426
18,67.4577
19,67.349
20,67.401
21,67.2116
22,67.3234
23,67.2664
24,67.1929
25,67.1709
26,67.2585
27,67.219
28,67.12552
29,67.0499
30,67.0809
31,66.8907
32,66.83699
33,66.733
34,66.75
35,66.7054
36,66.5787
37,66.4865
38,66.4081
39,66.3307
40,66.2763
41,66.1277
42,66.1381
43,65.8967
44,65.8615
45,65.7419
46,65.4432
47,65.5488
48,65.29562
49,65.2587
50,65.0109
51,65.0145
52,64.92122
53,64.7419
54,64.7739
55,64.3939
56,64.4376
57,64.2949
58,64.0443
59,63.9599
60,63.8592
61,63.7282
62,63.5783
63,63.3747
64,63.3637
65,63.0322
66,63.09654
67,62.9549
68,62.6502
69,62.7096
70,62.3058
71,62.2977
72,62.1231
73,61.988
74,61.8365
75,61.7421
76,61.6004
77,61.31603
78,61.3386
79,61.0155
80,60.9181
81,60.793
82,60.6726
83,60.5853
84,60.3277
85,60.2459
86,60.1028
87,59.95131
88,59.73234
89,59.6422
90,59.3693
91,59.151
92,59.12804
93,58.7882
94,58.6472
95,58.5411
96,58.5297
97,58.2815
98,58.0688
99,57.9852
100,57.67216
101,57.5371
102,57.4178
103,57.3143
104,57.0915
105,57.01245
106,56.7161
107,56.4956
108,56.4349
109,56.2799
110,55.9218
111,55.8967
112,55.6546
113,55.4805
114,55.3529
115,55.06959
116,55.037
117,54.7065
118,54.6877
119,54.4675
120,54.20391
121,54.1173
122,53.8116
123,53.8292
124,53.4887
125,53.4229
126,53.0437
127,53.0719
128,52.6753
129,52.603
130,52.34488
131,52.0837
132,52.0033
133,51.6224
134,51.6923
135,51.2435
136,51.2369
137,50.9584
138,50.6741
139,50.64419
140,50.3305
141,50.21878
142,49.87044
143,49.8287
144,49.53586
145,49.3767
146,49.0221
147,48.9783
148,48.6898
149,48.4332
150,48.4181
151,48.2101
152,47.9387
153,47.7418
154,47.461
155,47.3488
156,46.988
157,47.0272
158,46.656
159,46.4152
160,46.234
161,46.0006
162,45.9606
163,45.6313
164,45.4023
165,45.3507
166,44.94474
167,44.7902
168,44.4698
169,44.2922
170,44.1403
171,43.89126
172,43.66187
173,43.3995
174,43.1729
175,42.9828
176,42.8207
177,42.5504
178,42.2685
179,42.101
180,41.8779
181,41.5857
182,41.4375
183,41.11233
184,40.9557
185,40.6192
186,40.56176
187,40.2113
188,40.0278
189,39.7991
190,39.463
191,39.3499
192,39.052
193,38.9438
194,38.5109
195,38.3357
196,38.04025
197,37.8586
198,37.5966
199,37.3435
200,37.0796
201,36.8272
202,36.73617
203,36.248
204,36.0516
205,35.85
206,35.4948
207,35.3471
208,35.0237
209,34.7243
210,34.6163
211,34.2048
212,33.8751
213,33.9265
214,33.4565
215,33.14
216,32.9395
217,32.5722
218,32.4225
219,32.0783
220,31.80912
221,31.4748
222,31.19955
223,31.1739
224,30.8903
225,30.5777
226,30.2234
227,29.8923
228,29.7825
229,29.3282
230,29.0622
231,28.94813
232,28.6328
233,28.3104
234,28.0303
235,27.6932
236,27.5221
237,27.2454
238,26.7976
239,26.58938
240,26.415
241,26.139
242,25.6257
243,25.4537
244,25.3609
245,24.9287
246,24.56722
247,24.3123
248,23.95172
249,23.7233
250,23.3182
251,22.9666
252,22.857
253,22.3391
254,22.13216
255,21.8984
256,21.5805
257,21.2372
258,20.9539
259,20.6033
260,20.29513
261,20.0334
262,19.8525
263,19.3015
264,19.147
265,18.9057
266,18.3694
267,18.0249
268,17.7295
269,17.3193
270,17.119
271,16.7722
272,16.4184
273,16.2066
274,15.7687
275,15.329
276,15.0544
277,14.7684
278,14.3161
279,14.0138
280,13.7913
281,13.2587
282,13.0117
283,12.6505
284,12.2983
285,11.9206
286,11.556
287,11.3881
288,10.9056
289,10.5678
290,10.2796
291,9.950169
292,9.616044
293,9.109829
294,8.85433
295,8.628891
296,8.283386
297,7.887428
298,7.488273
299,7.279031
300,7.051085
301,6.615712
302,6.522908
303,6.291488
304,6.008078
305,5.695507
306,5.504561
307,5.147327
308,5.15238
309,4.867911
310,4.610954
311,4.441667
312,4.461852
313,4.148086
314,4.174794
315,3.871751
316,3.600733
317,3.521917
318,3.331097
319,3.335727
320,3.249247
321,2.983446
322,2.783371
323,2.663458
324,2.443979
325,2.438139
326,2.293312
327,2.239822
328,2.038779
329,1.808137
330,1.808228
331,1.701051
332,1.538537
333,1.514857
334,1.504742
335,1.242563
336,1.209183
337,1.105844
338,1.100761
339,0.753963
340,0.821329
341,0.819729
342,0.53589
343,0.510998
344,0.514713
345,0.279938
346,0.310731
347,0.287997
348,0.232849
349,0.115332
350,0.137502
351,0.245884
352,-0.031234
353,-0.083002
354,-0.012853
355,-0.182945
356,-0.114901
357,-0.136118
358,-0.191508
359,-0.314621
360,-0.495351
361,-0.429692
362,-0.434478
363,-0.444672
364,-0.42571
365,-0.566966
366,-0.559619
367,-0.647639
368,-0.762586
369,-0.605743
370,-0.653965
371,-0.993887
372,-0.856697
373,-0.87743
374,-0.79219
375,-0.919779
376,-0.952217
377,-1.028031
378,-1.014469
379,-0.901313
380,-0.908511
381,-1.144185
382,-1.057584
383,-1.083607
384,-1.196237
385,-1.155511
386,-1.176093
387,-1.14
388,-1.167306
389,-1.411457
390,-1.322891
391,-1.091609
392,-1.26935
393,-1.223696
394,-1.383086
395,-1.425144
396,-1.294671
397,-1.357144
398,-1.273845
399,-1.236242
400,-1.345728
401,-1.350439
402,-1.368262
403,-1.513226
404,-1.495417
405,-1.333464
406,-1.435243
407,-1.294579
408,-1.42199
409,-1.590326
410,-1.321493
411,-1.387372
412,-1.331105
413,-1.321441
414,-1.470354
415,-1.497628
416,-1.417317
417,-1.335072
418,-1.411057
419,-1.505953
420,-1.402216
421,-1.325627
422,-1.377477
423,-1.532607
424,-1.625912
425,-1.614462
426,-1.420143
427,-1.47169
428,-1.36949
429,-1.307976
430,-1.528502
431,-1.499971
432,-1.510652
433,-1.450043
434,-1.366472
435,-1.505922
436,-1.498901
437,-1.416673
438,-1.426243
439,-1.45004
440,-1.262122
441,-1.387152
442,-1.389098
443,-1.340807
444,-1.498826
445,-1.421495
446,-1.316473
447,-1.512245
448,-1.389055
449,-1.169834
450,-1.365211
451,-1.440546
452,-1.191703
453,-1.402132
454,-1.333748
455,-1.300315
456,-1.362592
457,-1.334266
458,-1.303934
459,-1.365793
460,-1.324079
461,-1.431071
462,-1.437772
463,-1.367801
464,-1.372912
465,-1.411854
466,-1.421741
467,-1.495409
468,-1.416314
469,-1.317598
470,-1.307208
471,-1.383101
472,-1.203265
473,-1.283002
474,-1.273152
475,-1.224092
476,-1.372583
477,-1.333621
478,-1.387014
479,-1.336561
480,-1.338229
481,-1.336516
482,-1.500638
483,-1.317512
484,-1.330143
485,-1.457911
486,-1.269243
487,-1.210835
488,-1.394149
489,-1.304098
490,-1.467958