File: PMMA/Calibration_Data/DBI-Lund/DBI-Lund_DSC_N2_20K_2.csv
Time,Temperature,Heat Flow
[s],[K],[W/g]
0,298.736,-0.0157
1.9998,298.738,-0.0152
4.0002,298.741,-0.0157
6,298.748,-0.0164
7.9998,298.755,-0.0177
10.0002,298.77,-0.016
12,298.793,-0.0158
13.9998,298.828,-0.0158
16.0002,298.88,-0.0139
18,298.95,-0.0116
19.9998,299.043,-0.00877
22.0002,299.162,-0.00595
24,299.305,0.00219
25.9998,299.481,0.00767
28.0002,299.686,0.0149
30,299.929,0.0252
31.9998,300.209,0.0365
34.0002,300.525,0.0497
36,300.876,0.0602
37.9998,301.264,0.077
40.0002,301.69,0.0933
42,302.152,0.11174
43.9998,302.6493,0.13251
46.0002,303.182,0.15189
48,303.749,0.17254
49.9998,304.349,0.19384
52.0002,304.981,0.21737
54,305.637,0.2392
55.9998,306.317,0.26326
58.0002,307.021,0.28625
60,307.755,0.30816
61.9998,308.51,0.32995
64.0002,309.281,0.35287
66,310.0641,0.37235
67.9998,310.873,0.39345
70.0002,311.696,0.41504
72,312.532,0.43129
73.9998,313.373,0.45042
76.0002,314.2251,0.46688
78,315.085,0.48289
79.9998,315.951,0.49844
82.0002,316.822,0.51259
84,317.698,0.52629
85.9998,318.578,0.53699
88.0002,319.459,0.54929
90,320.341,0.56082
91.9998,321.222,0.56821
94.0002,322.1,0.5761
96,322.976,0.58368
97.9998,323.85,0.58951
100.0002,324.719,0.5955
102,325.587,0.60167
103.9998,326.451,0.60464
106.0002,327.311,0.60937
108,328.164,0.61139
109.9998,329.01,0.61196
112.0002,329.85,0.61493
114,330.684,0.61486
115.9998,331.512,0.61559
118.0002,332.338,0.6184
120,333.16,0.61688
121.9998,333.977,0.61616
124.0002,334.782,0.61607
126,335.583,0.61485
127.9998,336.38,0.61235
130.0002,337.175,0.61096
132,337.962,0.60989
133.9998,338.744,0.60785
136.0002,339.524,0.60743
138,340.301,0.60586
139.9998,341.072,0.60203
142.0002,341.834,0.59965
144,342.588,0.59645
145.9998,343.343,0.59649
148.0002,344.095,0.59296
150,344.844,0.59185
151.9998,345.59,0.59059
154.0002,346.328,0.58866
156,347.064,0.58625
157.9998,347.799,0.58676
160.0002,348.536,0.58337
162,349.271,0.58306
163.9998,350,0.58259
166.0002,350.724,0.58147
168,351.447,0.58083
169.9998,352.173,0.57823
172.0002,352.893,0.57939
174,353.612,0.57908
175.9998,354.323,0.57827
178.0002,355.0378,0.57517
180,355.7521,0.57435
181.9998,356.469,0.57322
184.0002,357.185,0.57158
186,357.901,0.56962
187.9998,358.618,0.56716
190.0002,359.334,0.5647
192,360.05,0.56191
193.9998,360.768,0.55863
196.0002,361.486,0.55649
198,362.204,0.55517
199.9998,362.919,0.5522
202.0002,363.636,0.54972
204,364.352,0.54757
205.9998,365.07,0.54592
208.0002,365.786,0.54459
210,366.5,0.5421
211.9998,367.214,0.54093
214.0002,367.925,0.53992
216,368.639,0.53743
217.9998,369.352,0.5389
220.0002,370.067,0.53756
222,370.783,0.53755
223.9998,371.4967,0.53571
226.0002,372.21,0.53437
228,372.921,0.53501
229.9998,373.632,0.5355
232.0002,374.343,0.53498
234,375.048,0.5343
235.9998,375.754,0.53577
238.0002,376.459,0.53492
240,377.165,0.5349
241.9998,377.8702,0.53505
244.0002,378.575,0.5347
246,379.278,0.53518
247.9998,379.981,0.53515
250.0002,380.679,0.53463
252,381.3748,0.53544
253.9998,382.069,0.53542
256.0002,382.765,0.5369
258,383.459,0.53637
259.9998,384.151,0.53719
262.0002,384.839,0.53733
264,385.529,0.53797
265.9998,386.22,0.53913
268.0002,386.909,0.53843
270,387.597,0.53992
271.9998,388.281,0.54241
274.0002,388.964,0.54239
276,389.644,0.5459
277.9998,390.324,0.5452
280.0002,391.006,0.54736
282,391.687,0.54937
283.9998,392.3668,0.55171
286.0002,393.044,0.55371
288,393.722,0.55639
289.9998,394.4,0.55941
292.0002,395.075,0.56396
294,395.749,0.56801
295.9998,396.424,0.5724
298.0002,397.0993,0.57594
300,397.774,0.58017
301.9998,398.443,0.58508
304.0002,399.114,0.58694
306,399.785,0.59424
307.9998,400.461,0.59951
310.0002,401.1328,0.60631
312,401.805,0.61142
313.9998,402.478,0.61501
316.0002,403.15,0.61979
318,403.823,0.62389
319.9998,404.493,0.62714
322.0002,405.159,0.62886
324,405.824,0.63007
325.9998,406.495,0.63248
328.0002,407.166,0.63148
330,407.836,0.63013
331.9998,408.504,0.62826
334.0002,409.174,0.62485
336,409.846,0.62144
337.9998,410.516,0.61648
340.0002,411.185,0.60894
342,411.851,0.60637
343.9998,412.522,0.59916
346.0002,413.194,0.59039
348,413.866,0.58042
349.9998,414.536,0.57576
352.0002,415.205,0.56748
354,415.876,0.56023
355.9998,416.545,0.55452
358.0002,417.215,0.54984
360,417.8831,0.55067
361.9998,418.555,0.54702
364.0002,419.225,0.54405
366,419.894,0.54333
367.9998,420.561,0.54208
370.0002,421.228,0.54239
372,421.895,0.5427
373.9998,422.563,0.54232
376.0002,423.231,0.5428
378,423.902,0.54156
379.9998,424.5712,0.54117
382.0002,425.241,0.54339
384,425.909,0.54405
385.9998,426.578,0.54315
388.0002,427.2443,0.54329
390,427.911,0.54343
391.9998,428.58,0.54391
394.0002,429.248,0.5437
396,429.916,0.54384
397.9998,430.58,0.54276
400.0002,431.243,0.5429
402,431.906,0.54216
403.9998,432.568,0.54352
406.0002,433.232,0.544
408,433.898,0.54379
409.9998,434.5639,0.54375
412.0002,435.231,0.54512
414,435.895,0.54526
415.9998,436.56,0.54399
418.0002,437.222,0.54378
420,437.885,0.54409
421.9998,438.548,0.54458
424.0002,439.214,0.54437
426,439.877,0.54415
427.9998,440.542,0.54464
430.0002,441.2067,0.54425
432,441.871,0.54615
433.9998,442.536,0.54717
436.0002,443.198,0.54749
438,443.86,0.54709
439.9998,444.5202,0.5467
442.0002,445.182,0.54825
444,445.848,0.54804
445.9998,446.513,0.55083
448.0002,447.1743,0.55186
450,447.836,0.55111
451.9998,448.501,0.55515
454.0002,449.166,0.55299
456,449.832,0.55296
457.9998,450.496,0.55505
460.0002,451.163,0.55627
462,451.829,0.5573
463.9998,452.495,0.55816
466.0002,453.161,0.56026
468,453.828,0.56041
469.9998,454.492,0.56323
472.0002,455.157,0.56266
474,455.821,0.56406
475.9998,456.489,0.56546
478.0002,457.154,0.56721
480,457.82,0.56897
481.9998,458.487,0.56913
484.0002,459.154,0.57
486,459.822,0.57069
487.9998,460.489,0.57174
490.0002,461.155,0.57314
492,461.825,0.57241
493.9998,462.494,0.57471
496.0002,463.165,0.57523
498,463.833,0.57575
499.9998,464.498,0.5768
502.0002,465.164,0.57714
504,465.83,0.57748
505.9998,466.498,0.57872
508.0002,467.168,0.57798
510,467.836,0.57777
511.9998,468.504,0.57559
514.0002,469.17,0.57521
516,469.836,0.57536
517.9998,470.502,0.57462
520.0002,471.171,0.57279
522,471.84,0.5733
523.9998,472.509,0.57256
526.0002,473.176,0.57126
528,473.846,0.57015
529.9998,474.514,0.56777
532.0002,475.183,0.56629
534,475.851,0.56553
535.9998,476.518,0.5646
538.0002,477.184,0.56202
540,477.852,0.56253
541.9998,478.519,0.56287
544.0002,479.182,0.56138
546,479.8449,0.56116
547.9998,480.51,0.56021
550.0002,481.18,0.56218
552,481.85,0.56288
553.9998,482.516,0.56248
556.0002,483.181,0.56135
558,483.845,0.56241
559.9998,484.5141,0.56201
562.0002,485.183,0.56363
564,485.852,0.56543
565.9998,486.519,0.56741
568.0002,487.182,0.56829
570,487.847,0.57119
571.9998,488.51,0.57428
574.0002,489.177,0.57664
576,489.844,0.57992
577.9998,490.512,0.58302
580.0002,491.1788,0.58575
582,491.848,0.58941
583.9998,492.515,0.59363
586.0002,493.183,0.59822
588,493.849,0.60005
589.9998,494.513,0.6063
592.0002,495.1798,0.61035
594,495.847,0.61551
595.9998,496.52,0.6229
598.0002,497.189,0.62808
600,497.858,0.63308
601.9998,498.525,0.64012
604.0002,499.191,0.64476
606,499.857,0.65033
607.9998,500.5227,0.65702
610.0002,501.1901,0.66001
612,501.857,0.6643
613.9998,502.524,0.66822
616.0002,503.192,0.67066
618,503.86,0.67441
619.9998,504.526,0.67481
622.0002,505.193,0.67502
624,505.858,0.67486
625.9998,506.522,0.67489
628.0002,507.185,0.67193
630,507.848,0.67139
631.9998,508.512,0.66861
634.0002,509.177,0.6634
636,509.84,0.66211
637.9998,510.504,0.65539
640.0002,511.167,0.65129
642,511.83,0.6468
643.9998,512.494,0.6425
646.0002,513.156,0.63557
648,513.819,0.63144
649.9998,514.484,0.62618
652.0002,515.146,0.62073
654,515.809,0.61508
655.9998,516.469,0.61224
658.0002,517.133,0.60771
660,517.797,0.60186
661.9998,518.462,0.59807
664.0002,519.124,0.59296
666,519.787,0.58991
667.9998,520.4497,0.58384
670.0002,521.114,0.58135
672,521.778,0.57849
673.9998,522.442,0.57656
676.0002,523.108,0.57425
678,523.774,0.57346
679.9998,524.444,0.57172
682.0002,525.1119,0.57225
684,525.778,0.56899
685.9998,526.444,0.56971
688.0002,527.111,0.56853
690,527.779,0.5702
691.9998,528.447,0.57092
694.0002,529.114,0.5724
696,529.783,0.57446
697.9998,530.452,0.57442
700.0002,531.124,0.57838
702,531.795,0.58045
703.9998,532.463,0.58213
706.0002,533.129,0.58477
708,533.798,0.58779
709.9998,534.466,0.58948
712.0002,535.133,0.595
714,535.799,0.59842
715.9998,536.469,0.60299
718.0002,537.139,0.6068
720,537.808,0.61138
721.9998,538.476,0.61577
724.0002,539.146,0.62017
726,539.814,0.624
727.9998,540.482,0.63033
730.0002,541.15,0.63571
732,541.821,0.64071
733.9998,542.491,0.64783
736.0002,543.159,0.65246
738,543.825,0.65747
739.9998,544.494,0.66539
742.0002,545.1617,0.67042
744,545.83,0.67603
745.9998,546.497,0.68262
748.0002,547.164,0.69018
750,547.832,0.69582
751.9998,548.499,0.70262
754.0002,549.1662,0.70943
756,549.837,0.71722
757.9998,550.506,0.72619
760.0002,551.176,0.72973
762,551.843,0.73948
763.9998,552.51,0.74925
766.0002,553.179,0.75883
768,553.844,0.76707
769.9998,554.5102,0.77609
772.0002,555.175,0.78784
774,555.844,0.79572
775.9998,556.513,0.80478
778.0002,557.181,0.81501
780,557.849,0.82663
781.9998,558.517,0.83845
784.0002,559.185,0.84931
786,559.852,0.86272
787.9998,560.52,0.87244
790.0002,561.189,0.88706
792,561.857,0.90091
793.9998,562.524,0.91262
796.0002,563.192,0.92513
798,563.858,0.9406
799.9998,564.525,0.95255
802.0002,565.188,0.96569
804,565.853,0.97767
805.9998,566.519,0.99281
808.0002,567.187,1.00502
810,567.853,1.01704
811.9998,568.516,1.03046
814.0002,569.18,1.04626
816,569.846,1.06069
817.9998,570.513,1.07416
820.0002,571.178,1.08823
822,571.846,1.1041
823.9998,572.509,1.11603
826.0002,573.173,1.12877
828,573.835,1.13934
829.9998,574.5,1.1533
832.0002,575.164,1.16826
834,575.828,1.18026
835.9998,576.492,1.19228
838.0002,577.158,1.19974
840,577.822,1.21397
841.9998,578.484,1.22742
844.0002,579.147,1.23869
846,579.811,1.24859
847.9998,580.475,1.2573
850.0002,581.136,1.26362
852,581.8,1.27435
853.9998,582.462,1.28448
856.0002,583.128,1.29523
858,583.792,1.3038
859.9998,584.457,1.31077
862.0002,585.123,1.31356
864,585.787,1.31854
865.9998,586.452,1.32574
868.0002,587.114,1.33374
870,587.776,1.34094
871.9998,588.439,1.34836
874.0002,589.102,1.35619
876,589.766,1.36403
877.9998,590.429,1.37147
880.0002,591.093,1.37691
882,591.756,1.38357
883.9998,592.417,1.38882
886.0002,593.078,1.39427
888,593.7392,1.39953
889.9998,594.402,1.40258
892.0002,595.063,1.40866
894,595.726,1.41475
895.9998,596.386,1.42023
898.0002,597.051,1.42573
900,597.714,1.43345
901.9998,598.378,1.44099
904.0002,599.041,1.44691
906,599.704,1.45385
907.9998,600.367,1.46099
910.0002,601.03,1.46957
912,601.692,1.48567
913.9998,602.354,1.49366
916.0002,603.016,1.50938
918,603.678,1.52492
919.9998,604.348,1.53805
922.0002,605.013,1.55281
924,605.677,1.56942
925.9998,606.3359,1.58992
928.0002,606.999,1.60718
930,607.6643,1.62548
931.9998,608.331,1.64749
934.0002,608.997,1.66891
936,609.6628,1.69096
937.9998,610.326,1.71385
940.0002,610.992,1.73944
942,611.655,1.76546
943.9998,612.322,1.79173
946.0002,612.987,1.82048
948,613.655,1.84947
949.9998,614.319,1.87849
952.0002,614.9848,1.91043
954,615.648,1.94486
955.9998,616.313,1.9781
958.0002,616.977,2.01385
960,617.642,2.05212
961.9998,618.309,2.09126
964.0002,618.974,2.12796
966,619.6402,2.16801
967.9998,620.3022,2.21079
970.0002,620.966,2.25341
972,621.632,2.29959
973.9998,622.298,2.34376
976.0002,622.964,2.39233
978,623.629,2.43806
979.9998,624.2951,2.48757
982.0002,624.96,2.53713
984,625.623,2.58634
985.9998,626.287,2.64162
988.0002,626.953,2.69053
990,627.6201,2.74719
991.9998,628.285,2.79997
994.0002,628.95,2.85675
996,629.613,2.91089
997.9998,630.2763,2.96593
1000,630.941,3.02416
1002,631.605,3.08037
1004,632.27,3.13832
1006,632.932,3.19549
1008,633.5962,3.25315
1010,634.26,3.30858
1012,634.924,3.36512
1014,635.588,3.42172
1016,636.25,3.47252
1018,636.913,3.52234
1020,637.5753,3.56928
1022,638.241,3.6125
1024,638.906,3.65158
1026,639.569,3.69006
1028,640.232,3.72081
1030,640.895,3.75538
1032,641.562,3.78158
1034,642.229,3.78551
1036,642.896,3.79428
1038,643.561,3.8117
1040,644.225,3.83103
1042,644.888,3.84193
1044,645.554,3.84167
1046,646.218,3.83865
1048,646.886,3.846
1050,647.552,3.85081
1052,648.221,3.86875
1054,648.888,3.881
1056,649.555,3.88774
1058,650.223,3.87012
1060,650.891,3.86456
1062,651.559,3.85008
1064,652.228,3.85173
1066,652.899,3.85869
1068,653.572,3.8444
1070,654.243,3.79839
1072,654.915,3.7866
1074,655.586,3.76372
1076,656.257,3.7148
1078,656.928,3.79676
1080,657.597,3.74161
1082,658.267,3.75963
1084,658.937,3.69969
1086,659.608,3.72689
1088,660.277,3.68076
1090,660.946,3.63671
1092,661.616,3.61873
1094,662.287,3.53452
1096,662.957,3.49052
1098,663.629,3.51211
1100,664.298,3.50088
1102,664.969,3.44926
1104,665.639,3.38962
1106,666.309,3.35786
1108,666.979,3.29207
1110,667.649,3.21027
1112,668.322,3.14734
1114,668.994,3.07247
1116,669.6631,2.99966
1118,670.334,2.92461
1120,671.005,2.84127
1122,671.676,2.7602
1124,672.3462,2.66714
1126,673.015,2.58479
1128,673.686,2.4913
1130,674.358,2.40204
1132,675.03,2.30833
1134,675.7,2.21473
1136,676.369,2.1273
1138,677.04,2.035
1140,677.712,1.94541
1142,678.382,1.86202
1144,679.052,1.77635
1146,679.721,1.69537
1148,680.39,1.61146
1150,681.059,1.53572
1152,681.73,1.46078
1154,682.397,1.38748
1156,683.068,1.31759
1158,683.735,1.25111
1160,684.404,1.18849
1162,685.069,1.12863
1164,685.737,1.06979
1166,686.405,1.01461
1168,687.074,0.96287
1170,687.742,0.91194
1172,688.408,0.86709
1174,689.076,0.8224
1176,689.745,0.78228
1178,690.414,0.74474
1180,691.08,0.71177
1182,691.7468,0.68426
1184,692.415,0.66574
1186,693.087,0.66019
1188,693.76,0.65859
1190,694.433,0.65611
1192,695.107,0.64966
1194,695.776,0.64364
1196,696.447,0.64093
1198,697.115,0.636
1200,697.783,0.63349
1202,698.4492,0.63143
1204,699.117,0.63157
1206,699.785,0.6284
1208,700.45,0.62411
1210,701.112,0.61294
1212,701.773,0.60087
1214,702.432,0.58501
1216,703.09,0.5718
1218,703.745,0.5548
1220,704.406,0.53555
1222,705.063,0.51695
1224,705.717,0.50211
1226,706.37,0.4828
1228,707.025,0.4648
1230,707.682,0.4479
1232,708.337,0.4332
1234,708.9961,0.41805
1236,709.656,0.404
1238,710.3169,0.39104
1240,710.973,0.37584
1242,711.631,0.36285
1244,712.289,0.35053
1246,712.952,0.33953
1248,713.611,0.32829
1250,714.2721,0.31906
1252,714.93,0.30623
1254,715.592,0.29271
1256,716.253,0.27985
1258,716.915,0.26586
1260,717.577,0.25184
1262,718.24,0.24141
1264,718.904,0.22939
1266,719.57,0.22029
1268,720.235,0.21253
1270,720.8998,0.20205
1272,721.564,0.19382
1274,722.231,0.18919
1276,722.896,0.18387
1278,723.563,0.17855
1280,724.231,0.17413
1282,724.8991,0.17039
1284,725.57,0.16686
1286,726.2403,0.16333
1288,726.909,0.16116
1290,727.578,0.15785
1292,728.246,0.15862
1294,728.915,0.15622
1296,729.583,0.15403
1298,730.2522,0.15344
1300,730.921,0.15535
1302,731.59,0.15521
1304,732.261,0.15575
1306,732.932,0.15516
1308,733.6032,0.15525
1310,734.274,0.15579
1312,734.944,0.15588
1314,735.613,0.15825
1316,736.2819,0.15812
1318,736.95,0.15981
1320,737.621,0.16035
1322,738.29,0.16045
1324,738.96,0.16122
1326,739.629,0.16315
1328,740.296,0.16233
1330,740.963,0.16678
1332,741.63,0.16779
1334,742.299,0.16834
1336,742.97,0.16798
1338,743.639,0.17014
1340,744.305,0.17254
1342,744.971,0.17149
1344,745.637,0.17343
1346,746.306,0.1726
1348,746.9739,0.17385
1350,747.641,0.17764
1352,748.305,0.17844
1354,748.97,0.17738
1356,749.637,0.17748
1358,750.306,0.17666
1360,750.974,0.17861
1362,751.641,0.17778
1364,752.308,0.17858
1366,752.9742,0.17937
1368,753.64,0.18017
1370,754.3051,0.18073
1372,754.971,0.18084
1374,755.637,0.18094
1376,756.301,0.17895
1378,756.9653,0.18021
1380,757.632,0.18217
1382,758.299,0.18414
1384,758.967,0.18354
1386,759.633,0.18434
1388,760.296,0.18421
1390,760.96,0.18548
1392,761.6253,0.18138
1394,762.2911,0.17892
1396,762.958,0.18065
1398,763.625,0.17982
1400,764.294,0.18085
1402,764.959,0.18376
1404,765.625,0.18199
1406,766.289,0.18326
1408,766.955,0.18266
1410,767.618,0.18347
1412,768.284,0.18639
1414,768.948,0.18673
1416,769.613,0.18495
1418,770.2773,0.18458
1420,770.943,0.18492
1422,771.608,0.18361
1424,772.272,0.18277
1426,772.939,0.18334
1428,773.605,0.18556
1430,774.271,0.18307
1432,774.936,0.18247
1434,775.6,0.18422
1436,776.265,0.1829
1438,776.928,0.18253
1440,777.595,0.18263
1442,778.261,0.18392
1444,778.928,0.18189
1446,779.5949,0.18365
1448,780.263,0.18233
1450,780.927,0.18385
1452,781.593,0.18205
1454,782.259,0.17906
1456,782.927,0.17988
1458,783.595,0.18093
1460,784.259,0.1796
1462,784.923,0.18065
1464,785.588,0.18122
1466,786.256,0.17918
1468,786.924,0.18023
1470,787.593,0.17985
1472,788.259,0.17995
1474,788.927,0.18125
1476,789.592,0.17991
1478,790.259,0.18097
1480,790.925,0.17987
1482,791.593,0.18116
1484,792.261,0.18174
1486,792.929,0.18064
1488,793.594,0.17954
1490,794.261,0.1818
1492,794.927,0.18214
1494,795.594,0.17912
1496,796.259,0.18138
1498,796.9243,0.18172
1500,797.591,0.18109
1502,798.26,0.18384
1504,798.929,0.18226
1506,799.599,0.18404
1508,800.267,0.18535
1510,800.934,0.18569
1512,801.602,0.18844
1514,802.269,0.18758
1516,802.936,0.18744
1518,803.6031,0.18851
1520,804.271,0.18716
1522,804.939,0.18968
1524,805.604,0.19051
1526,806.269,0.19158
1528,806.933,0.19362
1530,807.604,0.19252
1532,808.272,0.19311
1534,808.94,0.19248
1536,809.606,0.19453
1538,810.273,0.19852
1540,810.94,0.19741
1542,811.607,0.19922
1544,812.274,0.20006
1546,812.94,0.20041
1548,813.607,0.20223
1550,814.272,0.20404
1552,814.939,0.20464
1554,815.603,0.20499
1556,816.27,0.20681
1558,816.934,0.20863
1560,817.6012,0.20899
1562,818.267,0.21203
1564,818.935,0.21166
1566,819.602,0.21667
1568,820.268,0.21703
1570,820.933,0.21519
1572,821.597,0.218
1574,822.263,0.22106
1576,822.931,0.22216
1578,823.598,0.22105
1580,824.265,0.22362
1582,824.927,0.22669
1584,825.5909,0.22534
1586,826.256,0.22718
1588,826.923,0.2273
1590,827.59,0.23062
1592,828.256,0.23099
1594,828.923,0.23358
1596,829.589,0.23469
1598,830.257,0.23679
1600,830.923,0.23494
1602,831.592,0.23902
1604,832.26,0.23989
1606,832.928,0.24348
1608,833.595,0.24559
1610,834.262,0.24548
1612,834.927,0.24883
1614,835.595,0.24946
1616,836.264,0.25232
1618,836.932,0.25444
1620,837.598,0.25407
1622,838.265,0.25843
1624,838.93,0.25782
1626,839.595,0.2597
1628,840.261,0.26058
1630,840.929,0.26271
1632,841.598,0.26434
1634,842.265,0.26498
1636,842.932,0.26836
1638,843.598,0.2695
1640,844.266,0.27064
1642,844.932,0.27153
1644,845.599,0.27368
1646,846.266,0.27257
1648,846.936,0.27722
1650,847.605,0.27786
1652,848.2732,0.28126
1654,848.943,0.28141
1656,849.609,0.28356
1658,850.277,0.28672
1660,850.941,0.28963
1662,851.609,0.28853
1664,852.275,0.29194
1666,852.942,0.29561
1668,853.61,0.29703
1670,854.277,0.29945
1672,854.944,0.30061
1674,855.613,0.30379
1676,856.281,0.3042
1678,856.948,0.30738
1680,857.612,0.31158
1682,858.277,0.31224
1684,858.945,0.31493
1686,859.613,0.31863
1688,860.282,0.31955
1690,860.949,0.32275
1692,861.615,0.3252
1694,862.281,0.32866
1696,862.946,0.32984
1698,863.613,0.33432
1700,864.278,0.33703
1702,864.946,0.33923
1704,865.614,0.34524
1706,866.282,0.34491
1708,866.95,0.35119
1710,867.616,0.3501
1712,868.2813,0.35562
1714,868.946,0.35733
1716,869.609,0.3593
1718,870.275,0.36457
1720,870.942,0.36527
1722,871.612,0.37132
1724,872.2807,0.37305
1726,872.946,0.3763
1728,873.613,0.3793
1730,874.279,0.38537
1732,874.95,0.38787
1734,875.616,0.38935
1736,876.283,0.39851
1738,876.948,0.40101
1740,877.614,0.4066
1742,878.279,0.40732
1744,878.9422,0.41137
1746,879.607,0.4144
1748,880.276,0.41795
1750,880.944,0.42124
1752,881.611,0.42737
1754,882.275,0.42887
1756,882.942,0.43089
1758,883.611,0.436
1760,884.279,0.44059
1762,884.946,0.44803
1764,885.611,0.44826
1766,886.277,0.45261
1768,886.942,0.45826
1770,887.6091,0.46158
1772,888.277,0.46388
1774,888.945,0.47239
1776,889.612,0.47314
1778,890.278,0.47467
1780,890.944,0.48112
1782,891.608,0.48628
1784,892.274,0.49041
1786,892.942,0.49247
1788,893.61,0.49454
1790,894.277,0.49868
1792,894.945,0.50308
1794,895.614,0.50697
1796,896.283,0.51138
1798,896.947,0.51788
1800,897.613,0.51995
1802,898.276,0.52464
1804,898.94,0.52906
1806,899.6,0.53297
1808,900.258,0.53532
1810,900.919,0.54262
1812,901.584,0.54681
1814,902.248,0.55412
1816,902.915,0.55753
1818,903.583,0.56304
1820,904.251,0.56645
1822,904.919,0.57092
1824,905.588,0.57722
1826,906.256,0.58248
1828,906.924,0.58906
1830,907.591,0.59171
1832,908.258,0.59724
1834,908.927,0.60436
1836,909.596,0.6086
1838,910.265,0.61415
1840,910.932,0.62049
1842,911.598,0.62789
1844,912.264,0.63083
1846,912.931,0.63798
1848,913.599,0.64251
1850,914.266,0.65046
1852,914.933,0.65315
1854,915.6,0.6569
1856,916.266,0.66329
1858,916.932,0.66784
1860,917.596,0.67555
1862,918.2631,0.68275
1864,918.932,0.68626
1866,919.6,0.69611
1868,920.267,0.70095
1870,920.931,0.70394
1872,921.5968,0.70878
1874,922.262,0.71522
1876,922.928,0.72246
1878,923.594,0.73076
1880,924.259,0.73085
1882,924.927,0.73944
1884,925.595,0.74325
1886,926.264,0.74733
1888,926.93,0.75487
1890,927.596,0.76348
1892,928.262,0.76651
1894,928.929,0.77141
1896,929.598,0.77818
1898,930.266,0.78228
1900,930.932,0.78906
1902,931.599,0.79291
1904,932.268,0.7989
1906,932.936,0.80142
1908,933.6051,0.80608
1910,934.272,0.81288
1912,934.9401,0.81461
1914,935.607,0.82062
1916,936.275,0.82476
1918,936.941,0.82837
1920,937.607,0.83064
1922,938.274,0.83453
1924,938.941,0.83868
1926,939.61,0.84365
1928,940.277,0.84593
1930,940.944,0.85117
1932,941.6128,0.85937
1934,942.282,0.86032
1936,942.95,0.86261
1938,943.6143,0.86679
1940,944.2793,0.87178
1942,944.944,0.87623
1944,945.613,0.88096
1946,946.2791,0.88273
1948,946.947,0.89097
1950,947.614,0.89004
1952,948.283,0.89587
1954,948.95,0.89791
1956,949.617,0.90023
1958,950.2843,0.90417
1960,950.951,0.90704
1962,951.619,0.91207
1964,952.286,0.91629
1966,952.952,0.91754
1968,953.618,0.91932
1970,954.285,0.92193
1972,954.952,0.92725
1974,955.619,0.92958
1976,956.286,0.93301
1978,956.954,0.93834
1980,957.621,0.93959
1982,958.286,0.94221
1984,958.948,0.94428
1986,959.613,0.94772
1988,960.28,0.94735
1990,960.948,0.95052
1992,961.616,0.9526
1994,962.285,0.95496
1996,962.953,0.95595
1998,963.622,0.95804
2000,964.287,0.96176
2002,964.953,0.96685
2004,965.619,0.96621
2006,966.287,0.96749
2008,966.954,0.97149
2010,967.62,0.97058
2012,968.286,0.9713
2014,968.952,0.97532
2016,969.619,0.97742
2018,970.287,0.97979
2020,970.955,0.98189
2022,971.622,0.98372
2024,972.289,0.98912
2026,972.956,0.99233
2028,973.623,0.99581
2030,974.29,0.99902
2032,974.957,1.00141
2034,975.623,1.00518
2036,976.29,1.00784
2038,976.958,1.01051
2040,977.626,1.01401
2042,978.2929,1.01669
2044,978.96,1.01881
2046,979.627,1.02177
2048,980.295,1.02445
2050,980.962,1.02547
2052,981.632,1.03147
2054,982.302,1.03112
2056,982.972,1.03215
2058,983.638,1.03373
2060,984.301,1.03725
2062,984.9647,1.04049
2064,985.6323,1.0418
2066,986.302,1.04367
2068,986.969,1.04498
2070,987.635,1.04601
2072,988.301,1.05065
2074,988.97,1.05224
2076,989.639,1.05301
2078,990.306,1.0571
2080,990.974,1.05842
2082,991.642,1.05918
2084,992.31,1.05772
2086,992.976,1.06042
2088,993.641,1.06369
2090,994.307,1.06585
2092,994.974,1.06578
2094,995.643,1.06933
2096,996.309,1.07149
2098,996.976,1.0717
2100,997.642,1.07107
2102,998.311,1.07491
2104,998.979,1.07679
2106,999.646,1.08008
2108,1000.31,1.08001
2110,1000.98,1.08245
2112,1001.64,1.08294
2114,1002.31,1.08735
2116,1002.98,1.08841
2118,1003.64,1.08805
2120,1004.31,1.08854
2122,1004.98,1.09016
2124,1005.64,1.09065
2126,1006.31,1.08945
2128,1006.97,1.09331
2130,1007.64,1.09043
2132,1008.3,1.0898
2134,1008.97,1.09113
2136,1009.64,1.08937
2138,1010.31,1.08732
2140,1010.97,1.08893
2142,1011.64,1.08801
2144,1012.31,1.08737
2146,1012.98,1.08927
2148,1013.64,1.0906
2150,1014.31,1.09222
2152,1014.98,1.09328
2154,1015.65,1.09405
2156,1016.31,1.0951
2158,1016.978,1.09417
2160,1017.64,1.09579
2162,1018.31,1.09685
2164,1018.98,1.09705
2166,1019.64,1.09555
2168,1020.31,1.09604
2170,1020.98,1.09454
2172,1021.65,1.09588
2174,1022.32,1.09239
2176,1022.99,1.09543
2178,1023.65,1.09393
2180,1024.32,1.09584
2182,1024.99,1.09547
2184,1025.65,1.09595
2186,1026.32,1.09814
2188,1026.99,1.09749
2190,1027.65,1.09712
2192,1028.32,1.09988
2194,1028.98,1.09951
2196,1029.65,1.098
2198,1030.32,1.09934
2200,1030.99,1.10211
2202,1031.65,1.10345
2204,1032.32,1.10394
2206,1032.99,1.10499
2208,1033.65,1.10462
2210,1034.32,1.10539
2212,1034.99,1.10502
2214,1035.66,1.10579
2216,1036.33,1.10627
2218,1036.99,1.10705
2220,1037.66,1.11012
2222,1038.33,1.1106
2224,1039,1.11195
2226,1039.67,1.11445
2228,1040.33,1.11407
2230,1041,1.11772
2232,1041.66,1.12051
2234,1042.33,1.11725
2236,1043,1.11659
2238,1043.67,1.11938
2240,1044.33,1.12477
2242,1045,1.12237
2244,1045.67,1.12459
2246,1046.338,1.12566
2248,1047.01,1.12442
2250,1047.68,1.12751
2252,1048.34,1.12915
2254,1049.01,1.12877
2256,1049.68,1.1284
2258,1050.35,1.12889
2260,1051.01,1.12851
2262,1051.68,1.13189
2264,1052.35,1.13122
2266,1053.01,1.13229
2268,1053.68,1.13307
2270,1054.35,1.13355
2272,1055.02,1.13172
2274,1055.68,1.13018
2276,1056.35,1.13096
2278,1057.02,1.13173
2280,1057.68,1.12989
2282,1058.35,1.13067
2284,1059.02,1.13291
2286,1059.69,1.1331
2288,1060.36,1.13272
2290,1061.02,1.13495
2292,1061.69,1.13573
2294,1062.35,1.13592
2296,1063.02,1.13553
2298,1063.69,1.13427
2300,1064.36,1.13505
2302,1065.02,1.13612
2304,1065.69,1.13514
2306,1066.35,1.13416
2308,1067.02,1.13553
2310,1067.69,1.13513
2312,1068.36,1.13123
2314,1069.03,1.13288
2316,1069.69,1.13395
2318,1070.36,1.13297
2320,1071.02,1.13462
2322,1071.69,1.13364
2324,1072.36,1.13442
2326,1073.03,1.13607
2328,1073.698,1.13773
2330,1074.37,1.13763
2332,1075.03,1.13811
2334,1075.7,1.13771
2336,1076.36,1.14054
2338,1077.03,1.13956
2340,1077.7,1.14033
2342,1078.37,1.13817
2344,1079.04,1.13983
2346,1079.7,1.13825
2348,1080.37,1.13696
2350,1081.04,1.13685
2352,1081.71,1.13615
2354,1082.37,1.13693
2356,1083.04,1.13859
2358,1083.71,1.13404
2360,1084.38,1.13807
2362,1085.04,1.13471
2364,1085.71,1.13518
2366,1086.38,1.13181
2368,1087.05,1.13407
2370,1087.72,1.13454
2372,1088.38,1.13621
2374,1089.05,1.13698
2376,1089.71,1.13271
2378,1090.38,1.13348
2380,1091.05,1.13188
2382,1091.72,1.13235
2384,1092.38,1.13194
2386,1093.05,1.13122
2388,1093.72,1.13407
2390,1094.38,1.13306
2392,1095.05,1.13443
2394,1095.71,1.1352
2396,1096.38,1.13478
2398,1097.05,1.13257
2400,1097.72,1.13633
2402,1098.39,1.13531
2404,1099.05,1.13608
2406,1099.72,1.13506
2408,1100.38,1.13464
2410,1101.05,1.13182
2412,1101.71,1.13139
2414,1102.38,1.13276
2416,1103.05,1.13204
2418,1103.72,1.13071
2420,1104.38,1.12879
2422,1105.05,1.12866
2424,1105.72,1.12793
2426,1106.38,1.1287
2428,1107.05,1.12916
2430,1107.71,1.12693
2432,1108.38,1.1262
2434,1109.05,1.12546
2436,1109.71,1.12623
2438,1110.38,1.12459
2440,1111.05,1.12626
2442,1111.71,1.12011
2444,1112.38,1.12117
2446,1113.04,1.12073
2448,1113.71,1.11969
2450,1114.38,1.12075
2452,1115.05,1.11609
2454,1115.71,1.11957
2456,1116.38,1.11792
2458,1117.05,1.11536
2460,1117.72,1.11824
2462,1118.39,1.11749
2464,1119.05,1.11765
2466,1119.72,1.11358
2468,1120.39,1.11525
2470,1121.06,1.11389
2472,1121.73,1.11375
2474,1122.39,1.1142
2476,1123.06,1.11466
2478,1123.73,1.11663
2480,1124.4,1.11497
2482,1125.06,1.11543
2484,1125.73,1.11468
2486,1126.4,1.11483
2488,1127.07,1.11195
2490,1127.73,1.11757
2492,1128.4,1.11468
2494,1129.07,1.11483
2496,1129.74,1.11529
2498,1130.4,1.11575
2500,1131.07,1.12047
2502,1131.74,1.11849
2504,1132.41,1.11834
2506,1133.08,1.12032
2508,1133.74,1.11834
2510,1134.41,1.12001
2512,1135.07,1.11833
2514,1135.74,1.11848
2516,1136.41,1.1223
2518,1137.07,1.12092
2520,1137.74,1.1226
2522,1138.4,1.11847
2524,1139.07,1.12107
2526,1139.74,1.12214
2528,1140.4,1.11892
2530,1141.07,1.12091
2532,1141.74,1.12075
2534,1142.4,1.12151
2536,1143.07,1.12381
2538,1143.74,1.12304
2540,1144.4,1.12257
2542,1145.06,1.12303
2544,1145.73,1.12133
2546,1146.4,1.12301
2548,1147.06,1.12378
2550,1147.731,1.12393
2552,1148.4,1.12407
2554,1149.06,1.12576
2556,1149.73,1.12499
2558,1150.4,1.12667
2560,1151.06,1.12497
2562,1151.73,1.12974
2564,1152.4,1.1265
2566,1153.06,1.1285
2568,1153.73,1.12834
2570,1154.4,1.12817
2572,1155.06,1.12986
2574,1155.73,1.1297
2576,1156.39,1.12892
2578,1157.06,1.1334
2580,1157.73,1.12891
2582,1158.39,1.13029
2584,1159.06,1.12982
2586,1159.73,1.12934
2588,1160.39,1.12887
2590,1161.06,1.13056
2592,1161.72,1.13133
2594,1162.39,1.13334
2596,1163.06,1.1369
2598,1163.72,1.13518
2600,1164.39,1.13843
2602,1165.05,1.14013
2604,1165.72,1.1409
2606,1166.39,1.1423
2608,1167.06,1.14493
2610,1167.72,1.14571
2612,1168.39,1.14835
2614,1169.06,1.14881
2616,1169.73,1.15114
2618,1170.4,1.15472
2620,1171.06,1.15924
2622,1171.73,1.16314
2624,1172.39,1.16329
2626,1173.06,1.16625
2628,1173.72,1.16797
2630,1174.39,1.17094
2632,1175.05,1.17109
2634,1175.72,1.16969
2636,1176.39,1.17423
2638,1177.06,1.17626
2640,1177.72,1.17986
2642,1178.39,1.18441
2644,1179.05,1.18206
2646,1179.72,1.18504
2648,1180.39,1.1921
2650,1181.05,1.19133
2652,1181.71,1.1962
2654,1182.38,1.19981
2656,1183.05,1.20061
2658,1183.71,1.2036
2660,1184.38,1.20534
2662,1185.04,1.21054
2664,1185.71,1.21133
2666,1186.37,1.21496
2668,1187.04,1.2186
2670,1187.7,1.22381
2672,1188.36,1.22524
2674,1189.03,1.22857
2676,1189.7,1.23158
2678,1190.36,1.23554
2680,1191.03,1.23793
2682,1191.69,1.24474
2684,1192.36,1.24871
2686,1193.02,1.2511
2688,1193.69,1.25571
2690,1194.35,1.26064
2692,1195.02,1.26209
2694,1195.68,1.26702
2696,1196.35,1.26784
2698,1197.01,1.27468
2700,1197.68,1.27646
2702,1198.35,1.27951
2704,1199.01,1.28604
2706,1199.68,1.29004
2708,1200.34,1.29309
2710,1201.01,1.29837
2712,1201.68,1.30302
2714,1202.34,1.30513
2716,1203.01,1.30978
2718,1203.68,1.3138
2720,1204.34,1.31655
2722,1205.01,1.32535
2724,1205.67,1.32842
2726,1206.34,1.33086
2728,1207,1.33649
2730,1207.67,1.34149
2732,1208.34,1.34712
2734,1209.01,1.34862
2736,1209.67,1.35618
2738,1210.34,1.35863
2740,1211.01,1.3662
2742,1211.68,1.3677
2744,1212.34,1.374
2746,1213.01,1.38094
2748,1213.67,1.38661
2750,1214.34,1.38908
2752,1215.01,1.3954
2754,1215.67,1.3998
2756,1216.34,1.4026
2758,1217.01,1.40444
2760,1217.68,1.41109
2762,1218.34,1.41807
2764,1219,1.41767
2766,1219.67,1.42241
2768,1220.34,1.4294
2770,1221.01,1.43318
2772,1221.67,1.43793
2774,1222.337,1.44332