File: Wood/Calibration_Data/FZJ/FZJ_MCC_N2_30K_R1.csv
Time,Temperature,HRR
0.500,74.818,0.732
8.302,75.318,-0.698
12.019,75.818,4.223
14.296,76.318,4.477
15.939,76.818,3.529
17.442,77.318,2.565
18.675,77.818,2.831
19.917,78.318,2.727
21.100,78.818,2.211
22.211,79.318,1.972
23.245,79.818,1.699
24.331,80.318,1.148
25.348,80.818,1.313
26.342,81.318,1.368
27.313,81.818,1.353
28.361,82.318,1.010
29.387,82.818,0.555
30.307,83.318,0.252
31.296,83.818,-0.078
32.277,84.318,-0.012
33.207,84.818,-0.109
34.171,85.318,0.145
35.134,85.818,0.175
36.079,86.318,0.352
37.033,86.818,0.482
37.975,87.318,-0.128
38.918,87.818,0.340
39.886,88.318,0.317
40.817,88.818,0.433
41.708,89.318,-0.212
42.706,89.818,-0.575
43.654,90.318,-0.033
44.626,90.818,0.586
45.536,91.318,0.627
46.434,91.818,0.469
47.416,92.318,-0.240
48.315,92.818,-0.954
49.246,93.318,-1.138
50.218,93.818,-0.696
51.088,94.318,-0.132
52.060,94.818,0.104
53.026,95.318,-0.405
54.012,95.818,-0.498
54.952,96.318,-0.147
55.884,96.818,0.064
56.846,97.318,-0.314
57.800,97.818,-0.426
58.758,98.318,-0.411
59.619,98.818,-0.203
60.601,99.318,0.215
61.540,99.818,0.588
62.507,100.318,0.497
63.493,100.818,-0.286
64.426,101.318,-0.711
65.397,101.818,-0.581
66.341,102.318,-0.287
67.308,102.818,0.130
68.220,103.318,0.496
69.224,103.818,0.459
70.119,104.318,-0.405
71.095,104.818,-0.674
72.078,105.318,-0.574
73.074,105.818,-0.419
73.972,106.318,-0.368
74.967,106.818,-0.009
75.883,107.318,0.304
76.867,107.818,-0.086
77.821,108.318,-0.198
78.816,108.818,0.230
79.710,109.318,0.025
80.641,109.818,0.179
81.674,110.318,0.261
82.629,110.818,-0.092
83.572,111.318,-0.378
84.585,111.818,-0.613
85.494,112.318,-0.365
86.498,112.818,0.058
87.433,113.318,0.694
88.370,113.818,0.356
89.363,114.318,0.164
90.320,114.818,-0.111
91.281,115.318,-0.098
92.283,115.818,-0.518
93.219,116.318,-0.164
94.166,116.818,-0.259
95.126,117.318,0.395
96.127,117.818,0.432
97.026,118.318,0.196
98.040,118.818,-0.171
99.044,119.318,-0.320
99.961,119.818,-0.158
100.946,120.318,0.027
101.904,120.818,0.337
102.892,121.318,0.155
103.875,121.818,-0.128
104.854,122.318,-0.309
105.794,122.818,-0.564
106.787,123.318,-0.123
107.769,123.818,0.060
108.727,124.318,0.214
109.683,124.818,0.082
110.654,125.318,-0.256
111.654,125.818,0.025
112.631,126.318,0.120
113.616,126.818,0.352
114.540,127.318,-0.094
115.514,127.818,-0.303
116.586,128.318,-0.111
117.529,128.818,0.105
118.483,129.318,0.490
119.486,129.818,0.255
120.437,130.318,-0.065
121.427,130.818,-0.250
122.408,131.318,-0.213
123.339,131.818,-0.120
124.307,132.318,0.086
125.319,132.818,-0.057
126.282,133.318,0.285
127.268,133.818,0.220
128.262,134.318,0.206
129.194,134.818,0.166
130.168,135.318,-0.186
131.197,135.818,0.088
132.170,136.318,0.236
133.174,136.818,0.328
134.125,137.318,0.096
135.103,137.818,-0.271
136.107,138.318,-0.160
137.052,138.818,0.122
138.080,139.318,0.073
139.068,139.818,-0.116
140.050,140.318,-0.446
141.076,140.818,-0.267
141.966,141.318,-0.216
142.970,141.818,-0.015
143.909,142.318,0.306
144.932,142.818,0.511
145.879,143.318,0.585
146.887,143.818,0.722
147.859,144.318,0.260
148.920,144.818,0.403
149.828,145.318,-0.042
150.836,145.818,-0.149
151.856,146.318,-0.004
152.841,146.818,0.243
153.811,147.318,0.229
154.809,147.818,0.144
155.855,148.318,0.125
156.832,148.818,0.647
157.783,149.318,0.629
158.785,149.818,0.655
159.749,150.318,0.341
160.731,150.818,0.064
161.744,151.318,0.008
162.753,151.818,0.365
163.735,152.318,0.283
164.688,152.818,0.224
165.699,153.318,0.488
166.698,153.818,0.637
167.717,154.318,0.646
168.667,154.818,0.286
169.673,155.318,0.474
170.584,155.818,0.491
171.630,156.318,0.479
172.645,156.818,0.281
173.647,157.318,0.538
174.594,157.818,0.562
175.569,158.318,0.447
176.632,158.818,0.410
177.548,159.318,0.474
178.572,159.818,0.396
179.510,160.318,0.393
180.494,160.818,0.875
181.522,161.318,1.058
182.554,161.818,1.250
183.514,162.318,0.726
184.579,162.818,0.813
185.538,163.318,0.657
186.540,163.818,0.780
187.552,164.318,1.138
188.523,164.818,1.304
189.449,165.318,1.588
190.518,165.818,1.405
191.487,166.318,0.883
192.464,166.818,1.198
193.495,167.318,1.612
194.492,167.818,2.125
195.472,168.318,1.668
196.534,168.818,1.361
197.483,169.318,1.338
198.466,169.818,1.623
199.471,170.318,1.774
200.457,170.818,1.935
201.458,171.318,1.836
202.451,171.818,1.568
203.459,172.318,1.700
204.430,172.818,1.729
205.406,173.318,1.699
206.443,173.818,1.890
207.404,174.318,1.600
208.381,174.818,1.578
209.360,175.318,1.786
210.354,175.818,1.946
211.318,176.318,2.154
212.342,176.818,2.327
213.349,177.318,2.381
214.340,177.818,2.409
215.326,178.318,2.273
216.328,178.818,2.120
217.293,179.318,2.202
218.294,179.818,2.014
219.317,180.318,2.275
220.228,180.818,2.065
221.319,181.318,2.277
222.274,181.818,2.211
223.278,182.318,2.644
224.313,182.818,2.731
225.258,183.318,2.658
226.266,183.818,2.511
227.275,184.318,2.556
228.268,184.818,2.242
229.289,185.318,2.092
230.244,185.818,1.959
231.240,186.318,2.299
232.202,186.818,2.292
233.183,187.318,2.314
234.230,187.818,2.330
235.229,188.318,2.459
236.228,188.818,2.668
237.182,189.318,3.019
238.185,189.818,2.968
239.221,190.318,2.727
240.169,190.818,2.336
241.185,191.318,2.461
242.166,191.818,2.802
243.120,192.318,3.042
244.120,192.818,2.949
245.166,193.318,3.104
246.128,193.818,2.773
247.132,194.318,2.967
248.111,194.818,2.831
249.131,195.318,3.145
250.108,195.818,2.930
251.084,196.318,3.247
252.077,196.818,3.015
253.082,197.318,2.864
254.032,197.818,2.864
255.038,198.318,2.965
256.099,198.818,3.534
257.067,199.318,3.609
258.008,199.818,3.713
259.085,200.318,3.686
259.992,200.818,3.338
261.089,201.318,3.401
262.052,201.818,3.301
263.059,202.318,3.230
264.072,202.818,3.219
265.054,203.318,3.284
266.044,203.818,3.406
267.017,204.318,3.713
267.998,204.818,3.701
268.954,205.318,3.657
269.975,205.818,3.663
271.008,206.318,3.743
271.965,206.818,3.537
272.999,207.318,3.495
273.991,207.818,3.797
275.016,208.318,3.717
275.972,208.818,4.191
276.991,209.318,4.097
277.972,209.818,4.178
279.008,210.318,3.972
279.993,210.818,4.556
280.979,211.318,4.268
281.968,211.818,4.079
282.975,212.318,3.923
283.949,212.818,3.768
284.967,213.318,3.911
285.955,213.818,3.656
286.916,214.318,4.077
287.922,214.818,3.662
288.926,215.318,4.269
289.998,215.818,4.055
290.923,216.318,4.679
291.934,216.818,4.568
292.927,217.318,4.307
293.921,217.818,4.217
294.936,218.318,4.503
295.897,218.818,4.568
296.898,219.318,5.031
297.929,219.818,4.836
298.849,220.318,4.533
299.896,220.818,4.722
300.924,221.318,5.162
301.879,221.818,5.287
302.911,222.318,5.022
303.858,222.818,4.837
304.852,223.318,4.617
305.892,223.818,4.801
306.903,224.318,4.959
307.920,224.818,4.876
308.843,225.318,5.047
309.875,225.818,5.507
310.808,226.318,5.405
311.890,226.818,5.164
312.829,227.318,5.091
313.849,227.818,4.996
314.844,228.318,5.304
315.847,228.818,5.408
316.875,229.318,5.707
317.848,229.818,5.741
318.801,230.318,5.572
319.885,230.818,6.060
320.843,231.318,5.951
321.822,231.818,5.873
322.845,232.318,5.524
323.826,232.818,5.688
324.836,233.318,5.779
325.802,233.818,6.025
326.797,234.318,6.101
327.815,234.818,6.308
328.805,235.318,6.358
329.835,235.818,6.642
330.843,236.318,6.886
331.837,236.818,7.105
332.845,237.318,6.748
333.845,237.818,6.627
334.870,238.318,6.188
335.851,238.818,6.484
336.814,239.318,6.745
337.820,239.818,7.018
338.786,240.318,6.879
339.780,240.818,7.070
340.825,241.318,7.590
341.785,241.818,8.025
342.751,242.318,7.864
343.816,242.818,7.758
344.809,243.318,7.314
345.802,243.818,7.635
346.765,244.318,7.821
347.835,244.818,8.020
348.794,245.318,7.954
349.802,245.818,7.966
350.790,246.318,8.057
351.760,246.818,7.910
352.799,247.318,8.412
353.782,247.818,8.565
354.837,248.318,8.502
355.778,248.818,8.798
356.765,249.318,8.954
357.747,249.818,9.520
358.760,250.318,9.711
359.776,250.818,9.806
360.792,251.318,9.513
361.767,251.818,9.322
362.820,252.318,9.329
363.832,252.818,9.466
364.734,253.318,10.001
365.813,253.818,10.138
366.731,254.318,10.439
367.703,254.818,10.695
368.710,255.318,10.600
369.721,255.818,10.677
370.752,256.318,10.414
371.772,256.818,10.594
372.738,257.318,10.663
373.770,257.818,11.067
374.761,258.318,11.296
375.729,258.818,11.002
376.802,259.318,10.840
377.748,259.818,11.211
378.774,260.318,11.572
379.802,260.818,12.119
380.743,261.318,12.104
381.714,261.818,11.963
382.775,262.318,12.109
383.749,262.818,12.376
384.744,263.318,12.134
385.751,263.818,12.247
386.740,264.318,12.471
387.749,264.818,12.828
388.730,265.318,12.915
389.737,265.818,12.849
390.690,266.318,12.974
391.746,266.818,13.199
392.747,267.318,13.118
393.779,267.818,13.210
394.755,268.318,13.595
395.757,268.818,14.239
396.749,269.318,14.052
397.807,269.818,13.886
398.786,270.318,13.676
399.757,270.818,14.104
400.763,271.318,14.349
401.755,271.818,14.467
402.767,272.318,15.120
403.768,272.818,15.237
404.800,273.318,15.140
405.747,273.818,14.621
406.740,274.318,14.696
407.758,274.818,14.886
408.784,275.318,15.243
409.763,275.818,15.338
410.746,276.318,15.428
411.757,276.818,16.215
412.729,277.318,16.787
413.734,277.818,16.571
414.784,278.318,15.475
415.762,278.818,14.985
416.739,279.318,15.614
417.774,279.818,16.932
418.715,280.318,18.166
419.727,280.818,17.907
420.782,281.318,16.981
421.760,281.818,16.209
422.769,282.318,16.924
423.723,282.818,17.667
424.774,283.318,18.930
425.749,283.818,18.143
426.706,284.318,17.968
427.789,284.818,17.238
428.739,285.318,17.696
429.765,285.818,18.152
430.758,286.318,19.295
431.742,286.818,19.090
432.773,287.318,18.266
433.774,287.818,17.790
434.785,288.318,18.424
435.762,288.818,19.714
436.790,289.318,20.507
437.750,289.818,20.047
438.797,290.318,18.985
439.797,290.818,18.232
440.793,291.318,18.666
441.741,291.818,19.327
442.723,292.318,20.419
443.757,292.818,20.499
444.720,293.318,19.917
445.740,293.818,19.273
446.731,294.318,20.004
447.739,294.818,20.503
448.735,295.318,21.718
449.746,295.818,21.243
450.728,296.318,20.649
451.739,296.818,20.043
452.717,297.318,20.747
453.715,297.818,21.474
454.720,298.318,22.733
455.679,298.818,22.544
456.719,299.318,22.010
457.730,299.818,20.883
458.745,300.318,21.490
459.763,300.818,22.603
460.764,301.318,23.401
461.797,301.818,23.207
462.821,302.318,22.356
463.780,302.818,21.986
464.754,303.318,22.349
465.755,303.818,22.931
466.781,304.318,24.062
467.786,304.818,23.964
468.760,305.318,23.393
469.770,305.818,23.125
470.778,306.318,23.625
471.774,306.818,24.755
472.764,307.318,25.924
473.792,307.818,25.431
474.776,308.318,24.670
475.781,308.818,24.253
476.753,309.318,24.856
477.754,309.818,25.876
478.791,310.318,26.874
479.818,310.818,26.820
480.762,311.318,25.901
481.766,311.818,25.727
482.807,312.318,26.641
483.752,312.818,27.635
484.775,313.318,28.682
485.784,313.818,28.892
486.838,314.318,27.911
487.817,314.818,27.779
488.832,315.318,28.501
489.783,315.818,29.237
490.789,316.318,30.389
491.795,316.818,30.580
492.826,317.318,30.249
493.779,317.818,30.001
494.812,318.318,30.543
495.792,318.818,30.965
496.774,319.318,31.238
497.754,319.818,31.451
498.810,320.318,31.721
499.783,320.818,32.413
500.771,321.318,33.017
501.831,321.818,33.372
502.824,322.318,33.772
503.847,322.818,33.772
504.832,323.318,34.132
505.848,323.818,34.411
506.840,324.318,34.777
507.840,324.818,35.032
508.852,325.318,35.241
509.833,325.818,35.694
510.803,326.318,35.963
511.806,326.818,36.229
512.833,327.318,36.571
513.827,327.818,36.770
514.838,328.318,37.101
515.809,328.818,37.672
516.838,329.318,37.925
517.794,329.818,38.220
518.778,330.318,38.482
519.791,330.818,38.823
520.789,331.318,39.132
521.803,331.818,39.488
522.794,332.318,39.361
523.874,332.818,39.218
524.845,333.318,39.767
525.831,333.818,40.268
526.887,334.318,40.771
527.849,334.818,41.471
528.841,335.318,41.695
529.845,335.818,41.729
530.839,336.318,41.823
531.923,336.818,41.419
532.901,337.318,41.208
533.872,337.818,41.586
534.863,338.318,42.609
535.878,338.818,42.860
536.974,339.318,43.362
537.870,339.818,43.330
538.887,340.318,43.245
539.882,340.818,43.592
540.842,341.318,43.732
541.893,341.818,43.901
542.879,342.318,43.642
543.863,342.818,44.146
544.879,343.318,44.713
545.853,343.818,45.017
546.863,344.318,44.850
547.901,344.818,45.030
548.886,345.318,45.021
549.898,345.818,45.427
550.905,346.318,45.436
551.940,346.818,45.508
552.891,347.318,45.786
553.930,347.818,46.035
554.900,348.318,45.845
555.923,348.818,46.073
556.923,349.318,46.295
557.876,349.818,46.788
558.912,350.318,47.316
559.946,350.818,47.632
560.921,351.318,47.659
561.942,351.818,47.995
562.945,352.318,47.990
563.936,352.818,48.634
564.980,353.318,49.177
565.933,353.818,49.669
566.916,354.318,49.689
567.930,354.818,50.081
568.922,355.318,50.195
569.957,355.818,50.682
570.917,356.318,51.109
571.916,356.818,51.822
572.941,357.318,52.547
573.931,357.818,52.762
574.989,358.318,53.203
575.944,358.818,53.492
576.972,359.318,54.084
578.045,359.818,54.346
578.979,360.318,54.927
579.958,360.818,55.655
580.959,361.318,56.255
581.976,361.818,56.557
583.010,362.318,57.049
583.990,362.818,57.642
584.963,363.318,57.912
585.996,363.818,58.932
587.032,364.318,59.511
588.013,364.818,60.282
589.014,365.318,60.594
590.011,365.818,61.182
591.047,366.318,61.877
592.028,366.818,62.867
593.028,367.318,63.167
593.974,367.818,63.809
595.035,368.318,64.358
596.032,368.818,64.839
597.013,369.318,66.012
598.025,369.818,66.517
598.950,370.318,66.932
599.935,370.818,67.248
600.966,371.318,68.044
601.945,371.818,68.667
602.986,372.318,69.632
604.033,372.818,70.070
604.991,373.318,70.600
606.048,373.818,71.388
607.000,374.318,71.954
608.057,374.818,72.732
609.016,375.318,72.678
610.078,375.818,73.283
611.091,376.318,73.483
612.058,376.818,73.504
613.029,377.318,73.847
614.107,377.818,73.887
615.102,378.318,74.074
616.094,378.818,74.267
617.100,379.318,74.655
618.095,379.818,74.886
619.076,380.318,74.642
620.087,380.818,74.123
621.103,381.318,73.255
622.072,381.818,72.650
623.071,382.318,72.310
624.041,382.818,72.200
625.075,383.318,71.464
626.058,383.818,70.137
627.063,384.318,69.098
628.062,384.818,68.729
629.016,385.318,67.832
630.043,385.818,67.023
631.055,386.318,65.694
632.046,386.818,64.586
633.068,387.318,62.667
633.986,387.818,60.928
635.035,388.318,58.958
636.015,388.818,57.843
637.037,389.318,56.111
638.056,389.818,54.887
639.034,390.318,52.791
640.005,390.818,50.941
640.968,391.318,48.609
642.014,391.818,46.770
643.019,392.318,45.139
644.055,392.818,42.737
645.058,393.318,40.921
646.080,393.818,38.958
647.052,394.318,37.052
648.033,394.818,34.960
649.064,395.318,32.456
650.034,395.818,30.601
651.064,396.318,28.726
651.996,396.818,27.108
653.002,397.318,25.584
653.986,397.818,23.901
654.986,398.318,22.334
656.040,398.818,21.019
657.034,399.318,19.607
658.025,399.818,18.134
659.033,400.318,16.483
659.959,400.818,15.607
660.935,401.318,14.908
662.032,401.818,13.994
663.010,402.318,12.902
663.952,402.818,12.534
664.966,403.318,11.603
666.010,403.818,11.093
666.966,404.318,10.506
668.021,404.818,9.638
669.000,405.318,9.183
670.008,405.818,8.894
670.998,406.318,9.037
671.986,406.818,9.187
672.939,407.318,9.030
673.988,407.818,8.201
674.984,408.318,7.899
676.040,408.818,7.721
676.983,409.318,7.814
677.983,409.818,7.479
679.061,410.318,7.570
679.990,410.818,7.477
680.973,411.318,7.178
681.940,411.818,6.553
682.975,412.318,7.056
683.986,412.818,6.886
685.012,413.318,7.065
686.027,413.818,6.855
687.010,414.318,7.177
687.993,414.818,6.840
689.019,415.318,6.578
689.919,415.818,6.033
691.048,416.318,6.408
692.012,416.818,6.544
693.055,417.318,6.962
694.041,417.818,6.763
695.055,418.318,6.426
696.052,418.818,6.383
697.051,419.318,6.566
697.980,419.818,6.734
699.032,420.318,6.380
700.005,420.818,6.101
700.996,421.318,5.603
702.053,421.818,5.786
703.055,422.318,6.109
703.967,422.818,6.442
704.995,423.318,5.855
705.976,423.818,5.785
707.011,424.318,5.586
708.005,424.818,5.831
709.061,425.318,5.670
710.059,425.818,5.471
711.102,426.318,5.296
712.098,426.818,5.369
713.125,427.318,5.501
714.097,427.818,5.819
715.079,428.318,5.811
716.040,428.818,5.635
717.053,429.318,5.490
718.084,429.818,5.642
719.096,430.318,5.841
720.082,430.818,5.957
721.088,431.318,5.397
722.115,431.818,5.025
723.081,432.318,4.687
724.069,432.818,4.905
725.083,433.318,5.144
726.094,433.818,5.340
727.081,434.318,5.501
728.098,434.818,5.260
729.120,435.318,4.879
730.152,435.818,4.876
731.101,436.318,4.934
732.142,436.818,4.795
733.152,437.318,4.569
734.120,437.818,4.616
735.070,438.318,4.551
736.079,438.818,4.608
737.053,439.318,4.421
738.044,439.818,4.711
739.076,440.318,4.850
740.093,440.818,5.116
741.098,441.318,4.952
742.133,441.818,4.214
743.141,442.318,4.542
744.143,442.818,4.488
745.150,443.318,4.516
746.122,443.818,4.440
747.165,444.318,4.298
748.154,444.818,4.203
749.166,445.318,4.211
750.128,445.818,3.865
751.158,446.318,3.952
752.144,446.818,3.678
753.125,447.318,4.314
754.100,447.818,4.677
755.120,448.318,4.033
756.125,448.818,3.495
757.160,449.318,3.250
758.136,449.818,3.601
759.164,450.318,3.442
760.170,450.818,3.221
761.111,451.318,3.642
762.124,451.818,3.752
763.143,452.318,3.780
764.166,452.818,3.570
765.208,453.318,3.362
766.229,453.818,3.036
767.182,454.318,3.123
768.183,454.818,3.285
769.177,455.318,3.109
770.193,455.818,3.179
771.163,456.318,3.244
772.191,456.818,3.470
773.194,457.318,3.463
774.159,457.818,3.256
775.184,458.318,3.005
776.169,458.818,2.769
777.170,459.318,2.648
778.187,459.818,2.735
779.220,460.318,2.508
780.192,460.818,2.482
781.193,461.318,2.500
782.176,461.818,2.411
783.189,462.318,2.785
784.211,462.818,2.971
785.223,463.318,3.017
786.259,463.818,2.822
787.260,464.318,2.356
788.245,464.818,2.198
789.231,465.318,2.120
790.250,465.818,2.709
791.226,466.318,2.615
792.296,466.818,2.191
793.270,467.318,1.785
794.248,467.818,1.612
795.296,468.318,1.931
796.296,468.818,1.827
797.267,469.318,2.498
798.311,469.818,2.379
799.261,470.318,1.832
800.277,470.818,1.473
801.335,471.318,1.220
802.258,471.818,1.511
803.254,472.318,1.746
804.259,472.818,1.728
805.350,473.318,1.512
806.337,473.818,1.257
807.336,474.318,1.162
808.335,474.818,1.347
809.324,475.318,1.614
810.352,475.818,1.620
811.343,476.318,1.440
812.389,476.818,1.317
813.365,477.318,0.951
814.357,477.818,1.113
815.355,478.318,1.241
816.357,478.818,1.458
817.414,479.318,1.507
818.380,479.818,1.599
819.478,480.318,1.216
820.445,480.818,1.306
821.438,481.318,1.244
822.425,481.818,1.395
823.423,482.318,1.140
824.415,482.818,1.030
825.444,483.318,0.744
826.481,483.818,1.215
827.480,484.318,0.746
828.473,484.818,0.939
829.441,485.318,1.078
830.467,485.818,1.431
831.462,486.318,1.269
832.466,486.818,1.177
833.484,487.318,1.126
834.482,487.818,0.650
835.469,488.318,0.722
836.473,488.818,0.802
837.546,489.318,1.212
838.515,489.818,1.220
839.529,490.318,1.039
840.528,490.818,0.881
841.538,491.318,0.845
842.540,491.818,1.031
843.548,492.318,0.876
844.522,492.818,0.796
845.572,493.318,0.279
846.500,493.818,0.474
847.520,494.318,0.342
848.484,494.818,0.248
849.507,495.318,0.584
850.603,495.818,0.793
851.548,496.318,0.583
852.573,496.818,0.169
853.596,497.318,0.062
854.593,497.818,0.335
855.578,498.318,0.464
856.603,498.818,0.340
857.634,499.318,0.340
858.665,499.818,0.331
859.593,500.318,0.455
860.620,500.818,0.628
861.603,501.318,0.265
862.616,501.818,0.115
863.532,502.318,0.135
864.617,502.818,0.361
865.621,503.318,0.231
866.586,503.818,0.048
867.578,504.318,0.232
868.579,504.818,-0.101
869.555,505.318,0.325
870.558,505.818,0.392
871.569,506.318,0.527
872.571,506.818,0.000
873.632,507.318,-0.183
874.674,507.818,-0.034
875.714,508.318,0.519
876.636,508.818,0.656
877.655,509.318,0.636
878.661,509.818,0.401
879.692,510.318,0.097
880.654,510.818,-0.083
881.684,511.318,-0.517
882.664,511.818,0.080
883.609,512.318,0.369
884.609,512.818,0.737
885.632,513.318,0.090
886.608,513.818,0.093
887.587,514.318,-0.031
888.643,514.818,0.141
889.610,515.318,0.146
890.620,515.818,0.035
891.621,516.318,0.268
892.646,516.818,0.465
893.630,517.318,0.827
894.699,517.818,0.330
895.692,518.318,0.116
896.698,518.818,-0.073
897.686,519.318,0.011
898.723,519.818,0.010
899.700,520.318,0.034
900.679,520.818,0.299
901.689,521.318,0.276
902.732,521.818,-0.207
903.701,522.318,-0.422
904.720,522.818,-0.441
905.692,523.318,-0.110
906.688,523.818,0.388
907.728,524.318,0.454
908.694,524.818,-0.088
909.664,525.318,-0.355
910.709,525.818,-0.025
911.714,526.318,0.059
912.709,526.818,-0.153
913.691,527.318,-0.524
914.723,527.818,-0.365
915.727,528.318,0.100
916.753,528.818,0.450
917.699,529.318,0.100
918.704,529.818,-0.183
919.677,530.318,-0.553
920.674,530.818,-0.446
921.759,531.318,-0.042
922.702,531.818,-0.034
923.739,532.318,-0.271
924.761,532.818,-0.607
925.787,533.318,-0.498
926.799,533.818,-0.385
927.787,534.318,0.039
928.748,534.818,0.163
929.749,535.318,-0.215
930.706,535.818,-0.621
931.746,536.318,-0.723
932.753,536.818,-0.482
933.714,537.318,0.357
934.707,537.818,0.763
935.745,538.318,0.879
936.750,538.818,0.007
937.769,539.318,-1.031
938.783,539.818,-1.159
939.766,540.318,-0.894
940.783,540.818,0.049
941.762,541.318,0.139
942.772,541.818,0.055
943.768,542.318,-0.847
944.831,542.818,-0.990
945.809,543.318,-0.815
946.792,543.818,-0.689
947.825,544.318,-0.144
948.808,544.818,0.048
949.830,545.318,0.036
950.813,545.818,-0.221
951.876,546.318,-0.483
952.899,546.818,-0.558
953.878,547.318,-0.289
954.831,547.818,-0.181
955.770,548.318,0.309
956.797,548.818,0.427
957.781,549.318,0.049
958.831,549.818,-0.419
959.762,550.318,-0.504
960.784,550.818,-0.157
961.764,551.318,0.212
962.798,551.818,-0.064
963.771,552.318,-0.489
964.821,552.818,-0.719
965.873,553.318,-0.641
966.823,553.818,-0.303
967.845,554.318,0.065
968.842,554.818,0.146
969.897,555.318,-0.399
970.839,555.818,-0.259
971.879,556.318,-0.333
972.859,556.818,-0.388
973.814,557.318,-0.716
974.849,557.818,-0.375
975.843,558.318,-0.110
976.908,558.818,0.003
977.886,559.318,0.211
978.917,559.818,-0.036
979.898,560.318,0.208
980.845,560.818,0.081
981.885,561.318,0.357
982.879,561.818,-0.101
983.892,562.318,-0.135
984.906,562.818,0.032
985.839,563.318,0.695
986.848,563.818,0.649
987.856,564.318,0.360
988.830,564.818,0.273
989.854,565.318,-0.025
990.849,565.818,-0.026
991.875,566.318,-0.106
992.852,566.818,0.001
993.847,567.318,-0.194
994.857,567.818,0.039
995.837,568.318,0.326
996.847,568.818,0.156
997.830,569.318,-0.340
998.844,569.818,-0.682
999.821,570.318,-0.331
1000.823,570.818,0.051
1001.827,571.318,-0.307
1002.835,571.818,-0.659
1003.826,572.318,-0.571
1004.766,572.818,-0.046
1005.796,573.318,-0.036
1006.788,573.818,-0.298
1007.771,574.318,-0.146
1008.761,574.818,-0.104
1009.774,575.318,0.008
1010.782,575.818,0.384
1011.813,576.318,0.058
1012.842,576.818,-0.377
1013.832,577.318,-0.265
1014.829,577.818,0.251
1015.805,578.318,0.862
1016.757,578.818,0.492
1017.784,579.318,0.030
1018.834,579.818,-0.263
1019.851,580.318,-0.230
1020.808,580.818,-0.049
1021.842,581.318,0.008
1022.854,581.818,-0.004
1023.834,582.318,-0.137
1024.823,582.818,-0.372
1025.813,583.318,-0.141
1026.824,583.818,-0.065
1027.836,584.318,0.301
1028.841,584.818,0.277
1029.832,585.318,0.291
1030.868,585.818,0.091
1031.857,586.318,0.737
1032.870,586.818,0.588
1033.880,587.318,0.337
1034.889,587.818,-0.249
1035.898,588.318,-0.032
1036.848,588.818,0.528
1037.903,589.318,0.264
1038.827,589.818,0.273
1039.825,590.318,0.190
1040.830,590.818,0.216
1041.779,591.318,0.513
1042.773,591.818,0.508
1043.748,592.318,0.195
1044.719,592.818,0.097
1045.775,593.318,0.398
1046.751,593.818,0.789
1047.755,594.318,0.574
1048.766,594.818,0.527
1049.715,595.318,2.041
1050.725,595.818,2.042
1051.724,596.318,2.044
1052.738,596.818,2.046
1053.711,597.318,2.047
1054.674,597.818,2.049
1055.663,598.318,2.051
1056.673,598.818,2.053
1057.709,599.318,2.054
1058.705,599.818,2.056
1059.685,600.318,2.058
1060.676,600.818,2.059
1061.649,601.318,2.061
1062.680,601.818,2.063