File: Wood/Calibration_Data/FZJ/FZJ_MCC_N2_60K_R10.csv
Time (s),Temperature (K),HRR (W/g)
0.00,347.98,-0.19
5.87,348.48,-7.33
8.34,348.98,-0.84
10.15,349.48,2.78
11.82,349.98,3.86
13.10,350.48,3.63
14.22,350.98,3.32
15.13,351.48,3.63
15.95,351.98,3.39
16.71,352.48,3.11
17.45,352.98,3.30
18.14,353.48,3.01
18.82,353.98,2.82
19.51,354.48,2.93
20.11,354.98,2.48
20.73,355.48,1.68
21.33,355.98,1.50
21.94,356.48,1.70
22.51,356.98,1.21
23.07,357.48,0.91
23.60,357.98,0.70
24.14,358.48,0.82
24.66,358.98,0.51
25.22,359.48,0.44
25.75,359.98,0.66
26.29,360.48,1.04
26.82,360.98,1.43
27.33,361.48,1.60
27.84,361.98,1.95
28.35,362.48,2.04
28.87,362.98,1.91
29.39,363.48,1.61
29.88,363.98,1.39
30.39,364.48,1.08
30.88,364.98,0.52
31.40,365.48,0.00
31.88,365.98,-0.24
32.36,366.48,-0.66
32.85,366.98,-1.00
33.33,367.48,-0.51
33.84,367.98,0.34
34.33,368.48,0.72
34.80,368.98,0.89
35.29,369.48,1.15
35.77,369.98,1.01
36.24,370.48,0.63
36.72,370.98,0.39
37.19,371.48,0.31
37.67,371.98,0.35
38.15,372.48,0.26
38.64,372.98,0.21
39.14,373.48,0.24
39.60,373.98,0.14
40.06,374.48,0.01
40.58,374.98,-0.05
41.04,375.48,0.07
41.51,375.98,0.19
41.97,376.48,0.07
42.43,376.98,0.03
42.92,377.48,0.11
43.39,377.98,0.17
43.85,378.48,0.24
44.31,378.98,0.09
44.78,379.48,0.03
45.25,379.98,0.20
45.70,380.48,0.37
46.17,380.98,0.45
46.65,381.48,0.47
47.14,381.98,0.45
47.59,382.48,0.55
48.07,382.98,0.62
48.52,383.48,0.32
49.00,383.98,0.21
49.47,384.48,0.32
49.95,384.98,0.17
50.43,385.48,-0.14
50.89,385.98,-0.27
51.36,386.48,-0.41
51.83,386.98,-0.51
52.29,387.48,-0.58
52.76,387.98,-0.51
53.22,388.48,-0.33
53.67,388.98,-0.15
54.13,389.48,-0.04
54.59,389.98,-0.07
55.07,390.48,-0.08
55.55,390.98,0.12
56.01,391.48,0.19
56.48,391.98,0.04
56.94,392.48,0.06
57.45,392.98,0.09
57.89,393.48,0.10
58.37,393.98,0.03
58.84,394.48,-0.10
59.30,394.98,-0.17
59.77,395.48,-0.13
60.25,395.98,-0.08
60.71,396.48,-0.17
61.16,396.98,-0.26
61.63,397.48,-0.19
62.11,397.98,-0.08
62.59,398.48,0.02
63.07,398.98,0.08
63.56,399.48,0.26
64.00,399.98,0.23
64.46,400.48,0.02
64.94,400.98,0.31
65.40,401.48,0.36
65.88,401.98,0.07
66.35,402.48,-0.01
66.83,402.98,0.13
67.30,403.48,0.26
67.78,403.98,0.24
68.25,404.48,0.12
68.72,404.98,0.06
69.20,405.48,0.16
69.68,405.98,0.31
70.16,406.48,0.29
70.64,406.98,0.13
71.10,407.48,-0.02
71.58,407.98,0.11
72.06,408.48,0.08
72.53,408.98,0.02
72.99,409.48,0.01
73.47,409.98,-0.34
73.94,410.48,-0.19
74.44,410.98,-0.04
74.92,411.48,-0.17
75.39,411.98,-0.38
75.86,412.48,-0.52
76.35,412.98,-0.47
76.82,413.48,-0.46
77.29,413.98,-0.41
77.77,414.48,-0.20
78.25,414.98,-0.00
78.73,415.48,0.17
79.21,415.98,0.32
79.68,416.48,0.31
80.17,416.98,0.24
80.67,417.48,0.18
81.15,417.98,-0.06
81.61,418.48,-0.32
82.10,418.98,-0.78
82.57,419.48,-0.82
83.07,419.98,-0.97
83.55,420.48,-1.03
84.02,420.98,-0.90
84.51,421.48,-0.71
85.00,421.98,-0.37
85.47,422.48,-0.08
85.94,422.98,0.15
86.42,423.48,-0.04
86.91,423.98,-0.05
87.38,424.48,0.14
87.85,424.98,0.04
88.34,425.48,-0.10
88.84,425.98,-0.12
89.33,426.48,-0.05
89.82,426.98,-0.09
90.31,427.48,-0.02
90.83,427.98,0.03
91.31,428.48,0.09
91.80,428.98,0.15
92.27,429.48,0.19
92.75,429.98,0.12
93.24,430.48,-0.04
93.72,430.98,-0.05
94.20,431.48,-0.01
94.68,431.98,-0.10
95.18,432.48,-0.17
95.67,432.98,-0.25
96.14,433.48,-0.18
96.62,433.98,-0.03
97.14,434.48,-0.16
97.63,434.98,0.10
98.10,435.48,0.33
98.57,435.98,0.60
99.08,436.48,0.66
99.55,436.98,0.81
100.04,437.48,0.56
100.52,437.98,0.79
101.04,438.48,0.16
101.51,438.98,0.17
102.04,439.48,-0.02
102.51,439.98,-0.36
103.01,440.48,-0.04
103.47,440.98,-0.13
103.97,441.48,-0.17
104.44,441.98,-0.42
104.94,442.48,-0.26
105.43,442.98,0.02
105.94,443.48,0.07
106.43,443.98,0.01
106.92,444.48,0.12
107.37,444.98,0.36
107.86,445.48,0.49
108.37,445.98,0.34
108.88,446.48,0.11
109.36,446.98,-0.19
109.85,447.48,-0.19
110.34,447.98,-0.41
110.83,448.48,-0.59
111.31,448.98,-0.48
111.79,449.48,-0.13
112.29,449.98,0.28
112.78,450.48,0.49
113.25,450.98,0.43
113.74,451.48,0.28
114.24,451.98,0.24
114.72,452.48,0.23
115.22,452.98,0.06
115.72,453.48,-0.07
116.21,453.98,0.08
116.68,454.48,0.27
117.18,454.98,0.48
117.67,455.48,0.42
118.16,455.98,0.28
118.67,456.48,-0.00
119.14,456.98,-0.20
119.63,457.48,-0.22
120.14,457.98,-0.33
120.60,458.48,-0.17
121.11,458.98,0.16
121.60,459.48,0.35
122.10,459.98,0.74
122.59,460.48,0.76
123.07,460.98,0.60
123.56,461.48,0.70
124.03,461.98,0.73
124.55,462.48,0.67
125.07,462.98,0.49
125.53,463.48,0.36
126.04,463.98,0.57
126.53,464.48,1.01
127.02,464.98,0.62
127.47,465.48,0.45
127.97,465.98,0.63
128.51,466.48,0.83
128.97,466.98,0.67
129.45,467.48,0.25
129.98,467.98,0.19
130.45,468.48,0.24
130.95,468.98,0.01
131.45,469.48,0.15
131.94,469.98,0.38
132.43,470.48,0.78
132.92,470.98,0.98
133.41,471.48,0.95
133.87,471.98,0.80
134.38,472.48,0.70
134.87,472.98,0.76
135.37,473.48,0.77
135.87,473.98,0.90
136.36,474.48,1.05
136.85,474.98,1.12
137.33,475.48,1.07
137.83,475.98,1.08
138.32,476.48,1.18
138.80,476.98,0.97
139.31,477.48,0.67
139.81,477.98,0.59
140.29,478.48,0.54
140.78,478.98,0.57
141.27,479.48,0.56
141.75,479.98,0.60
142.26,480.48,1.02
142.75,480.98,1.37
143.25,481.48,1.45
143.75,481.98,1.48
144.24,482.48,1.52
144.73,482.98,1.56
145.22,483.48,1.45
145.70,483.98,1.31
146.20,484.48,1.24
146.71,484.98,1.23
147.20,485.48,1.36
147.70,485.98,1.40
148.21,486.48,1.42
148.70,486.98,1.26
149.20,487.48,1.09
149.68,487.98,1.13
150.16,488.48,1.29
150.67,488.98,1.47
151.18,489.48,1.56
151.63,489.98,1.72
152.14,490.48,1.90
152.64,490.98,2.04
153.12,491.48,1.83
153.63,491.98,1.61
154.14,492.48,1.50
154.61,492.98,1.37
155.12,493.48,1.25
155.62,493.98,1.12
156.14,494.48,1.28
156.60,494.98,1.64
157.06,495.48,1.96
157.60,495.98,2.36
158.08,496.48,2.70
158.57,496.98,2.67
159.07,497.48,3.00
159.56,497.98,3.39
160.07,498.48,2.84
160.54,498.98,2.30
161.05,499.48,1.88
161.54,499.98,1.40
162.06,500.48,0.95
162.55,500.98,0.52
163.06,501.48,1.12
163.55,501.98,1.72
164.01,502.48,1.78
164.51,502.98,2.29
165.04,503.48,2.40
165.54,503.98,2.71
166.05,504.48,2.66
166.53,504.98,2.24
167.01,505.48,2.28
167.53,505.98,2.18
168.01,506.48,2.14
168.56,506.98,2.22
169.04,507.48,2.40
169.54,507.98,2.77
170.01,508.48,2.85
170.52,508.98,2.98
170.98,509.48,2.89
171.50,509.98,2.52
171.97,510.48,2.49
172.52,510.98,2.08
172.99,511.48,1.75
173.50,511.98,1.71
173.98,512.48,1.83
174.47,512.98,2.17
174.96,513.48,2.35
175.45,513.98,2.57
175.96,514.48,3.03
176.46,514.98,3.17
176.95,515.48,2.85
177.44,515.98,2.65
177.94,516.48,3.00
178.46,516.98,3.56
178.94,517.48,3.54
179.45,517.98,3.40
179.94,518.48,3.56
180.48,518.98,3.65
180.95,519.48,3.92
181.41,519.98,3.40
181.94,520.48,2.95
182.42,520.98,2.99
182.91,521.48,3.41
183.42,521.98,3.75
183.91,522.48,3.58
184.41,522.98,3.68
184.89,523.48,4.12
185.39,523.98,4.56
185.91,524.48,4.59
186.40,524.98,4.34
186.90,525.48,4.27
187.38,525.98,4.24
187.88,526.48,4.12
188.39,526.98,3.95
188.88,527.48,4.07
189.38,527.98,4.46
189.88,528.48,4.93
190.37,528.98,5.38
190.86,529.48,5.97
191.35,529.98,6.52
191.83,530.48,6.67
192.38,530.98,6.53
192.85,531.48,6.30
193.34,531.98,5.96
193.86,532.48,5.68
194.37,532.98,5.55
194.85,533.48,5.87
195.35,533.98,6.30
195.86,534.48,6.70
196.36,534.98,7.05
196.86,535.48,7.25
197.34,535.98,7.37
197.85,536.48,7.46
198.34,536.98,7.44
198.84,537.48,7.46
199.36,537.98,7.52
199.84,538.48,7.52
200.33,538.98,7.59
200.83,539.48,7.68
201.32,539.98,8.08
201.83,540.48,8.49
202.35,540.98,8.93
202.84,541.48,8.97
203.32,541.98,9.16
203.83,542.48,9.37
204.34,542.98,9.28
204.86,543.48,9.41
205.35,543.98,9.66
205.85,544.48,9.82
206.36,544.98,10.06
206.85,545.48,10.34
207.34,545.98,10.66
207.86,546.48,10.87
208.35,546.98,11.15
208.85,547.48,11.42
209.34,547.98,11.66
209.83,548.48,11.76
210.32,548.98,11.86
210.83,549.48,11.87
211.33,549.98,12.00
211.82,550.48,12.21
212.32,550.98,12.47
212.82,551.48,12.88
213.34,551.98,13.37
213.82,552.48,14.07
214.34,552.98,14.46
214.84,553.48,14.43
215.32,553.98,14.47
215.81,554.48,14.57
216.32,554.98,14.63
216.81,555.48,14.34
217.32,555.98,14.43
217.83,556.48,14.88
218.31,556.98,15.21
218.81,557.48,15.52
219.32,557.98,15.99
219.82,558.48,16.55
220.30,558.98,17.01
220.79,559.48,17.33
221.29,559.98,17.53
221.78,560.48,17.74
222.28,560.98,17.94
222.81,561.48,18.34
223.31,561.98,18.68
223.80,562.48,18.95
224.30,562.98,19.18
224.81,563.48,19.45
225.31,563.98,19.75
225.80,564.48,20.01
226.30,564.98,20.41
226.80,565.48,20.86
227.31,565.98,21.25
227.82,566.48,21.73
228.33,566.98,22.37
228.81,567.48,22.99
229.30,567.98,23.44
229.82,568.48,23.86
230.31,568.98,24.12
230.79,569.48,24.16
231.28,569.98,24.10
231.79,570.48,24.16
232.29,570.98,24.39
232.78,571.48,24.84
233.27,571.98,25.44
233.76,572.48,26.05
234.26,572.98,26.61
234.76,573.48,27.39
235.26,573.98,28.41
235.76,574.48,29.22
236.27,574.98,29.57
236.78,575.48,29.89
237.28,575.98,30.05
237.77,576.48,29.88
238.28,576.98,29.76
238.78,577.48,29.92
239.28,577.98,30.37
239.77,578.48,30.90
240.25,578.98,31.30
240.76,579.48,31.77
241.28,579.98,32.42
241.77,580.48,33.12
242.28,580.98,33.82
242.79,581.48,34.35
243.28,581.98,34.99
243.78,582.48,35.64
244.27,582.98,36.13
244.76,583.48,36.52
245.27,583.98,36.81
245.78,584.48,37.19
246.28,584.98,37.55
246.78,585.48,38.01
247.29,585.98,38.38
247.80,586.48,38.91
248.29,586.98,39.51
248.78,587.48,40.08
249.29,587.98,40.86
249.80,588.48,41.46
250.28,588.98,41.88
250.78,589.48,42.41
251.29,589.98,43.04
251.78,590.48,43.88
252.26,590.98,44.75
252.77,591.48,45.31
253.31,591.98,46.07
253.83,592.48,46.99
254.30,592.98,47.54
254.78,593.48,47.92
255.29,593.98,48.25
255.79,594.48,48.76
256.28,594.98,49.20
256.77,595.48,49.74
257.29,595.98,50.58
257.79,596.48,51.70
258.30,596.98,53.02
258.79,597.48,54.05
259.27,597.98,54.91
259.78,598.48,55.58
260.28,598.98,55.94
260.77,599.48,56.21
261.25,599.98,56.63
261.76,600.48,57.23
262.27,600.98,57.89
262.77,601.48,58.69
263.27,601.98,59.78
263.78,602.48,60.99
264.28,602.98,61.88
264.77,603.48,62.43
265.26,603.98,63.00
265.76,604.48,63.71
266.26,604.98,64.28
266.76,605.48,64.83
267.26,605.98,65.53
267.76,606.48,66.56
268.26,606.98,67.64
268.75,607.48,68.52
269.27,607.98,69.24
269.78,608.48,69.91
270.28,608.98,70.90
270.79,609.48,71.92
271.29,609.98,72.74
271.76,610.48,73.30
272.27,610.98,73.88
272.79,611.48,74.72
273.29,611.98,75.38
273.79,612.48,75.90
274.28,612.98,76.51
274.78,613.48,77.25
275.29,613.98,77.99
275.81,614.48,78.71
276.31,614.98,79.55
276.80,615.48,80.27
277.30,615.98,80.91
277.81,616.48,81.59
278.29,616.98,82.38
278.77,617.48,83.26
279.30,617.98,84.09
279.82,618.48,84.79
280.30,618.98,85.53
280.80,619.48,86.25
281.29,619.98,86.70
281.78,620.48,86.90
282.26,620.98,87.39
282.76,621.48,87.93
283.27,621.98,88.32
283.76,622.48,88.73
284.26,622.98,89.17
284.76,623.48,89.93
285.26,623.98,90.66
285.76,624.48,91.35
286.29,624.98,92.15
286.80,625.48,92.75
287.29,625.98,93.29
287.79,626.48,93.69
288.29,626.98,93.90
288.79,627.48,94.05
289.29,627.98,94.22
289.80,628.48,94.56
290.29,628.98,94.99
290.78,629.48,95.34
291.30,629.98,95.92
291.80,630.48,96.83
292.30,630.98,97.52
292.81,631.48,98.02
293.32,631.98,98.45
293.81,632.48,99.05
294.30,632.98,99.41
294.81,633.48,99.48
295.29,633.98,99.70
295.79,634.48,100.05
296.29,634.98,100.53
296.80,635.48,101.16
297.30,635.98,101.75
297.81,636.48,102.61
298.29,636.98,103.45
298.79,637.48,104.17
299.29,637.98,104.84
299.79,638.48,105.38
300.28,638.98,105.81
300.79,639.48,105.92
301.30,639.98,105.95
301.80,640.48,106.45
302.30,640.98,107.05
302.79,641.48,107.56
303.28,641.98,108.12
303.77,642.48,109.20
304.26,642.98,110.39
304.78,643.48,111.03
305.31,643.98,111.49
305.80,644.48,112.37
306.28,644.98,113.32
306.78,645.48,114.13
307.29,645.98,114.71
307.79,646.48,115.43
308.28,646.98,116.35
308.78,647.48,117.23
309.27,647.98,117.93
309.78,648.48,118.66
310.30,648.98,119.84
310.82,649.48,121.13
311.32,649.98,122.22
311.80,650.48,123.14
312.30,650.98,124.14
312.80,651.48,125.31
313.31,651.98,126.56
313.81,652.48,127.74
314.31,652.98,128.82
314.81,653.48,129.99
315.30,653.98,131.19
315.79,654.48,132.18
316.30,654.98,133.15
316.79,655.48,134.04
317.30,655.98,134.84
317.81,656.48,135.72
318.33,656.98,136.61
318.81,657.48,137.45
319.31,657.98,138.50
319.81,658.48,139.89
320.31,658.98,141.01
320.81,659.48,141.99
321.31,659.98,143.20
321.81,660.48,144.40
322.31,660.98,145.36
322.81,661.48,145.86
323.31,661.98,146.30
323.82,662.48,146.98
324.33,662.98,147.43
324.83,663.48,147.47
325.32,663.98,147.80
325.84,664.48,148.31
326.34,664.98,148.51
326.83,665.48,148.56
327.35,665.98,148.70
327.85,666.48,148.82
328.35,666.98,148.73
328.86,667.48,148.31
329.36,667.98,147.97
329.85,668.48,147.46
330.36,668.98,146.54
330.86,669.48,145.62
331.34,669.98,144.79
331.83,670.48,143.69
332.35,670.98,142.18
332.85,671.48,140.62
333.37,671.98,138.90
333.87,672.48,137.00
334.35,672.98,135.00
334.84,673.48,132.91
335.36,673.98,130.48
335.85,674.48,128.30
336.37,674.98,125.89
336.86,675.48,123.30
337.36,675.98,120.58
337.87,676.48,117.47
338.37,676.98,114.27
338.85,677.48,111.03
339.32,677.98,107.73
339.82,678.48,104.26
340.34,678.98,100.88
340.82,679.48,97.51
341.32,679.98,93.98
341.83,680.48,90.59
342.32,680.98,87.18
342.81,681.48,83.42
343.31,681.98,79.41
343.80,682.48,75.55
344.31,682.98,71.72
344.80,683.48,68.16
345.28,683.98,64.73
345.78,684.48,61.46
346.28,684.98,58.40
346.77,685.48,55.27
347.26,685.98,52.25
347.77,686.48,49.17
348.27,686.98,46.10
348.76,687.48,43.40
349.27,687.98,40.75
349.76,688.48,38.22
350.25,688.98,35.95
350.74,689.48,33.94
351.23,689.98,32.10
351.71,690.48,30.32
352.18,690.98,28.60
352.69,691.48,26.97
353.19,691.98,25.51
353.69,692.48,24.17
354.17,692.98,23.08
354.67,693.48,22.31
355.17,693.98,21.63
355.66,694.48,20.86
356.14,694.98,20.14
356.63,695.48,19.63
357.13,695.98,19.00
357.64,696.48,18.27
358.14,696.98,17.68
358.62,697.48,17.38
359.13,697.98,17.02
359.61,698.48,16.68
360.12,698.98,16.57
360.63,699.48,16.45
361.12,699.98,16.41
361.61,700.48,16.39
362.10,700.98,16.27
362.62,701.48,15.82
363.13,701.98,15.38
363.63,702.48,15.12
364.13,702.98,15.11
364.62,703.48,15.20
365.11,703.98,15.09
365.62,704.48,14.89
366.10,704.98,14.90
366.60,705.48,14.97
367.10,705.98,14.64
367.61,706.48,14.26
368.12,706.98,14.08
368.64,707.48,14.02
369.13,707.98,13.79
369.62,708.48,13.56
370.12,708.98,13.62
370.60,709.48,13.49
371.11,709.98,13.41
371.60,710.48,13.10
372.09,710.98,12.99
372.62,711.48,13.12
373.10,711.98,13.10
373.62,712.48,13.05
374.13,712.98,13.07
374.62,713.48,12.90
375.12,713.98,12.77
375.63,714.48,12.57
376.14,714.98,12.46
376.64,715.48,12.35
377.13,715.98,12.62
377.63,716.48,12.65
378.14,716.98,12.38
378.65,717.48,12.28
379.14,717.98,12.48
379.64,718.48,12.39
380.14,718.98,11.97
380.62,719.48,11.55
381.12,719.98,11.78
381.61,720.48,11.59
382.12,720.98,11.35
382.62,721.48,11.35
383.11,721.98,11.35
383.63,722.48,11.20
384.12,722.98,10.63
384.63,723.48,10.39
385.13,723.98,10.41
385.62,724.48,10.09
386.12,724.98,10.04
386.64,725.48,9.99
387.14,725.98,10.19
387.63,726.48,10.48
388.15,726.98,10.36
388.65,727.48,10.31
389.14,727.98,10.28
389.65,728.48,10.28
390.14,728.98,10.05
390.65,729.48,9.65
391.17,729.98,9.50
391.67,730.48,9.27
392.13,730.98,9.10
392.64,731.48,8.94
393.17,731.98,8.92
393.64,732.48,8.95
394.15,732.98,8.77
394.66,733.48,8.53
395.15,733.98,8.49
395.64,734.48,8.63
396.15,734.98,8.39
396.66,735.48,8.18
397.15,735.98,8.25
397.69,736.48,8.31
398.18,736.98,8.28
398.65,737.48,8.10
399.17,737.98,7.88
399.67,738.48,7.78
400.15,738.98,7.40
400.64,739.48,7.27
401.15,739.98,7.24
401.66,740.48,7.12
402.17,740.98,7.22
402.67,741.48,7.23
403.18,741.98,7.20
403.67,742.48,6.82
404.19,742.98,6.40
404.68,743.48,6.17
405.18,743.98,5.87
405.67,744.48,5.86
406.19,744.98,5.67
406.70,745.48,5.63
407.19,745.98,6.04
407.69,746.48,6.45
408.19,746.98,6.73
408.68,747.48,6.50
409.18,747.98,6.07
409.69,748.48,5.68
410.19,748.98,5.33
410.68,749.48,4.93
411.19,749.98,4.42
411.69,750.48,4.39
412.18,750.98,4.76
412.69,751.48,5.00
413.20,751.98,5.04
413.73,752.48,4.93
414.23,752.98,4.88
414.72,753.48,4.93
415.24,753.98,5.07
415.74,754.48,4.99
416.23,754.98,4.64
416.74,755.48,4.32
417.25,755.98,4.27
417.76,756.48,4.23
418.25,756.98,4.11
418.74,757.48,3.90
419.27,757.98,4.04
419.76,758.48,4.39
420.26,758.98,4.51
420.76,759.48,4.30
421.25,759.98,3.95
421.75,760.48,4.07
422.23,760.98,3.96
422.73,761.48,3.31
423.24,761.98,3.01
423.75,762.48,3.17
424.25,762.98,3.57
424.75,763.48,3.48
425.24,763.98,3.33
425.77,764.48,3.60
426.26,764.98,3.72
426.75,765.48,3.36
427.25,765.98,2.89
427.74,766.48,2.83
428.24,766.98,3.02
428.73,767.48,2.98
429.24,767.98,2.67
429.76,768.48,2.80
430.25,768.98,3.12
430.75,769.48,2.93
431.27,769.98,2.34
431.77,770.48,2.23
432.26,770.98,2.52
432.77,771.48,2.62
433.29,771.98,2.53
433.78,772.48,2.42
434.29,772.98,2.51
434.80,773.48,2.32
435.31,773.98,2.03
435.81,774.48,1.98
436.29,774.98,2.05
436.79,775.48,2.08
437.30,775.98,1.95
437.80,776.48,1.99
438.32,776.98,2.33
438.81,777.48,2.47
439.29,777.98,2.35
439.81,778.48,2.32
440.30,778.98,2.36
440.78,779.48,2.27
441.29,779.98,1.89
441.80,780.48,1.62
442.33,780.98,1.74
442.84,781.48,1.85
443.33,781.98,1.91
443.82,782.48,1.98
444.31,782.98,2.06
444.82,783.48,2.11
445.33,783.98,1.81
445.82,784.48,1.40
446.32,784.98,0.97
446.81,785.48,0.96
447.30,785.98,1.20
447.82,786.48,1.21
448.31,786.98,1.04
448.81,787.48,1.14
449.33,787.98,1.33
449.82,788.48,1.17
450.31,788.98,0.99
450.80,789.48,1.15
451.29,789.98,1.49
451.79,790.48,1.63
452.31,790.98,1.55
452.81,791.48,1.56
453.31,791.98,1.56
453.83,792.48,1.62
454.34,792.98,1.50
454.83,793.48,1.21
455.32,793.98,1.04
455.81,794.48,0.96
456.32,794.98,0.90
456.82,795.48,1.02
457.31,795.98,1.16
457.81,796.48,1.33
458.32,796.98,1.41
458.86,797.48,1.49
459.35,797.98,1.40
459.84,798.48,1.05
460.34,798.98,0.84
460.84,799.48,0.78
461.36,799.98,0.82
461.86,800.48,0.75
462.36,800.98,0.70
462.84,801.48,0.76
463.33,801.98,0.81
463.83,802.48,0.78
464.34,802.98,0.92
464.83,803.48,0.97
465.33,803.98,0.89
465.86,804.48,0.98
466.34,804.98,1.17
466.83,805.48,1.27
467.35,805.98,1.08
467.83,806.48,1.19
468.32,806.98,1.55
468.82,807.48,1.45
469.33,807.98,0.98
469.84,808.48,0.42
470.35,808.98,0.25
470.86,809.48,0.15
471.36,809.98,0.03
471.85,810.48,0.45
472.35,810.98,1.00
472.83,811.48,1.27
473.35,811.98,1.33
473.88,812.48,1.30
474.37,812.98,1.35
474.88,813.48,0.94
475.39,813.98,0.36
475.86,814.48,-0.02
476.37,814.98,-0.04
476.88,815.48,0.03
477.38,815.98,0.05
477.86,816.48,0.16
478.35,816.98,0.46
478.85,817.48,1.02
479.38,817.98,1.17
479.88,818.48,0.97
480.37,818.98,1.04
480.86,819.48,1.35
481.37,819.98,1.35
481.90,820.48,0.97
482.39,820.98,0.79
482.87,821.48,0.81
483.38,821.98,0.78
483.88,822.48,0.41
484.37,822.98,0.28
484.87,823.48,0.44
485.36,823.98,0.42
485.87,824.48,-0.09
486.35,824.98,-0.42
486.86,825.48,-0.52
487.37,825.98,-0.66
487.87,826.48,-0.84
488.37,826.98,-0.81
488.86,827.48,-0.48
489.35,827.98,-0.09
489.85,828.48,0.06
490.35,828.98,0.21
490.89,829.48,0.48
491.38,829.98,0.47
491.87,830.48,0.23
492.37,830.98,0.20
492.87,831.48,0.08
493.39,831.98,-0.14
493.88,832.48,-0.41
494.38,832.98,-0.43
494.90,833.48,-0.19
495.39,833.98,-0.11
495.88,834.48,-0.03
496.38,834.98,0.17
496.90,835.48,0.44
497.39,835.98,0.76
497.90,836.48,0.94
498.39,836.98,0.85
498.90,837.48,0.60
499.40,837.98,0.42
499.90,838.48,0.14
500.41,838.98,0.14
500.90,839.48,-0.08
501.43,839.98,-0.06
501.93,840.48,-0.03
502.42,840.98,0.04
502.89,841.48,0.29
503.39,841.98,0.60
503.87,842.48,0.65
504.41,842.98,0.42
504.89,843.48,0.25
505.39,843.98,0.42
505.90,844.48,0.33
506.41,844.98,0.01
506.90,845.48,-0.01
507.40,845.98,-0.02
507.88,846.48,0.27
508.40,846.98,0.45
508.91,847.48,0.05
509.39,847.98,-0.22
509.90,848.48,-0.33
510.39,848.98,-0.45
510.89,849.48,-0.47
511.40,849.98,-0.63
511.89,850.48,-0.23
512.39,850.98,-0.23
512.87,851.48,-0.32
513.35,851.98,-0.24
513.85,852.48,-0.36
514.37,852.98,-0.42
514.90,853.48,-0.44
515.38,853.98,0.07
515.90,854.48,0.32
516.41,854.98,0.21
516.89,855.48,0.28
517.37,855.98,0.27
517.87,856.48,0.43
518.38,856.98,0.02
518.91,857.48,-0.26
519.40,857.98,-0.59
519.89,858.48,-0.74
520.39,858.98,-0.80
520.87,859.48,-0.83
521.40,859.98,-0.72
521.90,860.48,-0.51
522.40,860.98,-0.11
522.90,861.48,0.01
523.39,861.98,0.20
523.90,862.48,0.29
524.41,862.98,0.54
524.91,863.48,-0.82
525.41,863.98,-1.16
525.92,864.48,-1.16
526.43,864.98,-1.16
526.92,865.48,-1.17
527.41,865.98,-1.17
527.93,866.48,-1.17
528.44,866.98,-1.17
528.92,867.48,-1.17
529.41,867.98,-1.17
529.92,868.48,-1.17
530.41,868.98,-1.17
530.93,869.48,-1.18
531.42,869.98,-1.18
531.93,870.48,-1.18
532.43,870.98,-1.18
532.93,871.48,-1.18
533.44,871.98,-1.18
533.93,872.48,-1.18
534.43,872.98,-1.18
534.93,873.48,-1.18
535.41,873.98,-1.19
535.91,874.48,-1.19
536.43,874.98,-1.19
536.93,875.48,-1.19
537.41,875.98,-1.19
537.93,876.48,-1.19
538.43,876.98,-1.19