File: Wood/Calibration_Data/FZJ/FZJ_MCC_N2_60K_R1.csv
Time (s),Temperature (K),HRR (W/g)
0.00,348.05,-0.74
5.46,348.55,-47.94
7.88,349.05,-14.45
9.81,349.55,20.88
11.39,350.05,28.16
12.83,350.55,27.19
13.87,351.05,26.79
14.81,351.55,25.22
15.72,352.05,24.17
16.50,352.55,25.78
17.22,353.05,25.06
17.94,353.55,24.35
18.59,354.05,22.37
19.24,354.55,18.82
19.89,355.05,15.06
20.52,355.55,12.78
21.09,356.05,9.85
21.69,356.55,8.64
22.27,357.05,8.53
22.82,357.55,9.48
23.35,358.05,9.81
23.94,358.55,10.86
24.46,359.05,10.97
25.01,359.55,12.63
25.53,360.05,12.71
26.04,360.55,11.85
26.56,361.05,10.49
27.09,361.55,9.70
27.60,362.05,8.98
28.14,362.55,6.98
28.66,363.05,6.32
29.14,363.55,6.54
29.65,364.05,7.56
30.15,364.55,7.62
30.63,365.05,6.32
31.13,365.55,5.77
31.63,366.05,4.86
32.12,366.55,4.48
32.59,367.05,3.68
33.08,367.55,2.65
33.55,368.05,3.29
34.03,368.55,3.90
34.47,369.05,3.47
34.99,369.55,3.84
35.44,370.05,4.90
35.99,370.55,4.09
36.44,371.05,5.90
36.90,371.55,5.24
37.35,372.05,4.73
37.84,372.55,4.61
38.31,373.05,3.76
38.80,373.55,2.80
39.27,374.05,2.84
39.73,374.55,3.58
40.22,375.05,4.38
40.70,375.55,4.17
41.16,376.05,2.94
41.63,376.55,2.53
42.10,377.05,3.42
42.57,377.55,2.15
43.04,378.05,0.67
43.53,378.55,-0.91
44.02,379.05,-0.25
44.45,379.55,1.06
44.90,380.05,0.79
45.38,380.55,1.21
45.84,381.05,1.91
46.31,381.55,2.37
46.78,382.05,2.37
47.26,382.55,2.46
47.73,383.05,2.43
48.19,383.55,2.32
48.66,384.05,2.32
49.13,384.55,1.64
49.61,385.05,1.04
50.07,385.55,0.38
50.53,386.05,0.86
51.00,386.55,1.49
51.48,387.05,3.65
51.92,387.55,3.10
52.40,388.05,3.28
52.88,388.55,3.64
53.35,389.05,3.56
53.81,389.55,1.73
54.26,390.05,-0.20
54.73,390.55,-1.94
55.22,391.05,-2.68
55.68,391.55,-2.21
56.15,392.05,-2.16
56.62,392.55,-1.43
57.11,393.05,0.84
57.55,393.55,3.18
58.00,394.05,3.60
58.48,394.55,2.69
58.96,395.05,2.92
59.42,395.55,1.02
59.90,396.05,-0.65
60.36,396.55,-1.54
60.83,397.05,-2.11
61.31,397.55,-1.52
61.79,398.05,-0.59
62.25,398.55,0.19
62.71,399.05,1.05
63.20,399.55,2.42
63.66,400.05,3.11
64.14,400.55,2.09
64.60,401.05,2.40
65.06,401.55,1.48
65.53,402.05,0.08
66.00,402.55,-0.11
66.48,403.05,-1.59
66.95,403.55,-0.58
67.43,404.05,0.20
67.91,404.55,0.53
68.36,405.05,1.53
68.85,405.55,1.65
69.34,406.05,1.03
69.80,406.55,0.83
70.28,407.05,0.74
70.76,407.55,0.27
71.24,408.05,-0.34
71.70,408.55,-0.34
72.15,409.05,-0.14
72.65,409.55,-0.50
73.14,410.05,-0.56
73.60,410.55,-1.78
74.09,411.05,-1.65
74.59,411.55,-0.62
75.08,412.05,0.42
75.53,412.55,-0.11
76.00,413.05,-0.97
76.47,413.55,0.20
76.97,414.05,-1.12
77.45,414.55,-1.87
77.93,415.05,-0.65
78.43,415.55,-0.40
78.90,416.05,-0.33
79.38,416.55,-0.41
79.84,417.05,-0.19
80.34,417.55,-0.07
80.82,418.05,-0.22
81.29,418.55,-0.69
81.79,419.05,-1.12
82.28,419.55,-0.12
82.75,420.05,0.91
83.23,420.55,1.41
83.72,421.05,2.32
84.19,421.55,3.03
84.69,422.05,2.63
85.15,422.55,1.87
85.64,423.05,1.25
86.13,423.55,0.00
86.61,424.05,-0.01
87.10,424.55,-0.94
87.58,425.05,-1.73
88.07,425.55,-0.46
88.55,426.05,0.74
89.04,426.55,0.47
89.51,427.05,0.91
90.02,427.55,3.29
90.49,428.05,5.12
90.97,428.55,4.37
91.46,429.05,3.26
91.94,429.55,2.95
92.43,430.05,2.43
92.93,430.55,2.20
93.41,431.05,-0.08
93.91,431.55,-0.94
94.38,432.05,0.17
94.85,432.55,1.09
95.34,433.05,1.07
95.85,433.55,-0.11
96.34,434.05,0.12
96.81,434.55,0.76
97.29,435.05,0.80
97.80,435.55,1.05
98.28,436.05,1.62
98.77,436.55,1.54
99.25,437.05,1.12
99.75,437.55,1.57
100.25,438.05,1.01
100.74,438.55,-0.22
101.21,439.05,-0.93
101.70,439.55,-1.82
102.19,440.05,-1.58
102.70,440.55,-0.48
103.19,441.05,0.92
103.67,441.55,2.04
104.15,442.05,2.62
104.64,442.55,3.41
105.13,443.05,3.20
105.63,443.55,2.68
106.14,444.05,3.71
106.60,444.55,3.33
107.10,445.05,2.85
107.58,445.55,1.75
108.08,446.05,1.08
108.58,446.55,1.49
109.06,447.05,0.19
109.57,447.55,1.20
110.06,448.05,1.82
110.56,448.55,2.00
111.03,449.05,2.06
111.52,449.55,2.96
111.99,450.05,2.51
112.51,450.55,1.53
112.95,451.05,1.07
113.48,451.55,1.18
113.98,452.05,0.45
114.46,452.55,-0.72
114.96,453.05,-1.52
115.44,453.55,-0.58
115.93,454.05,-1.06
116.39,454.55,-1.20
116.90,455.05,-0.91
117.38,455.55,-0.12
117.88,456.05,1.08
118.36,456.55,0.99
118.85,457.05,0.62
119.36,457.55,1.63
119.86,458.05,1.32
120.34,458.55,2.36
120.83,459.05,3.42
121.30,459.55,3.55
121.79,460.05,3.91
122.29,460.55,3.59
122.78,461.05,2.52
123.29,461.55,2.08
123.79,462.05,2.09
124.28,462.55,2.18
124.78,463.05,2.11
125.26,463.55,1.70
125.74,464.05,1.16
126.24,464.55,0.88
126.75,465.05,1.18
127.24,465.55,1.98
127.74,466.05,2.00
128.23,466.55,1.89
128.71,467.05,3.68
129.19,467.55,4.67
129.68,468.05,3.64
130.19,468.55,3.46
130.66,469.05,3.64
131.15,469.55,3.99
131.65,470.05,2.42
132.13,470.55,0.63
132.65,471.05,0.51
133.13,471.55,1.13
133.62,472.05,2.21
134.13,472.55,2.13
134.61,473.05,1.63
135.11,473.55,2.37
135.61,474.05,4.27
136.09,474.55,3.88
136.58,475.05,3.07
137.08,475.55,3.58
137.57,476.05,3.85
138.05,476.55,4.53
138.58,477.05,4.59
139.05,477.55,5.32
139.54,478.05,3.91
140.02,478.55,3.77
140.51,479.05,3.11
140.98,479.55,0.40
141.50,480.05,0.16
142.00,480.55,-0.99
142.50,481.05,-0.24
143.01,481.55,-0.41
143.48,482.05,1.00
143.98,482.55,3.12
144.47,483.05,2.64
144.98,483.55,2.14
145.44,484.05,2.21
145.95,484.55,3.11
146.46,485.05,2.19
146.96,485.55,1.91
147.42,486.05,1.46
147.95,486.55,1.78
148.44,487.05,1.38
148.92,487.55,1.29
149.42,488.05,0.74
149.93,488.55,1.46
150.40,489.05,1.91
150.90,489.55,1.66
151.40,490.05,0.67
151.87,490.55,1.26
152.38,491.05,1.10
152.87,491.55,0.54
153.37,492.05,0.54
153.85,492.55,0.91
154.35,493.05,0.74
154.87,493.55,1.01
155.34,494.05,1.29
155.84,494.55,1.80
156.34,495.05,1.95
156.84,495.55,2.38
157.32,496.05,2.27
157.82,496.55,2.52
158.32,497.05,3.61
158.80,497.55,4.50
159.31,498.05,3.16
159.82,498.55,2.03
160.33,499.05,1.83
160.82,499.55,1.96
161.32,500.05,1.44
161.82,500.55,1.12
162.31,501.05,1.46
162.81,501.55,1.44
163.30,502.05,0.90
163.78,502.55,1.03
164.28,503.05,0.63
164.78,503.55,1.57
165.27,504.05,2.34
165.78,504.55,2.82
166.27,505.05,3.19
166.76,505.55,3.07
167.27,506.05,3.80
167.76,506.55,3.61
168.26,507.05,3.00
168.76,507.55,2.68
169.27,508.05,3.25
169.77,508.55,4.47
170.26,509.05,4.02
170.74,509.55,3.21
171.24,510.05,3.31
171.75,510.55,3.50
172.26,511.05,3.39
172.75,511.55,2.50
173.24,512.05,1.61
173.74,512.55,1.47
174.23,513.05,1.55
174.73,513.55,1.84
175.23,514.05,2.19
175.73,514.55,2.64
176.21,515.05,3.25
176.71,515.55,4.18
177.20,516.05,5.15
177.70,516.55,5.37
178.22,517.05,5.21
178.72,517.55,5.43
179.22,518.05,4.50
179.71,518.55,4.03
180.21,519.05,3.56
180.72,519.55,2.81
181.22,520.05,2.23
181.71,520.55,2.60
182.19,521.05,3.37
182.68,521.55,3.80
183.15,522.05,4.10
183.67,522.55,3.85
184.17,523.05,3.66
184.69,523.55,4.57
185.17,524.05,4.67
185.67,524.55,4.91
186.17,525.05,4.52
186.66,525.55,4.83
187.16,526.05,4.25
187.64,526.55,3.30
188.13,527.05,4.28
188.65,527.55,3.88
189.16,528.05,3.85
189.67,528.55,4.60
190.15,529.05,4.93
190.64,529.55,5.15
191.13,530.05,4.87
191.63,530.55,5.13
192.13,531.05,5.43
192.61,531.55,5.67
193.11,532.05,6.53
193.62,532.55,6.44
194.09,533.05,6.61
194.60,533.55,7.93
195.12,534.05,9.76
195.62,534.55,10.66
196.11,535.05,11.78
196.60,535.55,11.76
197.10,536.05,11.12
197.61,536.55,10.43
198.14,537.05,8.95
198.63,537.55,7.76
199.12,538.05,5.76
199.63,538.55,6.03
200.11,539.05,5.46
200.61,539.55,4.49
201.11,540.05,3.69
201.61,540.55,5.23
202.10,541.05,6.71
202.63,541.55,7.48
203.14,542.05,8.68
203.63,542.55,10.67
204.13,543.05,12.11
204.63,543.55,13.49
205.14,544.05,13.17
205.62,544.55,11.71
206.10,545.05,11.50
206.61,545.55,11.49
207.14,546.05,11.07
207.63,546.55,10.32
208.11,547.05,10.14
208.58,547.55,10.60
209.10,548.05,11.01
209.62,548.55,11.71
210.10,549.05,12.21
210.62,549.55,13.60
211.10,550.05,13.55
211.61,550.55,13.35
212.11,551.05,14.55
212.59,551.55,13.40
213.10,552.05,11.74
213.59,552.55,12.16
214.11,553.05,12.09
214.63,553.55,13.54
215.13,554.05,14.53
215.61,554.55,14.59
216.10,555.05,16.35
216.60,555.55,16.35
217.12,556.05,17.65
217.64,556.55,17.21
218.12,557.05,16.23
218.62,557.55,16.62
219.11,558.05,16.81
219.60,558.55,15.48
220.10,559.05,14.98
220.59,559.55,15.24
221.07,560.05,17.66
221.61,560.55,18.48
222.10,561.05,19.24
222.59,561.55,20.32
223.07,562.05,20.89
223.59,562.55,20.38
224.10,563.05,21.15
224.57,563.55,22.05
225.07,564.05,22.79
225.58,564.55,23.03
226.08,565.05,23.67
226.58,565.55,24.59
227.09,566.05,24.79
227.60,566.55,24.83
228.10,567.05,24.21
228.59,567.55,24.69
229.08,568.05,24.67
229.57,568.55,24.31
230.09,569.05,23.82
230.58,569.55,23.40
231.08,570.05,24.14
231.57,570.55,24.85
232.08,571.05,25.45
232.53,571.55,26.45
233.04,572.05,27.94
233.56,572.55,29.92
234.02,573.05,29.27
234.57,573.55,28.97
235.04,574.05,30.06
235.55,574.55,30.29
236.06,575.05,29.43
236.55,575.55,28.82
237.05,576.05,27.29
237.56,576.55,29.58
238.07,577.05,29.20
238.54,577.55,31.11
239.07,578.05,33.13
239.55,578.55,34.16
240.05,579.05,35.50
240.54,579.55,34.43
241.06,580.05,35.63
241.54,580.55,35.52
242.06,581.05,34.76
242.56,581.55,33.85
243.07,582.05,34.88
243.57,582.55,34.70
244.06,583.05,34.86
244.58,583.55,37.12
245.07,584.05,38.18
245.57,584.55,39.36
246.06,585.05,40.47
246.57,585.55,40.30
247.05,586.05,40.39
247.57,586.55,40.57
248.06,587.05,41.65
248.58,587.55,41.80
249.05,588.05,41.38
249.57,588.55,42.92
250.07,589.05,44.41
250.53,589.55,43.34
251.06,590.05,43.95
251.55,590.55,44.07
252.07,591.05,44.78
252.56,591.55,45.69
253.06,592.05,46.94
253.57,592.55,47.70
254.08,593.05,49.05
254.57,593.55,52.21
255.06,594.05,51.82
255.57,594.55,52.40
256.07,595.05,52.26
256.58,595.55,52.19
257.09,596.05,51.39
257.58,596.55,52.66
258.08,597.05,52.93
258.57,597.55,53.05
259.05,598.05,52.90
259.57,598.55,53.05
260.06,599.05,54.12
260.56,599.55,55.41
261.05,600.05,55.10
261.58,600.55,56.04
262.06,601.05,57.22
262.56,601.55,58.29
263.06,602.05,59.17
263.55,602.55,59.93
264.07,603.05,61.45
264.56,603.55,62.98
265.06,604.05,63.54
265.53,604.55,62.81
266.06,605.05,62.91
266.54,605.55,64.10
267.08,606.05,63.92
267.57,606.55,64.80
268.07,607.05,65.04
268.59,607.55,65.07
269.09,608.05,66.09
269.56,608.55,66.84
270.06,609.05,67.46
270.56,609.55,69.40
271.06,610.05,68.92
271.58,610.55,70.32
272.04,611.05,71.48
272.56,611.55,72.32
273.05,612.05,71.51
273.56,612.55,72.18
274.05,613.05,73.36
274.56,613.55,73.25
275.07,614.05,74.73
275.55,614.55,74.68
276.05,615.05,76.09
276.54,615.55,77.25
277.05,616.05,77.34
277.55,616.55,78.88
278.04,617.05,77.64
278.54,617.55,78.93
279.04,618.05,79.93
279.56,618.55,80.70
280.08,619.05,82.05
280.57,619.55,83.05
281.09,620.05,83.11
281.58,620.55,83.93
282.07,621.05,83.65
282.57,621.55,83.99
283.05,622.05,84.08
283.55,622.55,84.11
284.06,623.05,85.12
284.58,623.55,86.02
285.07,624.05,88.57
285.56,624.55,89.51
286.10,625.05,89.67
286.59,625.55,90.04
287.07,626.05,90.49
287.58,626.55,89.16
288.09,627.05,88.88
288.58,627.55,88.37
289.10,628.05,88.54
289.56,628.55,90.68
290.07,629.05,91.67
290.57,629.55,92.08
291.07,630.05,93.41
291.54,630.55,94.21
292.06,631.05,93.73
292.53,631.55,93.53
293.05,632.05,93.48
293.55,632.55,94.21
294.10,633.05,92.49
294.59,633.55,92.39
295.08,634.05,92.33
295.57,634.55,94.22
296.08,635.05,94.99
296.58,635.55,93.92
297.08,636.05,95.67
297.55,636.55,95.11
298.06,637.05,96.02
298.57,637.55,96.17
299.07,638.05,96.62
299.58,638.55,96.72
300.06,639.05,96.79
300.56,639.55,96.34
301.07,640.05,96.76
301.56,640.55,96.99
302.08,641.05,98.36
302.57,641.55,98.79
303.09,642.05,99.69
303.59,642.55,100.40
304.08,643.05,100.81
304.60,643.55,100.53
305.08,644.05,101.83
305.57,644.55,102.41
306.05,645.05,103.24
306.57,645.55,103.56
307.07,646.05,105.11
307.57,646.55,105.60
308.03,647.05,106.30
308.56,647.55,106.60
309.07,648.05,107.45
309.57,648.55,107.72
310.08,649.05,107.86
310.57,649.55,108.74
311.09,650.05,110.28
311.57,650.55,109.88
312.08,651.05,110.62
312.56,651.55,111.84
313.06,652.05,113.57
313.56,652.55,114.99
314.06,653.05,114.74
314.57,653.55,115.64
315.08,654.05,117.46
315.56,654.55,117.72
316.06,655.05,118.24
316.57,655.55,120.54
317.07,656.05,122.19
317.57,656.55,123.59
318.07,657.05,125.10
318.56,657.55,124.70
319.08,658.05,125.55
319.58,658.55,125.85
320.08,659.05,126.56
320.59,659.55,128.31
321.07,660.05,128.17
321.57,660.55,129.26
322.08,661.05,131.20
322.59,661.55,133.56
323.07,662.05,134.57
323.58,662.55,134.07
324.09,663.05,135.40
324.58,663.55,137.54
325.08,664.05,139.64
325.58,664.55,140.44
326.08,665.05,140.69
326.59,665.55,141.75
327.08,666.05,142.77
327.60,666.55,142.98
328.09,667.05,143.54
328.59,667.55,143.55
329.10,668.05,144.50
329.60,668.55,144.87
330.08,669.05,144.67
330.59,669.55,144.07
331.08,670.05,143.89
331.59,670.55,144.20
332.09,671.05,144.25
332.58,671.55,143.90
333.08,672.05,143.91
333.59,672.55,143.71
334.10,673.05,144.35
334.59,673.55,143.17
335.10,674.05,143.74
335.59,674.55,142.53
336.10,675.05,141.31
336.61,675.55,140.08
337.10,676.05,138.64
337.60,676.55,136.98
338.09,677.05,134.29
338.59,677.55,132.05
339.09,678.05,130.89
339.61,678.55,129.27
340.11,679.05,126.88
340.62,679.55,124.47
341.10,680.05,122.04
341.59,680.55,118.41
342.11,681.05,114.78
342.61,681.55,112.04
343.09,682.05,107.97
343.61,682.55,103.52
344.10,683.05,99.29
344.60,683.55,95.61
345.10,684.05,91.33
345.60,684.55,88.08
346.11,685.05,84.85
346.59,685.55,82.27
347.10,686.05,79.86
347.60,686.55,76.12
348.09,687.05,72.14
348.59,687.55,68.60
349.11,688.05,63.77
349.60,688.55,59.07
350.10,689.05,54.71
350.60,689.55,50.55
351.08,690.05,47.12
351.60,690.55,42.18
352.09,691.05,38.33
352.61,691.55,35.92
353.12,692.05,31.69
353.63,692.55,29.15
354.13,693.05,26.66
354.61,693.55,24.78
355.09,694.05,21.97
355.58,694.55,20.00
356.07,695.05,18.25
356.57,695.55,17.29
357.08,696.05,15.51
357.59,696.55,15.16
358.08,697.05,12.70
358.59,697.55,11.79
359.10,698.05,11.20
359.59,698.55,10.80
360.09,699.05,9.82
360.58,699.55,8.87
361.10,700.05,9.69
361.60,700.55,10.36
362.11,701.05,9.74
362.59,701.55,8.94
363.09,702.05,9.88
363.60,702.55,10.56
364.08,703.05,10.25
364.58,703.55,7.98
365.11,704.05,6.58
365.60,704.55,6.93
366.11,705.05,7.70
366.61,705.55,8.08
367.12,706.05,8.51
367.61,706.55,8.83
368.12,707.05,9.54
368.62,707.55,10.86
369.11,708.05,11.15
369.60,708.55,10.96
370.11,709.05,10.20
370.63,709.55,9.65
371.12,710.05,8.59
371.62,710.55,9.10
372.12,711.05,9.18
372.62,711.55,8.82
373.12,712.05,9.96
373.63,712.55,9.67
374.12,713.05,9.90
374.60,713.55,10.58
375.09,714.05,10.01
375.60,714.55,8.64
376.10,715.05,9.19
376.60,715.55,8.65
377.09,716.05,8.52
377.60,716.55,8.66
378.12,717.05,9.22
378.61,717.55,10.18
379.12,718.05,9.70
379.62,718.55,9.71
380.12,719.05,8.59
380.61,719.55,10.09
381.11,720.05,8.99
381.61,720.55,8.89
382.11,721.05,9.52
382.63,721.55,9.21
383.11,722.05,10.32
383.62,722.55,9.77
384.13,723.05,9.15
384.62,723.55,9.52
385.12,724.05,9.89
385.60,724.55,9.45
386.11,725.05,8.48
386.61,725.55,7.92
387.12,726.05,8.15
387.62,726.55,7.83
388.12,727.05,7.25
388.63,727.55,8.29
389.14,728.05,9.89
389.62,728.55,9.44
390.12,729.05,9.23
390.63,729.55,8.97
391.12,730.05,9.07
391.62,730.55,8.16
392.14,731.05,7.63
392.64,731.55,7.24
393.15,732.05,6.42
393.64,732.55,6.10
394.15,733.05,6.78
394.63,733.55,6.87
395.14,734.05,7.04
395.66,734.55,6.60
396.17,735.05,7.27
396.66,735.55,7.48
397.16,736.05,6.86
397.63,736.55,6.65
398.12,737.05,6.73
398.64,737.55,6.05
399.15,738.05,6.79
399.65,738.55,5.90
400.14,739.05,5.79
400.62,739.55,5.77
401.13,740.05,6.15
401.63,740.55,5.54
402.11,741.05,6.33
402.61,741.55,6.97
403.14,742.05,7.54
403.65,742.55,6.76
404.14,743.05,6.31
404.65,743.55,6.13
405.15,744.05,5.08
405.65,744.55,4.10
406.16,745.05,4.47
406.65,745.55,4.81
407.15,746.05,3.79
407.66,746.55,3.59
408.16,747.05,3.81
408.65,747.55,3.55
409.17,748.05,2.83
409.67,748.55,2.71
410.17,749.05,3.44
410.66,749.55,3.15
411.16,750.05,2.32
411.65,750.55,2.88
412.14,751.05,3.05
412.66,751.55,2.92
413.16,752.05,2.64
413.65,752.55,1.83
414.16,753.05,2.11
414.66,753.55,2.98
415.17,754.05,4.00
415.67,754.55,5.02
416.14,755.05,4.87
416.64,755.55,5.39
417.16,756.05,5.55
417.66,756.55,5.45
418.17,757.05,4.96
418.68,757.55,3.73
419.18,758.05,1.63
419.67,758.55,1.03
420.16,759.05,1.31
420.69,759.55,1.95
421.20,760.05,2.49
421.68,760.55,2.95
422.17,761.05,3.48
422.68,761.55,3.52
423.17,762.05,3.71
423.66,762.55,3.64
424.17,763.05,2.73
424.66,763.55,1.08
425.17,764.05,1.78
425.68,764.55,1.57
426.18,765.05,0.18
426.68,765.55,-0.45
427.19,766.05,-0.57
427.68,766.55,0.37
428.18,767.05,1.34
428.67,767.55,1.95
429.19,768.05,2.66
429.69,768.55,2.51
430.17,769.05,2.43
430.67,769.55,2.57
431.19,770.05,2.33
431.68,770.55,2.41
432.19,771.05,2.48
432.71,771.55,1.54
433.22,772.05,1.07
433.72,772.55,1.23
434.20,773.05,0.44
434.72,773.55,0.03
435.23,774.05,-0.19
435.73,774.55,-0.39
436.22,775.05,0.19
436.71,775.55,1.21
437.22,776.05,1.73
437.71,776.55,1.91
438.19,777.05,1.91
438.70,777.55,1.39
439.21,778.05,1.09
439.71,778.55,-0.47
440.21,779.05,-0.55
440.72,779.55,-0.12
441.23,780.05,-0.81
441.75,780.55,-0.76
442.26,781.05,-0.46
442.75,781.55,0.05
443.24,782.05,0.02
443.74,782.55,-0.30
444.24,783.05,0.65
444.74,783.55,1.50
445.25,784.05,1.21
445.74,784.55,0.86
446.22,785.05,1.01
446.72,785.55,-0.15
447.25,786.05,-0.68
447.75,786.55,0.12
448.24,787.05,-0.38
448.73,787.55,-0.86
449.22,788.05,-0.32
449.71,788.55,1.12
450.20,789.05,2.18
450.73,789.55,1.89
451.24,790.05,1.26
451.72,790.55,1.16
452.22,791.05,0.52
452.72,791.55,-0.07
453.22,792.05,0.15
453.73,792.55,-0.14
454.24,793.05,-0.25
454.74,793.55,0.37
455.23,794.05,0.40
455.74,794.55,0.43
456.26,795.05,0.58
456.76,795.55,0.18
457.28,796.05,0.07
457.77,796.55,-0.22
458.26,797.05,-1.19
458.76,797.55,-1.48
459.25,798.05,-0.56
459.75,798.55,-0.12
460.25,799.05,0.18
460.74,799.55,0.35
461.24,800.05,0.79
461.74,800.55,1.68
462.23,801.05,1.22
462.74,801.55,0.54
463.27,802.05,-0.23
463.77,802.55,-0.73
464.26,803.05,-0.46
464.75,803.55,-0.40
465.26,804.05,0.14
465.77,804.55,0.96
466.26,805.05,1.58
466.77,805.55,2.94
467.26,806.05,3.53
467.74,806.55,3.03
468.25,807.05,1.10
468.77,807.55,-1.05
469.26,808.05,-1.52
469.75,808.55,-2.03
470.26,809.05,-2.49
470.77,809.55,-2.60
471.28,810.05,-2.55
471.76,810.55,-2.34
472.25,811.05,-2.22
472.77,811.55,-1.74
473.27,812.05,-0.89
473.76,812.55,-0.11
474.27,813.05,0.05
474.77,813.55,-0.82
475.27,814.05,-1.10
475.76,814.55,-1.21
476.27,815.05,-1.59
476.79,815.55,-2.01
477.26,816.05,-2.45
477.74,816.55,-2.63
478.28,817.05,-1.64
478.76,817.55,-0.57
479.26,818.05,-0.23
479.78,818.55,0.38
480.28,819.05,1.12
480.77,819.55,1.31
481.27,820.05,1.54
481.78,820.55,1.05
482.28,821.05,0.43
482.79,821.55,0.29
483.28,822.05,-0.56
483.78,822.55,-1.61
484.28,823.05,-1.88
484.78,823.55,-1.26
485.28,824.05,-0.20
485.77,824.55,0.73
486.26,825.05,1.72
486.77,825.55,1.38
487.28,826.05,0.67
487.79,826.55,-0.03
488.29,827.05,-0.78
488.79,827.55,0.00
489.29,828.05,-0.10
489.79,828.55,-1.06
490.29,829.05,-1.56
490.80,829.55,-1.91
491.31,830.05,-1.41
491.82,830.55,-0.75
492.32,831.05,-1.00
492.83,831.55,-0.80
493.33,832.05,0.57
493.81,832.55,1.31
494.31,833.05,1.39
494.81,833.55,1.54
495.31,834.05,1.34
495.81,834.55,1.82
496.32,835.05,1.59
496.82,835.55,0.83
497.31,836.05,-0.33
497.82,836.55,-1.01
498.33,837.05,-1.51
498.81,837.55,-1.34
499.30,838.05,-0.41
499.80,838.55,0.01
500.33,839.05,0.07
500.84,839.55,0.68
501.34,840.05,0.87
501.84,840.55,1.17
502.34,841.05,0.69
502.85,841.55,-0.39
503.34,842.05,-0.20
503.82,842.55,-0.32
504.30,843.05,0.17
504.81,843.55,0.92
505.32,844.05,0.42
505.81,844.55,0.09
506.30,845.05,0.16
506.81,845.55,-0.65
507.30,846.05,-0.53
507.80,846.55,-0.68
508.31,847.05,-0.51
508.80,847.55,0.14
509.31,848.05,0.09
509.81,848.55,0.09
510.32,849.05,0.98
510.82,849.55,0.90
511.31,850.05,0.08
511.81,850.55,-0.04
512.29,851.05,-0.40
512.77,851.55,-0.85
513.27,852.05,-0.32
513.79,852.55,-0.37
514.30,853.05,-0.62
514.80,853.55,-0.12
515.30,854.05,0.34
515.80,854.55,0.85
516.32,855.05,1.48
516.81,855.55,1.52
517.28,856.05,0.93
517.78,856.55,0.05
518.29,857.05,-0.25
518.79,857.55,-0.72
519.28,858.05,-1.22
519.78,858.55,-1.40
520.29,859.05,-0.69
520.80,859.55,0.44
521.30,860.05,0.37
521.79,860.55,0.76
522.29,861.05,1.58
522.80,861.55,1.78
523.31,862.05,1.70
523.80,862.55,0.18
524.29,863.05,4.86
524.79,863.55,9.20
525.28,864.05,9.21
525.78,864.55,9.22
526.29,865.05,9.22
526.78,865.55,9.23
527.29,866.05,9.24
527.81,866.55,9.25
528.32,867.05,9.25
528.81,867.55,9.26
529.31,868.05,9.27
529.80,868.55,9.28
530.31,869.05,9.29
530.83,869.55,9.29
531.32,870.05,9.30
531.81,870.55,9.31
532.31,871.05,9.32
532.82,871.55,9.32
533.32,872.05,9.33
533.83,872.55,9.34
534.31,873.05,9.35
534.81,873.55,9.36
535.30,874.05,9.36
535.79,874.55,9.37
536.30,875.05,9.38
536.81,875.55,9.39
537.31,876.05,9.39
537.80,876.55,9.40