File: PMMA/Calibration_Data/Sandia/Sandia_DSC_Ar_10K_2.csv
Time,Temperature,Heat Flow
[s],[K],[W/g]
1200.35,308.35,9.84E-03
1316.217,308.75,2.04E-03
1342.63,309.15,-1.94E-04
1360.99,309.55,-4.05E-03
1375.29,309.95,-5.21E-03
1387.42,310.35,-8.13E-03
1398.21,310.75,-9.93E-03
1407.81,311.15,-1.05E-02
1416.597,311.55,-1.22E-02
1424.76,311.95,-1.36E-02
1432.33,312.35,-1.80E-02
1439.47,312.75,-1.80E-02
1446.29,313.15,-1.99E-02
1452.71,313.55,-2.36E-02
1458.93,313.95,-2.35E-02
1464.91,314.35,-2.53E-02
1470.645,314.75,-2.84E-02
1476.2,315.15,-3.03E-02
1481.58,315.55,-3.13E-02
1486.79,315.95,-3.43E-02
1491.85,316.35,-3.30E-02
1496.77,316.75,-3.41E-02
1501.584,317.15,-3.86E-02
1506.24,317.55,-3.91E-02
1510.809,317.95,-3.92E-02
1515.288,318.35,-4.10E-02
1519.69,318.75,-4.32E-02
1524.05,319.15,-4.58E-02
1528.31,319.55,-4.78E-02
1532.51,319.95,-4.89E-02
1536.591,320.35,-5.25E-02
1540.62,320.75,-5.24E-02
1544.61,321.15,-5.34E-02
1548.55,321.55,-5.62E-02
1552.443,321.95,-5.81E-02
1556.25,322.35,-5.99E-02
1560.036,322.75,-6.09E-02
1563.76,323.15,-6.30E-02
1567.449,323.55,-6.55E-02
1571.07,323.95,-6.83E-02
1574.67,324.35,-6.82E-02
1578.23,324.75,-6.86E-02
1581.75,325.15,-7.20E-02
1585.22,325.55,-7.29E-02
1588.659,325.95,-7.45E-02
1592.079,326.35,-7.52E-02
1595.46,326.75,-7.58E-02
1598.814,327.15,-8.01E-02
1602.15,327.55,-7.87E-02
1605.44,327.95,-8.33E-02
1608.71,328.35,-8.52E-02
1611.95,328.75,-8.56E-02
1615.179,329.15,-8.67E-02
1618.38,329.55,-8.90E-02
1621.56,329.95,-8.92E-02
1624.73,330.35,-9.32E-02
1627.851,330.75,-9.19E-02
1630.95,331.15,-9.50E-02
1634.03,331.55,-9.70E-02
1637.08,331.95,-9.75E-02
1640.12,332.35,-0.10056
1643.14,332.75,-0.10285
1646.13,333.15,-0.10284
1649.13,333.55,-0.10715
1652.1,333.95,-0.10573
1655.04,334.35,-0.11024
1657.96,334.75,-0.11164
1660.857,335.15,-0.11269
1663.75,335.55,-0.11604
1666.632,335.95,-0.11808
1669.5,336.35,-0.11727
1672.34,336.75,-0.11922
1675.17,337.15,-0.12183
1677.98,337.55,-0.12263
1680.78,337.95,-0.12652
1683.56,338.35,-0.12808
1686.34,338.75,-0.13032
1689.1,339.15,-0.13113
1691.85,339.55,-0.1335
1694.58,339.95,-0.13464
1697.31,340.35,-0.13559
1700.02,340.75,-0.13791
1702.72,341.15,-0.14077
1705.41,341.55,-0.14098
1708.09,341.95,-0.1428
1710.75,342.35,-0.14383
1713.405,342.75,-0.14573
1716.06,343.15,-0.14802
1718.7,343.55,-0.1484
1721.34,343.95,-0.15037
1723.959,344.35,-0.15249
1726.56,344.75,-0.15556
1729.17,345.15,-0.15458
1731.75,345.55,-0.15579
1734.33,345.95,-0.15971
1736.91,346.35,-0.15854
1739.47,346.75,-0.16098
1742.02,347.15,-0.16335
1744.58,347.55,-0.16611
1747.12,347.95,-0.16532
1749.645,348.35,-0.16878
1752.17,348.75,-0.16935
1754.69,349.15,-0.17122
1757.2,349.55,-0.17483
1759.71,349.95,-0.17635
1762.2,350.35,-0.17653
1764.7,350.75,-0.17819
1767.2,351.15,-0.17986
1769.68,351.55,-0.18326
1772.14,351.95,-0.18336
1774.59,352.35,-0.1841
1777.029,352.75,-0.18939
1779.46,353.15,-0.19038
1781.9,353.55,-0.19118
1784.34,353.95,-0.19324
1786.78,354.35,-0.19628
1789.191,354.75,-0.19644
1791.61,355.15,-0.19927
1794.01,355.55,-0.19974
1796.41,355.95,-0.204
1798.8,356.35,-0.20466
1801.185,356.75,-0.20542
1803.57,357.15,-0.20896
1805.96,357.55,-0.21147
1808.32,357.95,-0.21275
1810.67,358.35,-0.21616
1813.03,358.75,-0.21875
1815.38,359.15,-0.22
1817.73,359.55,-0.21998
1820.06,359.95,-0.22274
1822.41,360.35,-0.22706
1824.74,360.75,-0.2287
1827.06,361.15,-0.23097
1829.38,361.55,-0.23124
1831.68,361.95,-0.23401
1833.98,362.35,-0.23601
1836.28,362.75,-0.23814
1838.565,363.15,-0.24059
1840.84,363.55,-0.24281
1843.12,363.95,-0.24465
1845.393,364.35,-0.24614
1847.661,364.75,-0.24955
1849.93,365.15,-0.25069
1852.19,365.55,-0.25244
1854.45,365.95,-0.25373
1856.7,366.35,-0.25557
1858.95,366.75,-0.25755
1861.19,367.15,-0.26101
1863.42,367.55,-0.26277
1865.66,367.95,-0.26579
1867.88,368.35,-0.26528
1870.11,368.75,-0.26836
1872.33,369.15,-0.26831
1874.55,369.55,-0.2732
1876.779,369.95,-0.27317
1878.99,370.35,-0.27734
1881.2,370.75,-0.27548
1883.406,371.15,-0.27748
1885.61,371.55,-0.27877
1887.81,371.95,-0.2814
1890,372.35,-0.28725
1892.18,372.75,-0.28805
1894.371,373.15,-0.29074
1896.56,373.55,-0.29157
1898.73,373.95,-0.29509
1900.91,374.35,-0.29662
1903.08,374.75,-0.29857
1905.25,375.15,-0.30031
1907.42,375.55,-0.3009
1909.59,375.95,-0.3037
1911.75,376.35,-0.30591
1913.92,376.75,-0.31073
1916.08,377.15,-0.31087
1918.23,377.55,-0.31146
1920.384,377.95,-0.31551
1922.535,378.35,-0.31607
1924.68,378.75,-0.31808
1926.82,379.15,-0.32024
1928.97,379.55,-0.32119
1931.11,379.95,-0.32516
1933.25,380.35,-0.327
1935.39,380.75,-0.32859
1937.53,381.15,-0.32919
1939.67,381.55,-0.33467
1941.79,381.95,-0.33458
1943.92,382.35,-0.3388
1946.05,382.75,-0.33965
1948.16,383.15,-0.34273
1950.28,383.55,-0.3421
1952.4,383.95,-0.3456
1954.52,384.35,-0.34861
1956.64,384.75,-0.34829
1958.75,385.15,-0.35128
1960.87,385.55,-0.35235
1962.98,385.95,-0.356
1965.08,386.35,-0.35786
1967.19,386.75,-0.35922
1969.3,387.15,-0.36159
1971.41,387.55,-0.36444
1973.51,387.95,-0.36859
1975.61,388.35,-0.36885
1977.71,388.75,-0.37087
1979.8,389.15,-0.37234
1981.899,389.55,-0.37454
1984,389.95,-0.37452
1986.1,390.35,-0.37901
1988.19,390.75,-0.37942
1990.28,391.15,-0.3815
1992.37,391.55,-0.38216
1994.45,391.95,-0.38595
1996.53,392.35,-0.38881
1998.61,392.75,-0.39017
2000.68,393.15,-0.39215
2002.755,393.55,-0.39339
2004.83,393.95,-0.39474
2006.9,394.35,-0.39978
2008.974,394.75,-0.40232
2011.044,395.15,-0.40129
2013.12,395.55,-0.40448
2015.19,395.95,-0.40731
2017.25,396.35,-0.40999
2019.309,396.75,-0.40884
2021.364,397.15,-0.41395
2023.42,397.55,-0.41621
2025.47,397.95,-0.41714
2027.52,398.35,-0.42008
2029.58,398.75,-0.42382
2031.621,399.15,-0.42514
2033.67,399.55,-0.42652
2035.72,399.95,-0.42978
2037.76,400.35,-0.43359
2039.81,400.75,-0.43495
2041.85,401.15,-0.43771
2043.89,401.55,-0.44149
2045.93,401.95,-0.4438
2047.97,402.35,-0.44502
2050.02,402.75,-0.44776
2052.06,403.15,-0.45016
2054.085,403.55,-0.45616
2056.11,403.95,-0.45728
2058.141,404.35,-0.46266
2060.16,404.75,-0.46402
2062.173,405.15,-0.46768
2064.19,405.55,-0.47114
2066.21,405.95,-0.47483
2068.23,406.35,-0.47926
2070.24,406.75,-0.48033
2072.25,407.15,-0.48527
2074.26,407.55,-0.48922
2076.27,407.95,-0.49262
2078.28,408.35,-0.49756
2080.28,408.75,-0.49977
2082.28,409.15,-0.50199
2084.29,409.55,-0.50709
2086.29,409.95,-0.50983
2088.3,410.35,-0.51352
2090.3,410.75,-0.51619
2092.308,411.15,-0.51866
2094.3,411.55,-0.52403
2096.31,411.95,-0.52804
2098.3,412.35,-0.5303
2100.29,412.75,-0.53391
2102.29,413.15,-0.53544
2104.28,413.55,-0.54031
2106.27,413.95,-0.54184
2108.26,414.35,-0.54649
2110.251,414.75,-0.54998
2112.24,415.15,-0.55415
2114.22,415.55,-0.55541
2116.21,415.95,-0.55958
2118.19,416.35,-0.56221
2120.18,416.75,-0.56559
2122.17,417.15,-0.56644
2124.15,417.55,-0.56908
2126.13,417.95,-0.57448
2128.1,418.35,-0.57621
2130.081,418.75,-0.57928
2132.05,419.15,-0.58211
2134.02,419.55,-0.58417
2135.99,419.95,-0.5893
2137.974,420.35,-0.59056
2139.95,420.75,-0.59336
2141.93,421.15,-0.59817
2143.899,421.55,-0.59809
2145.87,421.95,-0.6023
2147.841,422.35,-0.60506
2149.81,422.75,-0.6074
2151.78,423.15,-0.61064
2153.75,423.55,-0.61273
2155.72,423.95,-0.61656
2157.69,424.35,-0.62032
2159.66,424.75,-0.6233
2161.63,425.15,-0.62584
2163.6,425.55,-0.62766
2165.57,425.95,-0.63093
2167.533,426.35,-0.63256
2169.5,426.75,-0.6364
2171.472,427.15,-0.63875
2173.43,427.55,-0.64112
2175.4,427.95,-0.64125
2177.36,428.35,-0.64456
2179.32,428.75,-0.647
2181.28,429.15,-0.64945
2183.24,429.55,-0.65216
2185.2,429.95,-0.65477
2187.16,430.35,-0.65685
2189.13,430.75,-0.66014
2191.09,431.15,-0.65785
2193.06,431.55,-0.66292
2195.022,431.95,-0.66631
2196.99,432.35,-0.66714
2198.95,432.75,-0.66986
2200.911,433.15,-0.67105
2202.87,433.55,-0.67201
2204.829,433.95,-0.67381
2206.794,434.35,-0.67795
2208.753,434.75,-0.67843
2210.72,435.15,-0.68106
2212.689,435.55,-0.68274
2214.66,435.95,-0.68493
2216.63,436.35,-0.68585
2218.59,436.75,-0.68857
2220.555,437.15,-0.6893
2222.52,437.55,-0.69276
2224.48,437.95,-0.69571
2226.45,438.35,-0.69738
2228.42,438.75,-0.69675
2230.39,439.15,-0.69976
2232.36,439.55,-0.70274
2234.32,439.95,-0.70266
2236.29,440.35,-0.70366
2238.255,440.75,-0.70623
2240.21,441.15,-0.70737
2242.18,441.55,-0.70757
2244.14,441.95,-0.70968
2246.11,442.35,-0.71434
2248.07,442.75,-0.71484
2250.04,443.15,-0.71446
2252,443.55,-0.71718
2253.96,443.95,-0.71859
2255.93,444.35,-0.72077
2257.9,444.75,-0.72206
2259.86,445.15,-0.72361
2261.82,445.55,-0.72342
2263.78,445.95,-0.72591
2265.75,446.35,-0.72937
2267.71,446.75,-0.72932
2269.67,447.15,-0.73023
2271.639,447.55,-0.73389
2273.6,447.95,-0.73407
2275.566,448.35,-0.7362
2277.534,448.75,-0.73686
2279.499,449.15,-0.74156
2281.47,449.55,-0.74307
2283.43,449.95,-0.74539
2285.39,450.35,-0.74586
2287.35,450.75,-0.75066
2289.32,451.15,-0.75017
2291.283,451.55,-0.75096
2293.25,451.95,-0.75543
2295.21,452.35,-0.7565
2297.17,452.75,-0.75905
2299.13,453.15,-0.75938
2301.1,453.55,-0.7616
2303.06,453.95,-0.76629
2305.02,454.35,-0.76684
2306.982,454.75,-0.77103
2308.95,455.15,-0.77093
2310.91,455.55,-0.77409
2312.87,455.95,-0.77888
2314.83,456.35,-0.78208
2316.801,456.75,-0.78476
2318.77,457.15,-0.78819
2320.73,457.55,-0.78948
2322.69,457.95,-0.79347
2324.65,458.35,-0.7963
2326.62,458.75,-0.80156
2328.58,459.15,-0.80359
2330.535,459.55,-0.80633
2332.5,459.95,-0.8101
2334.46,460.35,-0.81131
2336.42,460.75,-0.81905
2338.38,461.15,-0.82012
2340.34,461.55,-0.82533
2342.3,461.95,-0.8303
2344.257,462.35,-0.83357
2346.21,462.75,-0.83845
2348.17,463.15,-0.83987
2350.14,463.55,-0.84236
2352.1,463.95,-0.84682
2354.055,464.35,-0.84973
2356.02,464.75,-0.85736
2357.98,465.15,-0.86015
2359.94,465.55,-0.86684
2361.9,465.95,-0.86755
2363.86,466.35,-0.87165
2365.82,466.75,-0.87568
2367.78,467.15,-0.88123
2369.74,467.55,-0.88639
2371.71,467.95,-0.88742
2373.67,468.35,-0.89359
2375.64,468.75,-0.89356
2377.61,469.15,-0.89891
2379.576,469.55,-0.90307
2381.54,469.95,-0.90872
2383.51,470.35,-0.91202
2385.47,470.75,-0.91472
2387.43,471.15,-0.91945
2389.39,471.55,-0.92094
2391.35,471.95,-0.92645
2393.31,472.35,-0.93076
2395.272,472.75,-0.93543
2397.234,473.15,-0.93867
2399.2,473.55,-0.94056
2401.17,473.95,-0.94464
2403.13,474.35,-0.94947
2405.11,474.75,-0.9516
2407.08,475.15,-0.95456
2409.06,475.55,-0.96032
2411.03,475.95,-0.96323
2412.99,476.35,-0.96649
2414.97,476.75,-0.96757
2416.94,477.15,-0.97355
2418.906,477.55,-0.97716
2420.88,477.95,-0.9798
2422.851,478.35,-0.98638
2424.831,478.75,-0.9893
2426.81,479.15,-0.992
2428.78,479.55,-0.99388
2430.75,479.95,-0.9988
2432.73,480.35,-1.00335
2434.71,480.75,-1.00653
2436.681,481.15,-1.00823
2438.652,481.55,-1.01385
2440.63,481.95,-1.01766
2442.603,482.35,-1.0236
2444.574,482.75,-1.02855
2446.55,483.15,-1.03074
2448.522,483.55,-1.03786
2450.5,483.95,-1.04249
2452.479,484.35,-1.04678
2454.46,484.75,-1.05404
2456.44,485.15,-1.0584
2458.422,485.55,-1.06351
2460.402,485.95,-1.06774
2462.39,486.35,-1.07546
2464.374,486.75,-1.08017
2466.35,487.15,-1.08392
2468.334,487.55,-1.09253
2470.31,487.95,-1.09466
2472.29,488.35,-1.10014
2474.28,488.75,-1.10142
2476.26,489.15,-1.10981
2478.24,489.55,-1.11803
2480.22,489.95,-1.11824
2482.2,490.35,-1.12445
2484.192,490.75,-1.12905
2486.175,491.15,-1.13298
2488.16,491.55,-1.13727
2490.14,491.95,-1.14287
2492.13,492.35,-1.14606
2494.11,492.75,-1.14958
2496.1,493.15,-1.15479
2498.08,493.55,-1.15869
2500.06,493.95,-1.16471
2502.05,494.35,-1.16895
2504.04,494.75,-1.17491
2506.02,495.15,-1.17972
2508.02,495.55,-1.1842
2510.01,495.95,-1.18808
2512.01,496.35,-1.19404
2514,496.75,-1.19978
2515.99,497.15,-1.19894
2517.984,497.55,-1.20506
2519.97,497.95,-1.20934
2521.97,498.35,-1.21237
2523.96,498.75,-1.21848
2525.95,499.15,-1.22211
2527.95,499.55,-1.22668
2529.942,499.95,-1.2306
2531.94,500.35,-1.23307
2533.94,500.75,-1.23706
2535.93,501.15,-1.24274
2537.93,501.55,-1.24756
2539.923,501.95,-1.24729
2541.92,502.35,-1.25209
2543.91,502.75,-1.2538
2545.92,503.15,-1.25697
2547.92,503.55,-1.26346
2549.92,503.95,-1.26487
2551.92,504.35,-1.27012
2553.92,504.75,-1.27088
2555.93,505.15,-1.27647
2557.93,505.55,-1.28139
2559.93,505.95,-1.28194
2561.93,506.35,-1.28761
2563.93,506.75,-1.29129
2565.94,507.15,-1.295
2567.94,507.55,-1.29856
2569.94,507.95,-1.29834
2571.94,508.35,-1.30365
2573.95,508.75,-1.30825
2575.96,509.15,-1.31207
2577.97,509.55,-1.31433
2579.98,509.95,-1.31708
2581.98,510.35,-1.32142
2583.993,510.75,-1.32284
2586,511.15,-1.32522
2588.01,511.55,-1.32934
2590.02,511.95,-1.33191
2592.03,512.35,-1.33554
2594.04,512.75,-1.3392
2596.047,513.15,-1.34358
2598.06,513.55,-1.34838
2600.07,513.95,-1.35401
2602.077,514.35,-1.35401
2604.08,514.75,-1.35755
2606.1,515.15,-1.35727
2608.11,515.55,-1.35843
2610.12,515.95,-1.36573
2612.139,516.35,-1.36938
2614.15,516.75,-1.37255
2616.17,517.15,-1.37487
2618.196,517.55,-1.37677
2620.22,517.95,-1.37958
2622.24,518.35,-1.38343
2624.25,518.75,-1.38716
2626.28,519.15,-1.38805
2628.3,519.55,-1.39178
2630.31,519.95,-1.39557
2632.33,520.35,-1.39734
2634.354,520.75,-1.39944
2636.38,521.15,-1.40093
2638.395,521.55,-1.40442
2640.41,521.95,-1.40747
2642.44,522.35,-1.41388
2644.46,522.75,-1.41459
2646.48,523.15,-1.41674
2648.5,523.55,-1.41909
2650.52,523.95,-1.4213
2652.55,524.35,-1.42343
2654.57,524.75,-1.42716
2656.59,525.15,-1.43026
2658.615,525.55,-1.43582
2660.64,525.95,-1.43541
2662.66,526.35,-1.43947
2664.69,526.75,-1.44142
2666.71,527.15,-1.44474
2668.75,527.55,-1.44528
2670.77,527.95,-1.45102
2672.81,528.35,-1.4494
2674.84,528.75,-1.44943
2676.87,529.15,-1.4566
2678.9,529.55,-1.45808
2680.932,529.95,-1.4589
2682.97,530.35,-1.46308
2685,530.75,-1.46631
2687.03,531.15,-1.46701
2689.068,531.55,-1.47332
2691.1,531.95,-1.47587
2693.145,532.35,-1.47531
2695.18,532.75,-1.47825
2697.22,533.15,-1.4835
2699.26,533.55,-1.48578
2701.3,533.95,-1.48566
2703.34,534.35,-1.49027
2705.38,534.75,-1.49235
2707.42,535.15,-1.49548
2709.465,535.55,-1.49962
2711.51,535.95,-1.49837
2713.55,536.35,-1.50359
2715.6,536.75,-1.50789
2717.64,537.15,-1.50708
2719.68,537.55,-1.50988
2721.73,537.95,-1.51397
2723.78,538.35,-1.5122
2725.82,538.75,-1.51619
2727.87,539.15,-1.51914
2729.916,539.55,-1.52164
2731.96,539.95,-1.52215
2734.01,540.35,-1.52095
2736.063,540.75,-1.52503
2738.11,541.15,-1.52591
2740.16,541.55,-1.52911
2742.22,541.95,-1.52993
2744.28,542.35,-1.53152
2746.34,542.75,-1.53432
2748.39,543.15,-1.53696
2750.45,543.55,-1.54018
2752.51,543.95,-1.54034
2754.57,544.35,-1.54346
2756.63,544.75,-1.5459
2758.69,545.15,-1.54869
2760.75,545.55,-1.54798
2762.82,545.95,-1.55184
2764.88,546.35,-1.55212
2766.94,546.75,-1.55363
2769.01,547.15,-1.55855
2771.08,547.55,-1.55861
2773.15,547.95,-1.55913
2775.23,548.35,-1.55839
2777.3,548.75,-1.56174
2779.38,549.15,-1.56218
2781.46,549.55,-1.56205
2783.53,549.95,-1.56186
2785.6,550.35,-1.56404
2787.67,550.75,-1.56604
2789.742,551.15,-1.56877
2791.82,551.55,-1.56733
2793.89,551.95,-1.56679
2795.973,552.35,-1.56556
2798.05,552.75,-1.56609
2800.13,553.15,-1.56808
2802.216,553.55,-1.57082
2804.3,553.95,-1.57198
2806.39,554.35,-1.57129
2808.48,554.75,-1.57185
2810.56,555.15,-1.57517
2812.65,555.55,-1.57694
2814.747,555.95,-1.57842
2816.84,556.35,-1.58113
2818.92,556.75,-1.58248
2821.02,557.15,-1.58508
2823.123,557.55,-1.5843
2825.22,557.95,-1.58481
2827.314,558.35,-1.5868
2829.41,558.75,-1.58894
2831.51,559.15,-1.59105
2833.611,559.55,-1.58777
2835.71,559.95,-1.58821
2837.81,560.35,-1.5911
2839.91,560.75,-1.58939
2842.01,561.15,-1.58839
2844.11,561.55,-1.59113
2846.2,561.95,-1.59264
2848.308,562.35,-1.59584
2850.41,562.75,-1.59843
2852.52,563.15,-1.59824
2854.623,563.55,-1.59829
2856.732,563.95,-1.59973
2858.85,564.35,-1.59914
2860.96,564.75,-1.59766
2863.07,565.15,-1.60001
2865.18,565.55,-1.60106
2867.29,565.95,-1.6002
2869.4,566.35,-1.60035
2871.513,566.75,-1.60631
2873.63,567.15,-1.60335
2875.74,567.55,-1.60433
2877.86,567.95,-1.6083
2879.97,568.35,-1.60756
2882.09,568.75,-1.60779
2884.21,569.15,-1.61013
2886.32,569.55,-1.61173
2888.44,569.95,-1.61277
2890.57,570.35,-1.615
2892.7,570.75,-1.61625
2894.82,571.15,-1.61617
2896.941,571.55,-1.62003
2899.06,571.95,-1.61761
2901.18,572.35,-1.61772
2903.3,572.75,-1.61922
2905.416,573.15,-1.62049
2907.53,573.55,-1.62118
2909.661,573.95,-1.62164
2911.788,574.35,-1.62316
2913.92,574.75,-1.62585
2916.05,575.15,-1.62641
2918.18,575.55,-1.62906
2920.31,575.95,-1.63248
2922.44,576.35,-1.63193
2924.57,576.75,-1.63413
2926.7,577.15,-1.63835
2928.83,577.55,-1.63651
2930.96,577.95,-1.63675
2933.08,578.35,-1.64103
2935.21,578.75,-1.6429
2937.35,579.15,-1.64166
2939.48,579.55,-1.64494
2941.61,579.95,-1.64515
2943.75,580.35,-1.64725
2945.88,580.75,-1.64846
2948.02,581.15,-1.64868
2950.15,581.55,-1.6518
2952.28,581.95,-1.65154
2954.42,582.35,-1.65061
2956.56,582.75,-1.65307
2958.69,583.15,-1.65421
2960.83,583.55,-1.65617
2962.97,583.95,-1.65656
2965.11,584.35,-1.66028
2967.252,584.75,-1.65805
2969.39,585.15,-1.65755
2971.53,585.55,-1.66134
2973.67,585.95,-1.65957
2975.82,586.35,-1.65959
2977.96,586.75,-1.65795
2980.113,587.15,-1.65743
2982.26,587.55,-1.66179
2984.41,587.95,-1.6585
2986.55,588.35,-1.65865
2988.69,588.75,-1.65888
2990.84,589.15,-1.65711
2992.99,589.55,-1.654
2995.14,589.95,-1.65442
2997.288,590.35,-1.65391
2999.44,590.75,-1.65585
3001.6,591.15,-1.65119
3003.747,591.55,-1.65383
3005.9,591.95,-1.65374
3008.058,592.35,-1.6509
3010.22,592.75,-1.65055
3012.38,593.15,-1.65105
3014.53,593.55,-1.64524
3016.69,593.95,-1.64565
3018.85,594.35,-1.64268
3021.01,594.75,-1.64174
3023.163,595.15,-1.63648
3025.32,595.55,-1.63447
3027.49,595.95,-1.63368
3029.65,596.35,-1.63144
3031.81,596.75,-1.62737
3033.978,597.15,-1.62633
3036.141,597.55,-1.62065
3038.31,597.95,-1.61905
3040.476,598.35,-1.61686
3042.64,598.75,-1.61288
3044.81,599.15,-1.60854
3046.977,599.55,-1.59712
3049.14,599.95,-1.59415
3051.31,600.35,-1.58826
3053.48,600.75,-1.5831
3055.65,601.15,-1.5798
3057.81,601.55,-1.57671
3059.98,601.95,-1.56999
3062.15,602.35,-1.56486
3064.31,602.75,-1.55646
3066.49,603.15,-1.55037
3068.66,603.55,-1.54527
3070.83,603.95,-1.54008
3073,604.35,-1.53244
3075.177,604.75,-1.52519
3077.36,605.15,-1.51725
3079.54,605.55,-1.50924
3081.71,605.95,-1.50074
3083.89,606.35,-1.49316
3086.07,606.75,-1.48485
3088.25,607.15,-1.47362
3090.43,607.55,-1.46594
3092.61,607.95,-1.45616
3094.79,608.35,-1.44811
3096.97,608.75,-1.4347
3099.16,609.15,-1.4249
3101.35,609.55,-1.41216
3103.54,609.95,-1.40225
3105.723,610.35,-1.38899
3107.916,610.75,-1.37857
3110.1,611.15,-1.36899
3112.29,611.55,-1.35599
3114.49,611.95,-1.34036
3116.68,612.35,-1.32488
3118.87,612.75,-1.3152
3121.06,613.15,-1.30063
3123.25,613.55,-1.28646
3125.44,613.95,-1.27106
3127.629,614.35,-1.2553
3129.81,614.75,-1.23687
3132.01,615.15,-1.22362
3134.2,615.55,-1.20347
3136.386,615.95,-1.18583
3138.58,616.35,-1.16721
3140.78,616.75,-1.14823
3142.98,617.15,-1.13448
3145.18,617.55,-1.11712
3147.38,617.95,-1.099
3149.58,618.35,-1.07722
3151.79,618.75,-1.05781
3153.99,619.15,-1.039
3156.198,619.55,-1.01793
3158.4,619.95,-1.00088
3160.61,620.35,-0.97822
3162.82,620.75,-0.95927
3165.03,621.15,-0.93478
3167.24,621.55,-0.91419
3169.46,621.95,-0.89188
3171.68,622.35,-0.86956
3173.9,622.75,-0.84605
3176.11,623.15,-0.82566
3178.33,623.55,-0.80082
3180.54,623.95,-0.77634
3182.76,624.35,-0.75432
3184.974,624.75,-0.73054
3187.19,625.15,-0.7082
3189.4,625.55,-0.68579
3191.61,625.95,-0.66087
3193.83,626.35,-0.638
3196.05,626.75,-0.61738
3198.27,627.15,-0.59856
3200.499,627.55,-0.57843
3202.722,627.95,-0.5581
3204.95,628.35,-0.54082
3207.17,628.75,-0.5254
3209.39,629.15,-0.51214
3211.61,629.55,-0.49777
3213.83,629.95,-0.48631
3216.06,630.35,-0.47049
3218.28,630.75,-0.45593
3220.503,631.15,-0.44632
3222.74,631.55,-0.43231
3224.96,631.95,-0.42758
3227.19,632.35,-0.4195
3229.42,632.75,-0.41238
3231.645,633.15,-0.41387
3233.871,633.55,-0.41173
3236.1,633.95,-0.41062
3238.332,634.35,-0.4148
3240.56,634.75,-0.42307
3242.79,635.15,-0.43271
3245.013,635.55,-0.44219
3247.24,635.95,-0.45003
3249.474,636.35,-0.46365
3251.697,636.75,-0.47426
3253.93,637.15,-0.49593
3256.15,637.55,-0.51054
3258.38,637.95,-0.54295
3260.61,638.35,-0.58177
3262.83,638.75,-0.62835
3265.05,639.15,-0.68879
3267.28,639.55,-0.75903
3269.51,639.95,-0.84285
3271.74,640.35,-0.93271
3273.96,640.75,-1.00223
3276.18,641.15,-1.08137
3278.391,641.55,-1.17663
3280.61,641.95,-1.27426
3282.83,642.35,-1.27748
3285.04,642.75,-1.26045
3287.253,643.15,-1.28052
3289.47,643.55,-1.30393
3291.678,643.95,-1.30594
3293.89,644.35,-1.28026
3296.1,644.75,-1.28198
3298.314,645.15,-1.31052
3300.53,645.55,-1.35292
3302.75,645.95,-1.33719
3304.98,646.35,-1.32594
3307.2,646.75,-1.35086
3309.42,647.15,-1.35009
3311.64,647.55,-1.3311
3313.86,647.95,-1.328
3316.08,648.35,-1.31757
3318.306,648.75,-1.30039
3320.53,649.15,-1.29987
3322.752,649.55,-1.29737
3324.98,649.95,-1.2939
3327.2,650.35,-1.30449
3329.433,650.75,-1.30872
3331.66,651.15,-1.32417
3333.89,651.55,-1.33233
3336.13,651.95,-1.34435
3338.35,652.35,-1.37018
3340.58,652.75,-1.39137
3342.81,653.15,-1.39139
3345.04,653.55,-1.40323
3347.27,653.95,-1.41606
3349.5,654.35,-1.42747
3351.74,654.75,-1.45576
3353.973,655.15,-1.46845
3356.2,655.55,-1.49486
3358.44,655.95,-1.51637
3360.67,656.35,-1.54013
3362.907,656.75,-1.55566
3365.14,657.15,-1.57528
3367.38,657.55,-1.59825
3369.618,657.95,-1.62351
3371.859,658.35,-1.64234
3374.097,658.75,-1.66696
3376.34,659.15,-1.68825
3378.57,659.55,-1.71169
3380.82,659.95,-1.74042
3383.06,660.35,-1.76657
3385.3,660.75,-1.79189
3387.54,661.15,-1.81598
3389.775,661.55,-1.84188
3392.01,661.95,-1.86567
3394.25,662.35,-1.87954
3396.49,662.75,-1.90741
3398.74,663.15,-1.93278
3400.98,663.55,-1.95433
3403.23,663.95,-1.97189
3405.48,664.35,-1.99773
3407.73,664.75,-2.017
3409.97,665.15,-2.04111
3412.218,665.55,-2.06877
3414.46,665.95,-2.08715
3416.71,666.35,-2.09989
3418.95,666.75,-2.11177
3421.2,667.15,-2.13389
3423.444,667.55,-2.15119
3425.69,667.95,-2.16992
3427.938,668.35,-2.19104
3430.19,668.75,-2.2051
3432.43,669.15,-2.22127
3434.682,669.55,-2.2382
3436.935,669.95,-2.25861
3439.18,670.35,-2.27598
3441.43,670.75,-2.29253
3443.69,671.15,-2.31746
3445.94,671.55,-2.33148
3448.2,671.95,-2.34924
3450.447,672.35,-2.36339
3452.7,672.75,-2.37867
3454.96,673.15,-2.39483
3457.21,673.55,-2.40965
3459.468,673.95,-2.42517
3461.72,674.35,-2.43714
3463.98,674.75,-2.45272
3466.236,675.15,-2.46878
3468.492,675.55,-2.48301
3470.748,675.95,-2.49949
3473.01,676.35,-2.5168
3475.269,676.75,-2.5327
3477.53,677.15,-2.5471
3479.79,677.55,-2.56082
3482.04,677.95,-2.57211
3484.31,678.35,-2.58712
3486.57,678.75,-2.59426
3488.84,679.15,-2.61128
3491.1,679.55,-2.62079
3493.37,679.95,-2.63088
3495.63,680.35,-2.64312
3497.895,680.75,-2.65276
3500.16,681.15,-2.66121
3502.43,681.55,-2.67531
3504.69,681.95,-2.68207
3506.95,682.35,-2.6919
3509.22,682.75,-2.70391
3511.485,683.15,-2.71175
3513.75,683.55,-2.71591
3516.015,683.95,-2.72502
3518.28,684.35,-2.73073
3520.56,684.75,-2.74094
3522.83,685.15,-2.74764
3525.1,685.55,-2.75373
3527.37,685.95,-2.76284
3529.638,686.35,-2.76751
3531.91,686.75,-2.77811
3534.177,687.15,-2.78563
3536.45,687.55,-2.79129
3538.725,687.95,-2.79882
3541,688.35,-2.80697
3543.28,688.75,-2.81017
3545.55,689.15,-2.81796
3547.824,689.55,-2.82549
3550.095,689.95,-2.83558
3552.37,690.35,-2.84197
3554.64,690.75,-2.84866
3556.92,691.15,-2.85432
3559.19,691.55,-2.8624
3561.47,691.95,-2.86513
3563.736,692.35,-2.8736
3566.01,692.75,-2.88147
3568.28,693.15,-2.88815
3570.56,693.55,-2.88976
3572.83,693.95,-2.89962
3575.1,694.35,-2.90722
3577.38,694.75,-2.91218
3579.66,695.15,-2.91747
3581.94,695.55,-2.92322
3584.21,695.95,-2.92916
3586.49,696.35,-2.93403
3588.78,696.75,-2.93856
3591.05,697.15,-2.94369
3593.33,697.55,-2.94818
3595.61,697.95,-2.95191
3597.88,698.35,-2.95838
3600.16,698.75,-2.95866
3602.44,699.15,-2.96515
3604.719,699.55,-2.96868
3607.01,699.95,-2.97109
3609.294,700.35,-2.97843
3611.58,700.75,-2.98244
3613.86,701.15,-2.98871
3616.14,701.55,-2.99669
3618.41,701.95,-3.00124
3620.69,702.35,-3.00701
3622.98,702.75,-3.00775
3625.26,703.15,-3.01328
3627.54,703.55,-3.02095
3629.826,703.95,-3.02428
3632.115,704.35,-3.02508
3634.4,704.75,-3.02625
3636.68,705.15,-3.03075
3638.96,705.55,-3.03515
3641.25,705.95,-3.03712
3643.53,706.35,-3.042
3645.82,706.75,-3.04516
3648.11,707.15,-3.04953
3650.41,707.55,-3.04615
3652.7,707.95,-3.05164
3654.99,708.35,-3.05558
3657.29,708.75,-3.0597
3659.58,709.15,-3.06299
3661.87,709.55,-3.06604
3664.16,709.95,-3.06507
3666.45,710.35,-3.07038
3668.73,710.75,-3.07424
3671.02,711.15,-3.07865
3673.31,711.55,-3.08056
3675.59,711.95,-3.08543
3677.88,712.35,-3.08888
3680.17,712.75,-3.09411
3682.464,713.15,-3.09767
3684.75,713.55,-3.10085
3687.04,713.95,-3.10908
3689.33,714.35,-3.10963
3691.63,714.75,-3.11499
3693.92,715.15,-3.11944
3696.21,715.55,-3.12505
3698.51,715.95,-3.12593
3700.8,716.35,-3.12939
3703.09,716.75,-3.13428
3705.38,717.15,-3.13996
3707.68,717.55,-3.14378
3709.98,717.95,-3.14605
3712.28,718.35,-3.14779
3714.58,718.75,-3.15273
3716.877,719.15,-3.15765
3719.18,719.55,-3.15849
3721.48,719.95,-3.16192
3723.77,720.35,-3.16638
3726.07,720.75,-3.17035
3728.37,721.15,-3.17327
3730.67,721.55,-3.17476
3732.98,721.95,-3.17568
3735.28,722.35,-3.18232
3737.58,722.75,-3.18078
3739.88,723.15,-3.18892
3742.18,723.55,-3.19487
3744.477,723.95,-3.1978
3746.78,724.35,-3.1995
3749.08,724.75,-3.20155
3751.39,725.15,-3.20273
3753.7,725.55,-3.20737
3756.01,725.95,-3.21011
3758.325,726.35,-3.21241
3760.64,726.75,-3.21531
3762.95,727.15,-3.21837
3765.27,727.55,-3.22163
3767.58,727.95,-3.22609
3769.896,728.35,-3.23027
3772.215,728.75,-3.231
3774.54,729.15,-3.23038
3776.86,729.55,-3.23405
3779.18,729.95,-3.23815
3781.49,730.35,-3.2393
3783.81,730.75,-3.24705
3786.12,731.15,-3.24572
3788.43,731.55,-3.2492
3790.76,731.95,-3.2553
3793.08,732.35,-3.25577
3795.402,732.75,-3.25886
3797.721,733.15,-3.26052
3800.05,733.55,-3.26124
3802.365,733.95,-3.26105
3804.68,734.35,-3.27012
3807.003,734.75,-3.27086
3809.33,735.15,-3.27512
3811.65,735.55,-3.28032
3813.98,735.95,-3.27978
3816.3,736.35,-3.28281
3818.63,736.75,-3.28637
3820.96,737.15,-3.28983
3823.29,737.55,-3.29356
3825.61,737.95,-3.29277
3827.94,738.35,-3.29561
3830.27,738.75,-3.29957
3832.599,739.15,-3.30386
3834.93,739.55,-3.30736
3837.26,739.95,-3.30999
3839.595,740.35,-3.3134
3841.923,740.75,-3.31706
3844.25,741.15,-3.32143
3846.58,741.55,-3.32545
3848.92,741.95,-3.3287
3851.25,742.35,-3.33165
3853.587,742.75,-3.33466
3855.92,743.15,-3.33976
3858.25,743.55,-3.34431
3860.59,743.95,-3.34772
3862.92,744.35,-3.3485
3865.263,744.75,-3.35007
3867.6,745.15,-3.35601
3869.94,745.55,-3.36083
3872.28,745.95,-3.36342
3874.61,746.35,-3.36825
3876.94,746.75,-3.37228
3879.27,747.15,-3.37357
3881.6,747.55,-3.37755
3883.926,747.95,-3.38075
3886.25,748.35,-3.37954
3888.59,748.75,-3.38084
3890.92,749.15,-3.38747
3893.25,749.55,-3.3892
3895.59,749.95,-3.39402
3897.92,750.35,-3.39581
3900.26,750.75,-3.39873
3902.6,751.15,-3.40352
3904.94,751.55,-3.41033
3907.29,751.95,-3.41333
3909.63,752.35,-3.42002
3911.97,752.75,-3.4195
3914.31,753.15,-3.42057
3916.66,753.55,-3.42728
3918.996,753.95,-3.43004
3921.33,754.35,-3.43134
3923.68,754.75,-3.43411
3926.02,755.15,-3.43972
3928.36,755.55,-3.44685
3930.7,755.95,-3.44789
3933.04,756.35,-3.44938
3935.382,756.75,-3.45196
3937.72,757.15,-3.45833
3940.06,757.55,-3.46039
3942.41,757.95,-3.46327
3944.75,758.35,-3.46777
3947.09,758.75,-3.47134
3949.422,759.15,-3.47608
3951.76,759.55,-3.4753
3954.102,759.95,-3.47969
3956.44,760.35,-3.4832
3958.779,760.75,-3.48727
3961.12,761.15,-3.49001
3963.468,761.55,-3.49167
3965.811,761.95,-3.49274
3968.15,762.35,-3.49742
3970.5,762.75,-3.49932
3972.84,763.15,-3.50353
3975.18,763.55,-3.50524
3977.52,763.95,-3.50588
3979.87,764.35,-3.5104
3982.21,764.75,-3.51138
3984.56,765.15,-3.51357
3986.91,765.55,-3.51579
3989.26,765.95,-3.51802
3991.6,766.35,-3.52226
3993.94,766.75,-3.52614
3996.282,767.15,-3.52556
3998.63,767.55,-3.53313
4000.97,767.95,-3.5318
4003.32,768.35,-3.53655
4005.68,768.75,-3.53871
4008.03,769.15,-3.5387
4010.376,769.55,-3.53961
4012.73,769.95,-3.54585
4015.074,770.35,-3.54824
4017.42,770.75,-3.55059
4019.78,771.15,-3.55235
4022.12,771.55,-3.557
4024.47,771.95,-3.55521
4026.828,772.35,-3.56174
4029.19,772.75,-3.56113
4031.55,773.15,-3.56437
4033.911,773.55,-3.56309
4036.27,773.95,-3.56797
4038.63,774.35,-3.57268
4040.98,774.75,-3.57135
4043.337,775.15,-3.57303
4045.689,775.55,-3.57931
4048.04,775.95,-3.58005
4050.4,776.35,-3.58303
4052.754,776.75,-3.58396
4055.112,777.15,-3.58643
4057.47,777.55,-3.58996
4059.83,777.95,-3.58907
4062.19,778.35,-3.59022
4064.55,778.75,-3.59539
4066.92,779.15,-3.59317
4069.28,779.55,-3.59512
4071.645,779.95,-3.59956
4074.01,780.35,-3.60062
4076.379,780.75,-3.59926
4078.74,781.15,-3.60151
4081.1,781.55,-3.60351
4083.47,781.95,-3.60453
4085.83,782.35,-3.60788
4088.19,782.75,-3.60983
4090.56,783.15,-3.60753
4092.921,783.55,-3.60953
4095.28,783.95,-3.60965
4097.65,784.35,-3.6113
4100.01,784.75,-3.61398
4102.38,785.15,-3.61304
4104.75,785.55,-3.61731
4107.12,785.95,-3.6175
4109.493,786.35,-3.61815
4111.86,786.75,-3.61876
4114.239,787.15,-3.62108
4116.61,787.55,-3.62212
4118.99,787.95,-3.62309
4121.36,788.35,-3.62664
4123.73,788.75,-3.62598
4126.11,789.15,-3.62593
4128.48,789.55,-3.62664
4130.87,789.95,-3.62934
4133.25,790.35,-3.62874
4135.63,790.75,-3.63078
4138.02,791.15,-3.62988
4140.4,791.55,-3.63149
4142.78,791.95,-3.63108
4145.16,792.35,-3.63392
4147.54,792.75,-3.63717
4149.93,793.15,-3.63814
4152.31,793.55,-3.64086
4154.7,793.95,-3.6408
4157.08,794.35,-3.64184
4159.47,794.75,-3.64416
4161.85,795.15,-3.64606
4164.24,795.55,-3.64736
4166.63,795.95,-3.64999
4169.016,796.35,-3.65246
4171.4,796.75,-3.65348
4173.78,797.15,-3.65481
4176.16,797.55,-3.65657
4178.541,797.95,-3.65709
4180.93,798.35,-3.65943
4183.31,798.75,-3.65937
4185.69,799.15,-3.6623
4188.08,799.55,-3.66251
4190.47,799.95,-3.66585
4192.857,800.35,-3.66854
4195.245,800.75,-3.67065
4197.63,801.15,-3.67312
4200.02,801.55,-3.67843
4202.4,801.95,-3.68173
4204.785,802.35,-3.684
4207.17,802.75,-3.68488
4209.55,803.15,-3.6862
4211.937,803.55,-3.68839
4214.33,803.95,-3.68925
4216.72,804.35,-3.69124
4219.12,804.75,-3.6964
4221.51,805.15,-3.69786
4223.89,805.55,-3.69993
4226.27,805.95,-3.70309
4228.665,806.35,-3.70441
4231.05,806.75,-3.70792
4233.44,807.15,-3.71163
4235.83,807.55,-3.71428
4238.22,807.95,-3.71532
4240.61,808.35,-3.71732
4243,808.75,-3.7187
4245.38,809.15,-3.72208
4247.76,809.55,-3.72433
4250.15,809.95,-3.72417
4252.54,810.35,-3.72841
4254.92,810.75,-3.73161
4257.31,811.15,-3.73395
4259.7,811.55,-3.73595
4262.08,811.95,-3.73922
4264.464,812.35,-3.73926
4266.85,812.75,-3.74493
4269.24,813.15,-3.74407
4271.64,813.55,-3.74613
4274.022,813.95,-3.75091
4276.41,814.35,-3.75443
4278.8,814.75,-3.75734
4281.19,815.15,-3.75633
4283.57,815.55,-3.75823
4285.96,815.95,-3.75717
4288.35,816.35,-3.76109
4290.74,816.75,-3.76459
4293.13,817.15,-3.76491
4295.523,817.55,-3.76783
4297.91,817.95,-3.76587
4300.3,818.35,-3.76907
4302.69,818.75,-3.77246
4305.06,819.15,-3.77636
4307.44,819.55,-3.77864
4309.82,819.95,-3.77805
4312.21,820.35,-3.78153
4314.6,820.75,-3.78222
4316.99,821.15,-3.78364
4319.38,821.55,-3.78586
4321.78,821.95,-3.7851
4324.176,822.35,-3.78607
4326.57,822.75,-3.78754
4328.958,823.15,-3.79105
4331.35,823.55,-3.79037
4333.74,823.95,-3.79459
4336.13,824.35,-3.79373
4338.51,824.75,-3.79671
4340.91,825.15,-3.79667
4343.3,825.55,-3.79731
4345.69,825.95,-3.79766
4348.09,826.35,-3.79928
4350.49,826.75,-3.80096
4352.88,827.15,-3.8009
4355.28,827.55,-3.805
4357.68,827.95,-3.80437
4360.07,828.35,-3.80416
4362.47,828.75,-3.80537
4364.86,829.15,-3.80839
4367.25,829.55,-3.80812
4369.64,829.95,-3.80856
4372.03,830.35,-3.80864
4374.429,830.75,-3.81148
4376.82,831.15,-3.81368
4379.22,831.55,-3.81568
4381.6,831.95,-3.81577
4383.99,832.35,-3.81753
4386.38,832.75,-3.81751
4388.78,833.15,-3.81899
4391.18,833.55,-3.81947
4393.575,833.95,-3.8177
4395.97,834.35,-3.82233
4398.36,834.75,-3.82476
4400.76,835.15,-3.82364
4403.14,835.55,-3.82949
4405.54,835.95,-3.82965
4407.93,836.35,-3.82956
4410.33,836.75,-3.83058
4412.72,837.15,-3.83626
4415.12,837.55,-3.83802
4417.51,837.95,-3.83847
4419.91,838.35,-3.8389
4422.31,838.75,-3.83882
4424.7,839.15,-3.84183
4427.09,839.55,-3.84182
4429.5,839.95,-3.84388
4431.89,840.35,-3.84375
4434.29,840.75,-3.84108
4436.69,841.15,-3.84496
4439.09,841.55,-3.84512
4441.48,841.95,-3.84451
4443.87,842.35,-3.84216
4446.26,842.75,-3.84579
4448.66,843.15,-3.84355
4451.05,843.55,-3.84543
4453.45,843.95,-3.84584
4455.85,844.35,-3.84187
4458.25,844.75,-3.8454
4460.65,845.15,-3.84375
4463.04,845.55,-3.84809
4465.446,845.95,-3.84615
4467.86,846.35,-3.84717
4470.27,846.75,-3.8485
4472.67,847.15,-3.84855
4475.08,847.55,-3.84838
4477.488,847.95,-3.84909
4479.894,848.35,-3.85039
4482.291,848.75,-3.85117
4484.7,849.15,-3.84896
4487.1,849.55,-3.8509
4489.51,849.95,-3.85088
4491.92,850.35,-3.8504
4494.32,850.75,-3.85192
4496.733,851.15,-3.84793
4499.148,851.55,-3.84901
4501.56,851.95,-3.84563
4503.97,852.35,-3.8487
4506.38,852.75,-3.84941
4508.793,853.15,-3.84966
4511.2,853.55,-3.85273
4513.6,853.95,-3.84876
4516.02,854.35,-3.85173
4518.43,854.75,-3.85025
4520.85,855.15,-3.8532
4523.268,855.55,-3.8531
4525.68,855.95,-3.85335
4528.1,856.35,-3.85145
4530.516,856.75,-3.85357
4532.93,857.15,-3.84885
4535.34,857.55,-3.84852
4537.76,857.95,-3.84981
4540.18,858.35,-3.8506
4542.6,858.75,-3.84679
4545.01,859.15,-3.84799
4547.43,859.55,-3.84684
4549.85,859.95,-3.8429
4552.27,860.35,-3.84395
4554.69,860.75,-3.84264
4557.11,861.15,-3.84042
4559.54,861.55,-3.84035
4561.96,861.95,-3.84067
4564.38,862.35,-3.84385
4566.81,862.75,-3.83763
4569.23,863.15,-3.83846
4571.65,863.55,-3.83697
4574.076,863.95,-3.83458
4576.5,864.35,-3.83563
4578.92,864.75,-3.83415
4581.35,865.15,-3.83175
4583.78,865.55,-3.83523
4586.208,865.95,-3.83402
4588.63,866.35,-3.83516
4591.06,866.75,-3.83412
4593.48,867.15,-3.83287
4595.91,867.55,-3.83395
4598.33,867.95,-3.83455
4600.74,868.35,-3.833
4603.17,868.75,-3.83029
4605.6,869.15,-3.83083
4608.03,869.55,-3.8333
4610.451,869.95,-3.83285
4612.866,870.35,-3.83234
4615.296,870.75,-3.83499
4617.7,871.15,-3.83507
4619.6,871.45,-3.83425