File: PMMA/Calibration_Data/Sandia/Sandia_TGA_Ar_10K_1.csv
Time,Temperature,Mass,
[s],[K],[mg],
1209.15,307.216,4.91E+00,
1319.577,307.616,4.91E+00,
1345.77,308.016,4.91E+00,
1363.96,308.416,4.91E+00,
1377.88,308.816,4.91E+00,
1389.759,309.216,4.92E+00,
1400.19,309.616,4.92E+00,
1409.52,310.016,4.92E+00,
1417.94,310.416,4.92E+00,
1425.74,310.816,4.92E+00,
1433.076,311.216,4.92E+00,
1439.9,311.616,4.92E+00,
1446.35,312.016,4.92E+00,
1452.57,312.416,4.92E+00,
1458.52,312.816,4.92E+00,
1464.15,313.216,4.92E+00,
1469.559,313.616,4.92E+00,
1474.785,314.016,4.92E+00,
1479.88,314.416,4.92E+00,
1484.83,314.816,4.92E+00,
1489.61,315.216,4.92E+00,
1494.28,315.616,4.92E+00,
1498.83,316.016,4.92E+00,
1503.3,316.416,4.92E+00,
1507.66,316.816,4.92E+00,
1511.898,317.216,4.92E+00,
1516.04,317.616,4.92E+00,
1520.12,318.016,4.92E+00,
1524.14,318.416,4.92E+00,
1528.09,318.816,4.92E+00,
1531.97,319.216,4.92E+00,
1535.77,319.616,4.93E+00,
1539.5,320.016,4.93E+00,
1543.2,320.416,4.93E+00,
1546.82,320.816,4.93E+00,
1550.424,321.216,4.93E+00,
1553.98,321.616,4.93E+00,
1557.489,322.016,4.93E+00,
1560.96,322.416,4.93E+00,
1564.374,322.816,4.93E+00,
1567.76,323.216,4.93E+00,
1571.118,323.616,4.93E+00,
1574.44,324.016,4.93E+00,
1577.75,324.416,4.93E+00,
1581,324.816,4.93E+00,
1584.23,325.216,4.93E+00,
1587.42,325.616,4.93E+00,
1590.57,326.016,4.93E+00,
1593.7,326.416,4.93E+00,
1596.8,326.816,4.93E+00,
1599.888,327.216,4.92E+00,
1602.94,327.616,4.93E+00,
1605.97,328.016,4.93E+00,
1608.996,328.416,4.92E+00,
1611.98,328.816,4.93E+00,
1614.97,329.216,4.93E+00,
1617.92,329.616,4.93E+00,
1620.86,330.016,4.93E+00,
1623.78,330.416,4.93E+00,
1626.68,330.816,4.93E+00,
1629.54,331.216,4.92E+00,
1632.411,331.616,4.92E+00,
1635.25,332.016,4.93E+00,
1638.07,332.416,4.92E+00,
1640.87,332.816,4.93E+00,
1643.64,333.216,4.93E+00,
1646.39,333.616,4.92E+00,
1649.13,334.016,4.93E+00,
1651.87,334.416,4.93E+00,
1654.59,334.816,4.92E+00,
1657.31,335.216,4.92E+00,
1660.02,335.616,4.92E+00,
1662.71,336.016,4.93E+00,
1665.39,336.416,4.92E+00,
1668.04,336.816,4.92E+00,
1670.69,337.216,4.92E+00,
1673.331,337.616,4.92E+00,
1675.953,338.016,4.92E+00,
1678.563,338.416,4.92E+00,
1681.17,338.816,4.92E+00,
1683.759,339.216,4.92E+00,
1686.34,339.616,4.92E+00,
1688.92,340.016,4.92E+00,
1691.499,340.416,4.92E+00,
1694.07,340.816,4.92E+00,
1696.62,341.216,4.92E+00,
1699.17,341.616,4.92E+00,
1701.7,342.016,4.92E+00,
1704.21,342.416,4.92E+00,
1706.74,342.816,4.92E+00,
1709.26,343.216,4.92E+00,
1711.75,343.616,4.92E+00,
1714.24,344.016,4.92E+00,
1716.74,344.416,4.92E+00,
1719.21,344.816,4.92E+00,
1721.67,345.216,4.92E+00,
1724.15,345.616,4.92E+00,
1726.61,346.016,4.92E+00,
1729.044,346.416,4.92E+00,
1731.49,346.816,4.92E+00,
1733.916,347.216,4.92E+00,
1736.34,347.616,4.92E+00,
1738.761,348.016,4.92E+00,
1741.197,348.416,4.92E+00,
1743.62,348.816,4.92E+00,
1746.04,349.216,4.92E+00,
1748.44,349.616,4.92E+00,
1750.851,350.016,4.92E+00,
1753.24,350.416,4.92E+00,
1755.62,350.816,4.92E+00,
1758,351.216,4.92E+00,
1760.373,351.616,4.92E+00,
1762.74,352.016,4.92E+00,
1765.1,352.416,4.92E+00,
1767.44,352.816,4.92E+00,
1769.79,353.216,4.92E+00,
1772.13,353.616,4.92E+00,
1774.46,354.016,4.92E+00,
1776.79,354.416,4.92E+00,
1779.12,354.816,4.92E+00,
1781.445,355.216,4.92E+00,
1783.77,355.616,4.92E+00,
1786.08,356.016,4.92E+00,
1788.39,356.416,4.92E+00,
1790.691,356.816,4.92E+00,
1792.98,357.216,4.92E+00,
1795.27,357.616,4.92E+00,
1797.549,358.016,4.92E+00,
1799.82,358.416,4.92E+00,
1802.085,358.816,4.92E+00,
1804.35,359.216,4.92E+00,
1806.61,359.616,4.91E+00,
1808.86,360.016,4.91E+00,
1811.1,360.416,4.91E+00,
1813.33,360.816,4.91E+00,
1815.56,361.216,4.91E+00,
1817.78,361.616,4.91E+00,
1819.995,362.016,4.91E+00,
1822.21,362.416,4.91E+00,
1824.44,362.816,4.91E+00,
1826.66,363.216,4.91E+00,
1828.87,363.616,4.91E+00,
1831.09,364.016,4.91E+00,
1833.3,364.416,4.91E+00,
1835.51,364.816,4.91E+00,
1837.719,365.216,4.91E+00,
1839.92,365.616,4.91E+00,
1842.11,366.016,4.91E+00,
1844.29,366.416,4.91E+00,
1846.46,366.816,4.91E+00,
1848.633,367.216,4.91E+00,
1850.79,367.616,4.91E+00,
1852.95,368.016,4.91E+00,
1855.11,368.416,4.91E+00,
1857.258,368.816,4.91E+00,
1859.41,369.216,4.91E+00,
1861.55,369.616,4.91E+00,
1863.69,370.016,4.91E+00,
1865.835,370.416,4.91E+00,
1867.98,370.816,4.91E+00,
1870.12,371.216,4.91E+00,
1872.25,371.616,4.91E+00,
1874.38,372.016,4.91E+00,
1876.5,372.416,4.91E+00,
1878.62,372.816,4.91E+00,
1880.733,373.216,4.91E+00,
1882.842,373.616,4.91E+00,
1884.95,374.016,4.91E+00,
1887.06,374.416,4.91E+00,
1889.17,374.816,4.91E+00,
1891.28,375.216,4.91E+00,
1893.39,375.616,4.91E+00,
1895.493,376.016,4.91E+00,
1897.6,376.416,4.90E+00,
1899.7,376.816,4.90E+00,
1901.79,377.216,4.91E+00,
1903.884,377.616,4.91E+00,
1905.97,378.016,4.90E+00,
1908.06,378.416,4.90E+00,
1910.15,378.816,4.90E+00,
1912.236,379.216,4.90E+00,
1914.32,379.616,4.90E+00,
1916.4,380.016,4.90E+00,
1918.49,380.416,4.90E+00,
1920.57,380.816,4.90E+00,
1922.64,381.216,4.90E+00,
1924.72,381.616,4.90E+00,
1926.79,382.016,4.90E+00,
1928.86,382.416,4.90E+00,
1930.93,382.816,4.90E+00,
1933,383.216,4.90E+00,
1935.07,383.616,4.90E+00,
1937.13,384.016,4.90E+00,
1939.2,384.416,4.90E+00,
1941.26,384.816,4.90E+00,
1943.32,385.216,4.90E+00,
1945.368,385.616,4.90E+00,
1947.42,386.016,4.90E+00,
1949.478,386.416,4.90E+00,
1951.54,386.816,4.90E+00,
1953.59,387.216,4.90E+00,
1955.65,387.616,4.90E+00,
1957.71,388.016,4.90E+00,
1959.771,388.416,4.90E+00,
1961.82,388.816,4.90E+00,
1963.87,389.216,4.90E+00,
1965.921,389.616,4.90E+00,
1967.964,390.016,4.90E+00,
1970.01,390.416,4.90E+00,
1972.05,390.816,4.90E+00,
1974.09,391.216,4.90E+00,
1976.13,391.616,4.90E+00,
1978.16,392.016,4.90E+00,
1980.204,392.416,4.90E+00,
1982.24,392.816,4.90E+00,
1984.27,393.216,4.90E+00,
1986.29,393.616,4.90E+00,
1988.32,394.016,4.90E+00,
1990.35,394.416,4.90E+00,
1992.37,394.816,4.90E+00,
1994.394,395.216,4.90E+00,
1996.407,395.616,4.90E+00,
1998.43,396.016,4.90E+00,
2000.45,396.416,4.89E+00,
2002.46,396.816,4.89E+00,
2004.477,397.216,4.89E+00,
2006.496,397.616,4.89E+00,
2008.52,398.016,4.89E+00,
2010.534,398.416,4.89E+00,
2012.55,398.816,4.89E+00,
2014.56,399.216,4.89E+00,
2016.576,399.616,4.89E+00,
2018.58,400.016,4.89E+00,
2020.59,400.416,4.89E+00,
2022.6,400.816,4.89E+00,
2024.6,401.216,4.89E+00,
2026.599,401.616,4.89E+00,
2028.6,402.016,4.89E+00,
2030.595,402.416,4.89E+00,
2032.593,402.816,4.89E+00,
2034.59,403.216,4.89E+00,
2036.595,403.616,4.89E+00,
2038.593,404.016,4.89E+00,
2040.59,404.416,4.89E+00,
2042.59,404.816,4.89E+00,
2044.59,405.216,4.89E+00,
2046.58,405.616,4.89E+00,
2048.57,406.016,4.89E+00,
2050.55,406.416,4.89E+00,
2052.54,406.816,4.89E+00,
2054.52,407.216,4.89E+00,
2056.5,407.616,4.89E+00,
2058.48,408.016,4.89E+00,
2060.46,408.416,4.89E+00,
2062.44,408.816,4.89E+00,
2064.426,409.216,4.89E+00,
2066.403,409.616,4.89E+00,
2068.374,410.016,4.89E+00,
2070.34,410.416,4.89E+00,
2072.32,410.816,4.88E+00,
2074.3,411.216,4.89E+00,
2076.26,411.616,4.89E+00,
2078.24,412.016,4.89E+00,
2080.22,412.416,4.88E+00,
2082.19,412.816,4.88E+00,
2084.16,413.216,4.88E+00,
2086.12,413.616,4.88E+00,
2088.09,414.016,4.88E+00,
2090.06,414.416,4.88E+00,
2092.02,414.816,4.88E+00,
2093.98,415.216,4.88E+00,
2095.95,415.616,4.88E+00,
2097.91,416.016,4.88E+00,
2099.87,416.416,4.88E+00,
2101.83,416.816,4.88E+00,
2103.78,417.216,4.88E+00,
2105.74,417.616,4.88E+00,
2107.7,418.016,4.88E+00,
2109.65,418.416,4.88E+00,
2111.61,418.816,4.88E+00,
2113.572,419.216,4.88E+00,
2115.54,419.616,4.88E+00,
2117.5,420.016,4.88E+00,
2119.45,420.416,4.88E+00,
2121.408,420.816,4.88E+00,
2123.36,421.216,4.88E+00,
2125.32,421.616,4.87E+00,
2127.27,422.016,4.87E+00,
2129.22,422.416,4.87E+00,
2131.16,422.816,4.87E+00,
2133.12,423.216,4.87E+00,
2135.06,423.616,4.87E+00,
2137.02,424.016,4.87E+00,
2138.97,424.416,4.87E+00,
2140.93,424.816,4.87E+00,
2142.88,425.216,4.87E+00,
2144.83,425.616,4.87E+00,
2146.78,426.016,4.87E+00,
2148.73,426.416,4.87E+00,
2150.68,426.816,4.87E+00,
2152.64,427.216,4.87E+00,
2154.59,427.616,4.87E+00,
2156.547,428.016,4.87E+00,
2158.5,428.416,4.87E+00,
2160.45,428.816,4.87E+00,
2162.403,429.216,4.87E+00,
2164.35,429.616,4.86E+00,
2166.29,430.016,4.86E+00,
2168.24,430.416,4.86E+00,
2170.18,430.816,4.86E+00,
2172.132,431.216,4.86E+00,
2174.08,431.616,4.86E+00,
2176.03,432.016,4.86E+00,
2177.98,432.416,4.86E+00,
2179.93,432.816,4.86E+00,
2181.888,433.216,4.86E+00,
2183.84,433.616,4.86E+00,
2185.791,434.016,4.86E+00,
2187.74,434.416,4.86E+00,
2189.7,434.816,4.86E+00,
2191.65,435.216,4.86E+00,
2193.6,435.616,4.86E+00,
2195.55,436.016,4.86E+00,
2197.51,436.416,4.85E+00,
2199.46,436.816,4.85E+00,
2201.41,437.216,4.85E+00,
2203.36,437.616,4.85E+00,
2205.32,438.016,4.85E+00,
2207.265,438.416,4.85E+00,
2209.22,438.816,4.85E+00,
2211.17,439.216,4.85E+00,
2213.13,439.616,4.85E+00,
2215.08,440.016,4.85E+00,
2217.03,440.416,4.85E+00,
2218.99,440.816,4.84E+00,
2220.95,441.216,4.84E+00,
2222.9,441.616,4.84E+00,
2224.85,442.016,4.84E+00,
2226.8,442.416,4.84E+00,
2228.75,442.816,4.84E+00,
2230.7,443.216,4.84E+00,
2232.65,443.616,4.84E+00,
2234.6,444.016,4.83E+00,
2236.554,444.416,4.83E+00,
2238.51,444.816,4.83E+00,
2240.46,445.216,4.83E+00,
2242.41,445.616,4.83E+00,
2244.36,446.016,4.83E+00,
2246.31,446.416,4.83E+00,
2248.26,446.816,4.82E+00,
2250.21,447.216,4.82E+00,
2252.16,447.616,4.82E+00,
2254.12,448.016,4.82E+00,
2256.08,448.416,4.82E+00,
2258.05,448.816,4.8169,
2260,449.216,4.81479,
2261.97,449.616,4.81523,
2263.93,450.016,4.81006,
2265.89,450.416,4.80896,
2267.85,450.816,4.80814,
2269.81,451.216,4.8054,
2271.78,451.616,4.80502,
2273.73,452.016,4.80277,
2275.68,452.416,4.80101,
2277.64,452.816,4.79917,
2279.59,453.216,4.79799,
2281.54,453.616,4.79602,
2283.5,454.016,4.79383,
2285.45,454.416,4.79228,
2287.4,454.816,4.79097,
2289.36,455.216,4.78966,
2291.322,455.616,4.78683,
2293.28,456.016,4.78713,
2295.24,456.416,4.78395,
2297.19,456.816,4.78262,
2299.15,457.216,4.78104,
2301.11,457.616,4.7781,
2303.07,458.016,4.77809,
2305.03,458.416,4.77621,
2306.99,458.816,4.77634,
2308.94,459.216,4.775,
2310.9,459.616,4.77355,
2312.859,460.016,4.77219,
2314.815,460.416,4.76998,
2316.777,460.816,4.768,
2318.73,461.216,4.76476,
2320.69,461.616,4.76287,
2322.65,462.016,4.76212,
2324.61,462.416,4.75998,
2326.57,462.816,4.75776,
2328.53,463.216,4.75704,
2330.5,463.616,4.75507,
2332.46,464.016,4.75394,
2334.43,464.416,4.75038,
2336.4,464.816,4.74843,
2338.38,465.216,4.74802,
2340.345,465.616,4.74577,
2342.31,466.016,4.74438,
2344.27,466.416,4.74308,
2346.24,466.816,4.74179,
2348.2,467.216,4.73994,
2350.16,467.616,4.73786,
2352.13,468.016,4.73805,
2354.091,468.416,4.73577,
2356.06,468.816,4.73387,
2358.03,469.216,4.73293,
2360,469.616,4.7319,
2361.96,470.016,4.73,
2363.93,470.416,4.7287,
2365.89,470.816,4.7281,
2367.86,471.216,4.72585,
2369.82,471.616,4.72456,
2371.79,472.016,4.72318,
2373.76,472.416,4.721,
2375.733,472.816,4.72096,
2377.7,473.216,4.71894,
2379.675,473.616,4.71711,
2381.65,474.016,4.71591,
2383.63,474.416,4.71501,
2385.6,474.816,4.71244,
2387.574,475.216,4.71202,
2389.54,475.616,4.70977,
2391.53,476.016,4.70835,
2393.5,476.416,4.70706,
2395.47,476.816,4.7059,
2397.45,477.216,4.705,
2399.42,477.616,4.7041,
2401.4,478.016,4.70287,
2403.378,478.416,4.70094,
2405.35,478.816,4.69886,
2407.34,479.216,4.69899,
2409.318,479.616,4.69711,
2411.298,480.016,4.69602,
2413.28,480.416,4.69606,
2415.27,480.816,4.69483,
2417.26,481.216,4.69295,
2419.26,481.616,4.69199,
2421.25,482.016,4.69175,
2423.23,482.416,4.69,
2425.22,482.816,4.68836,
2427.207,483.216,4.68695,
2429.19,483.616,4.68587,
2431.18,484.016,4.68495,
2433.16,484.416,4.68399,
2435.15,484.816,4.6837,
2437.14,485.216,4.68321,
2439.13,485.616,4.681,
2441.121,486.016,4.68097,
2443.11,486.416,4.67883,
2445.111,486.816,4.679,
2447.11,487.216,4.67897,
2449.104,487.616,4.67683,
2451.1,488.016,4.677,
2453.1,488.416,4.67657,
2455.1,488.816,4.67499,
2457.09,489.216,4.67505,
2459.09,489.616,4.674,
2461.08,490.016,4.67343,
2463.08,490.416,4.673,
2465.08,490.816,4.673,
2467.08,491.216,4.67297,
2469.08,491.616,4.67198,
2471.07,492.016,4.672,
2473.07,492.416,4.6721,
2475.07,492.816,4.67101,
2477.07,493.216,4.67099,
2479.08,493.616,4.66991,
2481.08,494.016,4.67,
2483.09,494.416,4.66999,
2485.1,494.816,4.66891,
2487.111,495.216,4.669,
2489.12,495.616,4.66906,
2491.13,496.016,4.66802,
2493.14,496.416,4.668,
2495.14,496.816,4.668,
2497.15,497.216,4.66797,
2499.16,497.616,4.667,
2501.166,498.016,4.667,
2503.17,498.416,4.667,
2505.18,498.816,4.66702,
2507.196,499.216,4.66506,
2509.21,499.616,4.665,
2511.23,500.016,4.665,
2513.25,500.416,4.665,
2515.266,500.816,4.665,
2517.28,501.216,4.665,
2519.3,501.616,4.66521,
2521.32,502.016,4.66301,
2523.34,502.416,4.663,
2525.35,502.816,4.663,
2527.362,503.216,4.663,
2529.38,503.616,4.663,
2531.39,504.016,4.663,
2533.41,504.416,4.663,
2535.43,504.816,4.663,
2537.45,505.216,4.66296,
2539.48,505.616,4.66105,
2541.51,506.016,4.661,
2543.532,506.416,4.661,
2545.56,506.816,4.661,
2547.58,507.216,4.661,
2549.607,507.616,4.661,
2551.63,508.016,4.661,
2553.654,508.416,4.661,
2555.68,508.816,4.661,
2557.71,509.216,4.66102,
2559.74,509.616,4.65902,
2561.76,510.016,4.659,
2563.78,510.416,4.659,
2565.81,510.816,4.659,
2567.83,511.216,4.659,
2569.854,511.616,4.659,
2571.876,512.016,4.659,
2573.907,512.416,4.659,
2575.94,512.816,4.659,
2577.97,513.216,4.659,
2580,513.616,4.65919,
2582.04,514.016,4.65699,
2584.07,514.416,4.65697,
2586.11,514.816,4.65599,
2588.15,515.216,4.656,
2590.18,515.616,4.65597,
2592.213,516.016,4.655,
2594.25,516.416,4.6528,
2596.29,516.816,4.653,
2598.34,517.216,4.65307,
2600.373,517.616,4.65202,
2602.41,518.016,4.652,
2604.46,518.416,4.652,
2606.5,518.816,4.65204,
2608.548,519.216,4.65099,
2610.59,519.616,4.65097,
2612.63,520.016,4.65002,
2614.68,520.416,4.64997,
2616.726,520.816,4.64899,
2618.77,521.216,4.649,
2620.818,521.616,4.64901,
2622.86,522.016,4.64792,
2624.91,522.416,4.64802,
2626.95,522.816,4.64599,
2629,523.216,4.646,
2631.054,523.616,4.646,
2633.103,524.016,4.646,
2635.16,524.416,4.646,
2637.22,524.816,4.64604,
2639.271,525.216,4.64405,
2641.34,525.616,4.644,
2643.396,526.016,4.644,
2645.46,526.416,4.644,
2647.53,526.816,4.64401,
2649.59,527.216,4.64248,
2651.66,527.616,4.642,
2653.72,528.016,4.64197,
2655.783,528.416,4.64101,
2657.844,528.816,4.64101,
2659.9,529.216,4.64006,
2661.96,529.616,4.64001,
2664.024,530.016,4.63917,
2666.09,530.416,4.63901,
2668.155,530.816,4.6383,
2670.22,531.216,4.638,
2672.29,531.616,4.63811,
2674.36,532.016,4.637,
2676.42,532.416,4.63709,
2678.48,532.816,4.63601,
2680.55,533.216,4.63607,
2682.62,533.616,4.63501,
2684.69,534.016,4.63505,
2686.76,534.416,4.63402,
2688.834,534.816,4.63389,
2690.91,535.216,4.63294,
2692.98,535.616,4.63101,
2695.05,536.016,4.631,
2697.12,536.416,4.63105,
2699.2,536.816,4.62898,
2701.28,537.216,4.62901,
2703.36,537.616,4.62679,
2705.442,538.016,4.62615,
2707.52,538.416,4.62607,
2709.61,538.816,4.62499,
2711.69,539.216,4.62403,
2713.77,539.616,4.62327,
2715.861,540.016,4.62192,
2717.943,540.416,4.62211,
2720.03,540.816,4.62099,
2722.11,541.216,4.61993,
2724.2,541.616,4.61791,
2726.29,542.016,4.61802,
2728.37,542.416,4.61596,
2730.462,542.816,4.616,
2732.55,543.216,4.61601,
2734.64,543.616,4.614,
2736.74,544.016,4.61202,
2738.832,544.416,4.612,
2740.93,544.816,4.61202,
2743.02,545.216,4.61055,
2745.123,545.616,4.60903,
2747.22,546.016,4.60791,
2749.31,546.416,4.6061,
2751.41,546.816,4.60596,
2753.51,547.216,4.60398,
2755.61,547.616,4.60312,
2757.71,548.016,4.60098,
2759.81,548.416,4.60012,
2761.92,548.816,4.59904,
2764.02,549.216,4.59684,
2766.117,549.616,4.59498,
2768.22,550.016,4.59411,
2770.33,550.416,4.59202,
2772.44,550.816,4.59113,
2774.55,551.216,4.59,
2776.66,551.616,4.58787,
2778.77,552.016,4.58702,
2780.88,552.416,4.58506,
2783,552.816,4.58291,
2785.11,553.216,4.58283,
2787.23,553.616,4.58206,
2789.34,554.016,4.57934,
2791.45,554.416,4.57804,
2793.57,554.816,4.57488,
2795.68,555.216,4.57464,
2797.79,555.616,4.57141,
2799.92,556.016,4.5701,
2802.04,556.416,4.56812,
2804.16,556.816,4.56607,
2806.28,557.216,4.56415,
2808.4,557.616,4.56261,
2810.52,558.016,4.56103,
2812.63,558.416,4.5578,
2814.75,558.816,4.556,
2816.87,559.216,4.55505,
2818.99,559.616,4.55197,
2821.11,560.016,4.55037,
2823.23,560.416,4.54987,
2825.358,560.816,4.54821,
2827.48,561.216,4.54495,
2829.6,561.616,4.54318,
2831.724,562.016,4.54118,
2833.848,562.416,4.53898,
2835.97,562.816,4.53604,
2838.099,563.216,4.53313,
2840.23,563.616,4.53219,
2842.359,564.016,4.52899,
2844.489,564.416,4.52586,
2846.63,564.816,4.52389,
2848.755,565.216,4.52207,
2850.89,565.616,4.51878,
2853.01,566.016,4.51701,
2855.15,566.416,4.51497,
2857.28,566.816,4.51219,
2859.411,567.216,4.50986,
2861.553,567.616,4.508,
2863.686,568.016,4.50525,
2865.82,568.416,4.50281,
2867.958,568.816,4.4992,
2870.1,569.216,4.49584,
2872.24,569.616,4.4944,
2874.37,570.016,4.4915,
2876.51,570.416,4.48896,
2878.64,570.816,4.48603,
2880.78,571.216,4.48299,
2882.92,571.616,4.48004,
2885.05,572.016,4.47765,
2887.19,572.416,4.47592,
2889.339,572.816,4.47341,
2891.48,573.216,4.46999,
2893.62,573.616,4.46768,
2895.76,574.016,4.46397,
2897.91,574.416,4.4612,
2900.05,574.816,4.45773,
2902.19,575.216,4.45512,
2904.33,575.616,4.45251,
2906.46,576.016,4.45099,
2908.61,576.416,4.44825,
2910.75,576.816,4.44501,
2912.88,577.216,4.44137,
2915.01,577.616,4.43793,
2917.16,578.016,4.43544,
2919.3,578.416,4.43252,
2921.44,578.816,4.42919,
2923.58,579.216,4.4262,
2925.73,579.616,4.42201,
2927.88,580.016,4.41906,
2930.03,580.416,4.41588,
2932.176,580.816,4.41321,
2934.32,581.216,4.40841,
2936.47,581.616,4.40527,
2938.61,582.016,4.40077,
2940.762,582.416,4.39799,
2942.91,582.816,4.39404,
2945.05,583.216,4.3907,
2947.2,583.616,4.38637,
2949.35,584.016,4.38174,
2951.49,584.416,4.37808,
2953.63,584.816,4.37453,
2955.777,585.216,4.37099,
2957.916,585.616,4.36662,
2960.05,586.016,4.36291,
2962.2,586.416,4.35847,
2964.35,586.816,4.35564,
2966.51,587.216,4.35114,
2968.66,587.616,4.34794,
2970.82,588.016,4.3438,
2972.99,588.416,4.3405,
2975.15,588.816,4.33649,
2977.32,589.216,4.333,
2979.483,589.616,4.33029,
2981.65,590.016,4.32679,
2983.81,590.416,4.3221,
2985.97,590.816,4.31704,
2988.132,591.216,4.31302,
2990.289,591.616,4.30904,
2992.46,592.016,4.30373,
2994.62,592.416,4.2994,
2996.78,592.816,4.29493,
2998.94,593.216,4.29102,
3001.1,593.616,4.2854,
3003.26,594.016,4.27965,
3005.41,594.416,4.27422,
3007.57,594.816,4.26926,
3009.73,595.216,4.26507,
3011.895,595.616,4.25844,
3014.07,596.016,4.25274,
3016.23,596.416,4.24723,
3018.4,596.816,4.24129,
3020.57,597.216,4.23595,
3022.73,597.616,4.23059,
3024.9,598.016,4.22431,
3027.07,598.416,4.21733,
3029.241,598.816,4.21346,
3031.41,599.216,4.20774,
3033.585,599.616,4.20122,
3035.75,600.016,4.1938,
3037.92,600.416,4.18905,
3040.1,600.816,4.18157,
3042.27,601.216,4.1737,
3044.45,601.616,4.16631,
3046.62,602.016,4.16091,
3048.8,602.416,4.1538,
3050.98,602.816,4.14636,
3053.15,603.216,4.13938,
3055.33,603.616,4.13108,
3057.51,604.016,4.12383,
3059.69,604.416,4.11716,
3061.87,604.816,4.10931,
3064.06,605.216,4.1016,
3066.234,605.616,4.09347,
3068.42,606.016,4.08435,
3070.6,606.416,4.0757,
3072.78,606.816,4.06689,
3074.95,607.216,4.05792,
3077.13,607.616,4.04892,
3079.32,608.016,4.04018,
3081.492,608.416,4.03044,
3083.67,608.816,4.02049,
3085.85,609.216,4.0114,
3088.03,609.616,4.00185,
3090.21,610.016,3.98754,
3092.38,610.416,3.97303,
3094.57,610.816,3.95876,
3096.753,611.216,3.94798,
3098.94,611.616,3.93804,
3101.13,612.016,3.92886,
3103.32,612.416,3.91711,
3105.51,612.816,3.90779,
3107.697,613.216,3.89348,
3109.89,613.616,3.87842,
3112.08,614.016,3.86371,
3114.26,614.416,3.85114,
3116.46,614.816,3.83758,
3118.64,615.216,3.82305,
3120.84,615.616,3.80831,
3123.03,616.016,3.79472,
3125.22,616.416,3.78123,
3127.41,616.816,3.76665,
3129.59,617.216,3.75192,
3131.79,617.616,3.73738,
3133.98,618.016,3.72175,
3136.18,618.416,3.70537,
3138.37,618.816,3.68917,
3140.57,619.216,3.67282,
3142.773,619.616,3.65548,
3144.97,620.016,3.63811,
3147.18,620.416,3.61979,
3149.38,620.816,3.6017,
3151.58,621.216,3.58311,
3153.78,621.616,3.56476,
3155.98,622.016,3.54678,
3158.18,622.416,3.52817,
3160.383,622.816,3.5087,
3162.59,623.216,3.4877,
3164.79,623.616,3.46663,
3166.99,624.016,3.44664,
3169.19,624.416,3.42674,
3171.39,624.816,3.40571,
3173.59,625.216,3.38265,
3175.791,625.616,3.36041,
3178,626.016,3.33855,
3180.2,626.416,3.31758,
3182.42,626.816,3.29432,
3184.62,627.216,3.27128,
3186.84,627.616,3.24709,
3189.04,628.016,3.22414,
3191.256,628.416,3.19994,
3193.47,628.816,3.17555,
3195.68,629.216,3.15184,
3197.89,629.616,3.12658,
3200.1,630.016,3.10124,
3202.31,630.416,3.07538,
3204.52,630.816,3.05182,
3206.73,631.216,3.02571,
3208.95,631.616,2.99906,
3211.15,632.016,2.97242,
3213.37,632.416,2.94552,
3215.58,632.816,2.91763,
3217.797,633.216,2.89,
3220.01,633.616,2.86147,
3222.222,634.016,2.83314,
3224.44,634.416,2.8044,
3226.65,634.816,2.77805,
3228.87,635.216,2.7486,
3231.081,635.616,2.71994,
3233.3,636.016,2.69071,
3235.52,636.416,2.66257,
3237.726,636.816,2.63237,
3239.94,637.216,2.60218,
3242.16,637.616,2.57177,
3244.38,638.016,2.54163,
3246.6,638.416,2.51118,
3248.82,638.816,2.47931,
3251.04,639.216,2.45157,
3253.263,639.616,2.42011,
3255.49,640.016,2.38893,
3257.709,640.416,2.35686,
3259.93,640.816,2.32429,
3262.15,641.216,2.29325,
3264.37,641.616,2.26199,
3266.598,642.016,2.22926,
3268.82,642.416,2.19686,
3271.04,642.816,2.16467,
3273.255,643.216,2.13289,
3275.47,643.616,2.1032,
3277.69,644.016,2.06993,
3279.903,644.416,2.03548,
3282.12,644.816,2.00148,
3284.334,645.216,1.96869,
3286.55,645.616,1.93604,
3288.76,646.016,1.90483,
3290.98,646.416,1.87156,
3293.202,646.816,1.83775,
3295.42,647.216,1.80404,
3297.64,647.616,1.77417,
3299.86,648.016,1.74037,
3302.08,648.416,1.70731,
3304.305,648.816,1.67364,
3306.53,649.216,1.64124,
3308.76,649.616,1.60921,
3310.99,650.016,1.57651,
3313.21,650.416,1.54402,
3315.44,650.816,1.51262,
3317.66,651.216,1.4814,
3319.88,651.616,1.45003,
3322.11,652.016,1.4204,
3324.35,652.416,1.38893,
3326.58,652.816,1.35851,
3328.815,653.216,1.32696,
3331.05,653.616,1.29608,
3333.28,654.016,1.26829,
3335.514,654.416,1.23847,
3337.74,654.816,1.20856,
3339.972,655.216,1.17949,
3342.207,655.616,1.15031,
3344.44,656.016,1.12242,
3346.67,656.416,1.0973,
3348.9,656.816,1.06972,
3351.13,657.216,1.04424,
3353.35,657.616,1.01626,
3355.58,658.016,0.98921,
3357.8,658.416,0.96238,
3360.03,658.816,0.93641,
3362.26,659.216,0.91046,
3364.49,659.616,0.88535,
3366.73,660.016,0.86028,
3368.95,660.416,0.83843,
3371.18,660.816,0.81578,
3373.41,661.216,0.79231,
3375.64,661.616,0.77007,
3377.88,662.016,0.74774,
3380.103,662.416,0.72658,
3382.34,662.816,0.70512,
3384.57,663.216,0.68463,
3386.79,663.616,0.66577,
3389.02,664.016,0.64642,
3391.251,664.416,0.62679,
3393.48,664.816,0.6099,
3395.7,665.216,0.59194,
3397.93,665.616,0.5741,
3400.164,666.016,0.55754,
3402.39,666.416,0.53993,
3404.62,666.816,0.52243,
3406.842,667.216,0.50587,
3409.074,667.616,0.49085,
3411.3,668.016,0.47594,
3413.52,668.416,0.46126,
3415.74,668.816,0.44629,
3417.97,669.216,0.4325,
3420.19,669.616,0.41969,
3422.42,670.016,0.40565,
3424.64,670.416,0.39251,
3426.88,670.816,0.38107,
3429.11,671.216,0.36616,
3431.35,671.616,0.35572,
3433.58,672.016,0.34541,
3435.81,672.416,0.33672,
3438.042,672.816,0.32722,
3440.27,673.216,0.31889,
3442.5,673.616,0.31032,
3444.72,674.016,0.30112,
3446.95,674.416,0.29241,
3449.18,674.816,0.28254,
3451.41,675.216,0.27286,
3453.64,675.616,0.26455,
3455.87,676.016,0.25536,
3458.1,676.416,0.24825,
3460.34,676.816,0.23904,
3462.57,677.216,0.23022,
3464.79,677.616,0.22361,
3467.028,678.016,0.21469,
3469.26,678.416,0.20721,
3471.5,678.816,0.19887,
3473.72,679.216,0.19249,
3475.965,679.616,0.18494,
3478.2,680.016,0.17922,
3480.43,680.416,0.17394,
3482.66,680.816,0.16887,
3484.9,681.216,0.16416,
3487.13,681.616,0.15846,
3489.363,682.016,0.15547,
3491.601,682.416,0.14995,
3493.84,682.816,0.14523,
3496.08,683.216,0.14187,
3498.33,683.616,0.13782,
3500.574,684.016,0.13295,
3502.815,684.416,0.13113,
3505.05,684.816,0.12662,
3507.29,685.216,0.12159,
3509.544,685.616,0.11801,
3511.785,686.016,0.11612,
3514.029,686.416,0.11198,
3516.276,686.816,0.10893,
3518.52,687.216,0.10406,
3520.77,687.616,0.1005,
3523.02,688.016,0.09733,
3525.273,688.416,0.09383,
3527.53,688.816,0.09101,
3529.78,689.216,0.089,
3532.03,689.616,0.086,
3534.28,690.016,0.08403,
3536.54,690.416,0.081,
3538.8,690.816,0.07847,
3541.05,691.216,0.07581,
3543.31,691.616,0.07463,
3545.58,692.016,0.07203,
3547.84,692.416,0.0702,
3550.1,692.816,0.06702,
3552.36,693.216,0.06504,
3554.63,693.616,0.06304,
3556.893,694.016,0.06111,
3559.16,694.416,0.05825,
3561.42,694.816,0.05656,
3563.69,695.216,0.055,
3565.97,695.616,0.05301,
3568.26,696.016,0.05123,
3570.53,696.416,0.05015,
3572.8,696.816,0.04678,
3575.08,697.216,0.04745,
3577.35,697.616,0.047,
3579.62,698.016,0.04537,
3581.89,698.416,0.04388,
3584.16,698.816,0.04301,
3586.44,699.216,0.04192,
3588.73,699.616,0.04304,
3591.01,700.016,0.04119,
3593.292,700.416,0.03984,
3595.57,700.816,0.03896,
3597.86,701.216,0.03704,
3600.14,701.616,0.039,
3602.43,702.016,0.037,
3604.71,702.416,0.03484,
3607.008,702.816,0.0339,
3609.3,703.216,0.03291,
3611.59,703.616,0.03196,
3613.87,704.016,0.03198,
3616.16,704.416,0.03103,
3618.45,704.816,0.0299,
3620.74,705.216,0.02971,
3623.043,705.616,0.02906,
3625.338,706.016,0.027,
3627.64,706.416,0.027,
3629.94,706.816,0.027,
3632.241,707.216,0.02604,
3634.536,707.616,0.025,
3636.85,708.016,0.025,
3639.15,708.416,0.025,
3641.46,708.816,0.025,
3643.77,709.216,0.025,
3646.08,709.616,0.0239,
3648.39,710.016,0.023,
3650.7,710.416,0.023,
3653.01,710.816,0.023,
3655.31,711.216,0.023,
3657.62,711.616,0.023,
3659.93,712.016,0.02298,
3662.24,712.416,0.02423,
3664.56,712.816,0.02301,
3666.88,713.216,0.023,
3669.195,713.616,0.02299,
3671.51,714.016,0.024,
3673.83,714.416,0.024,
3676.15,714.816,0.02469,
3678.47,715.216,0.025,
3680.79,715.616,0.02502,
3683.13,716.016,0.02597,
3685.46,716.416,0.02598,
3687.79,716.816,0.02402,
3690.12,717.216,0.024,
3692.45,717.616,0.02487,
3694.78,718.016,0.025,
3697.12,718.416,0.02511,
3699.456,718.816,0.02399,
3701.8,719.216,0.024,
3704.136,719.616,0.024,
3706.476,720.016,0.02404,
3708.81,720.416,0.023,
3711.165,720.816,0.023,
3713.51,721.216,0.023,
3715.863,721.616,0.02298,
3718.22,722.016,0.02306,
3720.57,722.416,0.023,
3722.91,722.816,0.02301,
3725.26,723.216,0.0219,
3727.61,723.616,0.022,
3729.96,724.016,0.022,
3732.31,724.416,0.02202,
3734.67,724.816,0.02297,
3737.03,725.216,0.02202,
3739.39,725.616,0.022,
3741.75,726.016,0.022,
3744.12,726.416,0.022,
3746.484,726.816,0.02108,
3748.845,727.216,0.02204,
3751.21,727.616,0.022,
3753.58,728.016,0.022,
3755.937,728.416,0.02122,
3758.3,728.816,0.02201,
3760.67,729.216,0.022,
3763.05,729.616,0.02195,
3765.42,730.016,0.02006,
3767.8,730.416,0.02,
3770.181,730.816,0.02,
3772.56,731.216,0.02,
3774.93,731.616,0.02,
3777.31,732.016,0.02,
3779.69,732.416,0.02,
3782.06,732.816,0.02,
3784.44,733.216,0.02006,
3786.828,733.616,0.01799,
3789.22,734.016,0.018,
3791.6,734.416,0.018,
3793.998,734.816,0.018,
3796.39,735.216,0.018,
3798.79,735.616,0.018,
3801.19,736.016,0.018,
3803.59,736.416,0.018,
3805.99,736.816,0.018,
3808.39,737.216,0.01701,
3810.792,737.616,0.017,
3813.195,738.016,0.017,
3815.6,738.416,0.01804,
3818,738.816,0.018,
3820.4,739.216,0.01801,
3822.807,739.616,0.01997,
3825.21,740.016,0.02,
3827.61,740.416,0.02,
3830.02,740.816,0.02,
3832.42,741.216,0.01982,
3834.825,741.616,0.018,
3837.231,742.016,0.02013,
3839.64,742.416,0.02,
3842.06,742.816,0.02,
3844.47,743.216,0.02,
3846.888,743.616,0.02,
3849.3,744.016,0.02,
3851.71,744.416,0.02048,
3854.121,744.816,0.022,
3856.53,745.216,0.022,
3858.95,745.616,0.022,
3861.36,746.016,0.02135,
3863.772,746.416,0.01999,
3866.184,746.816,0.02222,
3868.6,747.216,0.022,
3871.02,747.616,0.022,
3873.44,748.016,0.0221,
3875.85,748.416,0.02099,
3878.28,748.816,0.021,
3880.72,749.216,0.021,
3883.15,749.616,0.021,
3885.54,750.016,0.021,
3887.98,750.416,0.02017,
3890.42,750.816,0.02,
3892.84,751.216,0.02,
3895.26,751.616,0.01899,
3897.69,752.016,0.019,
3900.12,752.416,0.019,
3902.55,752.816,0.019,
3904.98,753.216,0.0189,
3907.413,753.616,0.018,
3909.85,754.016,0.018,
3912.28,754.416,0.01828,
3914.73,754.816,0.019,
3917.169,755.216,0.01891,
3919.61,755.616,0.01891,
3922.05,756.016,0.019,
3924.492,756.416,0.01968,
3926.94,756.816,0.02001,
3929.38,757.216,0.01896,
3931.833,757.616,0.019,
3934.28,758.016,0.019,
3936.73,758.416,0.02003,
3939.18,758.816,0.02,
3941.634,759.216,0.01891,
3944.08,759.616,0.019,
3946.54,760.016,0.019,
3948.99,760.416,0.019,
3951.44,760.816,0.01903,
3953.895,761.216,0.01998,
3956.35,761.616,0.02,
3958.82,762.016,0.02,
3961.28,762.416,0.02,
3963.74,762.816,0.01999,
3966.21,763.216,0.02101,
3968.66,763.616,0.02098,
3971.12,764.016,0.02114,
3973.581,764.416,0.021,
3976.04,764.816,0.02103,
3978.5,765.216,0.02198,
3980.96,765.616,0.022,
3983.42,766.016,0.022,
3985.88,766.416,0.02102,
3988.34,766.816,0.02204,
3990.804,767.216,0.022,
3993.267,767.616,0.022,
3995.73,768.016,0.022,
3998.18,768.416,0.02219,
4000.64,768.816,0.01999,
4003.095,769.216,0.02,
4005.55,769.616,0.02,
4008.006,770.016,0.02,
4010.469,770.416,0.02096,
4012.94,770.816,0.021,
4015.4,771.216,0.021,
4017.87,771.616,0.021,
4020.34,772.016,0.021,
4022.8,772.416,0.021,
4025.26,772.816,0.021,
4027.73,773.216,0.021,
4030.18,773.616,0.021,
4032.65,774.016,0.021,
4035.11,774.416,0.021,
4037.57,774.816,0.021,
4040.04,775.216,0.0214,
4042.51,775.616,0.023,
4044.978,776.016,0.023,
4047.45,776.416,0.023,
4049.91,776.816,0.02156,
4052.38,777.216,0.021,
4054.85,777.616,0.021,
4057.31,778.016,0.021,
4059.77,778.416,0.021,
4062.24,778.816,0.021,
4064.7,779.216,0.021,
4067.17,779.616,0.02187,
4069.64,780.016,0.023,
4072.11,780.416,0.023,
4074.58,780.816,0.023,
4077.06,781.216,0.023,
4079.53,781.616,0.023,
4082,782.016,0.023,
4084.48,782.416,0.02297,
4086.96,782.816,0.02106,
4089.44,783.216,0.021,
4091.92,783.616,0.02079,
4094.41,784.016,0.023,
4096.89,784.416,0.023,
4099.356,784.816,0.023,
4101.84,785.216,0.023,
4104.32,785.616,0.023,
4106.79,786.016,0.023,
4109.27,786.416,0.023,
4111.75,786.816,0.023,
4114.22,787.216,0.023,
4116.69,787.616,0.023,
4119.18,788.016,0.02087,
4121.658,788.416,0.021,
4124.13,788.816,0.02098,
4126.62,789.216,0.02003,
4129.11,789.616,0.02,
4131.588,790.016,0.02001,
4134.07,790.416,0.01899,
4136.56,790.816,0.019,
4139.04,791.216,0.02119,
4141.52,791.616,0.021,
4144.008,792.016,0.021,
4146.492,792.416,0.02179,
4148.985,792.816,0.021,
4151.475,793.216,0.021,
4153.97,793.616,0.021,
4156.46,794.016,0.021,
4158.942,794.416,0.021,
4161.42,794.816,0.021,
4163.91,795.216,0.021,
4166.39,795.616,0.02092,
4168.87,796.016,0.022,
4171.36,796.416,0.022,
4173.85,796.816,0.022,
4176.33,797.216,0.022,
4178.81,797.616,0.022,
4181.29,798.016,0.02211,
4183.78,798.416,0.021,
4186.26,798.816,0.02096,
4188.75,799.216,0.022,
4191.24,799.616,0.022,
4193.72,800.016,0.022,
4196.21,800.416,0.02138,
4198.7,800.816,0.02201,
4201.18,801.216,0.022,
4203.678,801.616,0.022,
4206.17,802.016,0.022,
4208.65,802.416,0.0209,
4211.14,802.816,0.02139,
4213.635,803.216,0.022,
4216.12,803.616,0.022,
4218.61,804.016,0.022,
4221.11,804.416,0.02301,
4223.598,804.816,0.02199,
4226.09,805.216,0.022,
4228.581,805.616,0.022,
4231.07,806.016,0.02071,
4233.56,806.416,0.02,
4236.05,806.816,0.02,
4238.53,807.216,0.02,
4241.01,807.616,0.01996,
4243.5,808.016,0.02101,
4245.984,808.416,0.021,
4248.46,808.816,0.021,
4250.943,809.216,0.02098,
4253.424,809.616,0.02124,
4255.9,810.016,0.021,
4258.386,810.416,0.021,
4260.87,810.816,0.021,
4263.36,811.216,0.021,
4265.84,811.616,0.02106,
4268.33,812.016,0.02297,
4270.81,812.416,0.023,
4273.3,812.816,0.023,
4275.78,813.216,0.023,
4278.27,813.616,0.023,
4280.76,814.016,0.02215,
4283.25,814.416,0.02106,
4285.73,814.816,0.02297,
4288.22,815.216,0.023,
4290.71,815.616,0.023,
4293.19,816.016,0.023,
4295.68,816.416,0.023,
4298.17,816.816,0.023,
4300.665,817.216,0.02302,
4303.164,817.616,0.0209,
4305.66,818.016,0.021,
4308.16,818.416,0.021,
4310.658,818.816,0.021,
4313.15,819.216,0.02099,
4315.641,819.616,0.02318,
4318.13,820.016,0.023,
4320.63,820.416,0.02117,
4323.13,820.816,0.021,
4325.63,821.216,0.021,
4328.12,821.616,0.021,
4330.62,822.016,0.021,
4333.11,822.416,0.02097,
4335.6,822.816,0.02005,
4338.09,823.216,0.022,
4340.586,823.616,0.022,
4343.08,824.016,0.022,
4345.58,824.416,0.02212,
4348.09,824.816,0.02197,
4350.59,825.216,0.02199,
4353.08,825.616,0.023,
4355.58,826.016,0.02299,
4358.079,826.416,0.02203,
4360.58,826.816,0.02199,
4363.07,827.216,0.02308,
4365.58,827.616,0.023,
4368.075,828.016,0.023,
4370.574,828.416,0.023,
4373.073,828.816,0.02189,
4375.563,829.216,0.02311,
4378.05,829.616,0.02311,
4380.53,830.016,0.022,
4383.027,830.416,0.022,
4385.51,830.816,0.02301,
4388,831.216,0.02199,
4390.49,831.616,0.022,
4392.99,832.016,0.022,
4395.48,832.416,0.022,
4397.98,832.816,0.022,
4400.48,833.216,0.022,
4402.96,833.616,0.02199,
4405.45,834.016,0.02103,
4407.94,834.416,0.021,
4410.42,834.816,0.01992,
4412.904,835.216,0.019,
4415.39,835.616,0.019,
4417.88,836.016,0.019,
4420.36,836.416,0.019,
4422.84,836.816,0.019,
4425.324,837.216,0.01892,
4427.811,837.616,0.02021,
4430.3,838.016,0.01799,
4432.78,838.416,0.01884,
4435.27,838.816,0.019,
4437.74,839.216,0.019,
4440.219,839.616,0.019,
4442.7,840.016,0.019,
4445.169,840.416,0.01918,
4447.64,840.816,0.01808,
4450.12,841.216,0.018,
4452.6,841.616,0.018,
4455.09,842.016,0.018,
4457.58,842.416,0.018,
4460.06,842.816,0.018,
4462.55,843.216,0.018,
4465.03,843.616,0.01779,
4467.52,844.016,0.02001,
4470.006,844.416,0.02,
4472.5,844.816,0.02,
4474.97,845.216,0.02,
4477.45,845.616,0.02001,
4479.94,846.016,0.01778,
4482.43,846.416,0.018,
4484.91,846.816,0.018,
4487.4,847.216,0.018,
4489.9,847.616,0.02,
4492.39,848.016,0.02,
4494.879,848.416,0.02,
4497.38,848.816,0.02,
4499.88,849.216,0.02,
4502.38,849.616,0.02,
4504.87,850.016,0.02194,
4507.38,850.416,0.0218,
4509.89,850.816,0.02,
4512.39,851.216,0.02,
4514.9,851.616,0.02,
4517.41,852.016,0.02,
4519.92,852.416,0.02,
4522.44,852.816,0.02,
4524.95,853.216,0.01998,
4527.48,853.616,0.01902,
4530.01,854.016,0.019,
4532.53,854.416,0.019,
4535.05,854.816,0.01898,
4537.59,855.216,0.01783,
4540.11,855.616,0.02001,
4542.65,856.016,0.01995,
4545.18,856.416,0.02089,
4547.715,856.816,0.02,
4550.24,857.216,0.01989,
4552.76,857.616,0.021,
4555.28,858.016,0.021,
4557.8,858.416,0.02201,
4560.33,858.816,0.02099,
4562.85,859.216,0.021,
4565.376,859.616,0.02089,
4567.9,860.016,0.021,
4570.42,860.416,0.021,
4572.95,860.816,0.021,
4575.47,861.216,0.02104,
4577.99,861.616,0.02095,
4580.51,862.016,0.02101,
4583.04,862.416,0.022,
4585.55,862.816,0.0213,
4588.08,863.216,0.022,
4590.6,863.616,0.022,
4593.12,864.016,0.022,
4595.634,864.416,0.02181,
4598.15,864.816,0.021,
4600.659,865.216,0.021,
4603.17,865.616,0.021,
4605.68,866.016,0.021,
4608.19,866.416,0.021,
4610.703,866.816,0.01989,
4613.22,867.216,0.0211,
4615.737,867.616,0.021,
4618.25,868.016,0.021,
4620.759,868.416,0.02099,
4623.3,868.816,0.0193,
4625.81,869.216,0.02,
4628.439,869.616,0.02,