File: PMMA/Calibration_Data/Sandia/Sandia_DSC_Ar_50K_3.csv
Time,Temperature,Heat Flow
[s],[K],[W/g]
1200.1,306.944,-2.32E-03
1269.15,307.344,4.28E-03
1284.16,307.744,1.04E-02
1294.08,308.144,1.17E-02
1301.57,308.544,1.39E-02
1307.67,308.944,1.47E-02
1312.86,309.344,1.16E-02
1317.43,309.744,1.07E-02
1321.461,310.144,9.00E-03
1325.21,310.544,6.14E-03
1328.64,310.944,1.75E-03
1331.87,311.344,-7.17E-04
1334.85,311.744,-1.03E-02
1337.63,312.144,-1.31E-02
1340.253,312.544,-1.59E-02
1342.77,312.944,-2.34E-02
1345.182,313.344,-3.13E-02
1347.47,313.744,-3.31E-02
1349.69,314.144,-4.38E-02
1351.78,314.544,-4.88E-02
1353.81,314.944,-5.59E-02
1355.74,315.344,-5.96E-02
1357.6,315.744,-6.81E-02
1359.43,316.144,-7.49E-02
1361.22,316.544,-8.33E-02
1362.93,316.944,-9.05E-02
1364.58,317.344,-9.44E-02
1366.2,317.744,-9.81E-02
1367.799,318.144,-0.1069
1369.36,318.544,-0.11564
1370.86,318.944,-0.12021
1372.34,319.344,-0.12891
1373.77,319.744,-0.13573
1375.18,320.144,-0.14388
1376.56,320.544,-0.1526
1377.92,320.944,-0.15907
1379.25,321.344,-0.16628
1380.552,321.744,-0.17786
1381.842,322.144,-0.18438
1383.102,322.544,-0.19246
1384.35,322.944,-0.20088
1385.565,323.344,-0.20718
1386.759,323.744,-0.21495
1387.94,324.144,-0.22473
1389.11,324.544,-0.23184
1390.24,324.944,-0.241
1391.38,325.344,-0.25008
1392.5,325.744,-0.26127
1393.61,326.144,-0.26894
1394.69,326.544,-0.27759
1395.762,326.944,-0.28657
1396.818,327.344,-0.29675
1397.865,327.744,-0.3062
1398.89,328.144,-0.31557
1399.91,328.544,-0.32351
1400.92,328.944,-0.33287
1401.91,329.344,-0.34357
1402.89,329.744,-0.35476
1403.86,330.144,-0.36499
1404.82,330.544,-0.37535
1405.76,330.944,-0.38137
1406.7,331.344,-0.38929
1407.63,331.744,-0.40152
1408.557,332.144,-0.40789
1409.48,332.544,-0.41611
1410.38,332.944,-0.42519
1411.28,333.344,-0.43462
1412.17,333.744,-0.44524
1413.05,334.144,-0.45621
1413.915,334.544,-0.46195
1414.78,334.944,-0.46937
1415.63,335.344,-0.47782
1416.48,335.744,-0.48794
1417.32,336.144,-0.50017
1418.16,336.544,-0.50811
1418.994,336.944,-0.5152
1419.82,337.344,-0.52889
1420.64,337.744,-0.5375
1421.45,338.144,-0.54481
1422.25,338.544,-0.55398
1423.04,338.944,-0.56408
1423.83,339.344,-0.57312
1424.62,339.744,-0.58527
1425.39,340.144,-0.59125
1426.17,340.544,-0.60368
1426.93,340.944,-0.6139
1427.69,341.344,-0.6225
1428.46,341.744,-0.63496
1429.21,342.144,-0.63952
1429.97,342.544,-0.65239
1430.718,342.944,-0.66085
1431.46,343.344,-0.66731
1432.19,343.744,-0.67939
1432.929,344.144,-0.6886
1433.664,344.544,-0.69706
1434.39,344.944,-0.70627
1435.12,345.344,-0.71575
1435.84,345.744,-0.72532
1436.55,346.144,-0.73508
1437.26,346.544,-0.74196
1437.96,346.944,-0.75209
1438.66,347.344,-0.76047
1439.36,347.744,-0.7693
1440.05,348.144,-0.77983
1440.735,348.544,-0.78641
1441.43,348.944,-0.79727
1442.11,349.344,-0.80329
1442.79,349.744,-0.81386
1443.47,350.144,-0.82483
1444.14,350.544,-0.83225
1444.81,350.944,-0.84028
1445.48,351.344,-0.84654
1446.14,351.744,-0.86021
1446.798,352.144,-0.86902
1447.45,352.544,-0.88124
1448.11,352.944,-0.88775
1448.76,353.344,-0.89693
1449.41,353.744,-0.90596
1450.05,354.144,-0.91741
1450.695,354.544,-0.92514
1451.33,354.944,-0.93737
1451.97,355.344,-0.94643
1452.6,355.744,-0.95646
1453.23,356.144,-0.96491
1453.857,356.544,-0.97509
1454.48,356.944,-0.98724
1455.1,357.344,-0.99552
1455.73,357.744,-1.00727
1456.35,358.144,-1.01475
1456.96,358.544,-1.02423
1457.58,358.944,-1.03347
1458.18,359.344,-1.04436
1458.79,359.744,-1.05278
1459.392,360.144,-1.06389
1459.995,360.544,-1.07122
1460.6,360.944,-1.08417
1461.19,361.344,-1.09396
1461.79,361.744,-1.10275
1462.38,362.144,-1.11064
1462.97,362.544,-1.12167
1463.56,362.944,-1.12993
1464.15,363.344,-1.13962
1464.73,363.744,-1.14903
1465.31,364.144,-1.15746
1465.89,364.544,-1.16894
1466.466,364.944,-1.17711
1467.04,365.344,-1.1892
1467.61,365.744,-1.19847
1468.18,366.144,-1.20718
1468.74,366.544,-1.21788
1469.31,366.944,-1.22593
1469.87,367.344,-1.23618
1470.44,367.744,-1.24663
1471,368.144,-1.25723
1471.56,368.544,-1.26517
1472.112,368.944,-1.28044
1472.67,369.344,-1.28926
1473.22,369.744,-1.29693
1473.771,370.144,-1.30673
1474.32,370.544,-1.31679
1474.87,370.944,-1.32753
1475.42,371.344,-1.335
1475.97,371.744,-1.34375
1476.51,372.144,-1.3528
1477.05,372.544,-1.36072
1477.59,372.944,-1.37282
1478.133,373.344,-1.38078
1478.67,373.744,-1.3903
1479.21,374.144,-1.4033
1479.741,374.544,-1.4105
1480.27,374.944,-1.42129
1480.8,375.344,-1.43028
1481.33,375.744,-1.43759
1481.86,376.144,-1.44736
1482.39,376.544,-1.45893
1482.91,376.944,-1.46653
1483.437,377.344,-1.47635
1483.96,377.744,-1.48559
1484.48,378.144,-1.4929
1485.01,378.544,-1.50161
1485.525,378.944,-1.51134
1486.04,379.344,-1.51961
1486.56,379.744,-1.52856
1487.07,380.144,-1.53874
1487.59,380.544,-1.5446
1488.11,380.944,-1.55705
1488.62,381.344,-1.56735
1489.13,381.744,-1.57465
1489.65,382.144,-1.5808
1490.16,382.544,-1.58887
1490.66,382.944,-1.59471
1491.17,383.344,-1.6032
1491.68,383.744,-1.61378
1492.18,384.144,-1.6208
1492.68,384.544,-1.63093
1493.19,384.944,-1.63853
1493.69,385.344,-1.64468
1494.19,385.744,-1.65007
1494.69,386.144,-1.66171
1495.19,386.544,-1.67115
1495.69,386.944,-1.67669
1496.19,387.344,-1.68603
1496.69,387.744,-1.69419
1497.18,388.144,-1.70086
1497.67,388.544,-1.70927
1498.161,388.944,-1.71665
1498.65,389.344,-1.72359
1499.14,389.744,-1.73325
1499.63,390.144,-1.74303
1500.12,390.544,-1.75039
1500.61,390.944,-1.76182
1501.09,391.344,-1.77002
1501.58,391.744,-1.77955
1502.06,392.144,-1.79032
1502.55,392.544,-1.80079
1503.04,392.944,-1.81061
1503.52,393.344,-1.81851
1504,393.744,-1.8281
1504.48,394.144,-1.84011
1504.96,394.544,-1.84878
1505.433,394.944,-1.85875
1505.91,395.344,-1.86749
1506.39,395.744,-1.88
1506.86,396.144,-1.89088
1507.34,396.544,-1.90315
1507.81,396.944,-1.91448
1508.283,397.344,-1.92664
1508.754,397.744,-1.93769
1509.22,398.144,-1.94943
1509.69,398.544,-1.96375
1510.164,398.944,-1.97657
1510.63,399.344,-1.99049
1511.1,399.744,-2.00393
1511.57,400.144,-2.0184
1512.03,400.544,-2.03239
1512.49,400.944,-2.04459
1512.954,401.344,-2.05698
1513.42,401.744,-2.06846
1513.87,402.144,-2.08535
1514.33,402.544,-2.09811
1514.79,402.944,-2.11326
1515.25,403.344,-2.12812
1515.71,403.744,-2.14374
1516.16,404.144,-2.15769
1516.62,404.544,-2.17312
1517.073,404.944,-2.18663
1517.53,405.344,-2.20456
1517.982,405.744,-2.22136
1518.43,406.144,-2.23915
1518.89,406.544,-2.25473
1519.34,406.944,-2.27045
1519.78,407.344,-2.28732
1520.23,407.744,-2.30245
1520.68,408.144,-2.31656
1521.13,408.544,-2.33185
1521.58,408.944,-2.34926
1522.02,409.344,-2.36654
1522.47,409.744,-2.38326
1522.91,410.144,-2.39466
1523.358,410.544,-2.41309
1523.8,410.944,-2.42685
1524.24,411.344,-2.4459
1524.68,411.744,-2.46153
1525.12,412.144,-2.4772
1525.56,412.544,-2.49179
1526.001,412.944,-2.50942
1526.44,413.344,-2.52446
1526.88,413.744,-2.53997
1527.32,414.144,-2.55399
1527.75,414.544,-2.57147
1528.19,414.944,-2.58774
1528.62,415.344,-2.60247
1529.05,415.744,-2.61799
1529.49,416.144,-2.63387
1529.919,416.544,-2.64848
1530.351,416.944,-2.66313
1530.78,417.344,-2.67651
1531.21,417.744,-2.69196
1531.64,418.144,-2.70916
1532.07,418.544,-2.72145
1532.5,418.944,-2.7359
1532.93,419.344,-2.74994
1533.354,419.744,-2.76819
1533.78,420.144,-2.78188
1534.21,420.544,-2.79452
1534.63,420.944,-2.80812
1535.06,421.344,-2.8215
1535.481,421.744,-2.83763
1535.9,422.144,-2.84906
1536.33,422.544,-2.86488
1536.75,422.944,-2.87872
1537.17,423.344,-2.89127
1537.59,423.744,-2.90319
1538.01,424.144,-2.91807
1538.433,424.544,-2.93364
1538.85,424.944,-2.94702
1539.27,425.344,-2.96143
1539.69,425.744,-2.97626
1540.11,426.144,-2.99319
1540.53,426.544,-3.00395
1540.94,426.944,-3.02015
1541.36,427.344,-3.03493
1541.77,427.744,-3.0489
1542.19,428.144,-3.06375
1542.6,428.544,-3.07542
1543.02,428.944,-3.08998
1543.428,429.344,-3.10263
1543.84,429.744,-3.11764
1544.26,430.144,-3.12881
1544.67,430.544,-3.14188
1545.084,430.944,-3.15849
1545.5,431.344,-3.16889
1545.91,431.744,-3.17927
1546.32,432.144,-3.19314
1546.73,432.544,-3.20652
1547.14,432.944,-3.2225
1547.55,433.344,-3.23445
1547.955,433.744,-3.24749
1548.363,434.144,-3.25834
1548.77,434.544,-3.2697
1549.176,434.944,-3.28035
1549.58,435.344,-3.29279
1549.99,435.744,-3.30288
1550.4,436.144,-3.31439
1550.8,436.544,-3.32721
1551.21,436.944,-3.33725
1551.61,437.344,-3.34514
1552.02,437.744,-3.35794
1552.42,438.144,-3.36962
1552.82,438.544,-3.3822
1553.23,438.944,-3.39451
1553.631,439.344,-3.40606
1554.03,439.744,-3.41825
1554.43,440.144,-3.42943
1554.83,440.544,-3.44175
1555.23,440.944,-3.45394
1555.632,441.344,-3.46571
1556.03,441.744,-3.47358
1556.43,442.144,-3.4842
1556.83,442.544,-3.49648
1557.23,442.944,-3.51019
1557.63,443.344,-3.52011
1558.03,443.744,-3.53023
1558.428,444.144,-3.54182
1558.83,444.544,-3.54986
1559.22,444.944,-3.5601
1559.62,445.344,-3.57124
1560.02,445.744,-3.58304
1560.41,446.144,-3.5947
1560.81,446.544,-3.60354
1561.2,446.944,-3.61699
1561.593,447.344,-3.62566
1561.99,447.744,-3.63611
1562.379,448.144,-3.64478
1562.772,448.544,-3.65685
1563.16,448.944,-3.66718
1563.56,449.344,-3.67538
1563.951,449.744,-3.68521
1564.34,450.144,-3.69657
1564.73,450.544,-3.70652
1565.12,450.944,-3.71946
1565.51,451.344,-3.72993
1565.9,451.744,-3.74019
1566.29,452.144,-3.74746
1566.68,452.544,-3.75775
1567.06,452.944,-3.7679
1567.45,453.344,-3.77921
1567.84,453.744,-3.79187
1568.229,454.144,-3.80124
1568.61,454.544,-3.80869
1569,454.944,-3.81798
1569.387,455.344,-3.82728
1569.77,455.744,-3.83593
1570.16,456.144,-3.84684
1570.54,456.544,-3.8568
1570.926,456.944,-3.86704
1571.31,457.344,-3.876
1571.69,457.744,-3.88525
1572.08,458.144,-3.8929
1572.46,458.544,-3.90167
1572.84,458.944,-3.90871
1573.22,459.344,-3.91583
1573.6,459.744,-3.92684
1573.98,460.144,-3.93632
1574.36,460.544,-3.94988
1574.74,460.944,-3.95983
1575.123,461.344,-3.96601
1575.504,461.744,-3.97517
1575.88,462.144,-3.98568
1576.26,462.544,-3.99417
1576.64,462.944,-4.00551
1577.02,463.344,-4.01612
1577.397,463.744,-4.02533
1577.77,464.144,-4.03508
1578.15,464.544,-4.04671
1578.53,464.944,-4.05505
1578.9,465.344,-4.06523
1579.28,465.744,-4.07623
1579.653,466.144,-4.08627
1580.03,466.544,-4.09753
1580.4,466.944,-4.10685
1580.78,467.344,-4.11677
1581.15,467.744,-4.12766
1581.53,468.144,-4.13898
1581.9,468.544,-4.15131
1582.27,468.944,-4.16008
1582.65,469.344,-4.1656
1583.019,469.744,-4.17864
1583.391,470.144,-4.19008
1583.76,470.544,-4.19936
1584.13,470.944,-4.21145
1584.5,471.344,-4.22117
1584.88,471.744,-4.23048
1585.248,472.144,-4.24018
1585.62,472.544,-4.25091
1585.99,472.944,-4.25742
1586.36,473.344,-4.26835
1586.73,473.744,-4.27707
1587.1,474.144,-4.28771
1587.47,474.544,-4.29744
1587.834,474.944,-4.30662
1588.2,475.344,-4.31379
1588.57,475.744,-4.32728
1588.94,476.144,-4.33517
1589.31,476.544,-4.34751
1589.67,476.944,-4.35623
1590.04,477.344,-4.36816
1590.41,477.744,-4.37635
1590.78,478.144,-4.38534
1591.15,478.544,-4.39683
1591.51,478.944,-4.40404
1591.88,479.344,-4.41271
1592.244,479.744,-4.42502
1592.61,480.144,-4.4332
1592.97,480.544,-4.44152
1593.34,480.944,-4.45285
1593.7,481.344,-4.46014
1594.07,481.744,-4.46994
1594.43,482.144,-4.47999
1594.8,482.544,-4.48861
1595.16,482.944,-4.49386
1595.52,483.344,-4.50809
1595.88,483.744,-4.51395
1596.25,484.144,-4.52191
1596.61,484.544,-4.52899
1596.97,484.944,-4.53831
1597.34,485.344,-4.54729
1597.7,485.744,-4.55571
1598.06,486.144,-4.56692
1598.42,486.544,-4.57529
1598.78,486.944,-4.58516
1599.14,487.344,-4.59333
1599.5,487.744,-4.59998
1599.86,488.144,-4.61017
1600.22,488.544,-4.61936
1600.584,488.944,-4.62696
1600.944,489.344,-4.63734
1601.3,489.744,-4.64685
1601.66,490.144,-4.65471
1602.02,490.544,-4.6619
1602.381,490.944,-4.67028
1602.74,491.344,-4.68005
1603.098,491.744,-4.6872
1603.46,492.144,-4.69896
1603.81,492.544,-4.70735
1604.17,492.944,-4.71639
1604.53,493.344,-4.72039
1604.88,493.744,-4.73194
1605.24,494.144,-4.73959
1605.6,494.544,-4.74708
1605.96,494.944,-4.75474
1606.31,495.344,-4.76121
1606.671,495.744,-4.76787
1607.03,496.144,-4.77696
1607.38,496.544,-4.7875
1607.74,496.944,-4.79506
1608.09,497.344,-4.80324
1608.45,497.744,-4.81303
1608.804,498.144,-4.82316
1609.16,498.544,-4.83427
1609.51,498.944,-4.84286
1609.866,499.344,-4.85314
1610.22,499.744,-4.8633
1610.57,500.144,-4.87238
1610.93,500.544,-4.88219
1611.28,500.944,-4.89134
1611.63,501.344,-4.90072
1611.984,501.744,-4.91281
1612.338,502.144,-4.92383
1612.69,502.544,-4.93351
1613.04,502.944,-4.94752
1613.4,503.344,-4.95684
1613.748,503.744,-4.96688
1614.1,504.144,-4.98113
1614.45,504.544,-4.99212
1614.8,504.944,-5.00358
1615.152,505.344,-5.01298
1615.503,505.744,-5.02599
1615.854,506.144,-5.03786
1616.2,506.544,-5.04878
1616.55,506.944,-5.05818
1616.9,507.344,-5.07009
1617.25,507.744,-5.08211
1617.6,508.144,-5.09727
1617.95,508.544,-5.1091
1618.299,508.944,-5.12267
1618.65,509.344,-5.13673
1618.998,509.744,-5.14637
1619.35,510.144,-5.15898
1619.7,510.544,-5.17239
1620.04,510.944,-5.18798
1620.393,511.344,-5.19934
1620.741,511.744,-5.21202
1621.09,512.144,-5.22299
1621.44,512.544,-5.23505
1621.78,512.944,-5.24869
1622.13,513.344,-5.26305
1622.48,513.744,-5.27705
1622.82,514.144,-5.2877
1623.17,514.544,-5.30143
1623.52,514.944,-5.31393
1623.861,515.344,-5.32736
1624.21,515.744,-5.33894
1624.55,516.144,-5.35252
1624.9,516.544,-5.36411
1625.24,516.944,-5.37572
1625.59,517.344,-5.38866
1625.94,517.744,-5.40296
1626.28,518.144,-5.41808
1626.63,518.544,-5.42963
1626.97,518.944,-5.44577
1627.32,519.344,-5.4551
1627.66,519.744,-5.46735
1628,520.144,-5.47867
1628.35,520.544,-5.48965
1628.69,520.944,-5.50199
1629.03,521.344,-5.51409
1629.38,521.744,-5.52597
1629.72,522.144,-5.53664
1630.06,522.544,-5.54978
1630.4,522.944,-5.56207
1630.74,523.344,-5.5713
1631.09,523.744,-5.58191
1631.43,524.144,-5.59459
1631.77,524.544,-5.6039
1632.11,524.944,-5.61622
1632.46,525.344,-5.63083
1632.8,525.744,-5.63979
1633.14,526.144,-5.65198
1633.48,526.544,-5.66344
1633.82,526.944,-5.67567
1634.16,527.344,-5.68758
1634.5,527.744,-5.69989
1634.84,528.144,-5.70919
1635.18,528.544,-5.71898
1635.53,528.944,-5.7328
1635.87,529.344,-5.74633
1636.206,529.744,-5.7559
1636.55,530.144,-5.77037
1636.89,530.544,-5.78225
1637.23,530.944,-5.79545
1637.56,531.344,-5.80728
1637.9,531.744,-5.8191
1638.24,532.144,-5.83289
1638.58,532.544,-5.84557
1638.918,532.944,-5.8605
1639.26,533.344,-5.87044
1639.59,533.744,-5.87936
1639.93,534.144,-5.89029
1640.27,534.544,-5.90169
1640.61,534.944,-5.91188
1640.946,535.344,-5.92362
1641.28,535.744,-5.93357
1641.62,536.144,-5.9464
1641.96,536.544,-5.95658
1642.29,536.944,-5.96959
1642.63,537.344,-5.97959
1642.97,537.744,-5.98894
1643.307,538.144,-6.0003
1643.64,538.544,-6.01125
1643.98,538.944,-6.01962
1644.32,539.344,-6.02932
1644.65,539.744,-6.03875
1644.99,540.144,-6.04668
1645.32,540.544,-6.05561
1645.66,540.944,-6.07094
1645.99,541.344,-6.08591
1646.33,541.744,-6.09813
1646.664,542.144,-6.10806
1647,542.544,-6.11768
1647.33,542.944,-6.12891
1647.67,543.344,-6.1381
1648.002,543.744,-6.14408
1648.34,544.144,-6.156
1648.67,544.544,-6.16352
1649.01,544.944,-6.17347
1649.34,545.344,-6.18452
1649.67,545.744,-6.19672
1650.009,546.144,-6.2055
1650.34,546.544,-6.21534
1650.68,546.944,-6.22419
1651.01,547.344,-6.23416
1651.35,547.744,-6.23818
1651.68,548.144,-6.24699
1652.01,548.544,-6.25116
1652.34,548.944,-6.25865
1652.68,549.344,-6.26399
1653.01,549.744,-6.27003
1653.34,550.144,-6.27332
1653.675,550.544,-6.27901
1654.008,550.944,-6.283
1654.34,551.344,-6.28791
1654.67,551.744,-6.29335
1655.01,552.144,-6.29824
1655.34,552.544,-6.30355
1655.67,552.944,-6.30906
1656,553.344,-6.31016
1656.33,553.744,-6.31676
1656.66,554.144,-6.32092
1656.99,554.544,-6.3225
1657.326,554.944,-6.32608
1657.656,555.344,-6.32867
1657.99,555.744,-6.33195
1658.32,556.144,-6.33291
1658.649,556.544,-6.33759
1658.98,556.944,-6.34201
1659.31,557.344,-6.34318
1659.64,557.744,-6.34725
1659.969,558.144,-6.35022
1660.3,558.544,-6.35506
1660.63,558.944,-6.35956
1660.96,559.344,-6.36404
1661.29,559.744,-6.36926
1661.62,560.144,-6.37429
1661.95,560.544,-6.37558
1662.282,560.944,-6.38172
1662.612,561.344,-6.38691
1662.94,561.744,-6.39307
1663.27,562.144,-6.39588
1663.6,562.544,-6.39964
1663.93,562.944,-6.39619
1664.26,563.344,-6.40029
1664.59,563.744,-6.39882
1664.919,564.144,-6.3984
1665.25,564.544,-6.39825
1665.58,564.944,-6.40164
1665.91,565.344,-6.40183
1666.23,565.744,-6.4046
1666.56,566.144,-6.40463
1666.893,566.544,-6.40799
1667.22,566.944,-6.40897
1667.55,567.344,-6.41484
1667.88,567.744,-6.4146
1668.207,568.144,-6.41322
1668.54,568.544,-6.4128
1668.864,568.944,-6.41474
1669.191,569.344,-6.41698
1669.518,569.744,-6.42103
1669.845,570.144,-6.4223
1670.172,570.544,-6.41839
1670.5,570.944,-6.41675
1670.83,571.344,-6.41631
1671.15,571.744,-6.41829
1671.483,572.144,-6.42065
1671.81,572.544,-6.4252
1672.14,572.944,-6.42308
1672.47,573.344,-6.42617
1672.8,573.744,-6.42916
1673.12,574.144,-6.43036
1673.45,574.544,-6.43104
1673.778,574.944,-6.43213
1674.105,575.344,-6.43658
1674.432,575.744,-6.4409
1674.76,576.144,-6.44353
1675.086,576.544,-6.44282
1675.41,576.944,-6.4376
1675.74,577.344,-6.43534
1676.07,577.744,-6.43044
1676.39,578.144,-6.43126
1676.72,578.544,-6.4343
1677.05,578.944,-6.43584
1677.375,579.344,-6.43647
1677.7,579.744,-6.43822
1678.03,580.144,-6.4419
1678.35,580.544,-6.44409
1678.68,580.944,-6.4443
1679.007,581.344,-6.44492
1679.33,581.744,-6.44269
1679.66,582.144,-6.44229
1679.99,582.544,-6.44297
1680.312,582.944,-6.44191
1680.64,583.344,-6.44159
1680.96,583.744,-6.43802
1681.29,584.144,-6.43243
1681.62,584.544,-6.43283
1681.94,584.944,-6.43127
1682.27,585.344,-6.43157
1682.59,585.744,-6.42636
1682.919,586.144,-6.42337
1683.24,586.544,-6.42165
1683.57,586.944,-6.41719
1683.9,587.344,-6.4162
1684.22,587.744,-6.41673
1684.55,588.144,-6.41557
1684.872,588.544,-6.41398
1685.2,588.944,-6.41183
1685.52,589.344,-6.4087
1685.85,589.744,-6.40909
1686.17,590.144,-6.40644
1686.49,590.544,-6.40208
1686.819,590.944,-6.39761
1687.14,591.344,-6.39569
1687.47,591.744,-6.39384
1687.79,592.144,-6.39495
1688.12,592.544,-6.38962
1688.45,592.944,-6.38791
1688.772,593.344,-6.38792
1689.1,593.744,-6.38291
1689.42,594.144,-6.38262
1689.75,594.544,-6.37923
1690.07,594.944,-6.37568
1690.4,595.344,-6.37108
1690.722,595.744,-6.36635
1691.05,596.144,-6.36256
1691.37,596.544,-6.35627
1691.697,596.944,-6.3521
1692.02,597.344,-6.34516
1692.348,597.744,-6.34177
1692.67,598.144,-6.33992
1693,598.544,-6.33454
1693.32,598.944,-6.33093
1693.65,599.344,-6.3292
1693.97,599.744,-6.32847
1694.3,600.144,-6.32558
1694.622,600.544,-6.32279
1694.946,600.944,-6.31773
1695.27,601.344,-6.31329
1695.6,601.744,-6.30607
1695.92,602.144,-6.30075
1696.24,602.544,-6.29682
1696.569,602.944,-6.29009
1696.89,603.344,-6.28186
1697.22,603.744,-6.27729
1697.54,604.144,-6.26935
1697.868,604.544,-6.26452
1698.19,604.944,-6.25889
1698.516,605.344,-6.25174
1698.84,605.744,-6.24658
1699.17,606.144,-6.23851
1699.49,606.544,-6.23071
1699.81,606.944,-6.22391
1700.14,607.344,-6.21839
1700.463,607.744,-6.20797
1700.79,608.144,-6.19343
1701.11,608.544,-6.18051
1701.438,608.944,-6.17081
1701.762,609.344,-6.16026
1702.09,609.744,-6.147
1702.41,610.144,-6.13282
1702.74,610.544,-6.11838
1703.06,610.944,-6.10571
1703.388,611.344,-6.08925
1703.712,611.744,-6.07547
1704.04,612.144,-6.05941
1704.36,612.544,-6.04623
1704.69,612.944,-6.02878
1705.01,613.344,-6.01229
1705.335,613.744,-5.99631
1705.659,614.144,-5.97888
1705.983,614.544,-5.95819
1706.31,614.944,-5.94134
1706.63,615.344,-5.92226
1706.96,615.744,-5.90533
1707.28,616.144,-5.88722
1707.61,616.544,-5.86549
1707.93,616.944,-5.84245
1708.26,617.344,-5.82097
1708.58,617.744,-5.79972
1708.91,618.144,-5.77698
1709.23,618.544,-5.75446
1709.556,618.944,-5.72932
1709.88,619.344,-5.708
1710.207,619.744,-5.68625
1710.53,620.144,-5.66356
1710.86,620.544,-5.6361
1711.18,620.944,-5.61076
1711.506,621.344,-5.58529
1711.83,621.744,-5.55539
1712.16,622.144,-5.53028
1712.48,622.544,-5.50033
1712.81,622.944,-5.47393
1713.13,623.344,-5.44602
1713.46,623.744,-5.41947
1713.78,624.144,-5.38974
1714.11,624.544,-5.35861
1714.43,624.944,-5.33005
1714.76,625.344,-5.29922
1715.08,625.744,-5.27062
1715.41,626.144,-5.23608
1715.74,626.544,-5.20399
1716.06,626.944,-5.17013
1716.39,627.344,-5.13995
1716.711,627.744,-5.10493
1717.04,628.144,-5.07522
1717.36,628.544,-5.03814
1717.689,628.944,-5.00399
1718.02,629.344,-4.96822
1718.34,629.744,-4.93111
1718.67,630.144,-4.89291
1718.99,630.544,-4.85754
1719.32,630.944,-4.81766
1719.64,631.344,-4.78095
1719.97,631.744,-4.74062
1720.3,632.144,-4.70213
1720.62,632.544,-4.66563
1720.95,632.944,-4.6266
1721.28,633.344,-4.58811
1721.601,633.744,-4.54625
1721.928,634.144,-4.50382
1722.25,634.544,-4.4649
1722.58,634.944,-4.42273
1722.909,635.344,-4.38449
1723.23,635.744,-4.34501
1723.56,636.144,-4.30508
1723.89,636.544,-4.26379
1724.217,636.944,-4.22311
1724.544,637.344,-4.18313
1724.871,637.744,-4.14032
1725.198,638.144,-4.10011
1725.52,638.544,-4.05708
1725.85,638.944,-4.0192
1726.18,639.344,-3.97916
1726.51,639.744,-3.93963
1726.833,640.144,-3.90138
1727.16,640.544,-3.85977
1727.49,640.944,-3.81887
1727.82,641.344,-3.77876
1728.14,641.744,-3.73434
1728.47,642.144,-3.69501
1728.8,642.544,-3.65382
1729.13,642.944,-3.61397
1729.46,643.344,-3.5768
1729.785,643.744,-3.53925
1730.11,644.144,-3.49844
1730.442,644.544,-3.45938
1730.77,644.944,-3.42185
1731.1,645.344,-3.38156
1731.43,645.744,-3.34382
1731.756,646.144,-3.30518
1732.08,646.544,-3.26891
1732.41,646.944,-3.22839
1732.74,647.344,-3.18789
1733.07,647.744,-3.14925
1733.4,648.144,-3.10914
1733.73,648.544,-3.07271
1734.06,648.944,-3.03381
1734.387,649.344,-2.99445
1734.717,649.744,-2.955
1735.05,650.144,-2.91359
1735.38,650.544,-2.87326
1735.71,650.944,-2.83564
1736.04,651.344,-2.79787
1736.37,651.744,-2.76074
1736.7,652.144,-2.72067
1737.03,652.544,-2.68341
1737.36,652.944,-2.64401
1737.69,653.344,-2.60766
1738.02,653.744,-2.57034
1738.35,654.144,-2.53868
1738.68,654.544,-2.50611
1739.007,654.944,-2.47165
1739.337,655.344,-2.44244
1739.67,655.744,-2.4076
1740,656.144,-2.37446
1740.33,656.544,-2.3384
1740.66,656.944,-2.30258
1740.99,657.344,-2.26992
1741.32,657.744,-2.2347
1741.66,658.144,-2.19507
1741.99,658.544,-2.16001
1742.32,658.944,-2.11948
1742.65,659.344,-2.08314
1742.985,659.744,-2.05214
1743.32,660.144,-2.01845
1743.648,660.544,-1.98705
1743.98,660.944,-1.95777
1744.31,661.344,-1.92946
1744.64,661.744,-1.90279
1744.98,662.144,-1.87239
1745.31,662.544,-1.8427
1745.64,662.944,-1.81068
1745.98,663.344,-1.77896
1746.31,663.744,-1.74775
1746.642,664.144,-1.72271
1746.98,664.544,-1.69926
1747.31,664.944,-1.67245
1747.644,665.344,-1.64264
1747.977,665.744,-1.62101
1748.31,666.144,-1.59132
1748.64,666.544,-1.56741
1748.98,666.944,-1.54131
1749.315,667.344,-1.51811
1749.65,667.744,-1.49481
1749.984,668.144,-1.47278
1750.32,668.544,-1.45473
1750.65,668.944,-1.42656
1750.99,669.344,-1.40659
1751.32,669.744,-1.39064
1751.66,670.144,-1.36812
1751.99,670.544,-1.35102
1752.33,670.944,-1.33473
1752.66,671.344,-1.32099
1753,671.744,-1.30984
1753.34,672.144,-1.30166
1753.67,672.544,-1.29785
1754.01,672.944,-1.29212
1754.34,673.344,-1.28785
1754.68,673.744,-1.28265
1755.02,674.144,-1.28169
1755.35,674.544,-1.2903
1755.69,674.944,-1.2933
1756.03,675.344,-1.2979
1756.36,675.744,-1.29921
1756.698,676.144,-1.30264
1757.03,676.544,-1.30411
1757.37,676.944,-1.31134
1757.71,677.344,-1.31775
1758.05,677.744,-1.32842
1758.38,678.144,-1.33765
1758.72,678.544,-1.34667
1759.06,678.944,-1.35698
1759.39,679.344,-1.36927
1759.73,679.744,-1.37847
1760.07,680.144,-1.38591
1760.406,680.544,-1.39399
1760.74,680.944,-1.40393
1761.08,681.344,-1.41596
1761.42,681.744,-1.43224
1761.76,682.144,-1.45216
1762.1,682.544,-1.4723
1762.44,682.944,-1.48914
1762.77,683.344,-1.51041
1763.11,683.744,-1.53438
1763.454,684.144,-1.55657
1763.79,684.544,-1.57982
1764.13,684.944,-1.60667
1764.474,685.344,-1.64393
1764.81,685.744,-1.68348
1765.155,686.144,-1.72507
1765.5,686.544,-1.76935
1765.836,686.944,-1.81837
1766.18,687.344,-1.87419
1766.517,687.744,-1.93313
1766.86,688.144,-1.99793
1767.2,688.544,-2.06673
1767.54,688.944,-2.13741
1767.88,689.344,-2.21782
1768.221,689.744,-2.29684
1768.56,690.144,-2.38402
1768.9,690.544,-2.47667
1769.244,690.944,-2.57621
1769.58,691.344,-2.67959
1769.925,691.744,-2.78172
1770.27,692.144,-2.88528
1770.61,692.544,-2.98883
1770.948,692.944,-3.09399
1771.29,693.344,-3.20105
1771.63,693.744,-3.30627
1771.97,694.144,-3.40866
1772.31,694.544,-3.51033
1772.655,694.944,-3.6058
1772.997,695.344,-3.70025
1773.34,695.744,-3.79739
1773.681,696.144,-3.89161
1774.02,696.544,-3.98527
1774.36,696.944,-4.07767
1774.71,697.344,-4.16594
1775.05,697.744,-4.25341
1775.391,698.144,-4.33556
1775.73,698.544,-4.41701
1776.08,698.944,-4.50323
1776.42,699.344,-4.58908
1776.76,699.744,-4.67486
1777.11,700.144,-4.75662
1777.449,700.544,-4.83668
1777.79,700.944,-4.9218
1778.14,701.344,-5.00001
1778.48,701.744,-5.07806
1778.823,702.144,-5.15399
1779.17,702.544,-5.23026
1779.51,702.944,-5.30426
1779.85,703.344,-5.37488
1780.2,703.744,-5.44791
1780.539,704.144,-5.52032
1780.88,704.544,-5.59293
1781.23,704.944,-5.67182
1781.57,705.344,-5.74739
1781.92,705.744,-5.82106
1782.261,706.144,-5.89016
1782.606,706.544,-5.963
1782.95,706.944,-6.03294
1783.3,707.344,-6.10074
1783.64,707.744,-6.16438
1783.99,708.144,-6.23177
1784.33,708.544,-6.29511
1784.679,708.944,-6.36108
1785.03,709.344,-6.42621
1785.37,709.744,-6.49055
1785.72,710.144,-6.54962
1786.06,710.544,-6.61373
1786.41,710.944,-6.67591
1786.76,711.344,-6.73373
1787.1,711.744,-6.79367
1787.45,712.144,-6.85538
1787.79,712.544,-6.91207
1788.14,712.944,-6.96435
1788.49,713.344,-7.02165
1788.83,713.744,-7.07408
1789.18,714.144,-7.13143
1789.53,714.544,-7.18145
1789.87,714.944,-7.23396
1790.22,715.344,-7.28542
1790.568,715.744,-7.33827
1790.91,716.144,-7.38667
1791.261,716.544,-7.43742
1791.61,716.944,-7.4856
1791.96,717.344,-7.53191
1792.302,717.744,-7.57817
1792.65,718.144,-7.62309
1793,718.544,-7.66552
1793.34,718.944,-7.70715
1793.69,719.344,-7.74829
1794.039,719.744,-7.78571
1794.387,720.144,-7.82708
1794.74,720.544,-7.86277
1795.08,720.944,-7.8963
1795.43,721.344,-7.931
1795.78,721.744,-7.96473
1796.13,722.144,-8.00038
1796.48,722.544,-8.03149
1796.83,722.944,-8.06038
1797.177,723.344,-8.08997
1797.53,723.744,-8.1162
1797.88,724.144,-8.1419
1798.224,724.544,-8.16564
1798.57,724.944,-8.18833
1798.923,725.344,-8.20973
1799.27,725.744,-8.23096
1799.622,726.144,-8.25597
1799.97,726.544,-8.2743
1800.324,726.944,-8.29029
1800.68,727.344,-8.31187
1801.03,727.744,-8.33136
1801.38,728.144,-8.34941
1801.73,728.544,-8.37099
1802.085,728.944,-8.39455
1802.44,729.344,-8.41728
1802.79,729.744,-8.43985
1803.14,730.144,-8.46119
1803.49,730.544,-8.47913
1803.85,730.944,-8.49969
1804.2,731.344,-8.51838
1804.55,731.744,-8.53599
1804.91,732.144,-8.55041
1805.26,732.544,-8.56549
1805.62,732.944,-8.58251
1805.97,733.344,-8.59511
1806.33,733.744,-8.60775
1806.681,734.144,-8.62293
1807.04,734.544,-8.63519
1807.39,734.944,-8.65267
1807.75,735.344,-8.66859
1808.11,735.744,-8.68678
1808.46,736.144,-8.70414
1808.82,736.544,-8.71571
1809.18,736.944,-8.72838
1809.54,737.344,-8.74158
1809.9,737.744,-8.74961
1810.25,738.144,-8.76552
1810.61,738.544,-8.77711
1810.97,738.944,-8.78724
1811.33,739.344,-8.79968
1811.69,739.744,-8.81152
1812.05,740.144,-8.82507
1812.41,740.544,-8.83118
1812.76,740.944,-8.84114
1813.125,741.344,-8.84824
1813.49,741.744,-8.85968
1813.85,742.144,-8.86813
1814.21,742.544,-8.87378
1814.57,742.944,-8.88708
1814.93,743.344,-8.90008
1815.29,743.744,-8.9102
1815.65,744.144,-8.92076
1816.02,744.544,-8.93027
1816.38,744.944,-8.93777
1816.74,745.344,-8.94766
1817.1,745.744,-8.95849
1817.47,746.144,-8.96559
1817.83,746.544,-8.9722
1818.19,746.944,-8.98454
1818.55,747.344,-8.99305
1818.918,747.744,-9.00252
1819.28,748.144,-9.00839
1819.64,748.544,-9.01464
1820.01,748.944,-9.02466
1820.37,749.344,-9.03389
1820.74,749.744,-9.04057
1821.1,750.144,-9.04844
1821.47,750.544,-9.05922
1821.83,750.944,-9.06473
1822.2,751.344,-9.07511
1822.56,751.744,-9.08406
1822.92,752.144,-9.09324
1823.29,752.544,-9.1001
1823.658,752.944,-9.10319
1824.02,753.344,-9.11666
1824.39,753.744,-9.12363
1824.759,754.144,-9.12761
1825.13,754.544,-9.13343
1825.49,754.944,-9.1391
1825.86,755.344,-9.14246
1826.229,755.744,-9.15041
1826.6,756.144,-9.15922
1826.97,756.544,-9.16229
1827.333,756.944,-9.16697
1827.7,757.344,-9.17257
1828.071,757.744,-9.17584
1828.44,758.144,-9.18051
1828.81,758.544,-9.19031
1829.18,758.944,-9.19548
1829.55,759.344,-9.20226
1829.92,759.744,-9.20572
1830.291,760.144,-9.20842
1830.66,760.544,-9.21055
1831.03,760.944,-9.21252
1831.4,761.344,-9.21728
1831.77,761.744,-9.22029
1832.145,762.144,-9.22533
1832.52,762.544,-9.22663
1832.886,762.944,-9.23188
1833.258,763.344,-9.23474
1833.63,763.744,-9.23968
1834,764.144,-9.24469
1834.37,764.544,-9.24856
1834.74,764.944,-9.25041
1835.12,765.344,-9.25496
1835.49,765.744,-9.2625
1835.865,766.144,-9.26494
1836.24,766.544,-9.26246
1836.61,766.944,-9.26512
1836.984,767.344,-9.26358
1837.36,767.744,-9.26748
1837.73,768.144,-9.26547
1838.1,768.544,-9.26536
1838.48,768.944,-9.26558
1838.85,769.344,-9.26506
1839.23,769.744,-9.26635
1839.6,770.144,-9.26879
1839.98,770.544,-9.27174
1840.35,770.944,-9.27466
1840.731,771.344,-9.27349
1841.11,771.744,-9.2733
1841.484,772.144,-9.27095
1841.86,772.544,-9.26827
1842.24,772.944,-9.26862
1842.62,773.344,-9.26748
1843,773.744,-9.26646
1843.38,774.144,-9.26977
1843.75,774.544,-9.26673
1844.13,774.944,-9.26058
1844.51,775.344,-9.26001
1844.89,775.744,-9.25869
1845.27,776.144,-9.25988
1845.648,776.544,-9.2596
1846.03,776.944,-9.25808
1846.41,777.344,-9.26019
1846.788,777.744,-9.25613
1847.17,778.144,-9.25653
1847.55,778.544,-9.25183
1847.93,778.944,-9.24607
1848.31,779.344,-9.24336
1848.69,779.744,-9.24351
1849.07,780.144,-9.23738
1849.45,780.544,-9.23385
1849.84,780.944,-9.23163
1850.22,781.344,-9.23041
1850.6,781.744,-9.22071
1850.98,782.144,-9.21867
1851.37,782.544,-9.21966
1851.75,782.944,-9.21487
1852.131,783.344,-9.21243
1852.51,783.744,-9.20852
1852.9,784.144,-9.20861
1853.28,784.544,-9.20592
1853.67,784.944,-9.20471
1854.051,785.344,-9.20056
1854.44,785.744,-9.19787
1854.82,786.144,-9.19267
1855.21,786.544,-9.1902
1855.59,786.944,-9.18697
1855.98,787.344,-9.1889
1856.364,787.744,-9.18395
1856.75,788.144,-9.18182
1857.14,788.544,-9.18068
1857.52,788.944,-9.17914
1857.91,789.344,-9.1817
1858.296,789.744,-9.18105
1858.683,790.144,-9.17696
1859.07,790.544,-9.17852
1859.46,790.944,-9.17495
1859.847,791.344,-9.17313
1860.24,791.744,-9.16696
1860.62,792.144,-9.16757
1861.01,792.544,-9.16172
1861.401,792.944,-9.15618
1861.79,793.344,-9.15376
1862.18,793.744,-9.14815
1862.57,794.144,-9.14649
1862.96,794.544,-9.14128
1863.35,794.944,-9.13936
1863.74,795.344,-9.13541
1864.131,795.744,-9.13302
1864.52,796.144,-9.13046
1864.91,796.544,-9.13293
1865.3,796.944,-9.13135
1865.7,797.344,-9.12843
1866.09,797.744,-9.12614
1866.48,798.144,-9.1199
1866.87,798.544,-9.11836
1867.27,798.944,-9.11272
1867.66,799.344,-9.11665
1868.05,799.744,-9.11856
1868.448,800.144,-9.11613
1868.84,800.544,-9.10764
1869.24,800.944,-9.107
1869.63,801.344,-9.10705
1870.026,801.744,-9.10319
1870.42,802.144,-9.1029
1870.82,802.544,-9.10566
1871.21,802.944,-9.10091
1871.61,803.344,-9.09939
1872,803.744,-9.09442
1872.4,804.144,-9.09036
1872.79,804.544,-9.08876
1873.188,804.944,-9.08408
1873.58,805.344,-9.08125
1873.98,805.744,-9.07656
1874.38,806.144,-9.07568
1874.77,806.544,-9.07299
1875.17,806.944,-9.07092
1875.57,807.344,-9.06806
1875.97,807.744,-9.0682
1876.365,808.144,-9.06579
1876.76,808.544,-9.0645
1877.16,808.944,-9.05981
1877.56,809.344,-9.058
1877.96,809.744,-9.0586
1878.36,810.144,-9.05682
1878.76,810.544,-9.05399
1879.16,810.944,-9.05461
1879.56,811.344,-9.04957
1879.959,811.744,-9.04807
1880.358,812.144,-9.04634
1880.76,812.544,-9.03801
1881.159,812.944,-9.03506
1881.56,813.344,-9.03045
1881.96,813.744,-9.03055
1882.36,814.144,-9.02948
1882.77,814.544,-9.03039
1883.16,814.944,-9.02669
1883.56,815.344,-9.02285
1883.91,815.644,-9.02279