File: PMMA/Calibration_Data/Sandia/Sandia_TGA_Ar_1K_1.csv
Time,Temperature,Mass
[s],[K],[mg]
1202.3,307.031,4.929
1434.88,307.531,4.93
1513.28,308.031,4.9311
1573.47,308.531,4.9281
1624.67,309.031,4.93
1670.68,309.531,4.9321
1713.906,310.031,4.931
1755.36,310.531,4.9326
1795.12,311.031,4.933
1833.26,311.531,4.931
1870.137,312.031,4.931
1906.19,312.531,4.9295
1941.42,313.031,4.931
1976.28,313.531,4.932
2010.426,314.031,4.9308
2044.3,314.531,4.9309
2077.69,315.031,4.9289
2110.66,315.531,4.929
2143.473,316.031,4.9308
2175.96,316.531,4.93
2208.444,317.031,4.932
2240.77,317.531,4.9283
2272.803,318.031,4.93
2304.78,318.531,4.931
2336.56,319.031,4.932
2368.23,319.531,4.933
2399.796,320.031,4.933
2431.12,320.531,4.932
2462.42,321.031,4.931
2493.57,321.531,4.931
2524.74,322.031,4.931
2555.9,322.531,4.931
2586.9,323.031,4.931
2617.842,323.531,4.931
2648.67,324.031,4.931
2679.53,324.531,4.932
2710.36,325.031,4.9332
2741.12,325.531,4.9312
2771.793,326.031,4.931
2802.29,326.531,4.931
2832.762,327.031,4.9313
2863.1,327.531,4.931
2893.46,328.031,4.9297
2923.8,328.531,4.9299
2954.07,329.031,4.929
2984.33,329.531,4.9281
3014.63,330.031,4.9289
3044.81,330.531,4.929
3074.97,331.031,4.9295
3105.14,331.531,4.931
3135.29,332.031,4.931
3165.42,332.531,4.932
3195.462,333.031,4.9315
3225.43,333.531,4.93
3255.27,334.031,4.9309
3285.08,334.531,4.9301
3314.99,335.031,4.93
3344.78,335.531,4.93
3374.676,336.031,4.9287
3404.49,336.531,4.928
3434.24,337.031,4.927
3464.08,337.531,4.9281
3493.84,338.031,4.9278
3523.6,338.531,4.928
3553.38,339.031,4.9289
3583.11,339.531,4.928
3612.69,340.031,4.928
3642.18,340.531,4.926
3671.52,341.031,4.926
3700.86,341.531,4.924
3730.188,342.031,4.9241
3759.56,342.531,4.925
3789.06,343.031,4.925
3818.415,343.531,4.923
3847.62,344.031,4.925
3876.702,344.531,4.924
3905.72,345.031,4.9252
3934.68,345.531,4.9269
3963.7,346.031,4.925
3992.82,346.531,4.926
4021.98,347.031,4.9271
4051.092,347.531,4.926
4080.12,348.031,4.926
4109.067,348.531,4.925
4137.885,349.031,4.925
4166.7,349.531,4.925
4195.65,350.031,4.926
4224.64,350.531,4.926
4253.73,351.031,4.924
4282.79,351.531,4.922
4311.789,352.031,4.922
4340.76,352.531,4.922
4369.66,353.031,4.922
4398.43,353.531,4.922
4427.22,354.031,4.9214
4455.92,354.531,4.922
4484.69,355.031,4.921
4513.54,355.531,4.922
4542.36,356.031,4.922
4571.16,356.531,4.922
4600.04,357.031,4.9225
4628.78,357.531,4.922
4657.563,358.031,4.924
4686.327,358.531,4.922
4714.95,359.031,4.922
4743.56,359.531,4.9201
4772.04,360.031,4.92
4800.42,360.531,4.918
4828.7,361.031,4.918
4857.03,361.531,4.92
4885.452,362.031,4.9207
4913.799,362.531,4.919
4942.32,363.031,4.919
4970.901,363.531,4.919
4999.185,364.031,4.919
5027.59,364.531,4.918
5055.82,365.031,4.918
5084.02,365.531,4.918
5112.31,366.031,4.918
5140.64,366.531,4.917
5169.02,367.031,4.917
5197.32,367.531,4.9159
5225.52,368.031,4.9173
5253.768,368.531,4.917
5281.962,369.031,4.916
5310.198,369.531,4.915
5338.44,370.031,4.915
5366.68,370.531,4.914
5394.98,371.031,4.914
5423.36,371.531,4.914
5451.65,372.031,4.91199
5480,372.531,4.91297
5508.32,373.031,4.913
5536.56,373.531,4.91298
5564.781,374.031,4.913
5593.08,374.531,4.913
5621.292,375.031,4.915
5649.53,375.531,4.915
5677.77,376.031,4.915
5705.946,376.531,4.91299
5734.08,377.031,4.913
5762.13,377.531,4.913
5790.16,378.031,4.915
5818.227,378.531,4.913
5846.331,379.031,4.912
5874.52,379.531,4.911
5902.71,380.031,4.91105
5930.81,380.531,4.91182
5958.87,381.031,4.91103
5986.92,381.531,4.913
6015.05,382.031,4.91092
6043.29,382.531,4.911
6071.52,383.031,4.91001
6099.741,383.531,4.91
6127.91,384.031,4.90799
6155.97,384.531,4.908
6184.035,385.031,4.907
6212.14,385.531,4.907
6240.23,386.031,4.907
6268.35,386.531,4.907
6296.41,387.031,4.90811
6324.47,387.531,4.909
6352.39,388.031,4.909
6380.25,388.531,4.90799
6408.08,389.031,4.907
6435.94,389.531,4.908
6463.96,390.031,4.908
6492.02,390.531,4.908
6520.047,391.031,4.908
6547.97,391.531,4.90802
6575.82,392.031,4.909
6603.63,392.531,4.907
6631.446,393.031,4.907
6659.24,393.531,4.907
6687,394.031,4.90494
6714.7,394.531,4.906
6742.32,395.031,4.90537
6769.983,395.531,4.904
6797.61,396.031,4.905
6825.35,396.531,4.905
6852.99,397.031,4.905
6880.671,397.531,4.905
6908.35,398.031,4.9041
6936.07,398.531,4.904
6963.79,399.031,4.90302
6991.479,399.531,4.903
7019.2,400.031,4.902
7046.92,400.531,4.901
7074.696,401.031,4.901
7102.48,401.531,4.901
7130.27,402.031,4.9
7158.04,402.531,4.9
7185.71,403.031,4.9
7213.32,403.531,4.9
7240.986,404.031,4.9
7268.67,404.531,4.90011
7296.4,405.031,4.899
7324.15,405.531,4.898
7351.82,406.031,4.898
7379.51,406.531,4.89602
7407.11,407.031,4.896
7434.798,407.531,4.89598
7462.53,408.031,4.89509
7490.3,408.531,4.893
7518,409.031,4.889
7545.67,409.531,4.89
7573.17,410.031,4.891
7600.73,410.531,4.891
7628.331,411.031,4.8891
7655.8,411.531,4.889
7683.31,412.031,4.889
7710.72,412.531,4.889
7738.098,413.031,4.887
7765.51,413.531,4.8849
7792.97,414.031,4.8839
7820.51,414.531,4.883
7848.11,415.031,4.883
7875.65,415.531,4.883
7903.22,416.031,4.883
7930.79,416.531,4.8831
7958.286,417.031,4.882
7985.844,417.531,4.88
8013.34,418.031,4.879
8040.76,418.531,4.8771
8068.14,419.031,4.876
8095.55,419.531,4.875
8122.94,420.031,4.874
8150.32,420.531,4.873
8177.71,421.031,4.873
8205.135,421.531,4.8721
8232.52,422.031,4.8698
8259.85,422.531,4.867
8287.24,423.031,4.867
8314.605,423.531,4.8641
8341.83,424.031,4.8631
8369.1,424.531,4.86
8396.44,425.031,4.86
8423.802,425.531,4.858
8451.29,426.031,4.858
8478.84,426.531,4.856
8506.41,427.031,4.8539
8533.86,427.531,4.853
8561.331,428.031,4.8511
8588.802,428.531,4.8483
8616.25,429.031,4.847
8643.726,429.531,4.846
8671.33,430.031,4.843
8698.938,430.531,4.8408
8726.63,431.031,4.8401
8754.3,431.531,4.836
8781.99,432.031,4.8329
8809.71,432.531,4.8321
8837.37,433.031,4.831
8865.1,433.531,4.829
8892.825,434.031,4.827
8920.53,434.531,4.823
8948.25,435.031,4.82
8975.937,435.531,4.818
9003.6,436.031,4.816
9031.26,436.531,4.812
9058.93,437.031,4.8089
9086.59,437.531,4.8069
9114.33,438.031,4.8061
9142.122,438.531,4.8039
9169.83,439.031,4.803
9197.6,439.531,4.79888
9225.35,440.031,4.797
9253.116,440.531,4.795
9280.82,441.031,4.793
9308.55,441.531,4.791
9336.22,442.031,4.78802
9363.906,442.531,4.787
9391.59,443.031,4.78604
9419.31,443.531,4.78421
9447.06,444.031,4.78298
9474.79,444.531,4.78198
9502.53,445.031,4.78001
9530.23,445.531,4.778
9557.94,446.031,4.77601
9585.67,446.531,4.774
9613.42,447.031,4.77199
9641.24,447.531,4.76905
9669,448.031,4.76696
9696.81,448.531,4.766
9724.56,449.031,4.765
9752.22,449.531,4.765
9779.86,450.031,4.764
9807.42,450.531,4.763
9835,451.031,4.762
9862.54,451.531,4.761
9890.21,452.031,4.76
9917.865,452.531,4.759
9945.53,453.031,4.757
9973.31,453.531,4.757
10001.1,454.031,4.757
10028.9,454.531,4.75389
10056.7,455.031,4.754
10084.3,455.531,4.753
10111.9,456.031,4.751
10139.5,456.531,4.75098
10167.3,457.031,4.74778
10194.9,457.531,4.74699
10222.689,458.031,4.747
10250.4,458.531,4.747
10278,459.031,4.74599
10305.6,459.531,4.746
10333.2,460.031,4.746
10360.9,460.531,4.746
10388.5,461.031,4.74538
10416.1,461.531,4.745
10443.726,462.031,4.744
10471.3,462.531,4.744
10498.812,463.031,4.74198
10526.3,463.531,4.741
10553.772,464.031,4.74
10581.3,464.531,4.74
10608.6,465.031,4.738
10635.9,465.531,4.74014
10663.2,466.031,4.74
10690.497,466.531,4.74
10717.797,467.031,4.739
10745.1,467.531,4.739
10772.5,468.031,4.739
10799.8,468.531,4.737
10827.1,469.031,4.737
10854.4,469.531,4.737
10881.8,470.031,4.737
10909.2,470.531,4.737
10936.527,471.031,4.737
10964,471.531,4.737
10991.451,472.031,4.737
11018.7,472.531,4.736
11046,473.031,4.736
11073.333,473.531,4.736
11100.6,474.031,4.736
11127.9,474.531,4.736
11155.2,475.031,4.736
11182.3,475.531,4.736
11209.3,476.031,4.736
11236.3,476.531,4.734
11263.3,477.031,4.734
11290.3,477.531,4.734
11317.3,478.031,4.73411
11344.4,478.531,4.73306
11371.5,479.031,4.73
11398.6,479.531,4.73
11425.8,480.031,4.73
11453.1,480.531,4.73
11480.5,481.031,4.73
11507.8,481.531,4.73
11535.2,482.031,4.73
11562.5,482.531,4.73
11589.8,483.031,4.73223
11617.071,483.531,4.73397
11644.4,484.031,4.734
11671.7,484.531,4.734
11699,485.031,4.734
11726.4,485.531,4.734
11753.8,486.031,4.734
11781.1,486.531,4.731
11808.576,487.031,4.73
11836,487.531,4.73
11863.5,488.031,4.73
11890.989,488.531,4.73
11918.511,489.031,4.73
11946.1,489.531,4.73
11973.6,490.031,4.73
12001.3,490.531,4.73
12028.851,491.031,4.73
12056.5,491.531,4.72881
12084.2,492.031,4.727
12111.9,492.531,4.727
12139.6,493.031,4.727
12167.3,493.531,4.727
12195,494.031,4.72599
12222.6,494.531,4.725
12250.1,495.031,4.725
12277.491,495.531,4.72394
12304.815,496.031,4.722
12332.2,496.531,4.722
12359.5,497.031,4.722
12386.9,497.531,4.72
12414.2,498.031,4.72
12441.6,498.531,4.72
12468.8,499.031,4.72016
12496,499.531,4.718
12523.2,500.031,4.718
12550.5,500.531,4.718
12577.8,501.031,4.7159
12605.082,501.531,4.716
12632.5,502.031,4.71382
12659.9,502.531,4.71299
12687.4,503.031,4.71199
12715,503.531,4.712
12742.8,504.031,4.711
12770.6,504.531,4.711
12798.3,505.031,4.71
12826.152,505.531,4.709
12853.9,506.031,4.709
12881.5,506.531,4.70907
12909,507.031,4.70602
12936.6,507.531,4.705
12964.029,508.031,4.70395
12991.6,508.531,4.702
13019.2,509.031,4.701
13046.7,509.531,4.69904
13074.2,510.031,4.69733
13101.7,510.531,4.69402
13129.3,511.031,4.692
13156.8,511.531,4.69
13184.3,512.031,4.68949
13211.8,512.531,4.688
13239.3,513.031,4.68709
13266.9,513.531,4.685
13294.7,514.031,4.6851
13322.5,514.531,4.68295
13350.3,515.031,4.68197
13378.1,515.531,4.67881
13405.7,516.031,4.67742
13433.2,516.531,4.677
13460.6,517.031,4.675
13487.8,517.531,4.675
13515.165,518.031,4.673
13542.7,518.531,4.67098
13570.4,519.031,4.669
13598.1,519.531,4.66705
13626.1,520.031,4.66503
13653.93,520.531,4.66399
13681.8,521.031,4.662
13710,521.531,4.65994
13738.1,522.031,4.659
13766.406,522.531,4.657
13794.8,523.031,4.655
13823.1,523.531,4.65297
13851.669,524.031,4.651
13880.2,524.531,4.64789
13908.6,525.031,4.64489
13937.1,525.531,4.643
13965.5,526.031,4.63898
13994,526.531,4.63599
14022.438,527.031,4.6362
14050.9,527.531,4.63096
14079.36,528.031,4.62909
14107.8,528.531,4.626
14136.2,529.031,4.62502
14164.6,529.531,4.62101
14193,530.031,4.61903
14221.4,530.531,4.61694
14249.9,531.031,4.6152
14278.5,531.531,4.61061
14307,532.031,4.60806
14335.5,532.531,4.605
14364,533.031,4.60199
14392.467,533.531,4.60001
14420.8,534.031,4.59648
14449.3,534.531,4.59484
14477.7,535.031,4.58987
14506.1,535.531,4.5868
14534.4,536.031,4.58402
14562.7,536.531,4.57994
14591.1,537.031,4.57801
14619.4,537.531,4.57387
14647.8,538.031,4.57073
14676.2,538.531,4.56805
14704.707,539.031,4.562
14733.2,539.531,4.55816
14761.8,540.031,4.554
14790.366,540.531,4.54994
14819,541.031,4.54855
14847.6,541.531,4.54405
14876.3,542.031,4.53999
14904.9,542.531,4.53708
14933.6,543.031,4.53407
14962.2,543.531,4.5319
14990.9,544.031,4.52859
15019.6,544.531,4.52508
15048.2,545.031,4.51995
15076.908,545.531,4.51601
15105.6,546.031,4.51199
15134.292,546.531,4.507
15163,547.031,4.50304
15191.8,547.531,4.49998
15220.56,548.031,4.49603
15249.3,548.531,4.49009
15278.1,549.031,4.48601
15306.906,549.531,4.48097
15335.7,550.031,4.47704
15364.5,550.531,4.47295
15393.1,551.031,4.46901
15421.8,551.531,4.46502
15450.414,552.031,4.45994
15479.007,552.531,4.45603
15507.7,553.031,4.45099
15536.3,553.531,4.4468
15564.963,554.031,4.44287
15593.6,554.531,4.43911
15622.3,555.031,4.4344
15651,555.531,4.43049
15679.7,556.031,4.42489
15708.5,556.531,4.42176
15737.4,557.031,4.41479
15766.2,557.531,4.41102
15795.1,558.031,4.40574
15823.9,558.531,4.39779
15852.6,559.031,4.39543
15881.4,559.531,4.3897
15910.2,560.031,4.38489
15939,560.531,4.38097
15967.8,561.031,4.37647
15996.7,561.531,4.37087
16025.751,562.031,4.36654
16054.8,562.531,4.36119
16083.8,563.031,4.35566
16112.9,563.531,4.34922
16141.9,564.031,4.34403
16170.9,564.531,4.33812
16199.8,565.031,4.33402
16228.7,565.531,4.328
16257.6,566.031,4.32397
16286.3,566.531,4.318
16315.1,567.031,4.312
16343.8,567.531,4.30601
16372.5,568.031,4.29996
16401.1,568.531,4.29398
16429.7,569.031,4.28789
16458.4,569.531,4.28227
16487.1,570.031,4.27479
16515.9,570.531,4.26804
16544.769,571.031,4.26088
16573.7,571.531,4.25545
16602.7,572.031,4.24913
16631.598,572.531,4.24312
16660.5,573.031,4.23502
16689.5,573.531,4.22702
16718.307,574.031,4.22
16747.3,574.531,4.21191
16776.222,575.031,4.2058
16805.268,575.531,4.19704
16834.4,576.031,4.18874
16863.5,576.531,4.18147
16892.7,577.031,4.17294
16921.8,577.531,4.16337
16950.9,578.031,4.15604
16979.9,578.531,4.148
17008.9,579.031,4.13892
17038,579.531,4.12899
17067,580.031,4.12018
17096.1,580.531,4.11098
17125.2,581.031,4.10108
17154.3,581.531,4.08979
17183.5,582.031,4.08019
17212.7,582.531,4.06902
17241.8,583.031,4.05686
17270.9,583.531,4.04455
17300.1,584.031,4.03393
17329.3,584.531,4.02044
17358.5,585.031,4.00827
17387.7,585.531,3.99608
17416.806,586.031,3.98297
17446,586.531,3.96885
17475.1,587.031,3.95466
17504.2,587.531,3.94044
17533.4,588.031,3.92601
17562.4,588.531,3.90926
17591.4,589.031,3.8955
17620.419,589.531,3.87832
17649.411,590.031,3.86203
17678.4,590.531,3.84489
17707.4,591.031,3.82697
17736.5,591.531,3.80747
17765.5,592.031,3.78786
17794.38,592.531,3.7695
17823.3,593.031,3.74993
17852.1,593.531,3.72927
17881,594.031,3.70808
17909.9,594.531,3.68595
17938.9,595.031,3.66453
17968,595.531,3.64159
17997,596.031,3.61746
18026.1,596.531,3.59218
18055.1,597.031,3.56805
18084,597.531,3.54192
18112.8,598.031,3.51584
18141.7,598.531,3.48888
18170.5,599.031,3.46075
18199.4,599.531,3.43494
18228.213,600.031,3.40548
18257.058,600.531,3.37266
18285.9,601.031,3.34176
18314.7,601.531,3.3097
18343.5,602.031,3.27552
18372.3,602.531,3.24351
18401.259,603.031,3.20917
18430.2,603.531,3.17785
18459.1,604.031,3.14092
18488.1,604.531,3.10504
18517,605.031,3.06697
18546.045,605.531,3.03084
18575.2,606.031,2.99275
18604.4,606.531,2.95444
18633.663,607.031,2.91476
18662.8,607.531,2.87539
18691.9,608.031,2.83608
18720.9,608.531,2.79601
18749.9,609.031,2.75479
18778.9,609.531,2.71588
18808,610.031,2.67607
18836.898,610.531,2.63553
18865.6,611.031,2.59501
18894.2,611.531,2.55559
18922.7,612.031,2.51554
18951.3,612.531,2.47485
18980.1,613.031,2.43325
19009.1,613.531,2.38986
19038.4,614.031,2.34289
19067.7,614.531,2.29918
19096.9,615.031,2.25857
19125.993,615.531,2.21437
19154.9,616.031,2.17114
19183.8,616.531,2.1269
19212.8,617.031,2.08187
19241.8,617.531,2.03918
19270.7,618.031,2.00052
19299.7,618.531,1.95572
19328.7,619.031,1.91057
19357.7,619.531,1.87089
19386.6,620.031,1.82587
19415.7,620.531,1.78234
19445,621.031,1.73962
19474.275,621.531,1.6937
19503.7,622.031,1.65086
19532.9,622.531,1.607
19562,623.031,1.56138
19591.1,623.531,1.52095
19620.315,624.031,1.48041
19649.6,624.531,1.43879
19678.8,625.031,1.39686
19707.951,625.531,1.35701
19737.1,626.031,1.31572
19766.2,626.531,1.27612
19795.4,627.031,1.23639
19824.6,627.531,1.19579
19853.9,628.031,1.15602
19883.1,628.531,1.11866
19912.4,629.031,1.08129
19941.8,629.531,1.04458
19971.2,630.031,1.00848
20000.4,630.531,0.97492
20029.6,631.031,0.94253
20058.8,631.531,0.90934
20087.9,632.031,0.87603
20117,632.531,0.84568
20146.3,633.031,0.81597
20175.7,633.531,0.78474
20205,634.031,0.75543
20234.508,634.531,0.72686
20264.1,635.031,0.70078
20293.7,635.531,0.67247
20323.4,636.031,0.64684
20353.056,636.531,0.62013
20382.6,637.031,0.59618
20411.9,637.531,0.56999
20441.184,638.031,0.54577
20470.386,638.531,0.52364
20499.6,639.031,0.50192
20528.8,639.531,0.48164
20558,640.031,0.46047
20587.1,640.531,0.44097
20616.4,641.031,0.42451
20645.67,641.531,0.40596
20675.2,642.031,0.38852
20704.845,642.531,0.37097
20734.7,643.031,0.35442
20764.8,643.531,0.34097
20794.992,644.031,0.32608
20825.3,644.531,0.31175
20855.5,645.031,0.29833
20885.6,645.531,0.2834
20915.5,646.031,0.27107
20945.3,646.531,0.2597
20975,647.031,0.24755
21004.608,647.531,0.23805
21034.3,648.031,0.22776
21063.8,648.531,0.21782
21093.2,649.031,0.20915
21122.6,649.531,0.19898
21151.9,650.031,0.19112
21181.404,650.531,0.18071
21211,651.031,0.17401
21240.555,651.531,0.16656
21270.2,652.031,0.15927
21299.8,652.531,0.15301
21329.5,653.031,0.14638
21359.208,653.531,0.13903
21388.9,654.031,0.13489
21418.4,654.531,0.12901
21447.9,655.031,0.12333
21477.3,655.531,0.11907
21506.7,656.031,0.11286
21536.184,656.531,0.10791
21565.8,657.031,0.10511
21595.4,657.531,0.10005
21625.1,658.031,0.09504
21654.687,658.531,0.08997
21684.2,659.031,0.08702
21713.8,659.531,0.08204
21743.2,660.031,0.07587
21772.7,660.531,0.074
21802.2,661.031,0.07006
21831.7,661.531,0.06697
21861.3,662.031,0.063
21890.9,662.531,0.06076
21920.724,663.031,0.05659
21950.6,663.531,0.05388
21980.6,664.031,0.05136
22010.6,664.531,0.04891
22040.6,665.031,0.046
22070.7,665.531,0.04396
22100.8,666.031,0.044
22130.8,666.531,0.043
22160.6,667.031,0.04096
22190.445,667.531,0.039
22220.2,668.031,0.038
22250,668.531,0.038
22279.8,669.031,0.0369
22309.6,669.531,0.037
22339.4,670.031,0.03505
22369.134,670.531,0.034
22398.8,671.031,0.033
22428.471,671.531,0.0322
22458.192,672.031,0.033
22487.8,672.531,0.03201
22517.6,673.031,0.032
22547.5,673.531,0.032
22577.5,674.031,0.032
22607.9,674.531,0.032
22638.6,675.031,0.032
22669.6,675.531,0.03
22700.94,676.031,0.03
22732.2,676.531,0.03
22763.3,677.031,0.02803
22794.2,677.531,0.028
22825,678.031,0.029
22855.695,678.531,0.02901
22886.6,679.031,0.027
22917.5,679.531,0.028
22948.7,680.031,0.028
22979.8,680.531,0.029
23010.9,681.031,0.0291
23041.8,681.531,0.027
23072.4,682.031,0.027
23103,682.531,0.027
23133.6,683.031,0.027
23164.3,683.531,0.027
23195.1,684.031,0.027
23225.7,684.531,0.02699
23256.3,685.031,0.028
23286.7,685.531,0.028
23317,686.031,0.028
23347.1,686.531,0.028
23377.2,687.031,0.028
23407.3,687.531,0.028
23437.458,688.031,0.029
23467.7,688.531,0.029
23497.9,689.031,0.029
23528.1,689.531,0.029
23558.3,690.031,0.02901
23588.55,690.531,0.027
23618.8,691.031,0.027
23649,691.531,0.027
23679.5,692.031,0.027
23710.065,692.531,0.027
23740.8,693.031,0.02496
23771.7,693.531,0.02394
23802.417,694.031,0.025
23833.2,694.531,0.025
23863.8,695.031,0.025
23894.286,695.531,0.025
23924.8,696.031,0.025
23955.243,696.531,0.025
23985.8,697.031,0.025
24016.4,697.531,0.025
24047,698.031,0.025
24077.5,698.531,0.025
24108.012,699.031,0.025
24138.4,699.531,0.02498
24168.7,700.031,0.026
24199,700.531,0.026
24229.098,701.031,0.028
24259.2,701.531,0.027
24289.311,702.031,0.027
24319.503,702.531,0.027
24349.7,703.031,0.027
24380.1,703.531,0.027
24410.6,704.031,0.027
24441.2,704.531,0.027
24472.1,705.031,0.027
24503.3,705.531,0.02595
24535.1,706.031,0.026
24567.1,706.531,0.026
24599.166,707.031,0.02645
24631.1,707.531,0.027
24662.8,708.031,0.027
24694.3,708.531,0.027
24725.8,709.031,0.027
24757.5,709.531,0.026
24789.3,710.031,0.026
24821.3,710.531,0.026
24853.3,711.031,0.026
24884.952,711.531,0.026
24916.548,712.031,0.026
24947.991,712.531,0.026
24979.5,713.031,0.026
25011.195,713.531,0.026
25043.2,714.031,0.02601
25075.4,714.531,0.025
25107.9,715.031,0.025
25140.3,715.531,0.025
25172.6,716.031,0.025
25204.6,716.531,0.025
25236.4,717.031,0.025
25268.2,717.531,0.025
25299.8,718.031,0.025
25331.2,718.531,0.025
25362.543,719.031,0.0242
25393.7,719.531,0.022
25424.7,720.031,0.024
25455.624,720.531,0.024
25486.5,721.031,0.024
25517.295,721.531,0.024
25548.1,722.031,0.024
25578.9,722.531,0.024
25609.8,723.031,0.026
25640.6,723.531,0.026
25671.6,724.031,0.026
25702.6,724.531,0.026
25733.5,725.031,0.026
25764.7,725.531,0.026
25795.959,726.031,0.026
25827.261,726.531,0.02499
25858.8,727.031,0.025
25890.4,727.531,0.025
25922,728.031,0.026
25953.756,728.531,0.026
25985.5,729.031,0.026
26017.5,729.531,0.026
26049.486,730.031,0.026
26081.8,730.531,0.026
26114.505,731.031,0.027
26147.4,731.531,0.027
26180.3,732.031,0.026
26213.037,732.531,0.026
26245.4,733.031,0.026
26277.4,733.531,0.026
26309,734.031,0.026
26340.6,734.531,0.02399
26372.1,735.031,0.024
26403.7,735.531,0.025
26435.5,736.031,0.025
26467.4,736.531,0.02497
26499.3,737.031,0.02638
26531.1,737.531,0.027
26562.9,738.031,0.027
26594.595,738.531,0.027
26626.3,739.031,0.027
26658,739.531,0.027
26689.68,740.031,0.027
26721.5,740.531,0.027
26753.4,741.031,0.028
26785.245,741.531,0.028
26817.159,742.031,0.029
26849.163,742.531,0.029
26881.2,743.031,0.02997
26913.5,743.531,0.03
26946,744.031,0.028
26978.9,744.531,0.028
27012.1,745.031,0.028
27045.2,745.531,0.029
27078,746.031,0.029
27110.3,746.531,0.029
27142,747.031,0.029
27173.1,747.531,0.029
27203.9,748.031,0.029
27234.5,748.531,0.029
27265,749.031,0.029
27295.8,749.531,0.029
27326.8,750.031,0.029
27358,750.531,0.031
27389.3,751.031,0.03
27420.8,751.531,0.02903
27452.3,752.031,0.029
27483.9,752.531,0.02797
27515.718,753.031,0.027
27547.6,753.531,0.027
27579.327,754.031,0.027
27611,754.531,0.027
27642.6,755.031,0.029
27674.1,755.531,0.029
27705.4,756.031,0.029
27736.644,756.531,0.028
27767.9,757.031,0.028
27799,757.531,0.028
27830.3,758.031,0.028
27861.8,758.531,0.029
27893.4,759.031,0.029
27925.1,759.531,0.029
27956.9,760.031,0.029
27988.665,760.531,0.029
28020.5,761.031,0.029
28052.352,761.531,0.029
28084.1,762.031,0.029
28115.9,762.531,0.02799
28147.5,763.031,0.029
28179,763.531,0.029
28210.5,764.031,0.029
28242,764.531,0.029
28273.4,765.031,0.02833
28304.9,765.531,0.028
28336.3,766.031,0.028
28367.9,766.531,0.028
28399.5,767.031,0.028
28431.4,767.531,0.03021
28463.3,768.031,0.03
28495.1,768.531,0.03
28526.9,769.031,0.029
28558.6,769.531,0.02803
28590.2,770.031,0.028
28622.1,770.531,0.029
28654.1,771.031,0.029
28686.4,771.531,0.029
28719.018,772.031,0.029
28752.1,772.531,0.028
28785.4,773.031,0.028
28819.1,773.531,0.028
28852.9,774.031,0.028
28886.8,774.531,0.028
28920.5,775.031,0.026
28953.9,775.531,0.027
28986.8,776.031,0.027
29019,776.531,0.027
29050.6,777.031,0.027
29081.8,777.531,0.028
29112.7,778.031,0.028
29143.5,778.531,0.028
29174.4,779.031,0.02802
29205.5,779.531,0.026
29236.6,780.031,0.026
29267.7,780.531,0.026
29298.7,781.031,0.026
29329.6,781.531,0.026
29360.4,782.031,0.02709
29391.2,782.531,0.027
29422.2,783.031,0.027
29453.5,783.531,0.027
29485.2,784.031,0.027
29517.3,784.531,0.025
29549.6,785.031,0.025
29582.1,785.531,0.025
29614.956,786.031,0.025
29648.3,786.531,0.025
29682.4,787.031,0.025
29716.953,787.531,0.025
29751.4,788.031,0.02547
29785.3,788.531,0.02599
29818.2,789.031,0.027
29850.2,789.531,0.02694
29881.5,790.031,0.025
29912.433,790.531,0.025
29943.2,791.031,0.02508
29974,791.531,0.024
30005.2,792.031,0.024
30036.876,792.531,0.024
30069.1,793.031,0.02392
30101.637,793.531,0.02502
30134.3,794.031,0.026
30166.7,794.531,0.02651
30199,795.031,0.028
30231.1,795.531,0.028
30263.2,796.031,0.028
30295.4,796.531,0.028
30327.336,797.031,0.028
30359.2,797.531,0.028
30390.9,798.031,0.028
30422.508,798.531,0.028
30454.4,799.031,0.02804
30486.7,799.531,0.03
30519.5,800.031,0.03
30552.6,800.531,0.02799
30586.1,801.031,0.028
30619.5,801.531,0.027
30652.8,802.031,0.027
30685.8,802.531,0.027
30718.6,803.031,0.027
30751.215,803.531,0.027
30784,804.031,0.0268
30816.9,804.531,0.029
30849.8,805.031,0.029
30883.1,805.531,0.028
30916.263,806.031,0.027
30949.4,806.531,0.027
30982.2,807.031,0.027
31014.834,807.531,0.026
31047.303,808.031,0.028
31080,808.531,0.028
31112.6,809.031,0.028
31145.3,809.531,0.028
31178.1,810.031,0.03
31210.8,810.531,0.029
31243.425,811.031,0.029
31275.8,811.531,0.02792
31307.874,812.031,0.028
31339.7,812.531,0.028
31371.5,813.031,0.028
31403.184,813.531,0.028
31434.7,814.031,0.026
31466.31,814.531,0.026
31498.02,815.031,0.024
31529.8,815.531,0.025
31561.8,816.031,0.025
31593.7,816.531,0.02502
31625.6,817.031,0.024
31657.2,817.531,0.02497
31688.586,818.031,0.02399
31719.7,818.531,0.02314
31750.569,819.031,0.02291
31781.3,819.531,0.024
31811.9,820.031,0.024
31842.7,820.531,0.025
31873.6,821.031,0.026
31904.9,821.531,0.026
31936.6,822.031,0.026
31968.735,822.531,0.027
32001.5,823.031,0.027
32034.5,823.531,0.027
32067.7,824.031,0.02794
32100.6,824.531,0.026
32133.3,825.031,0.026
32165.9,825.531,0.026
32198.526,826.031,0.02705
32231.2,826.531,0.02503
32264,827.031,0.025
32296.7,827.531,0.026
32329.3,828.031,0.027
32361.7,828.531,0.027
32393.7,829.031,0.025
32425.6,829.531,0.025
32457.3,830.031,0.025
32489,830.531,0.026
32520.699,831.031,0.026
32552.7,831.531,0.027
32585,832.031,0.02689
32617.6,832.531,0.028
32650.5,833.031,0.028
32683.4,833.531,0.028
32716.2,834.031,0.028
32748.7,834.531,0.028
32781.2,835.031,0.02697
32813.7,835.531,0.02599
32846.6,836.031,0.02712
32880,836.531,0.027
32913.954,837.031,0.027
32948.2,837.531,0.027
32982.48,838.031,0.027
33016.6,838.531,0.027
33050.6,839.031,0.027
33084.3,839.531,0.027
33117.78,840.031,0.027
33151,840.531,0.02599
33184,841.031,0.02393
33216.7,841.531,0.026
33249.5,842.031,0.025
33282.2,842.531,0.025
33315,843.031,0.025
33348.009,843.531,0.025
33381.2,844.031,0.025
33414.7,844.531,0.025
33448.6,845.031,0.025
33482.565,845.531,0.025
33516.4,846.031,0.025
33549.81,846.531,0.025
33582.666,847.031,0.025
33615,847.531,0.025
33647.1,848.031,0.02506
33679.3,848.531,0.025
33711.5,849.031,0.025
33744.036,849.531,0.024
33776.5,850.031,0.022
33808.932,850.531,0.02207
33841.2,851.031,0.023
33873.3,851.531,0.024
33905.409,852.031,0.024
33937.4,852.531,0.024
33969.4,853.031,0.025
34001.2,853.531,0.025
34032.8,854.031,0.025
34064.1,854.531,0.025
34095.2,855.031,0.026
34126.146,855.531,0.026
34156.983,856.031,0.02706
34187.7,856.531,0.0271
34218.33,857.031,0.025
34248.906,857.531,0.025
34279.5,858.031,0.025
34310.2,858.531,0.025
34341.2,859.031,0.025
34372.3,859.531,0.025
34403.481,860.031,0.02586
34434.7,860.531,0.02426
34466,861.031,0.02393
34497.1,861.531,0.024
34527.9,862.031,0.024
34558.5,862.531,0.024
34588.866,863.031,0.024
34619.3,863.531,0.024
34649.9,864.031,0.024
34680.8,864.531,0.02303
34711.9,865.031,0.02293
34743.4,865.531,0.025
34775.22,866.031,0.02425
34806.9,866.531,0.024
34838.3,867.031,0.024
34869.3,867.531,0.02401
34899.6,868.031,0.025
34929.3,868.531,0.024
34958.1,869.031,0.02401
34986.2,869.531,0.02608
35013.4,870.031,0.026
35040,870.531,0.027
35066.238,871.031,0.029
35092.3,871.531,0.029
35118.8,872.031,0.029
35146.3,872.531,0.028
35175.1,873.031,0.028
35205.9,873.531,0.02699
35238.663,874.031,0.02615
35273.046,874.531,0.026
35308.1,875.031,0.028
35342.8,875.531,0.028
35377.23,876.031,0.028