File: PMMA/Calibration_Data/Sandia/Sandia_TGA_Ar_50K_1.csv
Time,Temperature,Mass,
[s],[K],[mg],
1200.1,306.872,5.37E+00,
1270.032,307.272,5.37E+00,
1284.93,307.672,5.37E+00,
1294.674,308.072,5.37E+00,
1302.01,308.472,5.37E+00,
1308.08,308.872,5.37E+00,
1313.26,309.272,5.37E+00,
1317.88,309.672,5.37E+00,
1321.96,310.072,5.37E+00,
1325.694,310.472,5.36E+00,
1329.132,310.872,5.36E+00,
1332.303,311.272,5.36E+00,
1335.31,311.672,5.36E+00,
1338.11,312.072,5.36E+00,
1340.74,312.472,5.36E+00,
1343.27,312.872,5.36E+00,
1345.683,313.272,5.36E+00,
1347.96,313.672,5.36E+00,
1350.17,314.072,5.36E+00,
1352.27,314.472,5.36E+00,
1354.3,314.872,5.36E+00,
1356.27,315.272,5.36E+00,
1358.18,315.672,5.36E+00,
1360.01,316.072,5.36E+00,
1361.81,316.472,5.36E+00,
1363.53,316.872,5.36E+00,
1365.2,317.272,5.36E+00,
1366.84,317.672,5.36E+00,
1368.43,318.072,5.36E+00,
1370,318.472,5.36E+00,
1371.52,318.872,5.36E+00,
1373.01,319.272,5.36E+00,
1374.49,319.672,5.36E+00,
1375.91,320.072,5.36E+00,
1377.303,320.472,5.36E+00,
1378.67,320.872,5.36E+00,
1380.018,321.272,5.35E+00,
1381.33,321.672,5.35E+00,
1382.62,322.072,5.35E+00,
1383.89,322.472,5.36E+00,
1385.15,322.872,5.36E+00,
1386.38,323.272,5.36E+00,
1387.59,323.672,5.35E+00,
1388.775,324.072,5.35E+00,
1389.95,324.472,5.35E+00,
1391.11,324.872,5.35E+00,
1392.26,325.272,5.35E+00,
1393.38,325.672,5.35E+00,
1394.48,326.072,5.35E+00,
1395.58,326.472,5.35E+00,
1396.67,326.872,5.35E+00,
1397.74,327.272,5.35E+00,
1398.79,327.672,5.35E+00,
1399.83,328.072,5.35E+00,
1400.86,328.472,5.36E+00,
1401.879,328.872,5.35E+00,
1402.88,329.272,5.36E+00,
1403.87,329.672,5.35E+00,
1404.85,330.072,5.35E+00,
1405.83,330.472,5.35E+00,
1406.8,330.872,5.35E+00,
1407.75,331.272,5.35E+00,
1408.69,331.672,5.35E+00,
1409.62,332.072,5.35E+00,
1410.549,332.472,5.35E+00,
1411.461,332.872,5.35E+00,
1412.37,333.272,5.35E+00,
1413.26,333.672,5.35E+00,
1414.15,334.072,5.35E+00,
1415.04,334.472,5.35E+00,
1415.91,334.872,5.35E+00,
1416.78,335.272,5.35E+00,
1417.63,335.672,5.35E+00,
1418.49,336.072,5.35E+00,
1419.33,336.472,5.35E+00,
1420.17,336.872,5.35E+00,
1421,337.272,5.35E+00,
1421.82,337.672,5.35E+00,
1422.645,338.072,5.35E+00,
1423.46,338.472,5.35E+00,
1424.271,338.872,5.35E+00,
1425.07,339.272,5.35E+00,
1425.861,339.672,5.35E+00,
1426.647,340.072,5.35E+00,
1427.427,340.472,5.35E+00,
1428.21,340.872,5.35E+00,
1428.98,341.272,5.35E+00,
1429.75,341.672,5.35E+00,
1430.52,342.072,5.35E+00,
1431.27,342.472,5.35E+00,
1432.03,342.872,5.35E+00,
1432.78,343.272,5.35E+00,
1433.52,343.672,5.35E+00,
1434.27,344.072,5.35E+00,
1435.008,344.472,5.35E+00,
1435.74,344.872,5.35E+00,
1436.47,345.272,5.35E+00,
1437.2,345.672,5.35E+00,
1437.92,346.072,5.35E+00,
1438.63,346.472,5.35E+00,
1439.34,346.872,5.35E+00,
1440.05,347.272,5.35E+00,
1440.76,347.672,5.35E+00,
1441.45,348.072,5.35E+00,
1442.15,348.472,5.35E+00,
1442.84,348.872,5.35E+00,
1443.53,349.272,5.35E+00,
1444.22,349.672,5.35E+00,
1444.9,350.072,5.35E+00,
1445.58,350.472,5.35E+00,
1446.258,350.872,5.35E+00,
1446.93,351.272,5.35E+00,
1447.6,351.672,5.35E+00,
1448.27,352.072,5.35E+00,
1448.94,352.472,5.35E+00,
1449.59,352.872,5.35E+00,
1450.25,353.272,5.35E+00,
1450.9,353.672,5.35E+00,
1451.56,354.072,5.35E+00,
1452.21,354.472,5.35E+00,
1452.85,354.872,5.35E+00,
1453.5,355.272,5.35E+00,
1454.139,355.672,5.35E+00,
1454.775,356.072,5.35E+00,
1455.41,356.472,5.35E+00,
1456.041,356.872,5.35E+00,
1456.668,357.272,5.35E+00,
1457.29,357.672,5.35E+00,
1457.92,358.072,5.35E+00,
1458.54,358.472,5.35E+00,
1459.16,358.872,5.35E+00,
1459.77,359.272,5.35E+00,
1460.39,359.672,5.35E+00,
1461,360.072,5.35E+00,
1461.606,360.472,5.35E+00,
1462.21,360.872,5.35E+00,
1462.809,361.272,5.34E+00,
1463.41,361.672,5.35E+00,
1464.003,362.072,5.35E+00,
1464.6,362.472,5.35E+00,
1465.194,362.872,5.35E+00,
1465.79,363.272,5.34E+00,
1466.37,363.672,5.34E+00,
1466.96,364.072,5.35E+00,
1467.54,364.472,5.34E+00,
1468.13,364.872,5.34E+00,
1468.71,365.272,5.34E+00,
1469.283,365.672,5.34E+00,
1469.86,366.072,5.34E+00,
1470.43,366.472,5.34E+00,
1471,366.872,5.34E+00,
1471.57,367.272,5.34E+00,
1472.13,367.672,5.34E+00,
1472.697,368.072,5.34E+00,
1473.26,368.472,5.35E+00,
1473.83,368.872,5.34E+00,
1474.386,369.272,5.34E+00,
1474.95,369.672,5.34E+00,
1475.5,370.072,5.34E+00,
1476.06,370.472,5.34E+00,
1476.61,370.872,5.34E+00,
1477.16,371.272,5.34E+00,
1477.704,371.672,5.34E+00,
1478.25,372.072,5.34E+00,
1478.8,372.472,5.34E+00,
1479.34,372.872,5.34E+00,
1479.89,373.272,5.34E+00,
1480.43,373.672,5.34E+00,
1480.97,374.072,5.34E+00,
1481.51,374.472,5.34E+00,
1482.05,374.872,5.34E+00,
1482.58,375.272,5.34E+00,
1483.11,375.672,5.34E+00,
1483.65,376.072,5.34E+00,
1484.18,376.472,5.34E+00,
1484.71,376.872,5.34E+00,
1485.24,377.272,5.34E+00,
1485.76,377.672,5.34E+00,
1486.29,378.072,5.34E+00,
1486.81,378.472,5.34E+00,
1487.33,378.872,5.34E+00,
1487.85,379.272,5.34E+00,
1488.38,379.672,5.34E+00,
1488.894,380.072,5.34E+00,
1489.41,380.472,5.34E+00,
1489.929,380.872,5.34E+00,
1490.45,381.272,5.34E+00,
1490.961,381.672,5.34E+00,
1491.477,382.072,5.34E+00,
1491.99,382.472,5.34E+00,
1492.5,382.872,5.34E+00,
1493.02,383.272,5.34E+00,
1493.526,383.672,5.34E+00,
1494.033,384.072,5.34E+00,
1494.54,384.472,5.34E+00,
1495.05,384.872,5.34E+00,
1495.55,385.272,5.34E+00,
1496.05,385.672,5.34E+00,
1496.56,386.072,5.34E+00,
1497.06,386.472,5.34E+00,
1497.56,386.872,5.34E+00,
1498.06,387.272,5.34E+00,
1498.557,387.672,5.34E+00,
1499.06,388.072,5.34E+00,
1499.55,388.472,5.34E+00,
1500.05,388.872,5.34E+00,
1500.54,389.272,5.34E+00,
1501.04,389.672,5.34E+00,
1501.53,390.072,5.34E+00,
1502.02,390.472,5.34E+00,
1502.51,390.872,5.34E+00,
1502.994,391.272,5.34E+00,
1503.48,391.672,5.34E+00,
1503.97,392.072,5.34E+00,
1504.46,392.472,5.34E+00,
1504.944,392.872,5.34E+00,
1505.43,393.272,5.34E+00,
1505.91,393.672,5.34E+00,
1506.39,394.072,5.34E+00,
1506.87,394.472,5.34E+00,
1507.36,394.872,5.34E+00,
1507.83,395.272,5.34E+00,
1508.31,395.672,5.34E+00,
1508.79,396.072,5.34E+00,
1509.27,396.472,5.34E+00,
1509.74,396.872,5.34E+00,
1510.22,397.272,5.34E+00,
1510.69,397.672,5.34E+00,
1511.16,398.072,5.34E+00,
1511.634,398.472,5.34E+00,
1512.1,398.872,5.34E+00,
1512.573,399.272,5.34E+00,
1513.041,399.672,5.34E+00,
1513.51,400.072,5.34E+00,
1513.97,400.472,5.34E+00,
1514.44,400.872,5.34E+00,
1514.9,401.272,5.34E+00,
1515.36,401.672,5.34E+00,
1515.83,402.072,5.34E+00,
1516.287,402.472,5.34E+00,
1516.75,402.872,5.33E+00,
1517.21,403.272,5.34E+00,
1517.66,403.672,5.34E+00,
1518.12,404.072,5.34E+00,
1518.58,404.472,5.33E+00,
1519.03,404.872,5.33E+00,
1519.49,405.272,5.33E+00,
1519.95,405.672,5.33E+00,
1520.4,406.072,5.33E+00,
1520.85,406.472,5.33E+00,
1521.3,406.872,5.33E+00,
1521.75,407.272,5.33E+00,
1522.2,407.672,5.33E+00,
1522.65,408.072,5.33E+00,
1523.09,408.472,5.33E+00,
1523.54,408.872,5.33E+00,
1523.99,409.272,5.33E+00,
1524.44,409.672,5.33E+00,
1524.88,410.072,5.33E+00,
1525.32,410.472,5.33E+00,
1525.767,410.872,5.33E+00,
1526.21,411.272,5.33E+00,
1526.65,411.672,5.33E+00,
1527.09,412.072,5.33E+00,
1527.534,412.472,5.33E+00,
1527.972,412.872,5.33E+00,
1528.41,413.272,5.33E+00,
1528.85,413.672,5.33E+00,
1529.29,414.072,5.33E+00,
1529.72,414.472,5.33E+00,
1530.159,414.872,5.33E+00,
1530.59,415.272,5.33E+00,
1531.029,415.672,5.33E+00,
1531.46,416.072,5.33E+00,
1531.89,416.472,5.33E+00,
1532.325,416.872,5.33E+00,
1532.76,417.272,5.33E+00,
1533.19,417.672,5.33E+00,
1533.62,418.072,5.33E+00,
1534.05,418.472,5.33E+00,
1534.47,418.872,5.33E+00,
1534.9,419.272,5.33E+00,
1535.33,419.672,5.33E+00,
1535.76,420.072,5.33E+00,
1536.18,420.472,5.32E+00,
1536.61,420.872,5.32E+00,
1537.035,421.272,5.32E+00,
1537.461,421.672,5.32E+00,
1537.884,422.072,5.32E+00,
1538.31,422.472,5.32E+00,
1538.73,422.872,5.32E+00,
1539.15,423.272,5.32E+00,
1539.57,423.672,5.32E+00,
1539.99,424.072,5.32E+00,
1540.413,424.472,5.32E+00,
1540.83,424.872,5.32E+00,
1541.25,425.272,5.32E+00,
1541.67,425.672,5.32E+00,
1542.087,426.072,5.32E+00,
1542.51,426.472,5.32E+00,
1542.921,426.872,5.32E+00,
1543.34,427.272,5.32E+00,
1543.75,427.672,5.32E+00,
1544.17,428.072,5.31E+00,
1544.58,428.472,5.32E+00,
1545,428.872,5.31E+00,
1545.41,429.272,5.31E+00,
1545.822,429.672,5.31E+00,
1546.23,430.072,5.31E+00,
1546.65,430.472,5.31E+00,
1547.06,430.872,5.31E+00,
1547.47,431.272,5.31E+00,
1547.88,431.672,5.31E+00,
1548.288,432.072,5.31E+00,
1548.7,432.472,5.31E+00,
1549.107,432.872,5.31E+00,
1549.52,433.272,5.31E+00,
1549.92,433.672,5.31E+00,
1550.33,434.072,5.31E+00,
1550.74,434.472,5.31E+00,
1551.15,434.872,5.31E+00,
1551.552,435.272,5.30E+00,
1551.957,435.672,5.30E+00,
1552.36,436.072,5.30E+00,
1552.77,436.472,5.30E+00,
1553.17,436.872,5.30E+00,
1553.57,437.272,5.30E+00,
1553.976,437.672,5.30E+00,
1554.38,438.072,5.30E+00,
1554.78,438.472,5.30E+00,
1555.19,438.872,5.30E+00,
1555.59,439.272,5.29E+00,
1555.99,439.672,5.29E+00,
1556.394,440.072,5.29E+00,
1556.79,440.472,5.29E+00,
1557.19,440.872,5.29E+00,
1557.59,441.272,5.29E+00,
1557.99,441.672,5.29E+00,
1558.389,442.072,5.29E+00,
1558.79,442.472,5.29E+00,
1559.18,442.872,5.29E+00,
1559.58,443.272,5.28E+00,
1559.976,443.672,5.28E+00,
1560.372,444.072,5.28E+00,
1560.77,444.472,5.28E+00,
1561.16,444.872,5.28E+00,
1561.56,445.272,5.28E+00,
1561.95,445.672,5.27555,
1562.35,446.072,5.27363,
1562.74,446.472,5.2717,
1563.13,446.872,5.26989,
1563.53,447.272,5.26882,
1563.92,447.672,5.26709,
1564.311,448.072,5.26393,
1564.7,448.472,5.26199,
1565.094,448.872,5.26103,
1565.49,449.272,5.25807,
1565.88,449.672,5.25619,
1566.27,450.072,5.25532,
1566.66,450.472,5.25311,
1567.04,450.872,5.25105,
1567.43,451.272,5.24825,
1567.821,451.672,5.24651,
1568.21,452.072,5.2435,
1568.6,452.472,5.24096,
1568.99,452.872,5.23798,
1569.37,453.272,5.23528,
1569.76,453.672,5.23244,
1570.14,454.072,5.22956,
1570.53,454.472,5.22787,
1570.91,454.872,5.22392,
1571.29,455.272,5.22205,
1571.68,455.672,5.21812,
1572.06,456.072,5.21652,
1572.441,456.472,5.21323,
1572.82,456.872,5.21075,
1573.21,457.272,5.20864,
1573.59,457.672,5.20598,
1573.97,458.072,5.20353,
1574.35,458.472,5.20202,
1574.73,458.872,5.19979,
1575.111,459.272,5.19695,
1575.49,459.672,5.196,
1575.87,460.072,5.19536,
1576.25,460.472,5.19419,
1576.62,460.872,5.19206,
1577,461.272,5.1899,
1577.379,461.672,5.18906,
1577.76,462.072,5.18691,
1578.132,462.472,5.18487,
1578.51,462.872,5.18399,
1578.88,463.272,5.1821,
1579.26,463.672,5.18116,
1579.64,464.072,5.18026,
1580.01,464.472,5.17886,
1580.39,464.872,5.17758,
1580.76,465.272,5.17644,
1581.14,465.672,5.17475,
1581.51,466.072,5.17298,
1581.88,466.472,5.17208,
1582.257,466.872,5.17,
1582.629,467.272,5.16903,
1583.001,467.672,5.16801,
1583.37,468.072,5.16705,
1583.74,468.472,5.1649,
1584.12,468.872,5.16291,
1584.49,469.272,5.16306,
1584.855,469.672,5.16215,
1585.23,470.072,5.15999,
1585.59,470.472,5.15955,
1585.965,470.872,5.15783,
1586.33,471.272,5.15698,
1586.7,471.672,5.15499,
1587.07,472.072,5.15409,
1587.44,472.472,5.15251,
1587.81,472.872,5.15093,
1588.18,473.272,5.14966,
1588.542,473.672,5.14866,
1588.91,474.072,5.14698,
1589.28,474.472,5.14604,
1589.64,474.872,5.14515,
1590.009,475.272,5.14302,
1590.375,475.672,5.14086,
1590.741,476.072,5.13999,
1591.11,476.472,5.13797,
1591.47,476.872,5.13622,
1591.83,477.272,5.13507,
1592.2,477.672,5.1362,
1592.56,478.072,5.13449,
1592.93,478.472,5.13292,
1593.29,478.872,5.13206,
1593.65,479.272,5.1301,
1594.02,479.672,5.12803,
1594.38,480.072,5.12586,
1594.74,480.472,5.12499,
1595.1,480.872,5.12298,
1595.47,481.272,5.12124,
1595.83,481.672,5.11967,
1596.19,482.072,5.11855,
1596.55,482.472,5.11753,
1596.91,482.872,5.11589,
1597.27,483.272,5.11583,
1597.64,483.672,5.1151,
1598,484.072,5.11282,
1598.35,484.472,5.11139,
1598.71,484.872,5.10996,
1599.07,485.272,5.10911,
1599.432,485.672,5.10708,
1599.792,486.072,5.10498,
1600.15,486.472,5.1029,
1600.51,486.872,5.10095,
1600.87,487.272,5.10011,
1601.22,487.672,5.09869,
1601.58,488.072,5.09729,
1601.94,488.472,5.09619,
1602.297,488.872,5.09702,
1602.65,489.272,5.09501,
1603.01,489.672,5.09412,
1603.37,490.072,5.09193,
1603.72,490.472,5.08989,
1604.08,490.872,5.08907,
1604.44,491.272,5.08825,
1604.79,491.672,5.08708,
1605.15,492.072,5.08565,
1605.5,492.472,5.084,
1605.855,492.872,5.08386,
1606.21,493.272,5.08308,
1606.56,493.672,5.08074,
1606.92,494.072,5.08087,
1607.27,494.472,5.07803,
1607.63,494.872,5.07729,
1607.98,495.272,5.07618,
1608.33,495.672,5.07616,
1608.69,496.072,5.07503,
1609.04,496.472,5.07422,
1609.395,496.872,5.07309,
1609.75,497.272,5.07202,
1610.1,497.672,5.07201,
1610.45,498.072,5.06998,
1610.8,498.472,5.06873,
1611.153,498.872,5.06961,
1611.504,499.272,5.06799,
1611.855,499.672,5.06704,
1612.206,500.072,5.06587,
1612.56,500.472,5.06575,
1612.91,500.872,5.06501,
1613.256,501.272,5.06419,
1613.61,501.672,5.06413,
1613.96,502.072,5.06289,
1614.31,502.472,5.06298,
1614.654,502.872,5.06181,
1615,503.272,5.06205,
1615.353,503.672,5.06106,
1615.7,504.072,5.061,
1616.049,504.472,5.06095,
1616.4,504.872,5.06008,
1616.75,505.272,5.0595,
1617.09,505.672,5.06003,
1617.44,506.072,5.05997,
1617.79,506.472,5.05913,
1618.14,506.872,5.05805,
1618.485,507.272,5.058,
1618.83,507.672,5.05794,
1619.18,508.072,5.05727,
1619.52,508.472,5.05606,
1619.87,508.872,5.05511,
1620.21,509.272,5.055,
1620.56,509.672,5.05477,
1620.903,510.072,5.05402,
1621.248,510.472,5.05621,
1621.59,510.872,5.05492,
1621.94,511.272,5.05507,
1622.28,511.672,5.05315,
1622.63,512.072,5.0537,
1622.97,512.472,5.05397,
1623.32,512.872,5.05399,
1623.66,513.272,5.05417,
1624,513.672,5.05183,
1624.35,514.072,5.05218,
1624.69,514.472,5.05304,
1625.034,514.872,5.05194,
1625.376,515.272,5.05207,
1625.718,515.672,5.05095,
1626.06,516.072,5.05101,
1626.4,516.472,5.051,
1626.74,516.872,5.05101,
1627.09,517.272,5.05098,
1627.43,517.672,5.04969,
1627.77,518.072,5.04908,
1628.11,518.472,5.04903,
1628.45,518.872,5.05005,
1628.79,519.272,5.04996,
1629.13,519.672,5.04976,
1629.471,520.072,5.04788,
1629.81,520.472,5.04918,
1630.15,520.872,5.04791,
1630.49,521.272,5.048,
1630.83,521.672,5.04809,
1631.17,522.072,5.04675,
1631.51,522.472,5.04904,
1631.85,522.872,5.04892,
1632.19,523.272,5.04816,
1632.53,523.672,5.04703,
1632.86,524.072,5.047,
1633.2,524.472,5.04701,
1633.54,524.872,5.04709,
1633.88,525.272,5.04516,
1634.217,525.672,5.04502,
1634.55,526.072,5.04476,
1634.89,526.472,5.044,
1635.23,526.872,5.04416,
1635.57,527.272,5.04351,
1635.906,527.672,5.04497,
1636.24,528.072,5.04396,
1636.58,528.472,5.04416,
1636.92,528.872,5.0419,
1637.25,529.272,5.0428,
1637.589,529.672,5.04254,
1637.92,530.072,5.04201,
1638.26,530.472,5.04208,
1638.6,530.872,5.04087,
1638.93,531.272,5.04088,
1639.266,531.672,5.03997,
1639.6,532.072,5.04001,
1639.94,532.472,5.04008,
1640.27,532.872,5.03821,
1640.607,533.272,5.03792,
1640.94,533.672,5.03892,
1641.276,534.072,5.03795,
1641.61,534.472,5.03744,
1641.945,534.872,5.03712,
1642.28,535.272,5.03517,
1642.61,535.672,5.03562,
1642.95,536.072,5.03595,
1643.28,536.472,5.03612,
1643.61,536.872,5.03395,
1643.94,537.272,5.03306,
1644.28,537.672,5.03414,
1644.61,538.072,5.03179,
1644.94,538.472,5.03181,
1645.28,538.872,5.03098,
1645.61,539.272,5.03094,
1645.94,539.672,5.03063,
1646.28,540.072,5.02896,
1646.61,540.472,5.02921,
1646.94,540.872,5.02689,
1647.27,541.272,5.02596,
1647.6,541.672,5.02764,
1647.936,542.072,5.02674,
1648.27,542.472,5.02501,
1648.6,542.872,5.024,
1648.93,543.272,5.02298,
1649.26,543.672,5.02131,
1649.592,544.072,5.02055,
1649.92,544.472,5.01985,
1650.25,544.872,5.01782,
1650.585,545.272,5.01928,
1650.92,545.672,5.01693,
1651.25,546.072,5.0162,
1651.578,546.472,5.01527,
1651.91,546.872,5.01398,
1652.24,547.272,5.01315,
1652.57,547.672,5.01094,
1652.9,548.072,5.009,
1653.23,548.472,5.00766,
1653.56,548.872,5.00679,
1653.89,549.272,5.00599,
1654.218,549.672,5.00622,
1654.55,550.072,5.00391,
1654.88,550.472,5.00218,
1655.21,550.872,5.00154,
1655.53,551.272,5.00109,
1655.862,551.672,4.99932,
1656.19,552.072,4.99925,
1656.52,552.472,4.99691,
1656.85,552.872,4.99633,
1657.18,553.272,4.99465,
1657.51,553.672,4.99299,
1657.836,554.072,4.99178,
1658.16,554.472,4.98854,
1658.493,554.872,4.98801,
1658.82,555.272,4.98584,
1659.15,555.672,4.98266,
1659.48,556.072,4.98114,
1659.807,556.472,4.97773,
1660.14,556.872,4.97695,
1660.46,557.272,4.97441,
1660.79,557.672,4.97157,
1661.12,558.072,4.96888,
1661.45,558.472,4.96631,
1661.77,558.872,4.96663,
1662.099,559.272,4.963,
1662.43,559.672,4.9607,
1662.75,560.072,4.95857,
1663.08,560.472,4.95513,
1663.41,560.872,4.95303,
1663.74,561.272,4.94982,
1664.06,561.672,4.94716,
1664.39,562.072,4.94745,
1664.72,562.472,4.94389,
1665.04,562.872,4.9424,
1665.37,563.272,4.93963,
1665.69,563.672,4.93704,
1666.02,564.072,4.93478,
1666.35,564.472,4.93259,
1666.671,564.872,4.93019,
1667,565.272,4.9276,
1667.32,565.672,4.92513,
1667.649,566.072,4.92485,
1667.98,566.472,4.92232,
1668.3,566.872,4.91999,
1668.63,567.272,4.91805,
1668.96,567.672,4.91563,
1669.281,568.072,4.91322,
1669.61,568.472,4.91041,
1669.932,568.872,4.90887,
1670.26,569.272,4.90638,
1670.58,569.672,4.90432,
1670.91,570.072,4.90095,
1671.23,570.472,4.89867,
1671.56,570.872,4.89679,
1671.88,571.272,4.89421,
1672.206,571.672,4.89148,
1672.53,572.072,4.88866,
1672.86,572.472,4.88608,
1673.18,572.872,4.88541,
1673.505,573.272,4.88197,
1673.83,573.672,4.87977,
1674.15,574.072,4.87648,
1674.48,574.472,4.87315,
1674.804,574.872,4.87105,
1675.13,575.272,4.86772,
1675.45,575.672,4.86509,
1675.77,576.072,4.86444,
1676.1,576.472,4.86101,
1676.42,576.872,4.85781,
1676.75,577.272,4.85474,
1677.07,577.672,4.85235,
1677.39,578.072,4.84909,
1677.72,578.472,4.84585,
1678.04,578.872,4.84264,
1678.36,579.272,4.83969,
1678.686,579.672,4.83708,
1679.01,580.072,4.83617,
1679.33,580.472,4.83294,
1679.66,580.872,4.83157,
1679.98,581.272,4.82863,
1680.3,581.672,4.82599,
1680.624,582.072,4.8232,
1680.95,582.472,4.81951,
1681.27,582.872,4.81729,
1681.59,583.272,4.8134,
1681.914,583.672,4.81085,
1682.24,584.072,4.80764,
1682.56,584.472,4.8044,
1682.883,584.872,4.80119,
1683.21,585.272,4.79848,
1683.53,585.672,4.79571,
1683.85,586.072,4.79168,
1684.17,586.472,4.78829,
1684.5,586.872,4.78504,
1684.818,587.272,4.78182,
1685.14,587.672,4.77858,
1685.46,588.072,4.77545,
1685.79,588.472,4.77104,
1686.11,588.872,4.76793,
1686.43,589.272,4.76471,
1686.75,589.672,4.76152,
1687.07,590.072,4.75741,
1687.4,590.472,4.75295,
1687.719,590.872,4.7498,
1688.04,591.272,4.74671,
1688.36,591.672,4.74235,
1688.68,592.072,4.73822,
1689,592.472,4.73449,
1689.33,592.872,4.73087,
1689.648,593.272,4.7279,
1689.97,593.672,4.72329,
1690.29,594.072,4.71913,
1690.61,594.472,4.7142,
1690.93,594.872,4.71056,
1691.26,595.272,4.70568,
1691.58,595.672,4.70129,
1691.9,596.072,4.69603,
1692.22,596.472,4.69087,
1692.54,596.872,4.68947,
1692.86,597.272,4.68348,
1693.185,597.672,4.6788,
1693.51,598.072,4.67288,
1693.83,598.472,4.66796,
1694.15,598.872,4.66412,
1694.47,599.272,4.65847,
1694.79,599.672,4.65261,
1695.11,600.072,4.64678,
1695.43,600.472,4.64119,
1695.75,600.872,4.63711,
1696.08,601.272,4.63048,
1696.4,601.672,4.62451,
1696.72,602.072,4.61856,
1697.04,602.472,4.61179,
1697.36,602.872,4.60689,
1697.68,603.272,4.60043,
1698,603.672,4.59414,
1698.32,604.072,4.58663,
1698.64,604.472,4.58125,
1698.96,604.872,4.57451,
1699.28,605.272,4.56733,
1699.6,605.672,4.56089,
1699.93,606.072,4.5544,
1700.25,606.472,4.54699,
1700.57,606.872,4.54038,
1700.889,607.272,4.5323,
1701.21,607.672,4.52593,
1701.53,608.072,4.51919,
1701.852,608.472,4.51109,
1702.17,608.872,4.50396,
1702.49,609.272,4.49518,
1702.815,609.672,4.48801,
1703.136,610.072,4.47999,
1703.457,610.472,4.47098,
1703.78,610.872,4.46837,
1704.1,611.272,4.45799,
1704.42,611.672,4.45211,
1704.74,612.072,4.44364,
1705.06,612.472,4.43298,
1705.38,612.872,4.42506,
1705.71,613.272,4.41482,
1706.03,613.672,4.4051,
1706.35,614.072,4.39653,
1706.67,614.472,4.38507,
1706.99,614.872,4.37571,
1707.31,615.272,4.36774,
1707.63,615.672,4.35704,
1707.95,616.072,4.34735,
1708.27,616.472,4.33602,
1708.59,616.872,4.32692,
1708.91,617.272,4.31552,
1709.23,617.672,4.30425,
1709.55,618.072,4.29417,
1709.88,618.472,4.28285,
1710.198,618.872,4.27224,
1710.52,619.272,4.25917,
1710.84,619.672,4.24876,
1711.164,620.072,4.23714,
1711.49,620.472,4.22454,
1711.81,620.872,4.21301,
1712.13,621.272,4.19875,
1712.451,621.672,4.18767,
1712.77,622.072,4.17524,
1713.09,622.472,4.16141,
1713.42,622.872,4.16608,
1713.738,623.272,3.96467,
1714.059,623.672,3.97011,
1714.38,624.072,3.95191,
1714.7,624.472,3.93685,
1715.02,624.872,3.91561,
1715.35,625.272,3.89871,
1715.67,625.672,3.88418,
1715.99,626.072,3.8704,
1716.312,626.472,3.85132,
1716.63,626.872,3.83602,
1716.957,627.272,3.82025,
1717.28,627.672,3.80218,
1717.602,628.072,3.78332,
1717.926,628.472,3.76582,
1718.25,628.872,3.75161,
1718.571,629.272,3.73091,
1718.89,629.672,3.71129,
1719.216,630.072,3.69709,
1719.54,630.472,3.67668,
1719.861,630.872,3.65994,
1720.18,631.272,3.64128,
1720.51,631.672,3.61959,
1720.83,632.072,3.6041,
1721.15,632.472,3.58458,
1721.48,632.872,3.56638,
1721.8,633.272,3.54455,
1722.123,633.672,3.52278,
1722.45,634.072,3.50472,
1722.77,634.472,3.48198,
1723.09,634.872,3.46231,
1723.42,635.272,3.44416,
1723.74,635.672,3.42134,
1724.064,636.072,3.40031,
1724.39,636.472,3.38134,
1724.71,636.872,3.35894,
1725.04,637.272,3.33736,
1725.36,637.672,3.31867,
1725.69,638.072,3.29709,
1726.011,638.472,3.27265,
1726.34,638.872,3.24972,
1726.66,639.272,3.22937,
1726.99,639.672,3.2086,
1727.31,640.072,3.19441,
1727.63,640.472,3.17627,
1727.958,640.872,3.15077,
1728.28,641.272,3.12817,
1728.61,641.672,3.10557,
1728.93,642.072,3.08177,
1729.26,642.472,3.062,
1729.58,642.872,3.03652,
1729.91,643.272,3.01335,
1730.235,643.672,2.98677,
1730.56,644.072,2.96169,
1730.88,644.472,2.94008,
1731.21,644.872,2.91657,
1731.534,645.272,2.89516,
1731.86,645.672,2.8672,
1732.18,646.072,2.84185,
1732.51,646.472,2.81925,
1732.83,646.872,2.79191,
1733.16,647.272,2.76858,
1733.49,647.672,2.7431,
1733.81,648.072,2.71569,
1734.14,648.472,2.69292,
1734.47,648.872,2.66757,
1734.79,649.272,2.64208,
1735.12,649.672,2.61539,
1735.45,650.072,2.59237,
1735.77,650.472,2.56652,
1736.1,650.872,2.53802,
1736.43,651.272,2.51364,
1736.76,651.672,2.49113,
1737.08,652.072,2.4654,
1737.41,652.472,2.43977,
1737.74,652.872,2.41405,
1738.065,653.272,2.38892,
1738.392,653.672,2.36211,
1738.72,654.072,2.34041,
1739.05,654.472,2.31188,
1739.37,654.872,2.29018,
1739.7,655.272,2.26287,
1740.03,655.672,2.23664,
1740.36,656.072,2.21499,
1740.687,656.472,2.18719,
1741.02,656.872,2.1605,
1741.34,657.272,2.13223,
1741.67,657.672,2.11149,
1742,658.072,2.08631,
1742.33,658.472,2.05996,
1742.66,658.872,2.03621,
1742.991,659.272,2.0116,
1743.32,659.672,1.98233,
1743.65,660.072,1.95895,
1743.98,660.472,1.9303,
1744.31,660.872,1.91258,
1744.64,661.272,1.88519,
1744.97,661.672,1.85436,
1745.3,662.072,1.83019,
1745.63,662.472,1.80849,
1745.96,662.872,1.77815,
1746.29,663.272,1.75294,
1746.62,663.672,1.72929,
1746.95,664.072,1.7045,
1747.28,664.472,1.67676,
1747.61,664.872,1.65052,
1747.94,665.272,1.6269,
1748.27,665.672,1.59824,
1748.61,666.072,1.57485,
1748.937,666.472,1.54873,
1749.27,666.872,1.52475,
1749.6,667.272,1.49998,
1749.93,667.672,1.47259,
1750.266,668.072,1.45185,
1750.6,668.472,1.43469,
1750.93,668.872,1.40388,
1751.26,669.272,1.37844,
1751.6,669.672,1.36771,
1751.93,670.072,1.34202,
1752.26,670.472,1.31678,
1752.6,670.872,1.29324,
1752.93,671.272,1.26844,
1753.26,671.672,1.24261,
1753.59,672.072,1.22044,
1753.93,672.472,1.1957,
1754.26,672.872,1.16958,
1754.59,673.272,1.14984,
1754.93,673.672,1.12621,
1755.26,674.072,1.10555,
1755.59,674.472,1.08066,
1755.93,674.872,1.05801,
1756.26,675.272,1.0341,
1756.6,675.672,1.01795,
1756.94,676.072,0.99531,
1757.27,676.472,0.97075,
1757.607,676.872,0.95188,
1757.94,677.272,0.92913,
1758.28,677.672,0.90817,
1758.61,678.072,0.88931,
1758.95,678.472,0.86716,
1759.28,678.872,0.84893,
1759.62,679.272,0.82518,
1759.96,679.672,0.80774,
1760.29,680.072,0.79136,
1760.63,680.472,0.76747,
1760.97,680.872,0.74943,
1761.3,681.272,0.73076,
1761.642,681.672,0.71217,
1761.98,682.072,0.69335,
1762.32,682.472,0.67305,
1762.65,682.872,0.65445,
1762.99,683.272,0.63783,
1763.331,683.672,0.62138,
1763.67,684.072,0.60553,
1764.01,684.472,0.58795,
1764.35,684.872,0.57281,
1764.69,685.272,0.5538,
1765.02,685.672,0.53973,
1765.36,686.072,0.52492,
1765.7,686.472,0.50793,
1766.04,686.872,0.49328,
1766.38,687.272,0.48178,
1766.72,687.672,0.46693,
1767.06,688.072,0.45141,
1767.399,688.472,0.44055,
1767.74,688.872,0.42981,
1768.077,689.272,0.41603,
1768.42,689.672,0.40331,
1768.76,690.072,0.39282,
1769.1,690.472,0.38114,
1769.43,690.872,0.36917,
1769.775,691.272,0.35885,
1770.114,691.672,0.34754,
1770.45,692.072,0.33727,
1770.795,692.472,0.32804,
1771.14,692.872,0.31997,
1771.48,693.272,0.30873,
1771.82,693.672,0.30004,
1772.16,694.072,0.29307,
1772.5,694.472,0.28012,
1772.84,694.872,0.2734,
1773.18,695.272,0.26498,
1773.519,695.672,0.25639,
1773.86,696.072,0.24642,
1774.2,696.472,0.24337,
1774.54,696.872,0.23525,
1774.88,697.272,0.23409,
1775.23,697.672,0.22603,
1775.568,698.072,0.21802,
1775.91,698.472,0.21091,
1776.252,698.872,0.20622,
1776.59,699.272,0.19681,
1776.94,699.672,0.19129,
1777.28,700.072,0.18533,
1777.62,700.472,0.17885,
1777.97,700.872,0.17632,
1778.31,701.272,0.16875,
1778.65,701.672,0.16414,
1779,702.072,0.15978,
1779.34,702.472,0.15242,
1779.68,702.872,0.14794,
1780.02,703.272,0.15093,
1780.37,703.672,0.14641,
1780.71,704.072,0.14089,
1781.05,704.472,0.13778,
1781.4,704.872,0.13479,
1781.74,705.272,0.13447,
1782.08,705.672,0.13205,
1782.43,706.072,0.13001,
1782.77,706.472,0.12731,
1783.12,706.872,0.12795,
1783.46,707.272,0.12428,
1783.81,707.672,0.12254,
1784.15,708.072,0.11928,
1784.499,708.472,0.119,
1784.84,708.872,0.11542,
1785.19,709.272,0.11354,
1785.54,709.672,0.11168,
1785.88,710.072,0.10903,
1786.23,710.472,0.10851,
1786.57,710.872,0.10518,
1786.92,711.272,0.10292,
1787.27,711.672,0.10035,
1787.62,712.072,0.09723,
1787.96,712.472,0.09657,
1788.31,712.872,0.09293,
1788.66,713.272,0.09129,
1789,713.672,0.08791,
1789.35,714.072,0.08626,
1789.7,714.472,0.085,
1790.05,714.872,0.08221,
1790.39,715.272,0.08018,
1790.74,715.672,0.07693,
1791.09,716.072,0.07511,
1791.44,716.472,0.07228,
1791.786,716.872,0.0709,
1792.13,717.272,0.07093,
1792.48,717.672,0.06808,
1792.83,718.072,0.06662,
1793.18,718.472,0.06562,
1793.53,718.872,0.06476,
1793.88,719.272,0.06307,
1794.23,719.672,0.06096,
1794.58,720.072,0.05996,
1794.93,720.472,0.05892,
1795.28,720.872,0.05899,
1795.64,721.272,0.05824,
1795.99,721.672,0.05718,
1796.34,722.072,0.05602,
1796.69,722.472,0.05606,
1797.04,722.872,0.05398,
1797.393,723.272,0.05296,
1797.744,723.672,0.05178,
1798.09,724.072,0.054,
1798.45,724.472,0.05183,
1798.8,724.872,0.05146,
1799.15,725.272,0.0508,
1799.51,725.672,0.05002,
1799.86,726.072,0.04826,
1800.21,726.472,0.04916,
1800.56,726.872,0.04915,
1800.918,727.272,0.0469,
1801.27,727.672,0.0471,
1801.63,728.072,0.04651,
1801.98,728.472,0.04621,
1802.33,728.872,0.04505,
1802.69,729.272,0.04497,
1803.04,729.672,0.04601,
1803.4,730.072,0.04503,
1803.753,730.472,0.04413,
1804.11,730.872,0.04301,
1804.464,731.272,0.044,
1804.82,731.672,0.04277,
1805.175,732.072,0.04205,
1805.532,732.472,0.04197,
1805.889,732.872,0.04297,
1806.25,733.272,0.04318,
1806.6,733.672,0.0408,
1806.96,734.072,0.041,
1807.32,734.472,0.04106,
1807.68,734.872,0.04203,
1808.034,735.272,0.0422,
1808.39,735.672,0.0396,
1808.75,736.072,0.04218,
1809.11,736.472,0.04201,
1809.47,736.872,0.04113,
1809.83,737.272,0.04103,
1810.18,737.672,0.04109,
1810.54,738.072,0.03991,
1810.9,738.472,0.04,
1811.26,738.872,0.04,
1811.625,739.272,0.04,
1811.99,739.672,0.04,
1812.35,740.072,0.04,
1812.71,740.472,0.04,
1813.07,740.872,0.04,
1813.43,741.272,0.04,
1813.79,741.672,0.04,
1814.15,742.072,0.04004,
1814.514,742.472,0.04013,
1814.88,742.872,0.04023,
1815.24,743.272,0.04005,
1815.6,743.672,0.04001,
1815.96,744.072,0.04002,
1816.33,744.472,0.0401,
1816.69,744.872,0.04101,
1817.05,745.272,0.041,
1817.42,745.672,0.04102,
1817.781,746.072,0.04117,
1818.14,746.472,0.03877,
1818.51,746.872,0.04002,
1818.873,747.272,0.03999,
1819.236,747.672,0.04001,
1819.6,748.072,0.0401,
1819.97,748.472,0.03891,
1820.33,748.872,0.03912,
1820.697,749.272,0.04,
1821.06,749.672,0.04,
1821.43,750.072,0.04004,
1821.795,750.472,0.04056,
1822.16,750.872,0.03987,
1822.53,751.272,0.03999,
1822.89,751.672,0.04,
1823.26,752.072,0.03997,
1823.63,752.472,0.03912,
1824,752.872,0.04123,
1824.36,753.272,0.04102,
1824.732,753.672,0.04101,
1825.101,754.072,0.041,
1825.47,754.472,0.03924,
1825.839,754.872,0.03904,
1826.21,755.272,0.039,
1826.58,755.672,0.039,
1826.949,756.072,0.039,
1827.32,756.472,0.03901,
1827.69,756.872,0.03895,
1828.06,757.272,0.04108,
1828.43,757.672,0.04101,
1828.8,758.072,0.04095,
1829.18,758.472,0.04028,
1829.55,758.872,0.03905,
1829.92,759.272,0.039,
1830.29,759.672,0.039,
1830.66,760.072,0.039,
1831.04,760.472,0.03898,
1831.41,760.872,0.03879,
1831.782,761.272,0.04123,
1832.15,761.672,0.04113,
1832.53,762.072,0.03886,
1832.901,762.472,0.039,
1833.28,762.872,0.03894,
1833.65,763.272,0.04005,
1834.03,763.672,0.03998,
1834.401,764.072,0.03949,
1834.78,764.472,0.03902,
1835.15,764.872,0.03895,
1835.53,765.272,0.04007,
1835.9,765.672,0.04,
1836.28,766.072,0.03909,
1836.65,766.472,0.03902,
1837.03,766.872,0.03903,
1837.4,767.272,0.0395,
1837.78,767.672,0.03958,
1838.16,768.072,0.03903,
1838.54,768.472,0.039,
1838.91,768.872,0.039,
1839.29,769.272,0.03897,
1839.67,769.672,0.03915,
1840.05,770.072,0.03902,
1840.43,770.472,0.039,
1840.8,770.872,0.03903,
1841.18,771.272,0.03938,
1841.56,771.672,0.03968,
1841.94,772.072,0.03902,
1842.32,772.472,0.039,
1842.7,772.872,0.039,
1843.083,773.272,0.03994,
1843.46,773.672,0.04016,
1843.842,774.072,0.03786,
1844.22,774.472,0.03777,
1844.6,774.872,0.0402,
1844.985,775.272,0.04002,
1845.37,775.672,0.04,
1845.75,776.072,0.04,
1846.13,776.472,0.04,
1846.51,776.872,0.04,
1846.896,777.272,0.04,
1847.28,777.672,0.03997,
1847.661,778.072,0.03832,
1848.04,778.472,0.03809,
1848.43,778.872,0.03931,
1848.81,779.272,0.03995,
1849.19,779.672,0.04,
1849.58,780.072,0.04,
1849.96,780.472,0.04,
1850.35,780.872,0.04,
1850.73,781.272,0.04,
1851.12,781.672,0.04,
1851.504,782.072,0.03999,
1851.89,782.472,0.0419,
1852.27,782.872,0.04019,
1852.66,783.272,0.04002,
1853.05,783.672,0.04,
1853.43,784.072,0.04003,
1853.82,784.472,0.04061,
1854.2,784.872,0.04108,
1854.59,785.272,0.03989,
1854.975,785.672,0.03999,
1855.36,786.072,0.04002,
1855.75,786.472,0.04022,
1856.139,786.872,0.04097,
1856.53,787.272,0.0409,
1856.91,787.672,0.04001,
1857.3,788.072,0.04,
1857.693,788.472,0.03998,
1858.08,788.872,0.04102,
1858.47,789.272,0.04107,
1858.86,789.672,0.03995,
1859.25,790.072,0.0399,
1859.64,790.472,0.04106,
1860.033,790.872,0.04101,
1860.423,791.272,0.04111,
1860.81,791.672,0.03997,
1861.206,792.072,0.04106,
1861.6,792.472,0.04195,
1861.99,792.872,0.04209,
1862.38,793.272,0.04089,
1862.77,793.672,0.04099,
1863.165,794.072,0.041,
1863.56,794.472,0.041,
1863.95,794.872,0.04105,
1864.34,795.272,0.03991,
1864.73,795.672,0.03992,
1865.13,796.072,0.04214,
1865.52,796.472,0.04201,
1865.91,796.872,0.042,
1866.309,797.272,0.04197,
1866.7,797.672,0.041,
1867.1,798.072,0.041,
1867.491,798.472,0.041,
1867.89,798.872,0.04101,
1868.28,799.272,0.04113,
1868.67,799.672,0.04075,
1869.07,800.072,0.04098,
1869.465,800.472,0.041,
1869.86,800.872,0.041,
1870.26,801.272,0.041,
1870.65,801.672,0.041,
1871.05,802.072,0.041,
1871.45,802.472,0.041,
1871.84,802.872,0.04101,
1872.24,803.272,0.04119,
1872.64,803.672,0.03866,
1873.04,804.072,0.04113,
1873.43,804.472,0.04101,
1873.83,804.872,0.041,
1874.23,805.272,0.04103,
1874.62,805.672,0.04164,
1875.02,806.072,0.04198,
1875.42,806.472,0.04201,
1875.82,806.872,0.04221,
1876.221,807.272,0.03983,
1876.62,807.672,0.04001,
1877.02,808.072,0.04059,
1877.42,808.472,0.04036,
1877.82,808.872,0.04002,
1878.22,809.272,0.04,
1878.62,809.672,0.03996,
1879.02,810.072,0.03928,
1879.42,810.472,0.04011,
1879.82,810.872,0.04001,
1880.22,811.272,0.04,
1880.63,811.672,0.03996,
1881.03,812.072,0.03923,
1881.43,812.472,0.0401,
1881.83,812.872,0.04001,
1882.23,813.272,0.04,
1882.64,813.672,0.04004,
1883.04,814.072,0.04084,
1883.448,814.472,0.03993,
1883.93,814.872,0.03999,