File: PMMA/Calibration_Data/Sandia/Sandia_DSC_Ar_10K_1.csv
Time,Temperature,Heat Flow
[s],[K],[W/g]
1209.15,307.216,6.03E-04
1319.577,307.616,-7.97E-04
1345.77,308.016,-2.46E-03
1363.96,308.416,-1.48E-03
1377.88,308.816,-2.96E-03
1389.759,309.216,-1.98E-03
1400.19,309.616,-3.33E-03
1409.52,310.016,-4.56E-03
1417.94,310.416,-3.19E-03
1425.74,310.816,-3.38E-03
1433.076,311.216,-6.14E-03
1439.9,311.616,-2.75E-03
1446.35,312.016,-4.93E-03
1452.57,312.416,-6.54E-03
1458.52,312.816,-6.45E-03
1464.15,313.216,-9.72E-03
1469.559,313.616,-5.45E-03
1474.785,314.016,-8.35E-03
1479.88,314.416,-9.77E-03
1484.83,314.816,-1.01E-02
1489.61,315.216,-1.34E-02
1494.28,315.616,-1.04E-02
1498.83,316.016,-1.11E-02
1503.3,316.416,-1.15E-02
1507.66,316.816,-1.18E-02
1511.898,317.216,-1.45E-02
1516.04,317.616,-1.07E-02
1520.12,318.016,-1.70E-02
1524.14,318.416,-1.28E-02
1528.09,318.816,-1.43E-02
1531.97,319.216,-1.73E-02
1535.77,319.616,-1.67E-02
1539.5,320.016,-1.79E-02
1543.2,320.416,-1.89E-02
1546.82,320.816,-1.87E-02
1550.424,321.216,-1.80E-02
1553.98,321.616,-2.01E-02
1557.489,322.016,-2.10E-02
1560.96,322.416,-2.20E-02
1564.374,322.816,-2.36E-02
1567.76,323.216,-2.45E-02
1571.118,323.616,-2.42E-02
1574.44,324.016,-2.44E-02
1577.75,324.416,-2.93E-02
1581,324.816,-2.58E-02
1584.23,325.216,-2.69E-02
1587.42,325.616,-2.87E-02
1590.57,326.016,-2.97E-02
1593.7,326.416,-2.73E-02
1596.8,326.816,-3.15E-02
1599.888,327.216,-3.11E-02
1602.94,327.616,-3.00E-02
1605.97,328.016,-3.12E-02
1608.996,328.416,-3.44E-02
1611.98,328.816,-3.28E-02
1614.97,329.216,-3.53E-02
1617.92,329.616,-3.65E-02
1620.86,330.016,-3.67E-02
1623.78,330.416,-3.65E-02
1626.68,330.816,-3.87E-02
1629.54,331.216,-3.87E-02
1632.411,331.616,-3.96E-02
1635.25,332.016,-4.17E-02
1638.07,332.416,-4.15E-02
1640.87,332.816,-4.37E-02
1643.64,333.216,-4.31E-02
1646.39,333.616,-4.22E-02
1649.13,334.016,-4.55E-02
1651.87,334.416,-4.57E-02
1654.59,334.816,-4.63E-02
1657.31,335.216,-4.53E-02
1660.02,335.616,-4.62E-02
1662.71,336.016,-4.93E-02
1665.39,336.416,-4.86E-02
1668.04,336.816,-5.11E-02
1670.69,337.216,-4.99E-02
1673.331,337.616,-5.03E-02
1675.953,338.016,-5.31E-02
1678.563,338.416,-5.30E-02
1681.17,338.816,-5.25E-02
1683.759,339.216,-5.38E-02
1686.34,339.616,-5.62E-02
1688.92,340.016,-5.71E-02
1691.499,340.416,-5.89E-02
1694.07,340.816,-5.80E-02
1696.62,341.216,-5.96E-02
1699.17,341.616,-6.23E-02
1701.7,342.016,-6.17E-02
1704.21,342.416,-6.08E-02
1706.74,342.816,-5.90E-02
1709.26,343.216,-6.22E-02
1711.75,343.616,-6.23E-02
1714.24,344.016,-6.52E-02
1716.74,344.416,-6.67E-02
1719.21,344.816,-6.81E-02
1721.67,345.216,-6.78E-02
1724.15,345.616,-6.96E-02
1726.61,346.016,-7.10E-02
1729.044,346.416,-6.97E-02
1731.49,346.816,-7.12E-02
1733.916,347.216,-7.19E-02
1736.34,347.616,-7.17E-02
1738.761,348.016,-7.40E-02
1741.197,348.416,-7.49E-02
1743.62,348.816,-7.41E-02
1746.04,349.216,-7.67E-02
1748.44,349.616,-7.51E-02
1750.851,350.016,-7.75E-02
1753.24,350.416,-7.88E-02
1755.62,350.816,-8.21E-02
1758,351.216,-8.26E-02
1760.373,351.616,-8.22E-02
1762.74,352.016,-8.47E-02
1765.1,352.416,-8.39E-02
1767.44,352.816,-8.56E-02
1769.79,353.216,-8.72E-02
1772.13,353.616,-8.93E-02
1774.46,354.016,-9.08E-02
1776.79,354.416,-9.01E-02
1779.12,354.816,-9.29E-02
1781.445,355.216,-9.61E-02
1783.77,355.616,-9.69E-02
1786.08,356.016,-9.76E-02
1788.39,356.416,-0.10138
1790.691,356.816,-9.98E-02
1792.98,357.216,-0.10569
1795.27,357.616,-0.10528
1797.549,358.016,-0.10522
1799.82,358.416,-0.10744
1802.085,358.816,-0.10854
1804.35,359.216,-0.11008
1806.61,359.616,-0.11339
1808.86,360.016,-0.11421
1811.1,360.416,-0.11835
1813.33,360.816,-0.11629
1815.56,361.216,-0.11697
1817.78,361.616,-0.12033
1819.995,362.016,-0.12288
1822.21,362.416,-0.12644
1824.44,362.816,-0.12581
1826.66,363.216,-0.12771
1828.87,363.616,-0.12764
1831.09,364.016,-0.12998
1833.3,364.416,-0.1322
1835.51,364.816,-0.1336
1837.719,365.216,-0.13525
1839.92,365.616,-0.13456
1842.11,366.016,-0.13852
1844.29,366.416,-0.1416
1846.46,366.816,-0.14238
1848.633,367.216,-0.14052
1850.79,367.616,-0.1449
1852.95,368.016,-0.14487
1855.11,368.416,-0.14968
1857.258,368.816,-0.15048
1859.41,369.216,-0.15248
1861.55,369.616,-0.15441
1863.69,370.016,-0.1557
1865.835,370.416,-0.15593
1867.98,370.816,-0.15667
1870.12,371.216,-0.15643
1872.25,371.616,-0.16362
1874.38,372.016,-0.16243
1876.5,372.416,-0.16666
1878.62,372.816,-0.16454
1880.733,373.216,-0.1682
1882.842,373.616,-0.17011
1884.95,374.016,-0.17074
1887.06,374.416,-0.17189
1889.17,374.816,-0.17542
1891.28,375.216,-0.17673
1893.39,375.616,-0.17733
1895.493,376.016,-0.18054
1897.6,376.416,-0.17975
1899.7,376.816,-0.18118
1901.79,377.216,-0.1835
1903.884,377.616,-0.18646
1905.97,378.016,-0.18745
1908.06,378.416,-0.18964
1910.15,378.816,-0.19122
1912.236,379.216,-0.19331
1914.32,379.616,-0.195
1916.4,380.016,-0.19877
1918.49,380.416,-0.19697
1920.57,380.816,-0.19979
1922.64,381.216,-0.20186
1924.72,381.616,-0.20174
1926.79,382.016,-0.20677
1928.86,382.416,-0.20956
1930.93,382.816,-0.20869
1933,383.216,-0.20949
1935.07,383.616,-0.21194
1937.13,384.016,-0.21439
1939.2,384.416,-0.21513
1941.26,384.816,-0.2146
1943.32,385.216,-0.21966
1945.368,385.616,-0.21928
1947.42,386.016,-0.2235
1949.478,386.416,-0.22508
1951.54,386.816,-0.22539
1953.59,387.216,-0.22833
1955.65,387.616,-0.22703
1957.71,388.016,-0.23181
1959.771,388.416,-0.23296
1961.82,388.816,-0.23079
1963.87,389.216,-0.23501
1965.921,389.616,-0.23769
1967.964,390.016,-0.23831
1970.01,390.416,-0.23976
1972.05,390.816,-0.24298
1974.09,391.216,-0.245
1976.13,391.616,-0.24575
1978.16,392.016,-0.25015
1980.204,392.416,-0.24712
1982.24,392.816,-0.25283
1984.27,393.216,-0.25232
1986.29,393.616,-0.25535
1988.32,394.016,-0.25487
1990.35,394.416,-0.25614
1992.37,394.816,-0.25894
1994.394,395.216,-0.25969
1996.407,395.616,-0.26254
1998.43,396.016,-0.26335
2000.45,396.416,-0.26454
2002.46,396.816,-0.26701
2004.477,397.216,-0.2695
2006.496,397.616,-0.27038
2008.52,398.016,-0.27123
2010.534,398.416,-0.27504
2012.55,398.816,-0.27848
2014.56,399.216,-0.28049
2016.576,399.616,-0.28357
2018.58,400.016,-0.28446
2020.59,400.416,-0.2892
2022.6,400.816,-0.28952
2024.6,401.216,-0.29216
2026.599,401.616,-0.29682
2028.6,402.016,-0.29743
2030.595,402.416,-0.30027
2032.593,402.816,-0.30377
2034.59,403.216,-0.30371
2036.595,403.616,-0.31097
2038.593,404.016,-0.31232
2040.59,404.416,-0.31528
2042.59,404.816,-0.31651
2044.59,405.216,-0.31858
2046.58,405.616,-0.32373
2048.57,406.016,-0.32479
2050.55,406.416,-0.32795
2052.54,406.816,-0.33445
2054.52,407.216,-0.33368
2056.5,407.616,-0.34027
2058.48,408.016,-0.34226
2060.46,408.416,-0.34683
2062.44,408.816,-0.34999
2064.426,409.216,-0.34954
2066.403,409.616,-0.35471
2068.374,410.016,-0.35607
2070.34,410.416,-0.36286
2072.32,410.816,-0.36235
2074.3,411.216,-0.36567
2076.26,411.616,-0.369
2078.24,412.016,-0.37222
2080.22,412.416,-0.377
2082.19,412.816,-0.37629
2084.16,413.216,-0.38045
2086.12,413.616,-0.38316
2088.09,414.016,-0.385
2090.06,414.416,-0.38619
2092.02,414.816,-0.39306
2093.98,415.216,-0.39177
2095.95,415.616,-0.39714
2097.91,416.016,-0.39959
2099.87,416.416,-0.40243
2101.83,416.816,-0.40416
2103.78,417.216,-0.40642
2105.74,417.616,-0.40714
2107.7,418.016,-0.40957
2109.65,418.416,-0.4155
2111.61,418.816,-0.41721
2113.572,419.216,-0.41883
2115.54,419.616,-0.42108
2117.5,420.016,-0.42435
2119.45,420.416,-0.42494
2121.408,420.816,-0.42621
2123.36,421.216,-0.42624
2125.32,421.616,-0.43223
2127.27,422.016,-0.43274
2129.22,422.416,-0.43489
2131.16,422.816,-0.43966
2133.12,423.216,-0.44081
2135.06,423.616,-0.44363
2137.02,424.016,-0.44487
2138.97,424.416,-0.44883
2140.93,424.816,-0.44921
2142.88,425.216,-0.45146
2144.83,425.616,-0.45518
2146.78,426.016,-0.45692
2148.73,426.416,-0.45799
2150.68,426.816,-0.46087
2152.64,427.216,-0.46359
2154.59,427.616,-0.46294
2156.547,428.016,-0.46674
2158.5,428.416,-0.46869
2160.45,428.816,-0.4714
2162.403,429.216,-0.47057
2164.35,429.616,-0.47389
2166.29,430.016,-0.47581
2168.24,430.416,-0.47458
2170.18,430.816,-0.47791
2172.132,431.216,-0.4795
2174.08,431.616,-0.48265
2176.03,432.016,-0.48552
2177.98,432.416,-0.48694
2179.93,432.816,-0.48907
2181.888,433.216,-0.48803
2183.84,433.616,-0.48979
2185.791,434.016,-0.49327
2187.74,434.416,-0.49427
2189.7,434.816,-0.4963
2191.65,435.216,-0.49927
2193.6,435.616,-0.50061
2195.55,436.016,-0.49995
2197.51,436.416,-0.50257
2199.46,436.816,-0.50556
2201.41,437.216,-0.50915
2203.36,437.616,-0.50609
2205.32,438.016,-0.50825
2207.265,438.416,-0.51089
2209.22,438.816,-0.51391
2211.17,439.216,-0.51297
2213.13,439.616,-0.51508
2215.08,440.016,-0.51613
2217.03,440.416,-0.51646
2218.99,440.816,-0.51655
2220.95,441.216,-0.51802
2222.9,441.616,-0.51876
2224.85,442.016,-0.5202
2226.8,442.416,-0.52421
2228.75,442.816,-0.52445
2230.7,443.216,-0.52507
2232.65,443.616,-0.52608
2234.6,444.016,-0.52885
2236.554,444.416,-0.52787
2238.51,444.816,-0.53063
2240.46,445.216,-0.5281
2242.41,445.616,-0.52727
2244.36,446.016,-0.53138
2246.31,446.416,-0.52931
2248.26,446.816,-0.53283
2250.21,447.216,-0.53268
2252.16,447.616,-0.53449
2254.12,448.016,-0.53899
2256.08,448.416,-0.53801
2258.05,448.816,-0.53775
2260,449.216,-0.53808
2261.97,449.616,-0.53651
2263.93,450.016,-0.54115
2265.89,450.416,-0.54322
2267.85,450.816,-0.54428
2269.81,451.216,-0.54307
2271.78,451.616,-0.54391
2273.73,452.016,-0.54677
2275.68,452.416,-0.54674
2277.64,452.816,-0.54608
2279.59,453.216,-0.54942
2281.54,453.616,-0.55063
2283.5,454.016,-0.55244
2285.45,454.416,-0.55634
2287.4,454.816,-0.55884
2289.36,455.216,-0.55833
2291.322,455.616,-0.56034
2293.28,456.016,-0.56122
2295.24,456.416,-0.56262
2297.19,456.816,-0.5649
2299.15,457.216,-0.56618
2301.11,457.616,-0.56818
2303.07,458.016,-0.5718
2305.03,458.416,-0.57483
2306.99,458.816,-0.5763
2308.94,459.216,-0.5786
2310.9,459.616,-0.58233
2312.859,460.016,-0.58389
2314.815,460.416,-0.58847
2316.777,460.816,-0.59089
2318.73,461.216,-0.59083
2320.69,461.616,-0.59468
2322.65,462.016,-0.59774
2324.61,462.416,-0.60261
2326.57,462.816,-0.60279
2328.53,463.216,-0.60466
2330.5,463.616,-0.60699
2332.46,464.016,-0.61008
2334.43,464.416,-0.60983
2336.4,464.816,-0.61457
2338.38,465.216,-0.61786
2340.345,465.616,-0.62142
2342.31,466.016,-0.6235
2344.27,466.416,-0.62837
2346.24,466.816,-0.6302
2348.2,467.216,-0.63315
2350.16,467.616,-0.63587
2352.13,468.016,-0.64173
2354.091,468.416,-0.64351
2356.06,468.816,-0.64715
2358.03,469.216,-0.65233
2360,469.616,-0.65299
2361.96,470.016,-0.65666
2363.93,470.416,-0.65864
2365.89,470.816,-0.66369
2367.86,471.216,-0.66487
2369.82,471.616,-0.66723
2371.79,472.016,-0.6695
2373.76,472.416,-0.67215
2375.733,472.816,-0.67703
2377.7,473.216,-0.67962
2379.675,473.616,-0.68205
2381.65,474.016,-0.68068
2383.63,474.416,-0.68407
2385.6,474.816,-0.68759
2387.574,475.216,-0.68818
2389.54,475.616,-0.69209
2391.53,476.016,-0.69623
2393.5,476.416,-0.69569
2395.47,476.816,-0.6968
2397.45,477.216,-0.6985
2399.42,477.616,-0.70396
2401.4,478.016,-0.70784
2403.378,478.416,-0.70626
2405.35,478.816,-0.71316
2407.34,479.216,-0.71585
2409.318,479.616,-0.71822
2411.298,480.016,-0.72243
2413.28,480.416,-0.72163
2415.27,480.816,-0.72544
2417.26,481.216,-0.72696
2419.26,481.616,-0.73027
2421.25,482.016,-0.73321
2423.23,482.416,-0.73829
2425.22,482.816,-0.7395
2427.207,483.216,-0.74429
2429.19,483.616,-0.74963
2431.18,484.016,-0.75334
2433.16,484.416,-0.75591
2435.15,484.816,-0.75898
2437.14,485.216,-0.76493
2439.13,485.616,-0.76695
2441.121,486.016,-0.7735
2443.11,486.416,-0.77685
2445.111,486.816,-0.77933
2447.11,487.216,-0.78409
2449.104,487.616,-0.78827
2451.1,488.016,-0.79296
2453.1,488.416,-0.79625
2455.1,488.816,-0.80278
2457.09,489.216,-0.80325
2459.09,489.616,-0.80956
2461.08,490.016,-0.81056
2463.08,490.416,-0.81755
2465.08,490.816,-0.82059
2467.08,491.216,-0.82405
2469.08,491.616,-0.82697
2471.07,492.016,-0.8296
2473.07,492.416,-0.83295
2475.07,492.816,-0.83593
2477.07,493.216,-0.83872
2479.08,493.616,-0.84273
2481.08,494.016,-0.84752
2483.09,494.416,-0.8512
2485.1,494.816,-0.85311
2487.111,495.216,-0.85695
2489.12,495.616,-0.86003
2491.13,496.016,-0.86232
2493.14,496.416,-0.86789
2495.14,496.816,-0.86693
2497.15,497.216,-0.86923
2499.16,497.616,-0.87282
2501.166,498.016,-0.8732
2503.17,498.416,-0.87465
2505.18,498.816,-0.87821
2507.196,499.216,-0.88663
2509.21,499.616,-0.88687
2511.23,500.016,-0.88729
2513.25,500.416,-0.89068
2515.266,500.816,-0.89505
2517.28,501.216,-0.89654
2519.3,501.616,-0.8987
2521.32,502.016,-0.9001
2523.34,502.416,-0.90747
2525.35,502.816,-0.90642
2527.362,503.216,-0.90609
2529.38,503.616,-0.90973
2531.39,504.016,-0.91035
2533.41,504.416,-0.91459
2535.43,504.816,-0.91536
2537.45,505.216,-0.91962
2539.48,505.616,-0.92258
2541.51,506.016,-0.92661
2543.532,506.416,-0.92746
2545.56,506.816,-0.92757
2547.58,507.216,-0.93188
2549.607,507.616,-0.93036
2551.63,508.016,-0.93611
2553.654,508.416,-0.93782
2555.68,508.816,-0.93808
2557.71,509.216,-0.94273
2559.74,509.616,-0.94494
2561.76,510.016,-0.94458
2563.78,510.416,-0.95263
2565.81,510.816,-0.95423
2567.83,511.216,-0.95514
2569.854,511.616,-0.95878
2571.876,512.016,-0.9574
2573.907,512.416,-0.96095
2575.94,512.816,-0.96606
2577.97,513.216,-0.96457
2580,513.616,-0.96488
2582.04,514.016,-0.96917
2584.07,514.416,-0.97264
2586.11,514.816,-0.97561
2588.15,515.216,-0.97693
2590.18,515.616,-0.97643
2592.213,516.016,-0.97801
2594.25,516.416,-0.97989
2596.29,516.816,-0.97925
2598.34,517.216,-0.98597
2600.373,517.616,-0.98613
2602.41,518.016,-0.9891
2604.46,518.416,-0.98978
2606.5,518.816,-0.99247
2608.548,519.216,-0.99538
2610.59,519.616,-0.99444
2612.63,520.016,-0.99824
2614.68,520.416,-0.99444
2616.726,520.816,-0.99728
2618.77,521.216,-1.00162
2620.818,521.616,-1.00707
2622.86,522.016,-1.00581
2624.91,522.416,-1.00387
2626.95,522.816,-1.00582
2629,523.216,-1.00981
2631.054,523.616,-1.00944
2633.103,524.016,-1.0135
2635.16,524.416,-1.01575
2637.22,524.816,-1.01731
2639.271,525.216,-1.01673
2641.34,525.616,-1.0218
2643.396,526.016,-1.02047
2645.46,526.416,-1.01942
2647.53,526.816,-1.02345
2649.59,527.216,-1.02135
2651.66,527.616,-1.02339
2653.72,528.016,-1.02865
2655.783,528.416,-1.02903
2657.844,528.816,-1.03036
2659.9,529.216,-1.03169
2661.96,529.616,-1.03294
2664.024,530.016,-1.03556
2666.09,530.416,-1.03549
2668.155,530.816,-1.03559
2670.22,531.216,-1.03548
2672.29,531.616,-1.03668
2674.36,532.016,-1.03622
2676.42,532.416,-1.04033
2678.48,532.816,-1.04119
2680.55,533.216,-1.04019
2682.62,533.616,-1.04257
2684.69,534.016,-1.04398
2686.76,534.416,-1.04489
2688.834,534.816,-1.04484
2690.91,535.216,-1.04483
2692.98,535.616,-1.04396
2695.05,536.016,-1.04887
2697.12,536.416,-1.04893
2699.2,536.816,-1.04884
2701.28,537.216,-1.05142
2703.36,537.616,-1.05123
2705.442,538.016,-1.053
2707.52,538.416,-1.05353
2709.61,538.816,-1.05447
2711.69,539.216,-1.05361
2713.77,539.616,-1.05524
2715.861,540.016,-1.05428
2717.943,540.416,-1.05531
2720.03,540.816,-1.05834
2722.11,541.216,-1.05648
2724.2,541.616,-1.05794
2726.29,542.016,-1.05742
2728.37,542.416,-1.05817
2730.462,542.816,-1.05867
2732.55,543.216,-1.05867
2734.64,543.616,-1.05787
2736.74,544.016,-1.05935
2738.832,544.416,-1.05834
2740.93,544.816,-1.05831
2743.02,545.216,-1.06042
2745.123,545.616,-1.06245
2747.22,546.016,-1.06019
2749.31,546.416,-1.0642
2751.41,546.816,-1.06284
2753.51,547.216,-1.06097
2755.61,547.616,-1.06482
2757.71,548.016,-1.065
2759.81,548.416,-1.06327
2761.92,548.816,-1.06174
2764.02,549.216,-1.06144
2766.117,549.616,-1.06175
2768.22,550.016,-1.06275
2770.33,550.416,-1.06181
2772.44,550.816,-1.06083
2774.55,551.216,-1.06234
2776.66,551.616,-1.0606
2778.77,552.016,-1.05823
2780.88,552.416,-1.05908
2783,552.816,-1.05542
2785.11,553.216,-1.05831
2787.23,553.616,-1.05716
2789.34,554.016,-1.05866
2791.45,554.416,-1.05732
2793.57,554.816,-1.05432
2795.68,555.216,-1.05653
2797.79,555.616,-1.05652
2799.92,556.016,-1.05592
2802.04,556.416,-1.05191
2804.16,556.816,-1.05135
2806.28,557.216,-1.05112
2808.4,557.616,-1.04967
2810.52,558.016,-1.04944
2812.63,558.416,-1.05024
2814.75,558.816,-1.04665
2816.87,559.216,-1.04908
2818.99,559.616,-1.04803
2821.11,560.016,-1.0496
2823.23,560.416,-1.04647
2825.358,560.816,-1.04843
2827.48,561.216,-1.04733
2829.6,561.616,-1.04703
2831.724,562.016,-1.04367
2833.848,562.416,-1.04645
2835.97,562.816,-1.04644
2838.099,563.216,-1.04415
2840.23,563.616,-1.0415
2842.359,564.016,-1.04116
2844.489,564.416,-1.03952
2846.63,564.816,-1.03775
2848.755,565.216,-1.0402
2850.89,565.616,-1.03885
2853.01,566.016,-1.0374
2855.15,566.416,-1.03899
2857.28,566.816,-1.03963
2859.411,567.216,-1.03507
2861.553,567.616,-1.0337
2863.686,568.016,-1.03285
2865.82,568.416,-1.03462
2867.958,568.816,-1.03195
2870.1,569.216,-1.03407
2872.24,569.616,-1.03273
2874.37,570.016,-1.03284
2876.51,570.416,-1.0298
2878.64,570.816,-1.03271
2880.78,571.216,-1.03167
2882.92,571.616,-1.03102
2885.05,572.016,-1.02729
2887.19,572.416,-1.03146
2889.339,572.816,-1.02865
2891.48,573.216,-1.02733
2893.62,573.616,-1.02609
2895.76,574.016,-1.02604
2897.91,574.416,-1.02376
2900.05,574.816,-1.02365
2902.19,575.216,-1.02315
2904.33,575.616,-1.02381
2906.46,576.016,-1.02516
2908.61,576.416,-1.02139
2910.75,576.816,-1.0226
2912.88,577.216,-1.01988
2915.01,577.616,-1.01952
2917.16,578.016,-1.02002
2919.3,578.416,-1.02109
2921.44,578.816,-1.0145
2923.58,579.216,-1.01671
2925.73,579.616,-1.01333
2927.88,580.016,-1.01143
2930.03,580.416,-1.01443
2932.176,580.816,-1.01393
2934.32,581.216,-1.01185
2936.47,581.616,-1.01376
2938.61,582.016,-1.01186
2940.762,582.416,-1.01081
2942.91,582.816,-1.00964
2945.05,583.216,-1.009
2947.2,583.616,-1.00784
2949.35,584.016,-1.00319
2951.49,584.416,-0.99921
2953.63,584.816,-1.00021
2955.777,585.216,-0.99807
2957.916,585.616,-0.99637
2960.05,586.016,-1.00031
2962.2,586.416,-0.99503
2964.35,586.816,-0.99451
2966.51,587.216,-0.99027
2968.66,587.616,-0.98907
2970.82,588.016,-0.987
2972.99,588.416,-0.98447
2975.15,588.816,-0.98041
2977.32,589.216,-0.98013
2979.483,589.616,-0.97719
2981.65,590.016,-0.97467
2983.81,590.416,-0.97016
2985.97,590.816,-0.96667
2988.132,591.216,-0.96251
2990.289,591.616,-0.96146
2992.46,592.016,-0.95812
2994.62,592.416,-0.95477
2996.78,592.816,-0.94972
2998.94,593.216,-0.95121
3001.1,593.616,-0.94317
3003.26,594.016,-0.94157
3005.41,594.416,-0.93407
3007.57,594.816,-0.93054
3009.73,595.216,-0.92516
3011.895,595.616,-0.91986
3014.07,596.016,-0.91902
3016.23,596.416,-0.9104
3018.4,596.816,-0.90491
3020.57,597.216,-0.90154
3022.73,597.616,-0.89423
3024.9,598.016,-0.88858
3027.07,598.416,-0.88148
3029.241,598.816,-0.87531
3031.41,599.216,-0.87133
3033.585,599.616,-0.86379
3035.75,600.016,-0.85846
3037.92,600.416,-0.85069
3040.1,600.816,-0.84456
3042.27,601.216,-0.83777
3044.45,601.616,-0.82921
3046.62,602.016,-0.82435
3048.8,602.416,-0.81301
3050.98,602.816,-0.80564
3053.15,603.216,-0.79918
3055.33,603.616,-0.78808
3057.51,604.016,-0.78143
3059.69,604.416,-0.77054
3061.87,604.816,-0.76032
3064.06,605.216,-0.75363
3066.234,605.616,-0.74365
3068.42,606.016,-0.73193
3070.6,606.416,-0.72206
3072.78,606.816,-0.70829
3074.95,607.216,-0.70054
3077.13,607.616,-0.68941
3079.32,608.016,-0.67846
3081.492,608.416,-0.66358
3083.67,608.816,-0.65359
3085.85,609.216,-0.64067
3088.03,609.616,-0.63012
3090.21,610.016,-0.61491
3092.38,610.416,-0.60098
3094.57,610.816,-0.58568
3096.753,611.216,-0.56882
3098.94,611.616,-0.55703
3101.13,612.016,-0.54191
3103.32,612.416,-0.5263
3105.51,612.816,-0.50936
3107.697,613.216,-0.49518
3109.89,613.616,-0.48131
3112.08,614.016,-0.46281
3114.26,614.416,-0.44475
3116.46,614.816,-0.43085
3118.64,615.216,-0.41199
3120.84,615.616,-0.3916
3123.03,616.016,-0.3766
3125.22,616.416,-0.3562
3127.41,616.816,-0.33726
3129.59,617.216,-0.3197
3131.79,617.616,-0.2984
3133.98,618.016,-0.27856
3136.18,618.416,-0.25761
3138.37,618.816,-0.23784
3140.57,619.216,-0.21695
3142.773,619.616,-0.19877
3144.97,620.016,-0.17458
3147.18,620.416,-0.15126
3149.38,620.816,-0.13049
3151.58,621.216,-0.10861
3153.78,621.616,-8.91E-02
3155.98,622.016,-6.25E-02
3158.18,622.416,-4.18E-02
3160.383,622.816,-2.16E-02
3162.59,623.216,5.93E-03
3164.79,623.616,2.65E-02
3166.99,624.016,5.15E-02
3169.19,624.416,7.28E-02
3171.39,624.816,9.89E-02
3173.59,625.216,0.12446
3175.791,625.616,0.14436
3178,626.016,0.16701
3180.2,626.416,0.18713
3182.42,626.816,0.20362
3184.62,627.216,0.22583
3186.84,627.616,0.24417
3189.04,628.016,0.2642
3191.256,628.416,0.27879
3193.47,628.816,0.29433
3195.68,629.216,0.30721
3197.89,629.616,0.31752
3200.1,630.016,0.32991
3202.31,630.416,0.33732
3204.52,630.816,0.34425
3206.73,631.216,0.35128
3208.95,631.616,0.3569
3211.15,632.016,0.35877
3213.37,632.416,0.36233
3215.58,632.816,0.36633
3217.797,633.216,0.37367
3220.01,633.616,0.38294
3222.222,634.016,0.38142
3224.44,634.416,0.37917
3226.65,634.816,0.38227
3228.87,635.216,0.38722
3231.081,635.616,0.39371
3233.3,636.016,0.39538
3235.52,636.416,0.39943
3237.726,636.816,0.39732
3239.94,637.216,0.40404
3242.16,637.616,0.40856
3244.38,638.016,0.41339
3246.6,638.416,0.40244
3248.82,638.816,0.39542
3251.04,639.216,0.40049
3253.263,639.616,0.38494
3255.49,640.016,0.34918
3257.709,640.416,0.31615
3259.93,640.816,0.28859
3262.15,641.216,0.24905
3264.37,641.616,0.20286
3266.598,642.016,0.15957
3268.82,642.416,0.11438
3271.04,642.816,5.44E-02
3273.255,643.216,-1.88E-02
3275.47,643.616,-8.87E-02
3277.69,644.016,-8.63E-02
3279.903,644.416,-8.34E-02
3282.12,644.816,-9.10E-02
3284.334,645.216,-0.11915
3286.55,645.616,-0.13707
3288.76,646.016,-0.16463
3290.98,646.416,-0.11485
3293.202,646.816,-9.36E-02
3295.42,647.216,-7.86E-02
3297.64,647.616,-6.67E-02
3299.86,648.016,-5.35E-02
3302.08,648.416,-3.34E-02
3304.305,648.816,-1.27E-02
3306.53,649.216,-5.36E-03
3308.76,649.616,2.52E-03
3310.99,650.016,-6.93E-03
3313.21,650.416,1.48E-02
3315.44,650.816,2.31E-02
3317.66,651.216,1.83E-02
3319.88,651.616,2.88E-02
3322.11,652.016,2.52E-02
3324.35,652.416,2.05E-02
3326.58,652.816,1.26E-02
3328.815,653.216,1.45E-02
3331.05,653.616,2.15E-02
3333.28,654.016,1.04E-02
3335.514,654.416,-3.20E-03
3337.74,654.816,-7.48E-03
3339.972,655.216,-3.27E-02
3342.207,655.616,-3.38E-02
3344.44,656.016,-4.50E-02
3346.67,656.416,-6.61E-02
3348.9,656.816,-9.11E-02
3351.13,657.216,-0.11552
3353.35,657.616,-0.13439
3355.58,658.016,-0.14533
3357.8,658.416,-0.16398
3360.03,658.816,-0.17833
3362.26,659.216,-0.19505
3364.49,659.616,-0.21044
3366.73,660.016,-0.23932
3368.95,660.416,-0.26132
3371.18,660.816,-0.29074
3373.41,661.216,-0.31891
3375.64,661.616,-0.34772
3377.88,662.016,-0.37763
3380.103,662.416,-0.40295
3382.34,662.816,-0.43415
3384.57,663.216,-0.45692
3386.79,663.616,-0.47853
3389.02,664.016,-0.51149
3391.251,664.416,-0.53797
3393.48,664.816,-0.57199
3395.7,665.216,-0.59635
3397.93,665.616,-0.62666
3400.164,666.016,-0.64888
3402.39,666.416,-0.67604
3404.62,666.816,-0.70076
3406.842,667.216,-0.71937
3409.074,667.616,-0.74413
3411.3,668.016,-0.77065
3413.52,668.416,-0.79213
3415.74,668.816,-0.80737
3417.97,669.216,-0.83083
3420.19,669.616,-0.84358
3422.42,670.016,-0.86492
3424.64,670.416,-0.87911
3426.88,670.816,-0.89383
3429.11,671.216,-0.90815
3431.35,671.616,-0.92559
3433.58,672.016,-0.94156
3435.81,672.416,-0.95794
3438.042,672.816,-0.97377
3440.27,673.216,-0.99057
3442.5,673.616,-1.00218
3444.72,674.016,-1.01777
3446.95,674.416,-1.03272
3449.18,674.816,-1.04371
3451.41,675.216,-1.05989
3453.64,675.616,-1.07459
3455.87,676.016,-1.0873
3458.1,676.416,-1.10001
3460.34,676.816,-1.10964
3462.57,677.216,-1.12302
3464.79,677.616,-1.13545
3467.028,678.016,-1.14668
3469.26,678.416,-1.15734
3471.5,678.816,-1.1689
3473.72,679.216,-1.17858
3475.965,679.616,-1.18843
3478.2,680.016,-1.19612
3480.43,680.416,-1.21187
3482.66,680.816,-1.21757
3484.9,681.216,-1.22411
3487.13,681.616,-1.23393
3489.363,682.016,-1.24077
3491.601,682.416,-1.2463
3493.84,682.816,-1.25626
3496.08,683.216,-1.26306
3498.33,683.616,-1.26963
3500.574,684.016,-1.27716
3502.815,684.416,-1.2804
3505.05,684.816,-1.28506
3507.29,685.216,-1.2926
3509.544,685.616,-1.29843
3511.785,686.016,-1.30104
3514.029,686.416,-1.30638
3516.276,686.816,-1.31074
3518.52,687.216,-1.31817
3520.77,687.616,-1.32117
3523.02,688.016,-1.32342
3525.273,688.416,-1.32467
3527.53,688.816,-1.33178
3529.78,689.216,-1.33608
3532.03,689.616,-1.33911
3534.28,690.016,-1.34398
3536.54,690.416,-1.34566
3538.8,690.816,-1.35029
3541.05,691.216,-1.35083
3543.31,691.616,-1.35621
3545.58,692.016,-1.35714
3547.84,692.416,-1.36179
3550.1,692.816,-1.36272
3552.36,693.216,-1.36623
3554.63,693.616,-1.36887
3556.893,694.016,-1.37236
3559.16,694.416,-1.37438
3561.42,694.816,-1.37418
3563.69,695.216,-1.3793
3565.97,695.616,-1.37621
3568.26,696.016,-1.3797
3570.53,696.416,-1.38404
3572.8,696.816,-1.38255
3575.08,697.216,-1.38378
3577.35,697.616,-1.38599
3579.62,698.016,-1.38787
3581.89,698.416,-1.38955
3584.16,698.816,-1.38608
3586.44,699.216,-1.38391
3588.73,699.616,-1.38931
3591.01,700.016,-1.38594
3593.292,700.416,-1.38295
3595.57,700.816,-1.38382
3597.86,701.216,-1.38286
3600.14,701.616,-1.38188
3602.43,702.016,-1.38213
3604.71,702.416,-1.38155
3607.008,702.816,-1.3822
3609.3,703.216,-1.37669
3611.59,703.616,-1.37586
3613.87,704.016,-1.3723
3616.16,704.416,-1.37096
3618.45,704.816,-1.36911
3620.74,705.216,-1.36719
3623.043,705.616,-1.36416
3625.338,706.016,-1.36496
3627.64,706.416,-1.36103
3629.94,706.816,-1.35672
3632.241,707.216,-1.35281
3634.536,707.616,-1.35383
3636.85,708.016,-1.35301
3639.15,708.416,-1.34915
3641.46,708.816,-1.34735
3643.77,709.216,-1.34651
3646.08,709.616,-1.34396
3648.39,710.016,-1.34284
3650.7,710.416,-1.34344
3653.01,710.816,-1.34095
3655.31,711.216,-1.3373
3657.62,711.616,-1.3366
3659.93,712.016,-1.33728
3662.24,712.416,-1.33488
3664.56,712.816,-1.33279
3666.88,713.216,-1.33283
3669.195,713.616,-1.32846
3671.51,714.016,-1.32874
3673.83,714.416,-1.33088
3676.15,714.816,-1.32816
3678.47,715.216,-1.32588
3680.79,715.616,-1.3271
3683.13,716.016,-1.32368
3685.46,716.416,-1.3256
3687.79,716.816,-1.3274
3690.12,717.216,-1.3248
3692.45,717.616,-1.3249
3694.78,718.016,-1.32799
3697.12,718.416,-1.32702
3699.456,718.816,-1.32696
3701.8,719.216,-1.3274
3704.136,719.616,-1.32303
3706.476,720.016,-1.3232
3708.81,720.416,-1.32589
3711.165,720.816,-1.33044
3713.51,721.216,-1.32999
3715.863,721.616,-1.32709
3718.22,722.016,-1.32824
3720.57,722.416,-1.33103
3722.91,722.816,-1.33052
3725.26,723.216,-1.32612
3727.61,723.616,-1.32572
3729.96,724.016,-1.32403
3732.31,724.416,-1.32845
3734.67,724.816,-1.32398
3737.03,725.216,-1.32718
3739.39,725.616,-1.32761
3741.75,726.016,-1.3264
3744.12,726.416,-1.32914
3746.484,726.816,-1.32522
3748.845,727.216,-1.32885
3751.21,727.616,-1.32692
3753.58,728.016,-1.32778
3755.937,728.416,-1.32607
3758.3,728.816,-1.32991
3760.67,729.216,-1.33249
3763.05,729.616,-1.32839
3765.42,730.016,-1.32968
3767.8,730.416,-1.32954
3770.181,730.816,-1.32854
3772.56,731.216,-1.32684
3774.93,731.616,-1.32906
3777.31,732.016,-1.3291
3779.69,732.416,-1.32907
3782.06,732.816,-1.32873
3784.44,733.216,-1.32903
3786.828,733.616,-1.32804
3789.22,734.016,-1.32926
3791.6,734.416,-1.32568
3793.998,734.816,-1.32962
3796.39,735.216,-1.32774
3798.79,735.616,-1.329
3801.19,736.016,-1.328
3803.59,736.416,-1.32675
3805.99,736.816,-1.3258
3808.39,737.216,-1.32655
3810.792,737.616,-1.32627
3813.195,738.016,-1.32739
3815.6,738.416,-1.3257
3818,738.816,-1.32866
3820.4,739.216,-1.32965
3822.807,739.616,-1.32869
3825.21,740.016,-1.32531
3827.61,740.416,-1.32696
3830.02,740.816,-1.32869
3832.42,741.216,-1.32888
3834.825,741.616,-1.33468
3837.231,742.016,-1.33012
3839.64,742.416,-1.33161
3842.06,742.816,-1.33232
3844.47,743.216,-1.33397
3846.888,743.616,-1.33477
3849.3,744.016,-1.33541
3851.71,744.416,-1.33449
3854.121,744.816,-1.3335
3856.53,745.216,-1.33411
3858.95,745.616,-1.33561
3861.36,746.016,-1.33278
3863.772,746.416,-1.33301
3866.184,746.816,-1.33231
3868.6,747.216,-1.33171
3871.02,747.616,-1.33152
3873.44,748.016,-1.33193
3875.85,748.416,-1.33191
3878.28,748.816,-1.33332
3880.72,749.216,-1.33127
3883.15,749.616,-1.33086
3885.54,750.016,-1.33379
3887.98,750.416,-1.3368
3890.42,750.816,-1.33716
3892.84,751.216,-1.33241
3895.26,751.616,-1.33067
3897.69,752.016,-1.33374
3900.12,752.416,-1.33089
3902.55,752.816,-1.33311
3904.98,753.216,-1.33181
3907.413,753.616,-1.33135
3909.85,754.016,-1.32912
3912.28,754.416,-1.33397
3914.73,754.816,-1.33235
3917.169,755.216,-1.32948
3919.61,755.616,-1.33006
3922.05,756.016,-1.32561
3924.492,756.416,-1.32879
3926.94,756.816,-1.32909
3929.38,757.216,-1.32854
3931.833,757.616,-1.32632
3934.28,758.016,-1.32635
3936.73,758.416,-1.32602
3939.18,758.816,-1.32567
3941.634,759.216,-1.32584
3944.08,759.616,-1.32513
3946.54,760.016,-1.32653
3948.99,760.416,-1.32448
3951.44,760.816,-1.32753
3953.895,761.216,-1.32641
3956.35,761.616,-1.32376
3958.82,762.016,-1.32597
3961.28,762.416,-1.3231
3963.74,762.816,-1.32076
3966.21,763.216,-1.32412
3968.66,763.616,-1.3227
3971.12,764.016,-1.3232
3973.581,764.416,-1.31806
3976.04,764.816,-1.31978
3978.5,765.216,-1.32083
3980.96,765.616,-1.31847
3983.42,766.016,-1.32031
3985.88,766.416,-1.3174
3988.34,766.816,-1.31878
3990.804,767.216,-1.31738
3993.267,767.616,-1.32138
3995.73,768.016,-1.32186
3998.18,768.416,-1.31931
4000.64,768.816,-1.31822
4003.095,769.216,-1.32015
4005.55,769.616,-1.32327
4008.006,770.016,-1.32177
4010.469,770.416,-1.32118
4012.94,770.816,-1.32023
4015.4,771.216,-1.32085
4017.87,771.616,-1.31796
4020.34,772.016,-1.32325
4022.8,772.416,-1.32232
4025.26,772.816,-1.32387
4027.73,773.216,-1.32551
4030.18,773.616,-1.32353
4032.65,774.016,-1.32259
4035.11,774.416,-1.32588
4037.57,774.816,-1.32387
4040.04,775.216,-1.32377
4042.51,775.616,-1.32509
4044.978,776.016,-1.32396
4047.45,776.416,-1.32511
4049.91,776.816,-1.32205
4052.38,777.216,-1.32386
4054.85,777.616,-1.3216
4057.31,778.016,-1.32172
4059.77,778.416,-1.3224
4062.24,778.816,-1.32364
4064.7,779.216,-1.32228
4067.17,779.616,-1.32095
4069.64,780.016,-1.32138
4072.11,780.416,-1.32092
4074.58,780.816,-1.32037
4077.06,781.216,-1.31891
4079.53,781.616,-1.31938
4082,782.016,-1.32036
4084.48,782.416,-1.31726
4086.96,782.816,-1.31745
4089.44,783.216,-1.31667
4091.92,783.616,-1.31454
4094.41,784.016,-1.31429
4096.89,784.416,-1.31667
4099.356,784.816,-1.32014
4101.84,785.216,-1.31694
4104.32,785.616,-1.31318
4106.79,786.016,-1.31222
4109.27,786.416,-1.31298
4111.75,786.816,-1.31214
4114.22,787.216,-1.31121
4116.69,787.616,-1.30726
4119.18,788.016,-1.31051
4121.658,788.416,-1.30781
4124.13,788.816,-1.30535
4126.62,789.216,-1.30808
4129.11,789.616,-1.30847
4131.588,790.016,-1.30296
4134.07,790.416,-1.3077
4136.56,790.816,-1.30914
4139.04,791.216,-1.30579
4141.52,791.616,-1.3065
4144.008,792.016,-1.30634
4146.492,792.416,-1.3065
4148.985,792.816,-1.30641
4151.475,793.216,-1.30676
4153.97,793.616,-1.30804
4156.46,794.016,-1.30336
4158.942,794.416,-1.30174
4161.42,794.816,-1.30243
4163.91,795.216,-1.30283
4166.39,795.616,-1.30541
4168.87,796.016,-1.30587
4171.36,796.416,-1.30127
4173.85,796.816,-1.30049
4176.33,797.216,-1.29849
4178.81,797.616,-1.30059
4181.29,798.016,-1.30284
4183.78,798.416,-1.29829
4186.26,798.816,-1.29716
4188.75,799.216,-1.29727
4191.24,799.616,-1.29607
4193.72,800.016,-1.29863
4196.21,800.416,-1.29393
4198.7,800.816,-1.29553
4201.18,801.216,-1.29291
4203.678,801.616,-1.28947
4206.17,802.016,-1.29181
4208.65,802.416,-1.29142
4211.14,802.816,-1.28925
4213.635,803.216,-1.28332
4216.12,803.616,-1.28475
4218.61,804.016,-1.28206
4221.11,804.416,-1.27755
4223.598,804.816,-1.27754
4226.09,805.216,-1.2773
4228.581,805.616,-1.27447
4231.07,806.016,-1.27237
4233.56,806.416,-1.27423
4236.05,806.816,-1.27027
4238.53,807.216,-1.27109
4241.01,807.616,-1.2704
4243.5,808.016,-1.27042
4245.984,808.416,-1.27226
4248.46,808.816,-1.27228
4250.943,809.216,-1.27373
4253.424,809.616,-1.27583
4255.9,810.016,-1.27648
4258.386,810.416,-1.27438
4260.87,810.816,-1.27413
4263.36,811.216,-1.27442
4265.84,811.616,-1.27608
4268.33,812.016,-1.27564
4270.81,812.416,-1.27029
4273.3,812.816,-1.27088
4275.78,813.216,-1.26858
4278.27,813.616,-1.26996
4280.76,814.016,-1.26825
4283.25,814.416,-1.26804
4285.73,814.816,-1.26648
4288.22,815.216,-1.26143
4290.71,815.616,-1.25973
4293.19,816.016,-1.2603
4295.68,816.416,-1.25394
4298.17,816.816,-1.25404
4300.665,817.216,-1.25328
4303.164,817.616,-1.24956
4305.66,818.016,-1.24542
4308.16,818.416,-1.24574
4310.658,818.816,-1.24062
4313.15,819.216,-1.24174
4315.641,819.616,-1.23757
4318.13,820.016,-1.23515
4320.63,820.416,-1.23372
4323.13,820.816,-1.235
4325.63,821.216,-1.23849
4328.12,821.616,-1.23027
4330.62,822.016,-1.23216
4333.11,822.416,-1.2261
4335.6,822.816,-1.22715
4338.09,823.216,-1.2213
4340.586,823.616,-1.22214
4343.08,824.016,-1.22084
4345.58,824.416,-1.21387
4348.09,824.816,-1.21507
4350.59,825.216,-1.21018
4353.08,825.616,-1.20647
4355.58,826.016,-1.20383
4358.079,826.416,-1.20153
4360.58,826.816,-1.19577
4363.07,827.216,-1.18617
4365.58,827.616,-1.18277
4368.075,828.016,-1.1808
4370.574,828.416,-1.17799
4373.073,828.816,-1.1774
4375.563,829.216,-1.17456
4378.05,829.616,-1.171
4380.53,830.016,-1.1672
4383.027,830.416,-1.16612
4385.51,830.816,-1.16559
4388,831.216,-1.15822
4390.49,831.616,-1.15893
4392.99,832.016,-1.1544
4395.48,832.416,-1.15438
4397.98,832.816,-1.15373
4400.48,833.216,-1.15278
4402.96,833.616,-1.15202
4405.45,834.016,-1.15002
4407.94,834.416,-1.15016
4410.42,834.816,-1.15082
4412.904,835.216,-1.15208
4415.39,835.616,-1.14713
4417.88,836.016,-1.14922
4420.36,836.416,-1.14785
4422.84,836.816,-1.14486
4425.324,837.216,-1.14637
4427.811,837.616,-1.14647
4430.3,838.016,-1.14605
4432.78,838.416,-1.14501
4435.27,838.816,-1.1449
4437.74,839.216,-1.14445
4440.219,839.616,-1.1417
4442.7,840.016,-1.14124
4445.169,840.416,-1.14273
4447.64,840.816,-1.13832
4450.12,841.216,-1.13769
4452.6,841.616,-1.13669
4455.09,842.016,-1.13867
4457.58,842.416,-1.13577
4460.06,842.816,-1.13287
4462.55,843.216,-1.13422
4465.03,843.616,-1.13319
4467.52,844.016,-1.13118
4470.006,844.416,-1.12944
4472.5,844.816,-1.13167
4474.97,845.216,-1.12831
4477.45,845.616,-1.129
4479.94,846.016,-1.12817
4482.43,846.416,-1.12888
4484.91,846.816,-1.12719
4487.4,847.216,-1.1248
4489.9,847.616,-1.12427
4492.39,848.016,-1.12486
4494.879,848.416,-1.12285
4497.38,848.816,-1.11552
4499.88,849.216,-1.11514
4502.38,849.616,-1.11228
4504.87,850.016,-1.10325
4507.38,850.416,-1.1037
4509.89,850.816,-1.10127
4512.39,851.216,-1.09739
4514.9,851.616,-1.09488
4517.41,852.016,-1.09035
4519.92,852.416,-1.08755
4522.44,852.816,-1.08053
4524.95,853.216,-1.07825
4527.48,853.616,-1.07114
4530.01,854.016,-1.06738
4532.53,854.416,-1.06598
4535.05,854.816,-1.06172
4537.59,855.216,-1.06145
4540.11,855.616,-1.05936
4542.65,856.016,-1.05785
4545.18,856.416,-1.0531
4547.715,856.816,-1.05269
4550.24,857.216,-1.05228
4552.76,857.616,-1.05328
4555.28,858.016,-1.05682
4557.8,858.416,-1.05254
4560.33,858.816,-1.05369
4562.85,859.216,-1.0524
4565.376,859.616,-1.05071
4567.9,860.016,-1.04504
4570.42,860.416,-1.04593
4572.95,860.816,-1.04611
4575.47,861.216,-1.04923
4577.99,861.616,-1.04532
4580.51,862.016,-1.04501
4583.04,862.416,-1.04453
4585.55,862.816,-1.04784
4588.08,863.216,-1.05257
4590.6,863.616,-1.05016
4593.12,864.016,-1.04869
4595.634,864.416,-1.05418
4598.15,864.816,-1.05599
4600.659,865.216,-1.05422
4603.17,865.616,-1.05741
4605.68,866.016,-1.06002
4608.19,866.416,-1.05717
4610.703,866.816,-1.06305
4613.22,867.216,-1.056
4615.737,867.616,-1.05071
4618.25,868.016,-1.05003
4620.759,868.416,-1.05231
4623.3,868.816,-1.04916
4625.81,869.216,-1.04867
4628.439,869.616,-1.04422