File: PMMA/Calibration_Data/Sandia/Sandia_TGA_Ar_10K_2.csv
Time,Temperature,Mass,
[s],[K],[mg],
1200.35,308.35,4.84E+00,
1316.217,308.75,4.84E+00,
1342.63,309.15,4.84E+00,
1360.99,309.55,4.83E+00,
1375.29,309.95,4.83E+00,
1387.42,310.35,4.83E+00,
1398.21,310.75,4.83E+00,
1407.81,311.15,4.83E+00,
1416.597,311.55,4.83E+00,
1424.76,311.95,4.83E+00,
1432.33,312.35,4.83E+00,
1439.47,312.75,4.83E+00,
1446.29,313.15,4.83E+00,
1452.71,313.55,4.83E+00,
1458.93,313.95,4.83E+00,
1464.91,314.35,4.83E+00,
1470.645,314.75,4.83E+00,
1476.2,315.15,4.83E+00,
1481.58,315.55,4.83E+00,
1486.79,315.95,4.83E+00,
1491.85,316.35,4.83E+00,
1496.77,316.75,4.83E+00,
1501.584,317.15,4.83E+00,
1506.24,317.55,4.83E+00,
1510.809,317.95,4.83E+00,
1515.288,318.35,4.83E+00,
1519.69,318.75,4.83E+00,
1524.05,319.15,4.83E+00,
1528.31,319.55,4.83E+00,
1532.51,319.95,4.83E+00,
1536.591,320.35,4.83E+00,
1540.62,320.75,4.83E+00,
1544.61,321.15,4.82E+00,
1548.55,321.55,4.82E+00,
1552.443,321.95,4.83E+00,
1556.25,322.35,4.83E+00,
1560.036,322.75,4.83E+00,
1563.76,323.15,4.83E+00,
1567.449,323.55,4.83E+00,
1571.07,323.95,4.83E+00,
1574.67,324.35,4.82E+00,
1578.23,324.75,4.82E+00,
1581.75,325.15,4.83E+00,
1585.22,325.55,4.82E+00,
1588.659,325.95,4.82E+00,
1592.079,326.35,4.83E+00,
1595.46,326.75,4.83E+00,
1598.814,327.15,4.82E+00,
1602.15,327.55,4.82E+00,
1605.44,327.95,4.82E+00,
1608.71,328.35,4.82E+00,
1611.95,328.75,4.82E+00,
1615.179,329.15,4.82E+00,
1618.38,329.55,4.82E+00,
1621.56,329.95,4.82E+00,
1624.73,330.35,4.82E+00,
1627.851,330.75,4.82E+00,
1630.95,331.15,4.82E+00,
1634.03,331.55,4.82E+00,
1637.08,331.95,4.82E+00,
1640.12,332.35,4.82E+00,
1643.14,332.75,4.82E+00,
1646.13,333.15,4.82E+00,
1649.13,333.55,4.83E+00,
1652.1,333.95,4.83E+00,
1655.04,334.35,4.82E+00,
1657.96,334.75,4.83E+00,
1660.857,335.15,4.82E+00,
1663.75,335.55,4.82E+00,
1666.632,335.95,4.83E+00,
1669.5,336.35,4.82E+00,
1672.34,336.75,4.83E+00,
1675.17,337.15,4.82E+00,
1677.98,337.55,4.83E+00,
1680.78,337.95,4.83E+00,
1683.56,338.35,4.83E+00,
1686.34,338.75,4.82E+00,
1689.1,339.15,4.83E+00,
1691.85,339.55,4.82E+00,
1694.58,339.95,4.82E+00,
1697.31,340.35,4.83E+00,
1700.02,340.75,4.83E+00,
1702.72,341.15,4.83E+00,
1705.41,341.55,4.83E+00,
1708.09,341.95,4.83E+00,
1710.75,342.35,4.82E+00,
1713.405,342.75,4.83E+00,
1716.06,343.15,4.82E+00,
1718.7,343.55,4.82E+00,
1721.34,343.95,4.82E+00,
1723.959,344.35,4.82E+00,
1726.56,344.75,4.82E+00,
1729.17,345.15,4.82E+00,
1731.75,345.55,4.82E+00,
1734.33,345.95,4.82E+00,
1736.91,346.35,4.82E+00,
1739.47,346.75,4.83E+00,
1742.02,347.15,4.83E+00,
1744.58,347.55,4.83E+00,
1747.12,347.95,4.83E+00,
1749.645,348.35,4.82E+00,
1752.17,348.75,4.83E+00,
1754.69,349.15,4.83E+00,
1757.2,349.55,4.83E+00,
1759.71,349.95,4.83E+00,
1762.2,350.35,4.82E+00,
1764.7,350.75,4.82E+00,
1767.2,351.15,4.82E+00,
1769.68,351.55,4.83E+00,
1772.14,351.95,4.82E+00,
1774.59,352.35,4.82E+00,
1777.029,352.75,4.83E+00,
1779.46,353.15,4.83E+00,
1781.9,353.55,4.83E+00,
1784.34,353.95,4.83E+00,
1786.78,354.35,4.83E+00,
1789.191,354.75,4.83E+00,
1791.61,355.15,4.83E+00,
1794.01,355.55,4.83E+00,
1796.41,355.95,4.83E+00,
1798.8,356.35,4.82E+00,
1801.185,356.75,4.82E+00,
1803.57,357.15,4.82E+00,
1805.96,357.55,4.82E+00,
1808.32,357.95,4.82E+00,
1810.67,358.35,4.83E+00,
1813.03,358.75,4.83E+00,
1815.38,359.15,4.83E+00,
1817.73,359.55,4.83E+00,
1820.06,359.95,4.83E+00,
1822.41,360.35,4.82E+00,
1824.74,360.75,4.83E+00,
1827.06,361.15,4.83E+00,
1829.38,361.55,4.83E+00,
1831.68,361.95,4.83E+00,
1833.98,362.35,4.83E+00,
1836.28,362.75,4.83E+00,
1838.565,363.15,4.83E+00,
1840.84,363.55,4.83E+00,
1843.12,363.95,4.83E+00,
1845.393,364.35,4.83E+00,
1847.661,364.75,4.83E+00,
1849.93,365.15,4.83E+00,
1852.19,365.55,4.83E+00,
1854.45,365.95,4.83E+00,
1856.7,366.35,4.83E+00,
1858.95,366.75,4.83E+00,
1861.19,367.15,4.83E+00,
1863.42,367.55,4.83E+00,
1865.66,367.95,4.83E+00,
1867.88,368.35,4.83E+00,
1870.11,368.75,4.83E+00,
1872.33,369.15,4.83E+00,
1874.55,369.55,4.83E+00,
1876.779,369.95,4.83E+00,
1878.99,370.35,4.83E+00,
1881.2,370.75,4.83E+00,
1883.406,371.15,4.83E+00,
1885.61,371.55,4.83E+00,
1887.81,371.95,4.83E+00,
1890,372.35,4.83E+00,
1892.18,372.75,4.83E+00,
1894.371,373.15,4.83E+00,
1896.56,373.55,4.83E+00,
1898.73,373.95,4.83E+00,
1900.91,374.35,4.83E+00,
1903.08,374.75,4.83E+00,
1905.25,375.15,4.83E+00,
1907.42,375.55,4.83E+00,
1909.59,375.95,4.83E+00,
1911.75,376.35,4.83E+00,
1913.92,376.75,4.83E+00,
1916.08,377.15,4.83E+00,
1918.23,377.55,4.83E+00,
1920.384,377.95,4.83E+00,
1922.535,378.35,4.83E+00,
1924.68,378.75,4.83E+00,
1926.82,379.15,4.83E+00,
1928.97,379.55,4.83E+00,
1931.11,379.95,4.83E+00,
1933.25,380.35,4.83E+00,
1935.39,380.75,4.83E+00,
1937.53,381.15,4.83E+00,
1939.67,381.55,4.83E+00,
1941.79,381.95,4.83E+00,
1943.92,382.35,4.83E+00,
1946.05,382.75,4.83E+00,
1948.16,383.15,4.83E+00,
1950.28,383.55,4.83E+00,
1952.4,383.95,4.83E+00,
1954.52,384.35,4.83E+00,
1956.64,384.75,4.83E+00,
1958.75,385.15,4.83E+00,
1960.87,385.55,4.83E+00,
1962.98,385.95,4.83E+00,
1965.08,386.35,4.83E+00,
1967.19,386.75,4.83E+00,
1969.3,387.15,4.83E+00,
1971.41,387.55,4.83E+00,
1973.51,387.95,4.83E+00,
1975.61,388.35,4.83E+00,
1977.71,388.75,4.83E+00,
1979.8,389.15,4.83E+00,
1981.899,389.55,4.83E+00,
1984,389.95,4.83E+00,
1986.1,390.35,4.83E+00,
1988.19,390.75,4.83E+00,
1990.28,391.15,4.83E+00,
1992.37,391.55,4.83E+00,
1994.45,391.95,4.83E+00,
1996.53,392.35,4.83E+00,
1998.61,392.75,4.83E+00,
2000.68,393.15,4.83E+00,
2002.755,393.55,4.83E+00,
2004.83,393.95,4.83E+00,
2006.9,394.35,4.83E+00,
2008.974,394.75,4.83E+00,
2011.044,395.15,4.83E+00,
2013.12,395.55,4.83E+00,
2015.19,395.95,4.83E+00,
2017.25,396.35,4.83E+00,
2019.309,396.75,4.83E+00,
2021.364,397.15,4.83E+00,
2023.42,397.55,4.83E+00,
2025.47,397.95,4.83E+00,
2027.52,398.35,4.83E+00,
2029.58,398.75,4.83E+00,
2031.621,399.15,4.83E+00,
2033.67,399.55,4.82E+00,
2035.72,399.95,4.82E+00,
2037.76,400.35,4.82E+00,
2039.81,400.75,4.82E+00,
2041.85,401.15,4.83E+00,
2043.89,401.55,4.83E+00,
2045.93,401.95,4.82E+00,
2047.97,402.35,4.83E+00,
2050.02,402.75,4.83E+00,
2052.06,403.15,4.83E+00,
2054.085,403.55,4.83E+00,
2056.11,403.95,4.83E+00,
2058.141,404.35,4.83E+00,
2060.16,404.75,4.83E+00,
2062.173,405.15,4.83E+00,
2064.19,405.55,4.82E+00,
2066.21,405.95,4.82E+00,
2068.23,406.35,4.82E+00,
2070.24,406.75,4.82E+00,
2072.25,407.15,4.82E+00,
2074.26,407.55,4.82E+00,
2076.27,407.95,4.82E+00,
2078.28,408.35,4.82E+00,
2080.28,408.75,4.82E+00,
2082.28,409.15,4.82E+00,
2084.29,409.55,4.82E+00,
2086.29,409.95,4.82E+00,
2088.3,410.35,4.82E+00,
2090.3,410.75,4.82E+00,
2092.308,411.15,4.82E+00,
2094.3,411.55,4.82E+00,
2096.31,411.95,4.82E+00,
2098.3,412.35,4.82E+00,
2100.29,412.75,4.82E+00,
2102.29,413.15,4.82E+00,
2104.28,413.55,4.82E+00,
2106.27,413.95,4.82E+00,
2108.26,414.35,4.82E+00,
2110.251,414.75,4.82E+00,
2112.24,415.15,4.82E+00,
2114.22,415.55,4.82E+00,
2116.21,415.95,4.82E+00,
2118.19,416.35,4.82E+00,
2120.18,416.75,4.82E+00,
2122.17,417.15,4.82E+00,
2124.15,417.55,4.82E+00,
2126.13,417.95,4.82E+00,
2128.1,418.35,4.82E+00,
2130.081,418.75,4.82E+00,
2132.05,419.15,4.82E+00,
2134.02,419.55,4.82E+00,
2135.99,419.95,4.82E+00,
2137.974,420.35,4.82E+00,
2139.95,420.75,4.82E+00,
2141.93,421.15,4.82E+00,
2143.899,421.55,4.81E+00,
2145.87,421.95,4.81E+00,
2147.841,422.35,4.81E+00,
2149.81,422.75,4.81E+00,
2151.78,423.15,4.81E+00,
2153.75,423.55,4.81E+00,
2155.72,423.95,4.81E+00,
2157.69,424.35,4.81E+00,
2159.66,424.75,4.81E+00,
2161.63,425.15,4.81E+00,
2163.6,425.55,4.81E+00,
2165.57,425.95,4.81E+00,
2167.533,426.35,4.81E+00,
2169.5,426.75,4.81E+00,
2171.472,427.15,4.81E+00,
2173.43,427.55,4.81E+00,
2175.4,427.95,4.81E+00,
2177.36,428.35,4.81E+00,
2179.32,428.75,4.81E+00,
2181.28,429.15,4.81E+00,
2183.24,429.55,4.81E+00,
2185.2,429.95,4.81E+00,
2187.16,430.35,4.81E+00,
2189.13,430.75,4.81E+00,
2191.09,431.15,4.80E+00,
2193.06,431.55,4.80E+00,
2195.022,431.95,4.80E+00,
2196.99,432.35,4.80E+00,
2198.95,432.75,4.80E+00,
2200.911,433.15,4.80E+00,
2202.87,433.55,4.80E+00,
2204.829,433.95,4.80E+00,
2206.794,434.35,4.80E+00,
2208.753,434.75,4.80E+00,
2210.72,435.15,4.80E+00,
2212.689,435.55,4.80E+00,
2214.66,435.95,4.79E+00,
2216.63,436.35,4.80E+00,
2218.59,436.75,4.79E+00,
2220.555,437.15,4.79E+00,
2222.52,437.55,4.79E+00,
2224.48,437.95,4.79E+00,
2226.45,438.35,4.79E+00,
2228.42,438.75,4.79E+00,
2230.39,439.15,4.79E+00,
2232.36,439.55,4.79E+00,
2234.32,439.95,4.79E+00,
2236.29,440.35,4.79E+00,
2238.255,440.75,4.79E+00,
2240.21,441.15,4.78E+00,
2242.18,441.55,4.78E+00,
2244.14,441.95,4.78E+00,
2246.11,442.35,4.78E+00,
2248.07,442.75,4.78E+00,
2250.04,443.15,4.78E+00,
2252,443.55,4.78E+00,
2253.96,443.95,4.77E+00,
2255.93,444.35,4.77E+00,
2257.9,444.75,4.77E+00,
2259.86,445.15,4.77E+00,
2261.82,445.55,4.77E+00,
2263.78,445.95,4.77E+00,
2265.75,446.35,4.77E+00,
2267.71,446.75,4.77E+00,
2269.67,447.15,4.76E+00,
2271.639,447.55,4.76E+00,
2273.6,447.95,4.76E+00,
2275.566,448.35,4.76E+00,
2277.534,448.75,4.76E+00,
2279.499,449.15,4.76E+00,
2281.47,449.55,4.76E+00,
2283.43,449.95,4.75E+00,
2285.39,450.35,4.75E+00,
2287.35,450.75,4.75E+00,
2289.32,451.15,4.75E+00,
2291.283,451.55,4.75E+00,
2293.25,451.95,4.74E+00,
2295.21,452.35,4.74E+00,
2297.17,452.75,4.74E+00,
2299.13,453.15,4.74E+00,
2301.1,453.55,4.74E+00,
2303.06,453.95,4.74E+00,
2305.02,454.35,4.74E+00,
2306.982,454.75,4.74E+00,
2308.95,455.15,4.73E+00,
2310.91,455.55,4.73E+00,
2312.87,455.95,4.73E+00,
2314.83,456.35,4.72599,
2316.801,456.75,4.724,
2318.77,457.15,4.72199,
2320.73,457.55,4.7211,
2322.69,457.95,4.71939,
2324.65,458.35,4.71693,
2326.62,458.75,4.71683,
2328.58,459.15,4.71502,
2330.535,459.55,4.71198,
2332.5,459.95,4.71005,
2334.46,460.35,4.70906,
2336.42,460.75,4.70813,
2338.38,461.15,4.70552,
2340.34,461.55,4.70503,
2342.3,461.95,4.70305,
2344.257,462.35,4.701,
2346.21,462.75,4.69997,
2348.17,463.15,4.69901,
2350.14,463.55,4.69809,
2352.1,463.95,4.69724,
2354.055,464.35,4.69497,
2356.02,464.75,4.69287,
2357.98,465.15,4.69025,
2359.94,465.55,4.68802,
2361.9,465.95,4.68705,
2363.86,466.35,4.68583,
2365.82,466.75,4.6828,
2367.78,467.15,4.68149,
2369.74,467.55,4.68102,
2371.71,467.95,4.67787,
2373.67,468.35,4.67688,
2375.64,468.75,4.67597,
2377.61,469.15,4.67495,
2379.576,469.55,4.67517,
2381.54,469.95,4.67304,
2383.51,470.35,4.67298,
2385.47,470.75,4.67087,
2387.43,471.15,4.66886,
2389.39,471.55,4.66804,
2391.35,471.95,4.667,
2393.31,472.35,4.66486,
2395.272,472.75,4.66281,
2397.234,473.15,4.66296,
2399.2,473.55,4.66102,
2401.17,473.95,4.66115,
2403.13,474.35,4.65915,
2405.11,474.75,4.65804,
2407.08,475.15,4.65681,
2409.06,475.55,4.65548,
2411.03,475.95,4.65517,
2412.99,476.35,4.65299,
2414.97,476.75,4.65078,
2416.94,477.15,4.65122,
2418.906,477.55,4.64905,
2420.88,477.95,4.64782,
2422.851,478.35,4.64649,
2424.831,478.75,4.64608,
2426.81,479.15,4.64501,
2428.78,479.55,4.64419,
2430.75,479.95,4.64205,
2432.73,480.35,4.64004,
2434.71,480.75,4.64012,
2436.681,481.15,4.63802,
2438.652,481.55,4.63693,
2440.63,481.95,4.63397,
2442.603,482.35,4.63398,
2444.574,482.75,4.63293,
2446.55,483.15,4.633,
2448.522,483.55,4.63198,
2450.5,483.95,4.63093,
2452.479,484.35,4.62918,
2454.46,484.75,4.62901,
2456.44,485.15,4.62805,
2458.422,485.55,4.62699,
2460.402,485.95,4.62699,
2462.39,486.35,4.62479,
2464.374,486.75,4.625,
2466.35,487.15,4.625,
2468.334,487.55,4.62279,
2470.31,487.95,4.623,
2472.29,488.35,4.623,
2474.28,488.75,4.623,
2476.26,489.15,4.623,
2478.24,489.55,4.623,
2480.22,489.95,4.623,
2482.2,490.35,4.623,
2484.192,490.75,4.623,
2486.175,491.15,4.62297,
2488.16,491.55,4.622,
2490.14,491.95,4.62132,
2492.13,492.35,4.621,
2494.11,492.75,4.6199,
2496.1,493.15,4.62011,
2498.08,493.55,4.61901,
2500.06,493.95,4.61792,
2502.05,494.35,4.6181,
2504.04,494.75,4.61701,
2506.02,495.15,4.61705,
2508.02,495.55,4.61515,
2510.01,495.95,4.61401,
2512.01,496.35,4.614,
2514,496.75,4.614,
2515.99,497.15,4.61401,
2517.984,497.55,4.61297,
2519.97,497.95,4.613,
2521.97,498.35,4.613,
2523.96,498.75,4.613,
2525.95,499.15,4.61296,
2527.95,499.55,4.61085,
2529.942,499.95,4.611,
2531.94,500.35,4.611,
2533.94,500.75,4.611,
2535.93,501.15,4.611,
2537.93,501.55,4.61113,
2539.923,501.95,4.60904,
2541.92,502.35,4.609,
2543.91,502.75,4.60852,
2545.92,503.15,4.60699,
2547.92,503.55,4.607,
2549.92,503.95,4.607,
2551.92,504.35,4.607,
2553.92,504.75,4.607,
2555.93,505.15,4.607,
2557.93,505.55,4.607,
2559.93,505.95,4.607,
2561.93,506.35,4.607,
2563.93,506.75,4.607,
2565.94,507.15,4.607,
2567.94,507.55,4.607,
2569.94,507.95,4.607,
2571.94,508.35,4.607,
2573.95,508.75,4.607,
2575.96,509.15,4.607,
2577.97,509.55,4.607,
2579.98,509.95,4.607,
2581.98,510.35,4.607,
2583.993,510.75,4.607,
2586,511.15,4.607,
2588.01,511.55,4.6069,
2590.02,511.95,4.60306,
2592.03,512.35,4.603,
2594.04,512.75,4.603,
2596.047,513.15,4.603,
2598.06,513.55,4.60301,
2600.07,513.95,4.60121,
2602.077,514.35,4.601,
2604.08,514.75,4.60111,
2606.1,515.15,4.6,
2608.11,515.55,4.60002,
2610.12,515.95,4.60108,
2612.139,516.35,4.601,
2614.15,516.75,4.601,
2616.17,517.15,4.6009,
2618.196,517.55,4.602,
2620.22,517.95,4.602,
2622.24,518.35,4.602,
2624.25,518.75,4.602,
2626.28,519.15,4.602,
2628.3,519.55,4.60199,
2630.31,519.95,4.60103,
2632.33,520.35,4.60034,
2634.354,520.75,4.6,
2636.38,521.15,4.5989,
2638.395,521.55,4.59823,
2640.41,521.95,4.59695,
2642.44,522.35,4.5972,
2644.46,522.75,4.59502,
2646.48,523.15,4.595,
2648.5,523.55,4.59511,
2650.52,523.95,4.594,
2652.55,524.35,4.594,
2654.57,524.75,4.594,
2656.59,525.15,4.59403,
2658.615,525.55,4.59206,
2660.64,525.95,4.592,
2662.66,526.35,4.592,
2664.69,526.75,4.592,
2666.71,527.15,4.59198,
2668.75,527.55,4.59006,
2670.77,527.95,4.59,
2672.81,528.35,4.59,
2674.84,528.75,4.59,
2676.87,529.15,4.59,
2678.9,529.55,4.59001,
2680.932,529.95,4.59108,
2682.97,530.35,4.591,
2685,530.75,4.58897,
2687.03,531.15,4.58616,
2689.068,531.55,4.58502,
2691.1,531.95,4.585,
2693.145,532.35,4.585,
2695.18,532.75,4.5839,
2697.22,533.15,4.58236,
2699.26,533.55,4.58208,
2701.3,533.95,4.58005,
2703.34,534.35,4.58,
2705.38,534.75,4.57815,
2707.42,535.15,4.57619,
2709.465,535.55,4.57585,
2711.51,535.95,4.57499,
2713.55,536.35,4.575,
2715.6,536.75,4.575,
2717.64,537.15,4.575,
2719.68,537.55,4.57519,
2721.73,537.95,4.57611,
2723.78,538.35,4.57501,
2725.82,538.75,4.57422,
2727.87,539.15,4.57202,
2729.916,539.55,4.5698,
2731.96,539.95,4.57,
2734.01,540.35,4.57,
2736.063,540.75,4.57001,
2738.11,541.15,4.56905,
2740.16,541.55,4.569,
2742.22,541.95,4.56901,
2744.28,542.35,4.56682,
2746.34,542.75,4.56697,
2748.39,543.15,4.56602,
2750.45,543.55,4.56513,
2752.51,543.95,4.56404,
2754.57,544.35,4.563,
2756.63,544.75,4.56216,
2758.69,545.15,4.56161,
2760.75,545.55,4.55999,
2762.82,545.95,4.56,
2764.88,546.35,4.56,
2766.94,546.75,4.56,
2769.01,547.15,4.55995,
2771.08,547.55,4.55796,
2773.15,547.95,4.55584,
2775.23,548.35,4.55406,
2777.3,548.75,4.55144,
2779.38,549.15,4.54815,
2781.46,549.55,4.54687,
2783.53,549.95,4.5461,
2785.6,550.35,4.54499,
2787.67,550.75,4.54385,
2789.742,551.15,4.542,
2791.82,551.55,4.53989,
2793.89,551.95,4.53807,
2795.973,552.35,4.53608,
2798.05,552.75,4.53398,
2800.13,553.15,4.53207,
2802.216,553.55,4.53038,
2804.3,553.95,4.52889,
2806.39,554.35,4.52792,
2808.48,554.75,4.52701,
2810.56,555.15,4.52588,
2812.65,555.55,4.52405,
2814.747,555.95,4.52262,
2816.84,556.35,4.52206,
2818.92,556.75,4.52015,
2821.02,557.15,4.5189,
2823.123,557.55,4.51713,
2825.22,557.95,4.51504,
2827.314,558.35,4.51302,
2829.41,558.75,4.51204,
2831.51,559.15,4.51107,
2833.611,559.55,4.50801,
2835.71,559.95,4.50594,
2837.81,560.35,4.50387,
2839.91,560.75,4.50196,
2842.01,561.15,4.49901,
2844.11,561.55,4.4969,
2846.2,561.95,4.49488,
2848.308,562.35,4.49321,
2850.41,562.75,4.48996,
2852.52,563.15,4.4884,
2854.623,563.55,4.48699,
2856.732,563.95,4.48499,
2858.85,564.35,4.48303,
2860.96,564.75,4.48012,
2863.07,565.15,4.4787,
2865.18,565.55,4.47717,
2867.29,565.95,4.47386,
2869.4,566.35,4.47142,
2871.513,566.75,4.46849,
2873.63,567.15,4.46593,
2875.74,567.55,4.46449,
2877.86,567.95,4.46101,
2879.97,568.35,4.45658,
2882.09,568.75,4.45417,
2884.21,569.15,4.45215,
2886.32,569.55,4.44803,
2888.44,569.95,4.44478,
2890.57,570.35,4.44199,
2892.7,570.75,4.44014,
2894.82,571.15,4.43781,
2896.941,571.55,4.4342,
2899.06,571.95,4.43272,
2901.18,572.35,4.42948,
2903.3,572.75,4.42704,
2905.416,573.15,4.42337,
2907.53,573.55,4.42148,
2909.661,573.95,4.4183,
2911.788,574.35,4.41547,
2913.92,574.75,4.41296,
2916.05,575.15,4.40943,
2918.18,575.55,4.40693,
2920.31,575.95,4.4038,
2922.44,576.35,4.4001,
2924.57,576.75,4.39738,
2926.7,577.15,4.39458,
2928.83,577.55,4.39007,
2930.96,577.95,4.38677,
2933.08,578.35,4.385,
2935.21,578.75,4.38144,
2937.35,579.15,4.379,
2939.48,579.55,4.3759,
2941.61,579.95,4.37397,
2943.75,580.35,4.36958,
2945.88,580.75,4.36667,
2948.02,581.15,4.36416,
2950.15,581.55,4.35955,
2952.28,581.95,4.35615,
2954.42,582.35,4.35302,
2956.56,582.75,4.35099,
2958.69,583.15,4.34783,
2960.83,583.55,4.34588,
2962.97,583.95,4.34344,
2965.11,584.35,4.33828,
2967.252,584.75,4.3342,
2969.39,585.15,4.32896,
2971.53,585.55,4.32404,
2973.67,585.95,4.31971,
2975.82,586.35,4.3169,
2977.96,586.75,4.31309,
2980.113,587.15,4.30961,
2982.26,587.55,4.30708,
2984.41,587.95,4.303,
2986.55,588.35,4.299,
2988.69,588.75,4.29478,
2990.84,589.15,4.29184,
2992.99,589.55,4.28882,
2995.14,589.95,4.28685,
2997.288,590.35,4.28313,
2999.44,590.75,4.28069,
3001.6,591.15,4.27691,
3003.747,591.55,4.27411,
3005.9,591.95,4.27213,
3008.058,592.35,4.26807,
3010.22,592.75,4.26098,
3012.38,593.15,4.25494,
3014.53,593.55,4.24776,
3016.69,593.95,4.24061,
3018.85,594.35,4.23511,
3021.01,594.75,4.23126,
3023.163,595.15,4.22699,
3025.32,595.55,4.22181,
3027.49,595.95,4.21678,
3029.65,596.35,4.21308,
3031.81,596.75,4.20743,
3033.978,597.15,4.20195,
3036.141,597.55,4.19618,
3038.31,597.95,4.18922,
3040.476,598.35,4.18322,
3042.64,598.75,4.17824,
3044.81,599.15,4.17088,
3046.977,599.55,4.16448,
3049.14,599.95,4.15821,
3051.31,600.35,4.15204,
3053.48,600.75,4.14682,
3055.65,601.15,4.1407,
3057.81,601.55,4.13362,
3059.98,601.95,4.12684,
3062.15,602.35,4.12,
3064.31,602.75,4.11294,
3066.49,603.15,4.1046,
3068.66,603.55,4.09644,
3070.83,603.95,4.08748,
3073,604.35,4.08089,
3075.177,604.75,4.07347,
3077.36,605.15,4.06764,
3079.54,605.55,4.06103,
3081.71,605.95,4.05494,
3083.89,606.35,4.04652,
3086.07,606.75,4.03647,
3088.25,607.15,4.02749,
3090.43,607.55,4.01865,
3092.61,607.95,4.00806,
3094.79,608.35,3.99708,
3096.97,608.75,3.98787,
3099.16,609.15,3.97769,
3101.35,609.55,3.96823,
3103.54,609.95,3.9591,
3105.723,610.35,3.9482,
3107.916,610.75,3.93902,
3110.1,611.15,3.92727,
3112.29,611.55,3.91641,
3114.49,611.95,3.90183,
3116.68,612.35,3.88551,
3118.87,612.75,3.87328,
3121.06,613.15,3.86136,
3123.25,613.55,3.84875,
3125.44,613.95,3.83779,
3127.629,614.35,3.82446,
3129.81,614.75,3.80999,
3132.01,615.15,3.7942,
3134.2,615.55,3.78075,
3136.386,615.95,3.76664,
3138.58,616.35,3.75497,
3140.78,616.75,3.74183,
3142.98,617.15,3.7279,
3145.18,617.55,3.71251,
3147.38,617.95,3.69575,
3149.58,618.35,3.67981,
3151.79,618.75,3.662,
3153.99,619.15,3.64466,
3156.198,619.55,3.62599,
3158.4,619.95,3.60833,
3160.61,620.35,3.59052,
3162.82,620.75,3.57107,
3165.03,621.15,3.55246,
3167.24,621.55,3.53513,
3169.46,621.95,3.5159,
3171.68,622.35,3.49734,
3173.9,622.75,3.47969,
3176.11,623.15,3.45941,
3178.33,623.55,3.43918,
3180.54,623.95,3.41936,
3182.76,624.35,3.39892,
3184.974,624.75,3.37785,
3187.19,625.15,3.35661,
3189.4,625.55,3.33458,
3191.61,625.95,3.31239,
3193.83,626.35,3.28904,
3196.05,626.75,3.26521,
3198.27,627.15,3.2418,
3200.499,627.55,3.21753,
3202.722,627.95,3.19416,
3204.95,628.35,3.17004,
3207.17,628.75,3.14511,
3209.39,629.15,3.11805,
3211.61,629.55,3.09226,
3213.83,629.95,3.06841,
3216.06,630.35,3.04338,
3218.28,630.75,3.01634,
3220.503,631.15,2.98761,
3222.74,631.55,2.96345,
3224.96,631.95,2.93959,
3227.19,632.35,2.91348,
3229.42,632.75,2.88469,
3231.645,633.15,2.85406,
3233.871,633.55,2.82565,
3236.1,633.95,2.79855,
3238.332,634.35,2.77452,
3240.56,634.75,2.74926,
3242.79,635.15,2.72051,
3245.013,635.55,2.69153,
3247.24,635.95,2.66304,
3249.474,636.35,2.63329,
3251.697,636.75,2.60368,
3253.93,637.15,2.57335,
3256.15,637.55,2.54362,
3258.38,637.95,2.51667,
3260.61,638.35,2.48692,
3262.83,638.75,2.4569,
3265.05,639.15,2.42588,
3267.28,639.55,2.39881,
3269.51,639.95,2.36994,
3271.74,640.35,2.34358,
3273.96,640.75,2.3119,
3276.18,641.15,2.27837,
3278.391,641.55,2.24438,
3280.61,641.95,2.21116,
3282.83,642.35,2.17675,
3285.04,642.75,2.14066,
3287.253,643.15,2.10657,
3289.47,643.55,2.07808,
3291.678,643.95,2.04747,
3293.89,644.35,2.01498,
3296.1,644.75,1.97885,
3298.314,645.15,1.94547,
3300.53,645.55,1.91447,
3302.75,645.95,1.88395,
3304.98,646.35,1.85167,
3307.2,646.75,1.82036,
3309.42,647.15,1.7879,
3311.64,647.55,1.75093,
3313.86,647.95,1.71333,
3316.08,648.35,1.67905,
3318.306,648.75,1.65066,
3320.53,649.15,1.6181,
3322.752,649.55,1.58324,
3324.98,649.95,1.54861,
3327.2,650.35,1.51509,
3329.433,650.75,1.48536,
3331.66,651.15,1.45552,
3333.89,651.55,1.42578,
3336.13,651.95,1.39426,
3338.35,652.35,1.36428,
3340.58,652.75,1.3335,
3342.81,653.15,1.30399,
3345.04,653.55,1.27251,
3347.27,653.95,1.24112,
3349.5,654.35,1.20965,
3351.74,654.75,1.17986,
3353.973,655.15,1.15002,
3356.2,655.55,1.12133,
3358.44,655.95,1.09434,
3360.67,656.35,1.06885,
3362.907,656.75,1.04418,
3365.14,657.15,1.01605,
3367.38,657.55,0.9917,
3369.618,657.95,0.96587,
3371.859,658.35,0.93989,
3374.097,658.75,0.91559,
3376.34,659.15,0.89043,
3378.57,659.55,0.86665,
3380.82,659.95,0.84418,
3383.06,660.35,0.82087,
3385.3,660.75,0.79953,
3387.54,661.15,0.77811,
3389.775,661.55,0.75573,
3392.01,661.95,0.73625,
3394.25,662.35,0.71651,
3396.49,662.75,0.69575,
3398.74,663.15,0.6761,
3400.98,663.55,0.65667,
3403.23,663.95,0.6391,
3405.48,664.35,0.61994,
3407.73,664.75,0.60121,
3409.97,665.15,0.58421,
3412.218,665.55,0.56729,
3414.46,665.95,0.55233,
3416.71,666.35,0.53433,
3418.95,666.75,0.52169,
3421.2,667.15,0.50822,
3423.444,667.55,0.49641,
3425.69,667.95,0.48416,
3427.938,668.35,0.47089,
3430.19,668.75,0.45369,
3432.43,669.15,0.44073,
3434.682,669.55,0.43127,
3436.935,669.95,0.42182,
3439.18,670.35,0.41214,
3441.43,670.75,0.40184,
3443.69,671.15,0.39041,
3445.94,671.55,0.37649,
3448.2,671.95,0.36065,
3450.447,672.35,0.3488,
3452.7,672.75,0.34016,
3454.96,673.15,0.33191,
3457.21,673.55,0.32256,
3459.468,673.95,0.3155,
3461.72,674.35,0.30508,
3463.98,674.75,0.29753,
3466.236,675.15,0.28917,
3468.492,675.55,0.27877,
3470.748,675.95,0.27101,
3473.01,676.35,0.26239,
3475.269,676.75,0.25436,
3477.53,677.15,0.24742,
3479.79,677.55,0.23982,
3482.04,677.95,0.23141,
3484.31,678.35,0.22271,
3486.57,678.75,0.21605,
3488.84,679.15,0.21283,
3491.1,679.55,0.20907,
3493.37,679.95,0.20319,
3495.63,680.35,0.19926,
3497.895,680.75,0.19251,
3500.16,681.15,0.18698,
3502.43,681.55,0.18412,
3504.69,681.95,0.18105,
3506.95,682.35,0.17636,
3509.22,682.75,0.17082,
3511.485,683.15,0.16693,
3513.75,683.55,0.16358,
3516.015,683.95,0.16028,
3518.28,684.35,0.15467,
3520.56,684.75,0.15099,
3522.83,685.15,0.14731,
3525.1,685.55,0.14234,
3527.37,685.95,0.13851,
3529.638,686.35,0.13386,
3531.91,686.75,0.13107,
3534.177,687.15,0.12744,
3536.45,687.55,0.12598,
3538.725,687.95,0.12416,
3541,688.35,0.12203,
3543.28,688.75,0.11909,
3545.55,689.15,0.11726,
3547.824,689.55,0.11413,
3550.095,689.95,0.1118,
3552.37,690.35,0.111,
3554.64,690.75,0.10793,
3556.92,691.15,0.10517,
3559.19,691.55,0.10407,
3561.47,691.95,0.10118,
3563.736,692.35,0.10001,
3566.01,692.75,0.09805,
3568.28,693.15,0.09584,
3570.56,693.55,0.0942,
3572.83,693.95,0.09188,
3575.1,694.35,0.09004,
3577.38,694.75,0.08762,
3579.66,695.15,0.0882,
3581.94,695.55,0.08612,
3584.21,695.95,0.08392,
3586.49,696.35,0.08195,
3588.78,696.75,0.08223,
3591.05,697.15,0.08,
3593.33,697.55,0.07802,
3595.61,697.95,0.07595,
3597.88,698.35,0.07404,
3600.16,698.75,0.07085,
3602.44,699.15,0.07005,
3604.719,699.55,0.069,
3607.01,699.95,0.06904,
3609.294,700.35,0.06701,
3611.58,700.75,0.0671,
3613.86,701.15,0.06547,
3616.14,701.55,0.06472,
3618.41,701.95,0.06294,
3620.69,702.35,0.06096,
3622.98,702.75,0.061,
3625.26,703.15,0.05997,
3627.54,703.55,0.059,
3629.826,703.95,0.059,
3632.115,704.35,0.059,
3634.4,704.75,0.059,
3636.68,705.15,0.05902,
3638.96,705.55,0.05752,
3641.25,705.95,0.05691,
3643.53,706.35,0.05599,
3645.82,706.75,0.05499,
3648.11,707.15,0.05402,
3650.41,707.55,0.054,
3652.7,707.95,0.054,
3654.99,708.35,0.054,
3657.29,708.75,0.05585,
3659.58,709.15,0.056,
3661.87,709.55,0.056,
3664.16,709.95,0.05592,
3666.45,710.35,0.05688,
3668.73,710.75,0.05502,
3671.02,711.15,0.05336,
3673.31,711.55,0.053,
3675.59,711.95,0.053,
3677.88,712.35,0.05299,
3680.17,712.75,0.05504,
3682.464,713.15,0.055,
3684.75,713.55,0.055,
3687.04,713.95,0.055,
3689.33,714.35,0.055,
3691.63,714.75,0.055,
3693.92,715.15,0.055,
3696.21,715.55,0.055,
3698.51,715.95,0.055,
3700.8,716.35,0.055,
3703.09,716.75,0.055,
3705.38,717.15,0.055,
3707.68,717.55,0.05683,
3709.98,717.95,0.057,
3712.28,718.35,0.057,
3714.58,718.75,0.057,
3716.877,719.15,0.057,
3719.18,719.55,0.05702,
3721.48,719.95,0.05503,
3723.77,720.35,0.05598,
3726.07,720.75,0.056,
3728.37,721.15,0.056,
3730.67,721.55,0.05601,
3732.98,721.95,0.05699,
3735.28,722.35,0.057,
3737.58,722.75,0.057,
3739.88,723.15,0.057,
3742.18,723.55,0.057,
3744.477,723.95,0.05698,
3746.78,724.35,0.05502,
3749.08,724.75,0.05602,
3751.39,725.15,0.056,
3753.7,725.55,0.056,
3756.01,725.95,0.05591,
3758.325,726.35,0.05701,
3760.64,726.75,0.057,
3762.95,727.15,0.057,
3765.27,727.55,0.05693,
3767.58,727.95,0.058,
3769.896,728.35,0.058,
3772.215,728.75,0.058,
3774.54,729.15,0.058,
3776.86,729.55,0.058,
3779.18,729.95,0.058,
3781.49,730.35,0.05902,
3783.81,730.75,0.059,
3786.12,731.15,0.059,
3788.43,731.55,0.0592,
3790.76,731.95,0.05698,
3793.08,732.35,0.057,
3795.402,732.75,0.057,
3797.721,733.15,0.05603,
3800.05,733.55,0.05486,
3802.365,733.95,0.05502,
3804.68,734.35,0.055,
3807.003,734.75,0.05499,
3809.33,735.15,0.0561,
3811.65,735.55,0.056,
3813.98,735.95,0.056,
3816.3,736.35,0.056,
3818.63,736.75,0.056,
3820.96,737.15,0.0561,
3823.29,737.55,0.05489,
3825.61,737.95,0.05559,
3827.94,738.35,0.055,
3830.27,738.75,0.055,
3832.599,739.15,0.055,
3834.93,739.55,0.055,
3837.26,739.95,0.055,
3839.595,740.35,0.055,
3841.923,740.75,0.055,
3844.25,741.15,0.055,
3846.58,741.55,0.05463,
3848.92,741.95,0.054,
3851.25,742.35,0.05399,
3853.587,742.75,0.05607,
3855.92,743.15,0.05599,
3858.25,743.55,0.05501,
3860.59,743.95,0.055,
3862.92,744.35,0.055,
3865.263,744.75,0.05605,
3867.6,745.15,0.057,
3869.94,745.55,0.057,
3872.28,745.95,0.057,
3874.61,746.35,0.057,
3876.94,746.75,0.057,
3879.27,747.15,0.057,
3881.6,747.55,0.0571,
3883.926,747.95,0.05599,
3886.25,748.35,0.056,
3888.59,748.75,0.05601,
3890.92,749.15,0.0538,
3893.25,749.55,0.05426,
3895.59,749.95,0.056,
3897.92,750.35,0.056,
3900.26,750.75,0.056,
3902.6,751.15,0.056,
3904.94,751.55,0.056,
3907.29,751.95,0.056,
3909.63,752.35,0.056,
3911.97,752.75,0.05669,
3914.31,753.15,0.05797,
3916.66,753.55,0.05604,
3918.996,753.95,0.056,
3921.33,754.35,0.056,
3923.68,754.75,0.05594,
3926.02,755.15,0.057,
3928.36,755.55,0.05557,
3930.7,755.95,0.055,
3933.04,756.35,0.055,
3935.382,756.75,0.055,
3937.72,757.15,0.05525,
3940.06,757.55,0.056,
3942.41,757.95,0.056,
3944.75,758.35,0.056,
3947.09,758.75,0.05595,
3949.422,759.15,0.057,
3951.76,759.55,0.057,
3954.102,759.95,0.057,
3956.44,760.35,0.05749,
3958.779,760.75,0.058,
3961.12,761.15,0.05797,
3963.468,761.55,0.05601,
3965.811,761.95,0.05595,
3968.15,762.35,0.056,
3970.5,762.75,0.05498,
3972.84,763.15,0.05417,
3975.18,763.55,0.05423,
3977.52,763.95,0.054,
3979.87,764.35,0.054,
3982.21,764.75,0.054,
3984.56,765.15,0.05404,
3986.91,765.55,0.05589,
3989.26,765.95,0.05701,
3991.6,766.35,0.057,
3993.94,766.75,0.057,
3996.282,767.15,0.057,
3998.63,767.55,0.057,
4000.97,767.95,0.05704,
4003.32,768.35,0.0569,
4005.68,768.75,0.057,
4008.03,769.15,0.057,
4010.376,769.55,0.057,
4012.73,769.95,0.057,
4015.074,770.35,0.057,
4017.42,770.75,0.05709,
4019.78,771.15,0.058,
4022.12,771.55,0.058,
4024.47,771.95,0.058,
4026.828,772.35,0.05716,
4029.19,772.75,0.05806,
4031.55,773.15,0.058,
4033.911,773.55,0.058,
4036.27,773.95,0.05806,
4038.63,774.35,0.05994,
4040.98,774.75,0.05964,
4043.337,775.15,0.059,
4045.689,775.55,0.059,
4048.04,775.95,0.059,
4050.4,776.35,0.05796,
4052.754,776.75,0.058,
4055.112,777.15,0.058,
4057.47,777.55,0.0571,
4059.83,777.95,0.05705,
4062.19,778.35,0.05917,
4064.55,778.75,0.05699,
4066.92,779.15,0.057,
4069.28,779.55,0.057,
4071.645,779.95,0.057,
4074.01,780.35,0.057,
4076.379,780.75,0.057,
4078.74,781.15,0.057,
4081.1,781.55,0.057,
4083.47,781.95,0.05708,
4085.83,782.35,0.05499,
4088.19,782.75,0.055,
4090.56,783.15,0.05501,
4092.921,783.55,0.057,
4095.28,783.95,0.05518,
4097.65,784.35,0.055,
4100.01,784.75,0.055,
4102.38,785.15,0.055,
4104.75,785.55,0.055,
4107.12,785.95,0.05498,
4109.493,786.35,0.05718,
4111.86,786.75,0.057,
4114.239,787.15,0.05748,
4116.61,787.55,0.058,
4118.99,787.95,0.058,
4121.36,788.35,0.05832,
4123.73,788.75,0.05845,
4126.11,789.15,0.057,
4128.48,789.55,0.057,
4130.87,789.95,0.05809,
4133.25,790.35,0.05813,
4135.63,790.75,0.059,
4138.02,791.15,0.059,
4140.4,791.55,0.05898,
4142.78,791.95,0.06,
4145.16,792.35,0.06,
4147.54,792.75,0.06099,
4149.93,793.15,0.061,
4152.31,793.55,0.061,
4154.7,793.95,0.061,
4157.08,794.35,0.061,
4159.47,794.75,0.061,
4161.85,795.15,0.06116,
4164.24,795.55,0.05806,
4166.63,795.95,0.05612,
4169.016,796.35,0.0549,
4171.4,796.75,0.05303,
4173.78,797.15,0.053,
4176.16,797.55,0.05372,
4178.541,797.95,0.054,
4180.93,798.35,0.05394,
4183.31,798.75,0.05205,
4185.69,799.15,0.05189,
4188.08,799.55,0.05346,
4190.47,799.95,0.05501,
4192.857,800.35,0.055,
4195.245,800.75,0.055,
4197.63,801.15,0.055,
4200.02,801.55,0.05499,
4202.4,801.95,0.05611,
4204.785,802.35,0.056,
4207.17,802.75,0.056,
4209.55,803.15,0.05532,
4211.937,803.55,0.05501,
4214.33,803.95,0.055,
4216.72,804.35,0.055,
4219.12,804.75,0.0561,
4221.51,805.15,0.05625,
4223.89,805.55,0.05797,
4226.27,805.95,0.058,
4228.665,806.35,0.058,
4231.05,806.75,0.05802,
4233.44,807.15,0.05996,
4235.83,807.55,0.06,
4238.22,807.95,0.05999,
4240.61,808.35,0.05803,
4243,808.75,0.05789,
4245.38,809.15,0.05498,
4247.76,809.55,0.05399,
4250.15,809.95,0.053,
4252.54,810.35,0.05301,
4254.92,810.75,0.05402,
4257.31,811.15,0.05299,
4259.7,811.55,0.053,
4262.08,811.95,0.053,
4264.464,812.35,0.053,
4266.85,812.75,0.05285,
4269.24,813.15,0.05499,
4271.64,813.55,0.05707,
4274.022,813.95,0.05805,
4276.41,814.35,0.05801,
4278.8,814.75,0.05713,
4281.19,815.15,0.05344,
4283.57,815.55,0.05129,
4285.96,815.95,0.051,
4288.35,816.35,0.051,
4290.74,816.75,0.05233,
4293.13,817.15,0.053,
4295.523,817.55,0.053,
4297.91,817.95,0.05278,
4300.3,818.35,0.05599,
4302.69,818.75,0.05701,
4305.06,819.15,0.05807,
4307.44,819.55,0.0568,
4309.82,819.95,0.05598,
4312.21,820.35,0.05568,
4314.6,820.75,0.05461,
4316.99,821.15,0.054,
4319.38,821.55,0.054,
4321.78,821.95,0.05402,
4324.176,822.35,0.05497,
4326.57,822.75,0.05504,
4328.958,823.15,0.05728,
4331.35,823.55,0.06,
4333.74,823.95,0.06101,
4336.13,824.35,0.061,
4338.51,824.75,0.061,
4340.91,825.15,0.0612,
4343.3,825.55,0.06004,
4345.69,825.95,0.05903,
4348.09,826.35,0.05905,
4350.49,826.75,0.05799,
4352.88,827.15,0.058,
4355.28,827.55,0.058,
4357.68,827.95,0.058,
4360.07,828.35,0.05783,
4362.47,828.75,0.05684,
4364.86,829.15,0.056,
4367.25,829.55,0.056,
4369.64,829.95,0.056,
4372.03,830.35,0.056,
4374.429,830.75,0.056,
4376.82,831.15,0.05591,
4379.22,831.55,0.055,
4381.6,831.95,0.055,
4383.99,832.35,0.055,
4386.38,832.75,0.05501,
4388.78,833.15,0.054,
4391.18,833.55,0.054,
4393.575,833.95,0.05605,
4395.97,834.35,0.056,
4398.36,834.75,0.056,
4400.76,835.15,0.056,
4403.14,835.55,0.056,
4405.54,835.95,0.05597,
4407.93,836.35,0.058,
4410.33,836.75,0.058,
4412.72,837.15,0.058,
4415.12,837.55,0.058,
4417.51,837.95,0.058,
4419.91,838.35,0.058,
4422.31,838.75,0.058,
4424.7,839.15,0.058,
4427.09,839.55,0.058,
4429.5,839.95,0.0579,
4431.89,840.35,0.06,
4434.29,840.75,0.06,
4436.69,841.15,0.06,
4439.09,841.55,0.06,
4441.48,841.95,0.06,
4443.87,842.35,0.06,
4446.26,842.75,0.06014,
4448.66,843.15,0.05801,
4451.05,843.55,0.05594,
4453.45,843.95,0.05615,
4455.85,844.35,0.054,
4458.25,844.75,0.05296,
4460.65,845.15,0.05214,
4463.04,845.55,0.05371,
4465.446,845.95,0.05399,
4467.86,846.35,0.05606,
4470.27,846.75,0.056,
4472.67,847.15,0.056,
4475.08,847.55,0.056,
4477.488,847.95,0.056,
4479.894,848.35,0.05599,
4482.291,848.75,0.05501,
4484.7,849.15,0.055,
4487.1,849.55,0.05405,
4489.51,849.95,0.054,
4491.92,850.35,0.05293,
4494.32,850.75,0.05403,
4496.733,851.15,0.05402,
4499.148,851.55,0.053,
4501.56,851.95,0.053,
4503.97,852.35,0.05399,
4506.38,852.75,0.054,
4508.793,853.15,0.054,
4511.2,853.55,0.05504,
4513.6,853.95,0.05395,
4516.02,854.35,0.054,
4518.43,854.75,0.0541,
4520.85,855.15,0.055,
4523.268,855.55,0.05283,
4525.68,855.95,0.053,
4528.1,856.35,0.05295,
4530.516,856.75,0.05401,
4532.93,857.15,0.054,
4535.34,857.55,0.054,
4537.76,857.95,0.054,
4540.18,858.35,0.05402,
4542.6,858.75,0.05497,
4545.01,859.15,0.055,
4547.43,859.55,0.055,
4549.85,859.95,0.055,
4552.27,860.35,0.05499,
4554.69,860.75,0.05609,
4557.11,861.15,0.05599,
4559.54,861.55,0.05708,
4561.96,861.95,0.057,
4564.38,862.35,0.05694,
4566.81,862.75,0.05493,
4569.23,863.15,0.05618,
4571.65,863.55,0.05399,
4574.076,863.95,0.05219,
4576.5,864.35,0.05294,
4578.92,864.75,0.05199,
4581.35,865.15,0.052,
4583.78,865.55,0.052,
4586.208,865.95,0.052,
4588.63,866.35,0.05219,
4591.06,866.75,0.055,
4593.48,867.15,0.05495,
4595.91,867.55,0.05601,
4598.33,867.95,0.056,
4600.74,868.35,0.05488,
4603.17,868.75,0.05407,
4605.6,869.15,0.05599,
4608.03,869.55,0.05794,
4610.451,869.95,0.058,
4612.866,870.35,0.058,
4615.296,870.75,0.05738,
4617.7,871.15,0.0554,
4619.6,871.45,0.0539,