File: PMMA/Calibration_Data/Sandia/Sandia_DSC_Ar_1K_1.csv
Time,Temperature,Heat Flow
[s],[K],[W/g]
1202.3,307.031,0.00363
1434.88,307.531,0.00841
1513.28,308.031,0.0134
1573.47,308.531,0.0146
1624.67,309.031,0.0162
1670.68,309.531,0.0196
1713.906,310.031,0.0202
1755.36,310.531,0.0222
1795.12,311.031,0.0225
1833.26,311.531,0.0224
1870.137,312.031,0.0236
1906.19,312.531,0.0227
1941.42,313.031,0.0243
1976.28,313.531,0.026
2010.426,314.031,0.0244
2044.3,314.531,0.0254
2077.69,315.031,0.0266
2110.66,315.531,0.0281
2143.473,316.031,0.0252
2175.96,316.531,0.0266
2208.444,317.031,0.0289
2240.77,317.531,0.0255
2272.803,318.031,0.027
2304.78,318.531,0.0284
2336.56,319.031,0.0288
2368.23,319.531,0.0264
2399.796,320.031,0.027
2431.12,320.531,0.029
2462.42,321.031,0.0286
2493.57,321.531,0.0286
2524.74,322.031,0.0292
2555.9,322.531,0.0272
2586.9,323.031,0.0306
2617.842,323.531,0.0283
2648.67,324.031,0.0299
2679.53,324.531,0.0282
2710.36,325.031,0.0287
2741.12,325.531,0.0291
2771.793,326.031,0.03
2802.29,326.531,0.0289
2832.762,327.031,0.0316
2863.1,327.531,0.0279
2893.46,328.031,0.0321
2923.8,328.531,0.0321
2954.07,329.031,0.033
2984.33,329.531,0.0308
3014.63,330.031,0.0331
3044.81,330.531,0.0331
3074.97,331.031,0.034
3105.14,331.531,0.0343
3135.29,332.031,0.032
3165.42,332.531,0.033
3195.462,333.031,0.0336
3225.43,333.531,0.0287
3255.27,334.031,0.0321
3285.08,334.531,0.0332
3314.99,335.031,0.0341
3344.78,335.531,0.0344
3374.676,336.031,0.034
3404.49,336.531,0.0338
3434.24,337.031,0.0348
3464.08,337.531,0.0316
3493.84,338.031,0.0323
3523.6,338.531,0.0348
3553.38,339.031,0.0334
3583.11,339.531,0.0342
3612.69,340.031,0.0325
3642.18,340.531,0.0349
3671.52,341.031,0.036
3700.86,341.531,0.0328
3730.188,342.031,0.032
3759.56,342.531,0.035
3789.06,343.031,0.0355
3818.415,343.531,0.0356
3847.62,344.031,0.0351
3876.702,344.531,0.0353
3905.72,345.031,0.0313
3934.68,345.531,0.0328
3963.7,346.031,0.0349
3992.82,346.531,0.0346
4021.98,347.031,0.0337
4051.092,347.531,0.0361
4080.12,348.031,0.0343
4109.067,348.531,0.0337
4137.885,349.031,0.0356
4166.7,349.531,0.035
4195.65,350.031,0.0338
4224.64,350.531,0.0356
4253.73,351.031,0.0327
4282.79,351.531,0.0337
4311.789,352.031,0.0342
4340.76,352.531,0.0347
4369.66,353.031,0.0343
4398.43,353.531,0.0349
4427.22,354.031,0.0343
4455.92,354.531,0.0334
4484.69,355.031,0.0317
4513.54,355.531,0.0341
4542.36,356.031,0.0332
4571.16,356.531,0.0325
4600.04,357.031,0.0341
4628.78,357.531,0.0354
4657.563,358.031,0.0317
4686.327,358.531,0.0332
4714.95,359.031,0.0326
4743.56,359.531,0.0314
4772.04,360.031,0.0333
4800.42,360.531,0.0337
4828.7,361.031,0.0315
4857.03,361.531,0.0326
4885.452,362.031,0.0321
4913.799,362.531,0.0322
4942.32,363.031,0.0328
4970.901,363.531,0.0329
4999.185,364.031,0.0328
5027.59,364.531,0.0312
5055.82,365.031,0.0323
5084.02,365.531,0.0328
5112.31,366.031,0.033
5140.64,366.531,0.0321
5169.02,367.031,0.0351
5197.32,367.531,0.0309
5225.52,368.031,0.0297
5253.768,368.531,0.0322
5281.962,369.031,0.0311
5310.198,369.531,0.0326
5338.44,370.031,0.0311
5366.68,370.531,0.0297
5394.98,371.031,0.0308
5423.36,371.531,0.0304
5451.65,372.031,0.0321
5480,372.531,0.0298
5508.32,373.031,0.0292
5536.56,373.531,0.0309
5564.781,374.031,0.0316
5593.08,374.531,0.0304
5621.292,375.031,0.0311
5649.53,375.531,0.0291
5677.77,376.031,0.0276
5705.946,376.531,0.0277
5734.08,377.031,0.0294
5762.13,377.531,0.0298
5790.16,378.031,0.0296
5818.227,378.531,0.0289
5846.331,379.031,0.0297
5874.52,379.531,0.0286
5902.71,380.031,0.0302
5930.81,380.531,0.0277
5958.87,381.031,0.0297
5986.92,381.531,0.0281
6015.05,382.031,0.0269
6043.29,382.531,0.0268
6071.52,383.031,0.027
6099.741,383.531,0.0274
6127.91,384.031,0.0248
6155.97,384.531,0.0235
6184.035,385.031,0.0251
6212.14,385.531,0.0246
6240.23,386.031,0.0226
6268.35,386.531,0.0245
6296.41,387.031,0.0242
6324.47,387.531,0.0229
6352.39,388.031,0.0233
6380.25,388.531,0.0246
6408.08,389.031,0.025
6435.94,389.531,0.0208
6463.96,390.031,0.0221
6492.02,390.531,0.0184
6520.047,391.031,0.0244
6547.97,391.531,0.0212
6575.82,392.031,0.02
6603.63,392.531,0.0175
6631.446,393.031,0.0176
6659.24,393.531,0.0173
6687,394.031,0.0177
6714.7,394.531,0.0169
6742.32,395.031,0.0152
6769.983,395.531,0.0149
6797.61,396.031,0.0127
6825.35,396.531,0.0126
6852.99,397.031,0.0119
6880.671,397.531,0.0101
6908.35,398.031,0.00629
6936.07,398.531,0.0103
6963.79,399.031,0.00641
6991.479,399.531,0.00821
7019.2,400.031,0.0051
7046.92,400.531,0.00461
7074.696,401.031,0.00258
7102.48,401.531,0.00207
7130.27,402.031,0.0033
7158.04,402.531,-0.000505
7185.71,403.031,0.000187
7213.32,403.531,-0.0018
7240.986,404.031,0.000632
7268.67,404.531,-0.00345
7296.4,405.031,-0.003
7324.15,405.531,-0.0048
7351.82,406.031,-0.00388
7379.51,406.531,-0.00707
7407.11,407.031,-0.0046
7434.798,407.531,-0.00436
7462.53,408.031,-0.00715
7490.3,408.531,-0.00705
7518,409.031,-0.00799
7545.67,409.531,-0.00825
7573.17,410.031,-0.00925
7600.73,410.531,-0.00885
7628.331,411.031,-0.00996
7655.8,411.531,-0.0113
7683.31,412.031,-0.009
7710.72,412.531,-0.0118
7738.098,413.031,-0.0125
7765.51,413.531,-0.0122
7792.97,414.031,-0.0118
7820.51,414.531,-0.0154
7848.11,415.031,-0.0136
7875.65,415.531,-0.0151
7903.22,416.031,-0.0169
7930.79,416.531,-0.017
7958.286,417.031,-0.0166
7985.844,417.531,-0.0162
8013.34,418.031,-0.0162
8040.76,418.531,-0.0171
8068.14,419.031,-0.0168
8095.55,419.531,-0.0166
8122.94,420.031,-0.0158
8150.32,420.531,-0.0165
8177.71,421.031,-0.0184
8205.135,421.531,-0.0194
8232.52,422.031,-0.0191
8259.85,422.531,-0.018
8287.24,423.031,-0.019
8314.605,423.531,-0.0194
8341.83,424.031,-0.0205
8369.1,424.531,-0.0218
8396.44,425.031,-0.0222
8423.802,425.531,-0.0226
8451.29,426.031,-0.0232
8478.84,426.531,-0.0222
8506.41,427.031,-0.0211
8533.86,427.531,-0.0222
8561.331,428.031,-0.0222
8588.802,428.531,-0.0239
8616.25,429.031,-0.0238
8643.726,429.531,-0.0236
8671.33,430.031,-0.0246
8698.938,430.531,-0.024
8726.63,431.031,-0.0253
8754.3,431.531,-0.0248
8781.99,432.031,-0.0248
8809.71,432.531,-0.0233
8837.37,433.031,-0.027
8865.1,433.531,-0.0252
8892.825,434.031,-0.0272
8920.53,434.531,-0.0276
8948.25,435.031,-0.0281
8975.937,435.531,-0.0286
9003.6,436.031,-0.0288
9031.26,436.531,-0.0292
9058.93,437.031,-0.0306
9086.59,437.531,-0.0316
9114.33,438.031,-0.0312
9142.122,438.531,-0.0317
9169.83,439.031,-0.0318
9197.6,439.531,-0.0351
9225.35,440.031,-0.0295
9253.116,440.531,-0.0326
9280.82,441.031,-0.0346
9308.55,441.531,-0.0375
9336.22,442.031,-0.036
9363.906,442.531,-0.0371
9391.59,443.031,-0.0385
9419.31,443.531,-0.0379
9447.06,444.031,-0.0393
9474.79,444.531,-0.0398
9502.53,445.031,-0.0411
9530.23,445.531,-0.0416
9557.94,446.031,-0.0413
9585.67,446.531,-0.0449
9613.42,447.031,-0.0451
9641.24,447.531,-0.0462
9669,448.031,-0.046
9696.81,448.531,-0.0483
9724.56,449.031,-0.0437
9752.22,449.531,-0.0471
9779.86,450.031,-0.0514
9807.42,450.531,-0.0494
9835,451.031,-0.0503
9862.54,451.531,-0.05
9890.21,452.031,-0.0524
9917.865,452.531,-0.0531
9945.53,453.031,-0.0534
9973.31,453.531,-0.0519
10001.1,454.031,-0.0536
10028.9,454.531,-0.0565
10056.7,455.031,-0.0569
10084.3,455.531,-0.0573
10111.9,456.031,-0.0588
10139.5,456.531,-0.0609
10167.3,457.031,-0.0594
10194.9,457.531,-0.0587
10222.689,458.031,-0.0607
10250.4,458.531,-0.0628
10278,459.031,-0.0613
10305.6,459.531,-0.0645
10333.2,460.031,-0.0643
10360.9,460.531,-0.0669
10388.5,461.031,-0.067
10416.1,461.531,-0.0654
10443.726,462.031,-0.0676
10471.3,462.531,-0.0688
10498.812,463.031,-0.0679
10526.3,463.531,-0.0689
10553.772,464.031,-0.069
10581.3,464.531,-0.0704
10608.6,465.031,-0.0725
10635.9,465.531,-0.0705
10663.2,466.031,-0.073
10690.497,466.531,-0.0723
10717.797,467.031,-0.0729
10745.1,467.531,-0.0741
10772.5,468.031,-0.0738
10799.8,468.531,-0.0727
10827.1,469.031,-0.0748
10854.4,469.531,-0.0769
10881.8,470.031,-0.0774
10909.2,470.531,-0.078
10936.527,471.031,-0.076
10964,471.531,-0.0784
10991.451,472.031,-0.0797
11018.7,472.531,-0.0796
11046,473.031,-0.0795
11073.333,473.531,-0.0823
11100.6,474.031,-0.0834
11127.9,474.531,-0.0813
11155.2,475.031,-0.0826
11182.3,475.531,-0.0833
11209.3,476.031,-0.0877
11236.3,476.531,-0.0834
11263.3,477.031,-0.086
11290.3,477.531,-0.0853
11317.3,478.031,-0.0885
11344.4,478.531,-0.0868
11371.5,479.031,-0.0868
11398.6,479.531,-0.0899
11425.8,480.031,-0.0878
11453.1,480.531,-0.0892
11480.5,481.031,-0.0886
11507.8,481.531,-0.0889
11535.2,482.031,-0.0922
11562.5,482.531,-0.0888
11589.8,483.031,-0.0888
11617.071,483.531,-0.0909
11644.4,484.031,-0.0909
11671.7,484.531,-0.094
11699,485.031,-0.0949
11726.4,485.531,-0.0926
11753.8,486.031,-0.0932
11781.1,486.531,-0.0957
11808.576,487.031,-0.0973
11836,487.531,-0.095
11863.5,488.031,-0.095
11890.989,488.531,-0.095
11918.511,489.031,-0.097
11946.1,489.531,-0.0962
11973.6,490.031,-0.0976
12001.3,490.531,-0.0965
12028.851,491.031,-0.0976
12056.5,491.531,-0.0997
12084.2,492.031,-0.0986
12111.9,492.531,-0.10157
12139.6,493.031,-0.0974
12167.3,493.531,-0.0981
12195,494.031,-0.10124
12222.6,494.531,-0.0989
12250.1,495.031,-0.10168
12277.491,495.531,-0.1008
12304.815,496.031,-0.10154
12332.2,496.531,-0.10244
12359.5,497.031,-0.10432
12386.9,497.531,-0.10148
12414.2,498.031,-0.0998
12441.6,498.531,-0.10312
12468.8,499.031,-0.10363
12496,499.531,-0.10677
12523.2,500.031,-0.10366
12550.5,500.531,-0.10078
12577.8,501.031,-0.10412
12605.082,501.531,-0.10359
12632.5,502.031,-0.10104
12659.9,502.531,-0.10185
12687.4,503.031,-0.10298
12715,503.531,-0.0967
12742.8,504.031,-0.0993
12770.6,504.531,-0.10286
12798.3,505.031,-0.0978
12826.152,505.531,-0.10102
12853.9,506.031,-0.097
12881.5,506.531,-0.0978
12909,507.031,-0.0993
12936.6,507.531,-0.0981
12964.029,508.031,-0.0989
12991.6,508.531,-0.1025
13019.2,509.031,-0.0972
13046.7,509.531,-0.098
13074.2,510.031,-0.0987
13101.7,510.531,-0.0984
13129.3,511.031,-0.1
13156.8,511.531,-0.10125
13184.3,512.031,-0.0997
13211.8,512.531,-0.10039
13239.3,513.031,-0.10004
13266.9,513.531,-0.0986
13294.7,514.031,-0.0974
13322.5,514.531,-0.0948
13350.3,515.031,-0.0965
13378.1,515.531,-0.0986
13405.7,516.031,-0.0972
13433.2,516.531,-0.0976
13460.6,517.031,-0.0968
13487.8,517.531,-0.1005
13515.165,518.031,-0.0969
13542.7,518.531,-0.0983
13570.4,519.031,-0.0975
13598.1,519.531,-0.0989
13626.1,520.031,-0.0971
13653.93,520.531,-0.0993
13681.8,521.031,-0.0957
13710,521.531,-0.0976
13738.1,522.031,-0.0923
13766.406,522.531,-0.0929
13794.8,523.031,-0.0914
13823.1,523.531,-0.0916
13851.669,524.031,-0.0934
13880.2,524.531,-0.0906
13908.6,525.031,-0.091
13937.1,525.531,-0.0949
13965.5,526.031,-0.0898
13994,526.531,-0.0908
14022.438,527.031,-0.091
14050.9,527.531,-0.0891
14079.36,528.031,-0.0903
14107.8,528.531,-0.088
14136.2,529.031,-0.0874
14164.6,529.531,-0.0864
14193,530.031,-0.087
14221.4,530.531,-0.0843
14249.9,531.031,-0.0859
14278.5,531.531,-0.0863
14307,532.031,-0.0848
14335.5,532.531,-0.0845
14364,533.031,-0.0837
14392.467,533.531,-0.085
14420.8,534.031,-0.0816
14449.3,534.531,-0.0795
14477.7,535.031,-0.0832
14506.1,535.531,-0.0834
14534.4,536.031,-0.0825
14562.7,536.531,-0.0844
14591.1,537.031,-0.0829
14619.4,537.531,-0.08
14647.8,538.031,-0.0774
14676.2,538.531,-0.0765
14704.707,539.031,-0.0777
14733.2,539.531,-0.0781
14761.8,540.031,-0.0731
14790.366,540.531,-0.0717
14819,541.031,-0.0733
14847.6,541.531,-0.0726
14876.3,542.031,-0.0733
14904.9,542.531,-0.0698
14933.6,543.031,-0.0703
14962.2,543.531,-0.0696
14990.9,544.031,-0.0686
15019.6,544.531,-0.0654
15048.2,545.031,-0.0619
15076.908,545.531,-0.0633
15105.6,546.031,-0.0635
15134.292,546.531,-0.0635
15163,547.031,-0.0634
15191.8,547.531,-0.0601
15220.56,548.031,-0.0579
15249.3,548.531,-0.0583
15278.1,549.031,-0.0532
15306.906,549.531,-0.0527
15335.7,550.031,-0.0503
15364.5,550.531,-0.0516
15393.1,551.031,-0.0477
15421.8,551.531,-0.0516
15450.414,552.031,-0.0505
15479.007,552.531,-0.0499
15507.7,553.031,-0.0466
15536.3,553.531,-0.0484
15564.963,554.031,-0.0449
15593.6,554.531,-0.0451
15622.3,555.031,-0.041
15651,555.531,-0.0425
15679.7,556.031,-0.0406
15708.5,556.531,-0.0414
15737.4,557.031,-0.0383
15766.2,557.531,-0.0405
15795.1,558.031,-0.0338
15823.9,558.531,-0.0328
15852.6,559.031,-0.0295
15881.4,559.531,-0.0303
15910.2,560.031,-0.0266
15939,560.531,-0.023
15967.8,561.031,-0.0231
15996.7,561.531,-0.0213
16025.751,562.031,-0.0152
16054.8,562.531,-0.0163
16083.8,563.031,-0.0138
16112.9,563.531,-0.0135
16141.9,564.031,-0.0089
16170.9,564.531,-0.00733
16199.8,565.031,-0.00883
16228.7,565.531,-0.00758
16257.6,566.031,-0.00528
16286.3,566.531,0.0000182
16315.1,567.031,-0.00277
16343.8,567.531,0.000181
16372.5,568.031,0.00337
16401.1,568.531,0.00308
16429.7,569.031,0.00627
16458.4,569.531,0.0104
16487.1,570.031,0.0132
16515.9,570.531,0.0147
16544.769,571.031,0.0167
16573.7,571.531,0.023
16602.7,572.031,0.0231
16631.598,572.531,0.0276
16660.5,573.031,0.0264
16689.5,573.531,0.032
16718.307,574.031,0.0373
16747.3,574.531,0.0376
16776.222,575.031,0.0426
16805.268,575.531,0.0431
16834.4,576.031,0.0471
16863.5,576.531,0.0509
16892.7,577.031,0.0531
16921.8,577.531,0.0581
16950.9,578.031,0.0622
16979.9,578.531,0.0658
17008.9,579.031,0.069
17038,579.531,0.0791
17067,580.031,0.0769
17096.1,580.531,0.0806
17125.2,581.031,0.0876
17154.3,581.531,0.0926
17183.5,582.031,0.0958
17212.7,582.531,0.10179
17241.8,583.031,0.1035
17270.9,583.531,0.11273
17300.1,584.031,0.11654
17329.3,584.531,0.12132
17358.5,585.031,0.1265
17387.7,585.531,0.13368
17416.806,586.031,0.1399
17446,586.531,0.14628
17475.1,587.031,0.15441
17504.2,587.531,0.15789
17533.4,588.031,0.165
17562.4,588.531,0.17042
17591.4,589.031,0.17903
17620.419,589.531,0.1903
17649.411,590.031,0.1954
17678.4,590.531,0.20316
17707.4,591.031,0.21115
17736.5,591.531,0.21908
17765.5,592.031,0.22523
17794.38,592.531,0.23535
17823.3,593.031,0.24115
17852.1,593.531,0.25402
17881,594.031,0.26002
17909.9,594.531,0.26886
17938.9,595.031,0.27791
17968,595.531,0.28951
17997,596.031,0.30024
18026.1,596.531,0.3075
18055.1,597.031,0.31848
18084,597.531,0.32312
18112.8,598.031,0.33088
18141.7,598.531,0.33839
18170.5,599.031,0.34447
18199.4,599.531,0.34993
18228.213,600.031,0.35962
18257.058,600.531,0.36448
18285.9,601.031,0.37446
18314.7,601.531,0.38305
18343.5,602.031,0.39247
18372.3,602.531,0.40129
18401.259,603.031,0.40227
18430.2,603.531,0.40297
18459.1,604.031,0.40573
18488.1,604.531,0.40678
18517,605.031,0.4051
18546.045,605.531,0.40221
18575.2,606.031,0.39504
18604.4,606.531,0.3895
18633.663,607.031,0.3843
18662.8,607.531,0.38033
18691.9,608.031,0.3731
18720.9,608.531,0.36864
18749.9,609.031,0.35766
18778.9,609.531,0.3472
18808,610.031,0.31428
18836.898,610.531,0.28077
18865.6,611.031,0.24212
18894.2,611.531,0.16826
18922.7,612.031,0.0906
18951.3,612.531,0.098
18980.1,613.031,0.0473
19009.1,613.531,0.0747
19038.4,614.031,0.2717
19067.7,614.531,0.25062
19096.9,615.031,0.23365
19125.993,615.531,0.15291
19154.9,616.031,0.14657
19183.8,616.531,0.097
19212.8,617.031,0.26026
19241.8,617.531,0.30967
19270.7,618.031,0.32527
19299.7,618.531,0.28241
19328.7,619.031,0.24026
19357.7,619.531,0.23657
19386.6,620.031,0.29571
19415.7,620.531,0.32569
19445,621.031,0.35612
19474.275,621.531,0.42482
19503.7,622.031,0.38818
19532.9,622.531,0.32635
19562,623.031,0.257
19591.1,623.531,0.22564
19620.315,624.031,0.35415
19649.6,624.531,0.29819
19678.8,625.031,0.19824
19707.951,625.531,0.0976
19737.1,626.031,0.0886
19766.2,626.531,0.1335
19795.4,627.031,0.1067
19824.6,627.531,0.15146
19853.9,628.031,0.1348
19883.1,628.531,0.12103
19912.4,629.031,0.10806
19941.8,629.531,0.0937
19971.2,630.031,0.0846
20000.4,630.531,0.0577
20029.6,631.031,0.0214
20058.8,631.531,0.000382
20087.9,632.031,-0.0452
20117,632.531,-0.0713
20146.3,633.031,-0.0962
20175.7,633.531,-0.0723
20205,634.031,-0.0787
20234.508,634.531,-0.039
20264.1,635.031,-0.0353
20293.7,635.531,-0.0327
20323.4,636.031,-0.0383
20353.056,636.531,-0.0413
20382.6,637.031,-0.0507
20411.9,637.531,-0.0522
20441.184,638.031,-0.0579
20470.386,638.531,-0.0636
20499.6,639.031,-0.0641
20528.8,639.531,-0.0682
20558,640.031,-0.0671
20587.1,640.531,-0.0724
20616.4,641.031,-0.0793
20645.67,641.531,-0.0797
20675.2,642.031,-0.0843
20704.845,642.531,-0.0848
20734.7,643.031,-0.0881
20764.8,643.531,-0.0892
20794.992,644.031,-0.0894
20825.3,644.531,-0.0911
20855.5,645.031,-0.094
20885.6,645.531,-0.0958
20915.5,646.031,-0.0967
20945.3,646.531,-0.0989
20975,647.031,-0.10438
21004.608,647.531,-0.1043
21034.3,648.031,-0.10084
21063.8,648.531,-0.10738
21093.2,649.031,-0.10576
21122.6,649.531,-0.10529
21151.9,650.031,-0.10537
21181.404,650.531,-0.10409
21211,651.031,-0.10124
21240.555,651.531,-0.10157
21270.2,652.031,-0.0981
21299.8,652.531,-0.0986
21329.5,653.031,-0.0954
21359.208,653.531,-0.0972
21388.9,654.031,-0.0959
21418.4,654.531,-0.0999
21447.9,655.031,-0.10238
21477.3,655.531,-0.10008
21506.7,656.031,-0.10319
21536.184,656.531,-0.10111
21565.8,657.031,-0.0978
21595.4,657.531,-0.0994
21625.1,658.031,-0.0996
21654.687,658.531,-0.0999
21684.2,659.031,-0.10492
21713.8,659.531,-0.10688
21743.2,660.031,-0.1095
21772.7,660.531,-0.1082
21802.2,661.031,-0.10896
21831.7,661.531,-0.11419
21861.3,662.031,-0.11352
21890.9,662.531,-0.11607
21920.724,663.031,-0.11921
21950.6,663.531,-0.12299
21980.6,664.031,-0.12608
22010.6,664.531,-0.13307
22040.6,665.031,-0.13473
22070.7,665.531,-0.14126
22100.8,666.031,-0.14356
22130.8,666.531,-0.14913
22160.6,667.031,-0.15756
22190.445,667.531,-0.16117
22220.2,668.031,-0.16532
22250,668.531,-0.16526
22279.8,669.031,-0.16658
22309.6,669.531,-0.16832
22339.4,670.031,-0.16507
22369.134,670.531,-0.16235
22398.8,671.031,-0.16516
22428.471,671.531,-0.16717
22458.192,672.031,-0.1649
22487.8,672.531,-0.165
22517.6,673.031,-0.16684
22547.5,673.531,-0.16477
22577.5,674.031,-0.16625
22607.9,674.531,-0.16121
22638.6,675.031,-0.15476
22669.6,675.531,-0.15135
22700.94,676.031,-0.14754
22732.2,676.531,-0.15546
22763.3,677.031,-0.1491
22794.2,677.531,-0.15447
22825,678.031,-0.14977
22855.695,678.531,-0.14919
22886.6,679.031,-0.1486
22917.5,679.531,-0.14139
22948.7,680.031,-0.13977
22979.8,680.531,-0.13401
23010.9,681.031,-0.13642
23041.8,681.531,-0.13577
23072.4,682.031,-0.13611
23103,682.531,-0.13533
23133.6,683.031,-0.12946
23164.3,683.531,-0.12719
23195.1,684.031,-0.12853
23225.7,684.531,-0.12663
23256.3,685.031,-0.12625
23286.7,685.531,-0.12498
23317,686.031,-0.12357
23347.1,686.531,-0.1283
23377.2,687.031,-0.12559
23407.3,687.531,-0.12627
23437.458,688.031,-0.11986
23467.7,688.531,-0.12128
23497.9,689.031,-0.11947
23528.1,689.531,-0.12076
23558.3,690.031,-0.12273
23588.55,690.531,-0.11979
23618.8,691.031,-0.11685
23649,691.531,-0.11288
23679.5,692.031,-0.10966
23710.065,692.531,-0.10715
23740.8,693.031,-0.10738
23771.7,693.531,-0.10629
23802.417,694.031,-0.10686
23833.2,694.531,-0.10346
23863.8,695.031,-0.10447
23894.286,695.531,-0.10787
23924.8,696.031,-0.11066
23955.243,696.531,-0.11029
23985.8,697.031,-0.10706
24016.4,697.531,-0.10165
24047,698.031,-0.10111
24077.5,698.531,-0.10056
24108.012,699.031,-0.0978
24138.4,699.531,-0.10153
24168.7,700.031,-0.0983
24199,700.531,-0.1005
24229.098,701.031,-0.10172
24259.2,701.531,-0.0996
24289.311,702.031,-0.10115
24319.503,702.531,-0.0927
24349.7,703.031,-0.0934
24380.1,703.531,-0.0936
24410.6,704.031,-0.0894
24441.2,704.531,-0.0891
24472.1,705.031,-0.0855
24503.3,705.531,-0.0775
24535.1,706.031,-0.0709
24567.1,706.531,-0.0737
24599.166,707.031,-0.0733
24631.1,707.531,-0.0704
24662.8,708.031,-0.0718
24694.3,708.531,-0.0757
24725.8,709.031,-0.0736
24757.5,709.531,-0.0705
24789.3,710.031,-0.0636
24821.3,710.531,-0.0644
24853.3,711.031,-0.0645
24884.952,711.531,-0.0638
24916.548,712.031,-0.067
24947.991,712.531,-0.063
24979.5,713.031,-0.0626
25011.195,713.531,-0.0577
25043.2,714.031,-0.0503
25075.4,714.531,-0.0464
25107.9,715.031,-0.0453
25140.3,715.531,-0.0434
25172.6,716.031,-0.0441
25204.6,716.531,-0.0427
25236.4,717.031,-0.0419
25268.2,717.531,-0.0414
25299.8,718.031,-0.0449
25331.2,718.531,-0.0435
25362.543,719.031,-0.0434
25393.7,719.531,-0.0393
25424.7,720.031,-0.0405
25455.624,720.531,-0.0415
25486.5,721.031,-0.0389
25517.295,721.531,-0.0394
25548.1,722.031,-0.036
25578.9,722.531,-0.0318
25609.8,723.031,-0.0322
25640.6,723.531,-0.0337
25671.6,724.031,-0.0304
25702.6,724.531,-0.0321
25733.5,725.031,-0.0289
25764.7,725.531,-0.0311
25795.959,726.031,-0.0279
25827.261,726.531,-0.0249
25858.8,727.031,-0.0221
25890.4,727.531,-0.0182
25922,728.031,-0.0153
25953.756,728.531,-0.0116
25985.5,729.031,-0.00762
26017.5,729.531,-0.00311
26049.486,730.031,0.00172
26081.8,730.531,0.00226
26114.505,731.031,0.00727
26147.4,731.531,0.0103
26180.3,732.031,0.0112
26213.037,732.531,0.00898
26245.4,733.031,0.00603
26277.4,733.531,0.00531
26309,734.031,0.00501
26340.6,734.531,0.00827
26372.1,735.031,0.0107
26403.7,735.531,0.0173
26435.5,736.031,0.0216
26467.4,736.531,0.0225
26499.3,737.031,0.0221
26531.1,737.531,0.018
26562.9,738.031,0.0183
26594.595,738.531,0.0171
26626.3,739.031,0.0217
26658,739.531,0.0233
26689.68,740.031,0.0318
26721.5,740.531,0.0331
26753.4,741.031,0.038
26785.245,741.531,0.0398
26817.159,742.031,0.0425
26849.163,742.531,0.0447
26881.2,743.031,0.0479
26913.5,743.531,0.0544
26946,744.031,0.0604
26978.9,744.531,0.0683
27012.1,745.031,0.0766
27045.2,745.531,0.0753
27078,746.031,0.0733
27110.3,746.531,0.0714
27142,747.031,0.0644
27173.1,747.531,0.0598
27203.9,748.031,0.0528
27234.5,748.531,0.0558
27265,749.031,0.0575
27295.8,749.531,0.0657
27326.8,750.031,0.0713
27358,750.531,0.0729
27389.3,751.031,0.0761
27420.8,751.531,0.0805
27452.3,752.031,0.0831
27483.9,752.531,0.0874
27515.718,753.031,0.0919
27547.6,753.531,0.0983
27579.327,754.031,0.10035
27611,754.531,0.10413
27642.6,755.031,0.10002
27674.1,755.531,0.10416
27705.4,756.031,0.10597
27736.644,756.531,0.10829
27767.9,757.031,0.10844
27799,757.531,0.10926
27830.3,758.031,0.11757
27861.8,758.531,0.12455
27893.4,759.031,0.13118
27925.1,759.531,0.13691
27956.9,760.031,0.1352
27988.665,760.531,0.134
28020.5,761.031,0.13329
28052.352,761.531,0.13551
28084.1,762.031,0.1395
28115.9,762.531,0.13949
28147.5,763.031,0.14247
28179,763.531,0.14832
28210.5,764.031,0.15491
28242,764.531,0.15593
28273.4,765.031,0.15686
28304.9,765.531,0.15417
28336.3,766.031,0.1562
28367.9,766.531,0.16447
28399.5,767.031,0.17188
28431.4,767.531,0.17844
28463.3,768.031,0.18147
28495.1,768.531,0.18251
28526.9,769.031,0.18328
28558.6,769.531,0.18653
28590.2,770.031,0.19505
28622.1,770.531,0.19617
28654.1,771.031,0.19731
28686.4,771.531,0.20498
28719.018,772.031,0.21792
28752.1,772.531,0.22311
28785.4,773.031,0.22476
28819.1,773.531,0.23374
28852.9,774.031,0.23657
28886.8,774.531,0.24259
28920.5,775.031,0.24513
28953.9,775.531,0.24184
28986.8,776.031,0.23812
29019,776.531,0.23652
29050.6,777.031,0.2313
29081.8,777.531,0.22775
29112.7,778.031,0.2282
29143.5,778.531,0.23567
29174.4,779.031,0.24059
29205.5,779.531,0.24496
29236.6,780.031,0.24835
29267.7,780.531,0.25092
29298.7,781.031,0.24991
29329.6,781.531,0.2519
29360.4,782.031,0.25078
29391.2,782.531,0.25977
29422.2,783.031,0.26816
29453.5,783.531,0.27544
29485.2,784.031,0.28364
29517.3,784.531,0.29031
29549.6,785.031,0.29232
29582.1,785.531,0.29642
29614.956,786.031,0.30698
29648.3,786.531,0.31507
29682.4,787.031,0.32662
29716.953,787.531,0.33333
29751.4,788.031,0.3333
29785.3,788.531,0.32786
29818.2,789.031,0.31378
29850.2,789.531,0.30852
29881.5,790.031,0.30668
29912.433,790.531,0.30496
29943.2,791.031,0.31346
29974,791.531,0.3165
30005.2,792.031,0.32626
30036.876,792.531,0.34046
30069.1,793.031,0.35418
30101.637,793.531,0.35801
30134.3,794.031,0.36173
30166.7,794.531,0.35962
30199,795.031,0.36438
30231.1,795.531,0.36538
30263.2,796.031,0.37514
30295.4,796.531,0.38466
30327.336,797.031,0.38627
30359.2,797.531,0.38233
30390.9,798.031,0.38397
30422.508,798.531,0.38772
30454.4,799.031,0.39728
30486.7,799.531,0.4059
30519.5,800.031,0.41688
30552.6,800.531,0.4233
30586.1,801.031,0.43083
30619.5,801.531,0.43678
30652.8,802.031,0.4338
30685.8,802.531,0.43358
30718.6,803.031,0.43825
30751.215,803.531,0.4373
30784,804.031,0.43947
30816.9,804.531,0.44393
30849.8,805.031,0.45557
30883.1,805.531,0.46324
30916.263,806.031,0.46861
30949.4,806.531,0.46175
30982.2,807.031,0.45421
31014.834,807.531,0.45146
31047.303,808.031,0.46141
31080,808.531,0.46889
31112.6,809.031,0.47982
31145.3,809.531,0.48814
31178.1,810.031,0.49131
31210.8,810.531,0.49782
31243.425,811.031,0.50042
31275.8,811.531,0.49865
31307.874,812.031,0.4976
31339.7,812.531,0.50419
31371.5,813.031,0.50609
31403.184,813.531,0.50647
31434.7,814.031,0.51059
31466.31,814.531,0.52001
31498.02,815.031,0.52208
31529.8,815.531,0.53401
31561.8,816.031,0.53934
31593.7,816.531,0.54658
31625.6,817.031,0.54341
31657.2,817.531,0.53883
31688.586,818.031,0.5432
31719.7,818.531,0.54345
31750.569,819.031,0.54456
31781.3,819.531,0.5515
31811.9,820.031,0.55383
31842.7,820.531,0.55217
31873.6,821.031,0.55824
31904.9,821.531,0.57069
31936.6,822.031,0.58504
31968.735,822.531,0.59826
32001.5,823.031,0.61091
32034.5,823.531,0.6158
32067.7,824.031,0.61609
32100.6,824.531,0.61471
32133.3,825.031,0.62155
32165.9,825.531,0.62283
32198.526,826.031,0.62413
32231.2,826.531,0.63355
32264,827.031,0.6358
32296.7,827.531,0.63888
32329.3,828.031,0.64424
32361.7,828.531,0.64586
32393.7,829.031,0.64885
32425.6,829.531,0.65696
32457.3,830.031,0.65664
32489,830.531,0.6597
32520.699,831.031,0.66423
32552.7,831.531,0.66955
32585,832.031,0.6704
32617.6,832.531,0.67601
32650.5,833.031,0.68315
32683.4,833.531,0.6924
32716.2,834.031,0.69372
32748.7,834.531,0.6925
32781.2,835.031,0.69264
32813.7,835.531,0.70191
32846.6,836.031,0.71301
32880,836.531,0.71768
32913.954,837.031,0.72365
32948.2,837.531,0.73804
32982.48,838.031,0.74102
33016.6,838.531,0.74672
33050.6,839.031,0.75531
33084.3,839.531,0.75463
33117.78,840.031,0.7573
33151,840.531,0.75542
33184,841.031,0.74943
33216.7,841.531,0.75205
33249.5,842.031,0.7549
33282.2,842.531,0.76033
33315,843.031,0.76502
33348.009,843.531,0.77034
33381.2,844.031,0.77329
33414.7,844.531,0.77998
33448.6,845.031,0.78976
33482.565,845.531,0.79755
33516.4,846.031,0.8009
33549.81,846.531,0.80291
33582.666,847.031,0.79872
33615,847.531,0.79622
33647.1,848.031,0.80153
33679.3,848.531,0.80618
33711.5,849.031,0.81482
33744.036,849.531,0.82045
33776.5,850.031,0.82856
33808.932,850.531,0.82575
33841.2,851.031,0.82288
33873.3,851.531,0.82539
33905.409,852.031,0.82559
33937.4,852.531,0.83328
33969.4,853.031,0.83229
34001.2,853.531,0.8386
34032.8,854.031,0.83551
34064.1,854.531,0.83322
34095.2,855.031,0.83191
34126.146,855.531,0.83372
34156.983,856.031,0.84373
34187.7,856.531,0.85174
34218.33,857.031,0.85695
34248.906,857.531,0.86015
34279.5,858.031,0.86233
34310.2,858.531,0.85814
34341.2,859.031,0.85306
34372.3,859.531,0.85526
34403.481,860.031,0.858
34434.7,860.531,0.86779
34466,861.031,0.87697
34497.1,861.531,0.87395
34527.9,862.031,0.87515
34558.5,862.531,0.87936
34588.866,863.031,0.87356
34619.3,863.531,0.88533
34649.9,864.031,0.89681
34680.8,864.531,0.90032
34711.9,865.031,0.90103
34743.4,865.531,0.9071
34775.22,866.031,0.91527
34806.9,866.531,0.91942
34838.3,867.031,0.92178
34869.3,867.531,0.91851
34899.6,868.031,0.91108
34929.3,868.531,0.90348
34958.1,869.031,0.89329
34986.2,869.531,0.88122
35013.4,870.031,0.87085
35040,870.531,0.85364
35066.238,871.031,0.85137
35092.3,871.531,0.84835
35118.8,872.031,0.85416
35146.3,872.531,0.87403
35175.1,873.031,0.90399
35205.9,873.531,0.93807
35238.663,874.031,0.95743
35273.046,874.531,0.96713
35308.1,875.031,0.97206
35342.8,875.531,0.96648
35377.23,876.031,0.95709