File: PMMA/Calibration_Data/Sandia/Sandia_DSC_Ar_50K_2.csv
Time,Temperature,Heat Flow
[s],[K],[W/g]
1200.1,306.94,-3.07E-03
1270.36,307.34,-6.34E-03
1285.39,307.74,-9.89E-03
1294.99,308.14,-1.42E-02
1302.21,308.54,-2.28E-02
1308.35,308.94,-2.94E-02
1313.48,309.34,-3.44E-02
1318.002,309.74,-4.45E-02
1322.04,310.14,-5.05E-02
1325.73,310.54,-6.00E-02
1329.19,310.94,-6.99E-02
1332.29,311.34,-7.72E-02
1335.201,311.74,-9.14E-02
1338.02,312.14,-9.70E-02
1340.64,312.54,-0.10642
1343.12,312.94,-0.12041
1345.51,313.34,-0.12976
1347.76,313.74,-0.14271
1349.96,314.14,-0.15314
1352.04,314.54,-0.16351
1354.04,314.94,-0.17708
1355.99,315.34,-0.18805
1357.86,315.74,-0.19873
1359.681,316.14,-0.21327
1361.45,316.54,-0.22238
1363.185,316.94,-0.23357
1364.86,317.34,-0.24377
1366.49,317.74,-0.25544
1368.06,318.14,-0.26715
1369.59,318.54,-0.2786
1371.081,318.94,-0.28852
1372.54,319.34,-0.29894
1373.96,319.74,-0.30937
1375.37,320.14,-0.32121
1376.754,320.54,-0.33422
1378.11,320.94,-0.34828
1379.44,321.34,-0.36135
1380.73,321.74,-0.37555
1382.01,322.14,-0.38705
1383.27,322.54,-0.39834
1384.5,322.94,-0.40989
1385.71,323.34,-0.42118
1386.89,323.74,-0.43531
1388.07,324.14,-0.448
1389.246,324.54,-0.45924
1390.39,324.94,-0.47173
1391.51,325.34,-0.48505
1392.62,325.74,-0.50086
1393.716,326.14,-0.50983
1394.79,326.54,-0.52023
1395.855,326.94,-0.53259
1396.91,327.34,-0.54752
1397.95,327.74,-0.55916
1398.97,328.14,-0.57235
1399.98,328.54,-0.58732
1400.99,328.94,-0.60042
1401.981,329.34,-0.61237
1402.947,329.74,-0.6285
1403.92,330.14,-0.64345
1404.88,330.54,-0.65826
1405.83,330.94,-0.6685
1406.77,331.34,-0.68051
1407.702,331.74,-0.69564
1408.623,332.14,-0.70842
1409.53,332.54,-0.72013
1410.432,332.94,-0.73463
1411.326,333.34,-0.74523
1412.21,333.74,-0.76072
1413.087,334.14,-0.77432
1413.95,334.54,-0.78798
1414.81,334.94,-0.79771
1415.661,335.34,-0.81035
1416.51,335.74,-0.82566
1417.35,336.14,-0.83981
1418.175,336.54,-0.85182
1419,336.94,-0.86403
1419.82,337.34,-0.87843
1420.63,337.74,-0.89181
1421.436,338.14,-0.90466
1422.24,338.54,-0.91884
1423.03,338.94,-0.9311
1423.82,339.34,-0.94624
1424.6,339.74,-0.96074
1425.37,340.14,-0.97249
1426.14,340.54,-0.98832
1426.902,340.94,-1.00121
1427.66,341.34,-1.01232
1428.42,341.74,-1.02773
1429.17,342.14,-1.04015
1429.92,342.54,-1.05492
1430.66,342.94,-1.06567
1431.39,343.34,-1.07723
1432.13,343.74,-1.0927
1432.85,344.14,-1.10638
1433.58,344.54,-1.11814
1434.3,344.94,-1.13452
1435.02,345.34,-1.14601
1435.731,345.74,-1.15815
1436.44,346.14,-1.17054
1437.14,346.54,-1.18417
1437.84,346.94,-1.19559
1438.539,347.34,-1.20713
1439.232,347.74,-1.22202
1439.92,348.14,-1.23491
1440.61,348.54,-1.2486
1441.29,348.94,-1.26046
1441.97,349.34,-1.27038
1442.64,349.74,-1.28387
1443.31,350.14,-1.29962
1443.98,350.54,-1.31295
1444.65,350.94,-1.32375
1445.31,351.34,-1.33755
1445.967,351.74,-1.35079
1446.62,352.14,-1.36278
1447.28,352.54,-1.37641
1447.929,352.94,-1.38841
1448.57,353.34,-1.40269
1449.21,353.74,-1.41463
1449.85,354.14,-1.42764
1450.488,354.54,-1.4408
1451.12,354.94,-1.45494
1451.76,355.34,-1.46724
1452.38,355.74,-1.4807
1453.01,356.14,-1.49341
1453.63,356.54,-1.50582
1454.25,356.94,-1.51963
1454.87,357.34,-1.53323
1455.49,357.74,-1.54651
1456.1,358.14,-1.55801
1456.71,358.54,-1.5735
1457.31,358.94,-1.58498
1457.92,359.34,-1.59913
1458.52,359.74,-1.61097
1459.12,360.14,-1.62467
1459.72,360.54,-1.63868
1460.31,360.94,-1.6523
1460.9,361.34,-1.66439
1461.49,361.74,-1.67797
1462.08,362.14,-1.69151
1462.66,362.54,-1.704
1463.24,362.94,-1.71781
1463.83,363.34,-1.72994
1464.4,363.74,-1.74446
1464.98,364.14,-1.75493
1465.56,364.54,-1.7682
1466.13,364.94,-1.78257
1466.7,365.34,-1.79665
1467.27,365.74,-1.80689
1467.84,366.14,-1.81897
1468.401,366.54,-1.83406
1468.96,366.94,-1.84625
1469.52,367.34,-1.85982
1470.08,367.74,-1.87181
1470.636,368.14,-1.88558
1471.19,368.54,-1.8984
1471.74,368.94,-1.91324
1472.292,369.34,-1.92652
1472.84,369.74,-1.94034
1473.39,370.14,-1.95329
1473.94,370.54,-1.96391
1474.48,370.94,-1.97807
1475.02,371.34,-1.99105
1475.562,371.74,-2.00156
1476.1,372.14,-2.01513
1476.633,372.54,-2.02748
1477.17,372.94,-2.03907
1477.701,373.34,-2.05179
1478.23,373.74,-2.06494
1478.76,374.14,-2.07819
1479.29,374.54,-2.09289
1479.82,374.94,-2.1053
1480.35,375.34,-2.11772
1480.88,375.74,-2.13086
1481.4,376.14,-2.14154
1481.93,376.54,-2.15412
1482.447,376.94,-2.16924
1482.97,377.34,-2.17906
1483.49,377.74,-2.18904
1484,378.14,-2.2056
1484.52,378.54,-2.2174
1485.03,378.94,-2.22907
1485.55,379.34,-2.24238
1486.06,379.74,-2.25423
1486.572,380.14,-2.26787
1487.082,380.54,-2.28043
1487.592,380.94,-2.28845
1488.099,381.34,-2.3036
1488.61,381.74,-2.3169
1489.11,382.14,-2.32997
1489.62,382.54,-2.33783
1490.121,382.94,-2.34988
1490.625,383.34,-2.36003
1491.13,383.74,-2.37351
1491.63,384.14,-2.38587
1492.13,384.54,-2.39858
1492.63,384.94,-2.413
1493.13,385.34,-2.42259
1493.62,385.74,-2.43596
1494.12,386.14,-2.44449
1494.61,386.54,-2.46084
1495.11,386.94,-2.47189
1495.6,387.34,-2.48224
1496.091,387.74,-2.49625
1496.58,388.14,-2.5107
1497.069,388.54,-2.52238
1497.56,388.94,-2.53283
1498.04,389.34,-2.54568
1498.53,389.74,-2.55854
1499.01,390.14,-2.56957
1499.5,390.54,-2.58317
1499.99,390.94,-2.59529
1500.47,391.34,-2.60979
1500.95,391.74,-2.62186
1501.44,392.14,-2.63704
1501.92,392.54,-2.64918
1502.4,392.94,-2.66434
1502.87,393.34,-2.67663
1503.351,393.74,-2.69208
1503.83,394.14,-2.70396
1504.3,394.54,-2.71989
1504.77,394.94,-2.73142
1505.25,395.34,-2.744
1505.72,395.74,-2.76013
1506.19,396.14,-2.77359
1506.66,396.54,-2.78962
1507.13,396.94,-2.8043
1507.596,397.34,-2.82048
1508.06,397.74,-2.83213
1508.53,398.14,-2.84811
1509,398.54,-2.86377
1509.459,398.94,-2.87907
1509.92,399.34,-2.89734
1510.39,399.74,-2.9153
1510.848,400.14,-2.93041
1511.31,400.54,-2.9485
1511.77,400.94,-2.96723
1512.23,401.34,-2.98302
1512.69,401.74,-3.00064
1513.15,402.14,-3.01768
1513.6,402.54,-3.031
1514.06,402.94,-3.04852
1514.51,403.34,-3.06733
1514.97,403.74,-3.08451
1515.42,404.14,-3.10193
1515.88,404.54,-3.1199
1516.329,404.94,-3.13732
1516.779,405.34,-3.15609
1517.23,405.74,-3.17277
1517.68,406.14,-3.19179
1518.123,406.54,-3.20808
1518.57,406.94,-3.22754
1519.02,407.34,-3.24647
1519.461,407.74,-3.26421
1519.91,408.14,-3.28007
1520.35,408.54,-3.29719
1520.79,408.94,-3.31474
1521.23,409.34,-3.33033
1521.67,409.74,-3.34997
1522.11,410.14,-3.36766
1522.554,410.54,-3.38794
1522.995,410.94,-3.40175
1523.43,411.34,-3.42245
1523.87,411.74,-3.43855
1524.31,412.14,-3.45753
1524.74,412.54,-3.47416
1525.18,412.94,-3.4901
1525.61,413.34,-3.50715
1526.04,413.74,-3.52573
1526.48,414.14,-3.54193
1526.91,414.54,-3.5588
1527.34,414.94,-3.57421
1527.77,415.34,-3.59115
1528.2,415.74,-3.61175
1528.64,416.14,-3.62701
1529.07,416.54,-3.64194
1529.496,416.94,-3.65659
1529.92,417.34,-3.67503
1530.351,417.74,-3.69387
1530.78,418.14,-3.70661
1531.2,418.54,-3.72326
1531.63,418.94,-3.74097
1532.05,419.34,-3.75585
1532.48,419.74,-3.77138
1532.9,420.14,-3.78568
1533.32,420.54,-3.8015
1533.75,420.94,-3.81609
1534.17,421.34,-3.8304
1534.59,421.74,-3.84604
1535.01,422.14,-3.85937
1535.43,422.54,-3.87541
1535.85,422.94,-3.88662
1536.27,423.34,-3.90324
1536.69,423.74,-3.91796
1537.11,424.14,-3.93166
1537.53,424.54,-3.94333
1537.94,424.94,-3.9578
1538.36,425.34,-3.97224
1538.775,425.74,-3.98738
1539.19,426.14,-4.00087
1539.606,426.54,-4.0148
1540.02,426.94,-4.03309
1540.43,427.34,-4.04483
1540.85,427.74,-4.05952
1541.26,428.14,-4.07346
1541.67,428.54,-4.09015
1542.09,428.94,-4.10406
1542.5,429.34,-4.11584
1542.91,429.74,-4.13265
1543.317,430.14,-4.14584
1543.73,430.54,-4.15695
1544.14,430.94,-4.17016
1544.55,431.34,-4.18788
1544.96,431.74,-4.20028
1545.36,432.14,-4.21158
1545.77,432.54,-4.22283
1546.179,432.94,-4.2393
1546.59,433.34,-4.25179
1546.992,433.74,-4.26695
1547.397,434.14,-4.28035
1547.8,434.54,-4.29147
1548.21,434.94,-4.30554
1548.61,435.34,-4.3164
1549.02,435.74,-4.32651
1549.42,436.14,-4.34183
1549.82,436.54,-4.34874
1550.23,436.94,-4.36357
1550.63,437.34,-4.37501
1551.033,437.74,-4.3867
1551.44,438.14,-4.39572
1551.84,438.54,-4.40638
1552.239,438.94,-4.41869
1552.64,439.34,-4.43321
1553.04,439.74,-4.44366
1553.442,440.14,-4.45717
1553.841,440.54,-4.46814
1554.24,440.94,-4.48024
1554.64,441.34,-4.49235
1555.04,441.74,-4.50377
1555.44,442.14,-4.51634
1555.833,442.54,-4.5269
1556.229,442.94,-4.53724
1556.625,443.34,-4.54898
1557.02,443.74,-4.56053
1557.42,444.14,-4.57279
1557.81,444.54,-4.58246
1558.21,444.94,-4.59374
1558.6,445.34,-4.60322
1559,445.74,-4.61365
1559.39,446.14,-4.62577
1559.79,446.54,-4.63604
1560.18,446.94,-4.64897
1560.57,447.34,-4.65809
1560.963,447.74,-4.66721
1561.35,448.14,-4.67944
1561.75,448.54,-4.68961
1562.14,448.94,-4.69885
1562.53,449.34,-4.71138
1562.92,449.74,-4.7221
1563.31,450.14,-4.73309
1563.7,450.54,-4.74237
1564.089,450.94,-4.75182
1564.48,451.34,-4.76359
1564.87,451.74,-4.77361
1565.25,452.14,-4.78598
1565.64,452.54,-4.79753
1566.03,452.94,-4.80925
1566.42,453.34,-4.81803
1566.8,453.74,-4.83051
1567.19,454.14,-4.84243
1567.57,454.54,-4.8545
1567.96,454.94,-4.86454
1568.34,455.34,-4.87466
1568.73,455.74,-4.88201
1569.11,456.14,-4.89072
1569.49,456.54,-4.90133
1569.87,456.94,-4.91214
1570.257,457.34,-4.92514
1570.64,457.74,-4.93357
1571.02,458.14,-4.94541
1571.4,458.54,-4.95617
1571.78,458.94,-4.96575
1572.16,459.34,-4.97569
1572.543,459.74,-4.98622
1572.92,460.14,-4.99458
1573.3,460.54,-5.00412
1573.68,460.94,-5.01663
1574.06,461.34,-5.02815
1574.442,461.74,-5.03997
1574.82,462.14,-5.05089
1575.198,462.54,-5.05631
1575.57,462.94,-5.07149
1575.951,463.34,-5.07949
1576.33,463.74,-5.09067
1576.7,464.14,-5.10142
1577.08,464.54,-5.11241
1577.454,464.94,-5.12336
1577.83,465.34,-5.13337
1578.2,465.74,-5.14444
1578.579,466.14,-5.15475
1578.95,466.54,-5.17041
1579.33,466.94,-5.1825
1579.7,467.34,-5.19611
1580.073,467.74,-5.20966
1580.45,468.14,-5.21984
1580.82,468.54,-5.23024
1581.19,468.94,-5.2455
1581.57,469.34,-5.25793
1581.94,469.74,-5.2693
1582.31,470.14,-5.27906
1582.68,470.54,-5.29192
1583.05,470.94,-5.3055
1583.42,471.34,-5.31683
1583.79,471.74,-5.32742
1584.16,472.14,-5.34013
1584.534,472.54,-5.3504
1584.903,472.94,-5.3626
1585.27,473.34,-5.37469
1585.64,473.74,-5.38702
1586.01,474.14,-5.39878
1586.38,474.54,-5.41222
1586.75,474.94,-5.42211
1587.12,475.34,-5.4353
1587.483,475.74,-5.44508
1587.85,476.14,-5.45669
1588.22,476.54,-5.46653
1588.59,476.94,-5.47949
1588.95,477.34,-5.49042
1589.32,477.74,-5.50669
1589.69,478.14,-5.51779
1590.06,478.54,-5.52953
1590.42,478.94,-5.53924
1590.79,479.34,-5.55186
1591.152,479.74,-5.56422
1591.52,480.14,-5.57212
1591.88,480.54,-5.5835
1592.25,480.94,-5.59854
1592.61,481.34,-5.6087
1592.97,481.74,-5.61898
1593.34,482.14,-5.63097
1593.702,482.54,-5.64365
1594.06,482.94,-5.6557
1594.43,483.34,-5.66767
1594.79,483.74,-5.67863
1595.16,484.14,-5.68661
1595.52,484.54,-5.69888
1595.88,484.94,-5.7096
1596.24,485.34,-5.71983
1596.606,485.74,-5.73299
1596.97,486.14,-5.74449
1597.33,486.54,-5.75636
1597.689,486.94,-5.76842
1598.05,487.34,-5.77901
1598.41,487.74,-5.79287
1598.77,488.14,-5.80491
1599.13,488.54,-5.81627
1599.495,488.94,-5.82687
1599.86,489.34,-5.83935
1600.22,489.74,-5.84963
1600.575,490.14,-5.86348
1600.93,490.54,-5.8769
1601.29,490.94,-5.88816
1601.65,491.34,-5.90212
1602.01,491.74,-5.91145
1602.37,492.14,-5.9245
1602.726,492.54,-5.93603
1603.08,492.94,-5.94767
1603.44,493.34,-5.96088
1603.8,493.74,-5.97301
1604.16,494.14,-5.9853
1604.51,494.54,-5.99565
1604.87,494.94,-6.00964
1605.23,495.34,-6.02289
1605.58,495.74,-6.03612
1605.939,496.14,-6.04999
1606.29,496.54,-6.05915
1606.65,496.94,-6.0705
1607,497.34,-6.08424
1607.36,497.74,-6.09757
1607.71,498.14,-6.11028
1608.07,498.54,-6.12418
1608.426,498.94,-6.13836
1608.78,499.34,-6.15106
1609.137,499.74,-6.16584
1609.49,500.14,-6.17851
1609.84,500.54,-6.19107
1610.2,500.94,-6.20629
1610.55,501.34,-6.21916
1610.9,501.74,-6.23157
1611.26,502.14,-6.24609
1611.61,502.54,-6.25977
1611.96,502.94,-6.27482
1612.32,503.34,-6.29064
1612.671,503.74,-6.30436
1613.02,504.14,-6.31777
1613.37,504.54,-6.33154
1613.73,504.94,-6.34108
1614.08,505.34,-6.3587
1614.43,505.74,-6.37228
1614.78,506.14,-6.38406
1615.13,506.54,-6.39711
1615.482,506.94,-6.4107
1615.833,507.34,-6.42474
1616.184,507.74,-6.43805
1616.53,508.14,-6.45116
1616.88,508.54,-6.46625
1617.234,508.94,-6.4784
1617.58,509.34,-6.49387
1617.93,509.74,-6.50906
1618.28,510.14,-6.52458
1618.63,510.54,-6.53772
1618.98,510.94,-6.5483
1619.33,511.34,-6.56239
1619.67,511.74,-6.57654
1620.02,512.14,-6.59113
1620.37,512.54,-6.60404
1620.72,512.94,-6.61793
1621.07,513.34,-6.62667
1621.41,513.74,-6.63772
1621.76,514.14,-6.65103
1622.11,514.54,-6.66304
1622.46,514.94,-6.67771
1622.802,515.34,-6.69059
1623.15,515.74,-6.70224
1623.49,516.14,-6.7156
1623.84,516.54,-6.73054
1624.19,516.94,-6.74488
1624.533,517.34,-6.75888
1624.878,517.74,-6.77378
1625.223,518.14,-6.78565
1625.57,518.54,-6.80106
1625.91,518.94,-6.81544
1626.258,519.34,-6.83009
1626.6,519.74,-6.84474
1626.94,520.14,-6.85804
1627.29,520.54,-6.86732
1627.632,520.94,-6.88007
1627.98,521.34,-6.89231
1628.32,521.74,-6.90474
1628.66,522.14,-6.91571
1629.01,522.54,-6.92495
1629.35,522.94,-6.93676
1629.7,523.34,-6.95086
1630.04,523.74,-6.96119
1630.39,524.14,-6.97217
1630.73,524.54,-6.98258
1631.07,524.94,-6.99408
1631.41,525.34,-7.0086
1631.76,525.74,-7.01826
1632.1,526.14,-7.03041
1632.44,526.54,-7.04252
1632.78,526.94,-7.05166
1633.119,527.34,-7.06302
1633.46,527.74,-7.07298
1633.8,528.14,-7.08293
1634.14,528.54,-7.09493
1634.484,528.94,-7.107
1634.83,529.34,-7.11602
1635.17,529.74,-7.12672
1635.51,530.14,-7.13863
1635.849,530.54,-7.15061
1636.19,530.94,-7.16232
1636.53,531.34,-7.17308
1636.87,531.74,-7.18478
1637.211,532.14,-7.19816
1637.55,532.54,-7.21039
1637.89,532.94,-7.22362
1638.23,533.34,-7.23834
1638.57,533.74,-7.2512
1638.91,534.14,-7.26448
1639.25,534.54,-7.28041
1639.59,534.94,-7.29474
1639.923,535.34,-7.30588
1640.26,535.74,-7.31633
1640.6,536.14,-7.32777
1640.94,536.54,-7.33671
1641.28,536.94,-7.34812
1641.62,537.34,-7.36133
1641.954,537.74,-7.37148
1642.29,538.14,-7.3834
1642.63,538.54,-7.39422
1642.97,538.94,-7.40038
1643.3,539.34,-7.41067
1643.64,539.74,-7.42363
1643.98,540.14,-7.43852
1644.31,540.54,-7.45342
1644.65,540.94,-7.46416
1644.987,541.34,-7.47308
1645.32,541.74,-7.48608
1645.66,542.14,-7.50332
1646,542.54,-7.52024
1646.33,542.94,-7.53267
1646.67,543.34,-7.54178
1647.01,543.74,-7.55337
1647.34,544.14,-7.56424
1647.68,544.54,-7.57424
1648.01,544.94,-7.58243
1648.347,545.34,-7.59107
1648.683,545.74,-7.59964
1649.02,546.14,-7.60888
1649.35,546.54,-7.62023
1649.69,546.94,-7.63029
1650.024,547.34,-7.64073
1650.36,547.74,-7.64924
1650.69,548.14,-7.66031
1651.03,548.54,-7.67078
1651.36,548.94,-7.6793
1651.7,549.34,-7.68706
1652.03,549.74,-7.68937
1652.37,550.14,-7.69914
1652.7,550.54,-7.70697
1653.04,550.94,-7.71358
1653.369,551.34,-7.71994
1653.7,551.74,-7.72701
1654.038,552.14,-7.7356
1654.37,552.54,-7.74061
1654.71,552.94,-7.74664
1655.04,553.34,-7.75592
1655.37,553.74,-7.76278
1655.71,554.14,-7.77145
1656.04,554.54,-7.77756
1656.37,554.94,-7.78564
1656.71,555.34,-7.79481
1657.04,555.74,-7.79946
1657.37,556.14,-7.80429
1657.7,556.54,-7.80834
1658.04,556.94,-7.81698
1658.37,557.34,-7.82233
1658.7,557.74,-7.83159
1659.04,558.14,-7.84082
1659.37,558.54,-7.84518
1659.702,558.94,-7.85209
1660.03,559.34,-7.85858
1660.37,559.74,-7.86612
1660.7,560.14,-7.87597
1661.031,560.54,-7.88453
1661.36,560.94,-7.89124
1661.694,561.34,-7.89768
1662.03,561.74,-7.90162
1662.36,562.14,-7.90667
1662.69,562.54,-7.91059
1663.02,562.94,-7.91656
1663.35,563.34,-7.92251
1663.68,563.74,-7.92715
1664.02,564.14,-7.9317
1664.346,564.54,-7.93775
1664.68,564.94,-7.94086
1665.01,565.34,-7.94456
1665.34,565.74,-7.94862
1665.67,566.14,-7.95123
1666,566.54,-7.95722
1666.33,566.94,-7.96216
1666.66,567.34,-7.96253
1666.99,567.74,-7.96763
1667.32,568.14,-7.97236
1667.65,568.54,-7.97363
1667.98,568.94,-7.96643
1668.31,569.34,-7.96807
1668.64,569.74,-7.97127
1668.97,570.14,-7.97417
1669.305,570.54,-7.97949
1669.63,570.94,-7.98912
1669.96,571.34,-7.99608
1670.29,571.74,-8.00507
1670.62,572.14,-8.01012
1670.95,572.54,-8.01211
1671.28,572.94,-8.01438
1671.612,573.34,-8.01846
1671.94,573.74,-8.02422
1672.27,574.14,-8.02827
1672.602,574.54,-8.03818
1672.93,574.94,-8.04409
1673.26,575.34,-8.05303
1673.59,575.74,-8.05805
1673.919,576.14,-8.06485
1674.25,576.54,-8.07429
1674.58,576.94,-8.0809
1674.9,577.34,-8.08847
1675.23,577.74,-8.08762
1675.56,578.14,-8.08894
1675.89,578.54,-8.09039
1676.22,578.94,-8.09526
1676.55,579.34,-8.09995
1676.88,579.74,-8.10659
1677.21,580.14,-8.11059
1677.534,580.54,-8.11116
1677.861,580.94,-8.11769
1678.19,581.34,-8.12383
1678.52,581.74,-8.13103
1678.84,582.14,-8.13484
1679.17,582.54,-8.14161
1679.499,582.94,-8.14532
1679.83,583.34,-8.14936
1680.16,583.74,-8.151
1680.48,584.14,-8.15534
1680.81,584.54,-8.15604
1681.14,584.94,-8.15604
1681.467,585.34,-8.15676
1681.8,585.74,-8.15779
1682.12,586.14,-8.15999
1682.45,586.54,-8.1618
1682.78,586.94,-8.16366
1683.105,587.34,-8.16764
1683.43,587.74,-8.16984
1683.76,588.14,-8.17098
1684.09,588.54,-8.17432
1684.41,588.94,-8.17458
1684.74,589.34,-8.17533
1685.07,589.74,-8.17773
1685.4,590.14,-8.17652
1685.72,590.54,-8.17849
1686.051,590.94,-8.17971
1686.38,591.34,-8.17889
1686.71,591.74,-8.17763
1687.03,592.14,-8.17715
1687.36,592.54,-8.17738
1687.69,592.94,-8.17703
1688.01,593.34,-8.17402
1688.34,593.74,-8.16807
1688.67,594.14,-8.16639
1688.991,594.54,-8.16385
1689.32,594.94,-8.16245
1689.642,595.34,-8.16353
1689.969,595.74,-8.16218
1690.3,596.14,-8.15815
1690.62,596.54,-8.15403
1690.95,596.94,-8.1525
1691.28,597.34,-8.14778
1691.6,597.74,-8.14404
1691.93,598.14,-8.1402
1692.26,598.54,-8.13541
1692.58,598.94,-8.1332
1692.91,599.34,-8.12691
1693.24,599.74,-8.1227
1693.56,600.14,-8.11873
1693.89,600.54,-8.11517
1694.22,600.94,-8.10918
1694.54,601.34,-8.10135
1694.87,601.74,-8.09516
1695.19,602.14,-8.08685
1695.52,602.54,-8.08024
1695.846,602.94,-8.07339
1696.17,603.34,-8.06682
1696.497,603.74,-8.06042
1696.82,604.14,-8.04941
1697.15,604.54,-8.04042
1697.475,604.94,-8.03332
1697.802,605.34,-8.02528
1698.129,605.74,-8.02018
1698.46,606.14,-8.0116
1698.78,606.54,-8.00448
1699.11,606.94,-7.99585
1699.434,607.34,-7.98675
1699.76,607.74,-7.97843
1700.09,608.14,-7.97106
1700.41,608.54,-7.96013
1700.739,608.94,-7.94742
1701.07,609.34,-7.93514
1701.39,609.74,-7.92443
1701.72,610.14,-7.91082
1702.05,610.54,-7.8976
1702.37,610.94,-7.88465
1702.7,611.34,-7.86892
1703.02,611.74,-7.85553
1703.35,612.14,-7.83945
1703.68,612.54,-7.82498
1704.003,612.94,-7.80637
1704.33,613.34,-7.79066
1704.65,613.74,-7.77445
1704.98,614.14,-7.75705
1705.31,614.54,-7.73929
1705.63,614.94,-7.72198
1705.96,615.34,-7.70145
1706.29,615.74,-7.68238
1706.61,616.14,-7.66345
1706.937,616.54,-7.64509
1707.26,616.94,-7.62494
1707.59,617.34,-7.59995
1707.915,617.74,-7.57477
1708.24,618.14,-7.55048
1708.57,618.54,-7.52694
1708.89,618.94,-7.50353
1709.22,619.34,-7.4787
1709.55,619.74,-7.45226
1709.87,620.14,-7.43013
1710.2,620.54,-7.40245
1710.53,620.94,-7.37759
1710.85,621.34,-7.35141
1711.18,621.74,-7.32568
1711.51,622.14,-7.29611
1711.836,622.54,-7.26618
1712.16,622.94,-7.23687
1712.49,623.34,-7.20459
1712.82,623.74,-7.17592
1713.14,624.14,-7.14419
1713.47,624.54,-7.11287
1713.8,624.94,-7.08251
1714.12,625.34,-7.05219
1714.45,625.74,-7.01776
1714.78,626.14,-6.98707
1715.11,626.54,-6.95585
1715.433,626.94,-6.91949
1715.76,627.34,-6.88413
1716.09,627.74,-6.84702
1716.42,628.14,-6.81185
1716.74,628.54,-6.77437
1717.07,628.94,-6.73998
1717.398,629.34,-6.70042
1717.725,629.74,-6.65944
1718.052,630.14,-6.61854
1718.38,630.54,-6.58043
1718.71,630.94,-6.54058
1719.04,631.34,-6.5022
1719.363,631.74,-6.45797
1719.69,632.14,-6.41507
1720.02,632.54,-6.37008
1720.347,632.94,-6.32553
1720.68,633.34,-6.28085
1721,633.74,-6.23726
1721.33,634.14,-6.19361
1721.66,634.54,-6.1485
1721.99,634.94,-6.1
1722.31,635.34,-6.05526
1722.64,635.74,-6.01255
1722.97,636.14,-5.96628
1723.3,636.54,-5.92535
1723.63,636.94,-5.88061
1723.96,637.34,-5.83391
1724.28,637.74,-5.79121
1724.61,638.14,-5.74768
1724.943,638.54,-5.70075
1725.27,638.94,-5.65682
1725.6,639.34,-5.60994
1725.93,639.74,-5.56515
1726.26,640.14,-5.51764
1726.59,640.54,-5.47395
1726.92,640.94,-5.43161
1727.25,641.34,-5.38382
1727.58,641.74,-5.33844
1727.91,642.14,-5.29426
1728.24,642.54,-5.24248
1728.57,642.94,-5.19834
1728.9,643.34,-5.15587
1729.23,643.74,-5.11275
1729.56,644.14,-5.07221
1729.89,644.54,-5.02985
1730.22,644.94,-4.98968
1730.55,645.34,-4.94974
1730.88,645.74,-4.9069
1731.21,646.14,-4.86331
1731.54,646.54,-4.82297
1731.873,646.94,-4.78132
1732.203,647.34,-4.73803
1732.53,647.74,-4.69171
1732.86,648.14,-4.65129
1733.196,648.54,-4.60875
1733.53,648.94,-4.56832
1733.86,649.34,-4.53027
1734.19,649.74,-4.49444
1734.522,650.14,-4.46018
1734.85,650.54,-4.42863
1735.19,650.94,-4.39578
1735.518,651.34,-4.36241
1735.85,651.74,-4.32813
1736.18,652.14,-4.29513
1736.514,652.54,-4.26007
1736.85,652.94,-4.22382
1737.18,653.34,-4.18904
1737.51,653.74,-4.15496
1737.85,654.14,-4.11939
1738.18,654.54,-4.08951
1738.51,654.94,-4.06261
1738.84,655.34,-4.03068
1739.18,655.74,-3.99986
1739.511,656.14,-3.96602
1739.844,656.54,-3.92861
1740.18,656.94,-3.89443
1740.51,657.34,-3.85928
1740.84,657.74,-3.8289
1741.18,658.14,-3.79782
1741.51,658.54,-3.7635
1741.84,658.94,-3.72889
1742.17,659.34,-3.69412
1742.51,659.74,-3.66115
1742.84,660.14,-3.62857
1743.17,660.54,-3.59448
1743.51,660.94,-3.55888
1743.84,661.34,-3.52435
1744.179,661.74,-3.49298
1744.51,662.14,-3.46135
1744.848,662.54,-3.43084
1745.18,662.94,-3.3975
1745.52,663.34,-3.36113
1745.85,663.74,-3.32724
1746.19,664.14,-3.30108
1746.525,664.54,-3.27342
1746.86,664.94,-3.24597
1747.2,665.34,-3.21684
1747.53,665.74,-3.18777
1747.87,666.14,-3.16514
1748.202,666.54,-3.14274
1748.54,666.94,-3.12397
1748.87,667.34,-3.10568
1749.21,667.74,-3.08288
1749.55,668.14,-3.05993
1749.88,668.54,-3.03831
1750.22,668.94,-3.01595
1750.56,669.34,-2.99027
1750.896,669.74,-2.96998
1751.23,670.14,-2.95631
1751.57,670.54,-2.94477
1751.907,670.94,-2.93988
1752.24,671.34,-2.93307
1752.58,671.74,-2.9253
1752.92,672.14,-2.91571
1753.254,672.54,-2.90571
1753.59,672.94,-2.89647
1753.929,673.34,-2.88658
1754.27,673.74,-2.88065
1754.6,674.14,-2.87627
1754.94,674.54,-2.873
1755.28,674.94,-2.87151
1755.62,675.34,-2.86793
1755.96,675.74,-2.86455
1756.3,676.14,-2.86369
1756.64,676.54,-2.86402
1756.97,676.94,-2.86641
1757.31,677.34,-2.87391
1757.65,677.74,-2.87915
1757.99,678.14,-2.88795
1758.33,678.54,-2.89381
1758.672,678.94,-2.90138
1759.01,679.34,-2.90673
1759.35,679.74,-2.91732
1759.69,680.14,-2.92801
1760.03,680.54,-2.93954
1760.37,680.94,-2.94921
1760.71,681.34,-2.9611
1761.05,681.74,-2.97606
1761.39,682.14,-2.99606
1761.73,682.54,-3.01727
1762.08,682.94,-3.04
1762.42,683.34,-3.0645
1762.76,683.74,-3.09267
1763.1,684.14,-3.12355
1763.44,684.54,-3.16111
1763.78,684.94,-3.20048
1764.12,685.34,-3.24765
1764.47,685.74,-3.30138
1764.81,686.14,-3.35957
1765.15,686.54,-3.42123
1765.5,686.94,-3.48119
1765.839,687.34,-3.55086
1766.18,687.74,-3.62871
1766.52,688.14,-3.70984
1766.87,688.54,-3.79782
1767.21,688.94,-3.89097
1767.552,689.34,-3.98546
1767.894,689.74,-4.08758
1768.24,690.14,-4.18787
1768.58,690.54,-4.28753
1768.92,690.94,-4.38809
1769.26,691.34,-4.48936
1769.61,691.74,-4.59105
1769.95,692.14,-4.69052
1770.29,692.54,-4.78724
1770.64,692.94,-4.8827
1770.98,693.34,-4.97768
1771.33,693.74,-5.07564
1771.67,694.14,-5.16831
1772.01,694.54,-5.25809
1772.36,694.94,-5.34741
1772.7,695.34,-5.43368
1773.04,695.74,-5.52072
1773.39,696.14,-5.60642
1773.732,696.54,-5.6905
1774.077,696.94,-5.77305
1774.422,697.34,-5.85657
1774.767,697.74,-5.93916
1775.11,698.14,-6.01951
1775.46,698.54,-6.09611
1775.799,698.94,-6.16986
1776.14,699.34,-6.24747
1776.49,699.74,-6.32627
1776.834,700.14,-6.40163
1777.18,700.54,-6.47689
1777.524,700.94,-6.55048
1777.87,701.34,-6.62664
1778.22,701.74,-6.69964
1778.56,702.14,-6.77041
1778.91,702.54,-6.84296
1779.255,702.94,-6.91314
1779.6,703.34,-6.97853
1779.95,703.74,-7.04695
1780.29,704.14,-7.11606
1780.64,704.54,-7.18629
1780.99,704.94,-7.25278
1781.34,705.34,-7.32607
1781.68,705.74,-7.39221
1782.03,706.14,-7.46024
1782.38,706.54,-7.52649
1782.73,706.94,-7.59025
1783.07,707.34,-7.65482
1783.42,707.74,-7.71876
1783.77,708.14,-7.77825
1784.118,708.54,-7.83906
1784.47,708.94,-7.89677
1784.814,709.34,-7.95143
1785.16,709.74,-8.01156
1785.51,710.14,-8.06942
1785.86,710.54,-8.1255
1786.206,710.94,-8.18275
1786.554,711.34,-8.23883
1786.902,711.74,-8.29135
1787.25,712.14,-8.34698
1787.6,712.54,-8.40261
1787.95,712.94,-8.45203
1788.3,713.34,-8.50308
1788.65,713.74,-8.55557
1789,714.14,-8.60963
1789.35,714.54,-8.65967
1789.7,714.94,-8.70615
1790.05,715.34,-8.75278
1790.4,715.74,-8.80433
1790.75,716.14,-8.85335
1791.102,716.54,-8.89992
1791.45,716.94,-8.95088
1791.8,717.34,-8.99459
1792.15,717.74,-9.03888
1792.506,718.14,-9.08055
1792.857,718.54,-9.12415
1793.21,718.94,-9.16632
1793.56,719.34,-9.20578
1793.91,719.74,-9.24741
1794.27,720.14,-9.28723
1794.62,720.54,-9.32631
1794.97,720.94,-9.36254
1795.32,721.34,-9.39799
1795.68,721.74,-9.42933
1796.03,722.14,-9.46687
1796.38,722.54,-9.49906
1796.73,722.94,-9.52765
1797.087,723.34,-9.55571
1797.44,723.74,-9.58512
1797.79,724.14,-9.61185
1798.15,724.54,-9.63707
1798.5,724.94,-9.66153
1798.857,725.34,-9.68251
1799.21,725.74,-9.70454
1799.57,726.14,-9.72652
1799.922,726.54,-9.74429
1800.28,726.94,-9.76312
1800.63,727.34,-9.78037
1800.99,727.74,-9.79812
1801.34,728.14,-9.81187
1801.7,728.54,-9.8286
1802.055,728.94,-9.84932
1802.41,729.34,-9.8669
1802.77,729.74,-9.88213
1803.12,730.14,-9.8981
1803.48,730.54,-9.91186
1803.84,730.94,-9.92656
1804.2,731.34,-9.94124
1804.55,731.74,-9.95412
1804.91,732.14,-9.96895
1805.268,732.54,-9.98195
1805.63,732.94,-9.99882
1805.98,733.34,-10.01063
1806.342,733.74,-10.02383
1806.7,734.14,-10.04126
1807.06,734.54,-10.05625
1807.42,734.94,-10.07009
1807.77,735.34,-10.08628
1808.133,735.74,-10.10276
1808.493,736.14,-10.11806
1808.853,736.54,-10.13062
1809.21,736.94,-10.14754
1809.573,737.34,-10.1632
1809.93,737.74,-10.17505
1810.29,738.14,-10.19235
1810.65,738.54,-10.20631
1811.01,738.94,-10.21776
1811.37,739.34,-10.2293
1811.73,739.74,-10.24291
1812.1,740.14,-10.25613
1812.459,740.54,-10.26699
1812.82,740.94,-10.27488
1813.18,741.34,-10.28629
1813.54,741.74,-10.29957
1813.91,742.14,-10.30966
1814.268,742.54,-10.3213
1814.63,742.94,-10.33897
1814.99,743.34,-10.35124
1815.36,743.74,-10.36141
1815.72,744.14,-10.37719
1816.08,744.54,-10.38889
1816.45,744.94,-10.39906
1816.81,745.34,-10.40853
1817.17,745.74,-10.42323
1817.538,746.14,-10.43337
1817.9,746.54,-10.444
1818.27,746.94,-10.45487
1818.63,747.34,-10.46576
1819,747.74,-10.47775
1819.36,748.14,-10.48592
1819.73,748.54,-10.4947
1820.09,748.94,-10.50155
1820.46,749.34,-10.50936
1820.826,749.74,-10.52003
1821.19,750.14,-10.53157
1821.56,750.54,-10.54309
1821.927,750.94,-10.5502
1822.29,751.34,-10.56027
1822.66,751.74,-10.57056
1823.03,752.14,-10.58106
1823.39,752.54,-10.58756
1823.76,752.94,-10.59344
1824.13,753.34,-10.60549
1824.49,753.74,-10.61144
1824.86,754.14,-10.61743
1825.23,754.54,-10.62293
1825.6,754.94,-10.62801
1825.97,755.34,-10.63648
1826.34,755.74,-10.6412
1826.71,756.14,-10.65162
1827.08,756.54,-10.65438
1827.45,756.94,-10.65852
1827.819,757.34,-10.66288
1828.188,757.74,-10.66776
1828.56,758.14,-10.67757
1828.93,758.54,-10.68615
1829.3,758.94,-10.68671
1829.67,759.34,-10.69544
1830.04,759.74,-10.69977
1830.41,760.14,-10.70625
1830.786,760.54,-10.70627
1831.16,760.94,-10.71331
1831.53,761.34,-10.71743
1831.9,761.74,-10.72305
1832.28,762.14,-10.7271
1832.649,762.54,-10.73214
1833.02,762.94,-10.73906
1833.4,763.34,-10.74556
1833.77,763.74,-10.75454
1834.143,764.14,-10.76584
1834.52,764.54,-10.77221
1834.89,764.94,-10.77999
1835.27,765.34,-10.78737
1835.64,765.74,-10.79263
1836.015,766.14,-10.79752
1836.39,766.54,-10.80165
1836.77,766.94,-10.80428
1837.14,767.34,-10.80478
1837.518,767.74,-10.80765
1837.89,768.14,-10.81273
1838.27,768.54,-10.8164
1838.646,768.94,-10.81599
1839.02,769.34,-10.81824
1839.4,769.74,-10.82145
1839.774,770.14,-10.8251
1840.152,770.54,-10.83013
1840.53,770.94,-10.83275
1840.908,771.34,-10.83494
1841.29,771.74,-10.83767
1841.67,772.14,-10.83924
1842.04,772.54,-10.84117
1842.42,772.94,-10.8456
1842.8,773.34,-10.84778
1843.182,773.74,-10.85263
1843.56,774.14,-10.85406
1843.94,774.54,-10.85194
1844.32,774.94,-10.85274
1844.7,775.34,-10.85563
1845.08,775.74,-10.8591
1845.46,776.14,-10.86168
1845.84,776.54,-10.8623
1846.22,776.94,-10.8665
1846.605,777.34,-10.8703
1846.99,777.74,-10.87065
1847.367,778.14,-10.87255
1847.75,778.54,-10.87095
1848.13,778.94,-10.874
1848.513,779.34,-10.8771
1848.897,779.74,-10.87944
1849.28,780.14,-10.87914
1849.66,780.54,-10.87887
1850.05,780.94,-10.88309
1850.43,781.34,-10.88179
1850.814,781.74,-10.88203
1851.198,782.14,-10.88526
1851.582,782.54,-10.88571
1851.966,782.94,-10.88738
1852.35,783.34,-10.88886
1852.74,783.74,-10.89265
1853.121,784.14,-10.89271
1853.51,784.54,-10.89316
1853.89,784.94,-10.89179
1854.28,785.34,-10.89192
1854.66,785.74,-10.89267
1855.05,786.14,-10.89458
1855.44,786.54,-10.89107
1855.82,786.94,-10.89462
1856.21,787.34,-10.89368
1856.6,787.74,-10.89519
1856.99,788.14,-10.89698
1857.37,788.54,-10.892
1857.759,788.94,-10.89752
1858.15,789.34,-10.90282
1858.53,789.74,-10.90067
1858.923,790.14,-10.8987
1859.31,790.54,-10.90201
1859.7,790.94,-10.90209
1860.09,791.34,-10.90108
1860.48,791.74,-10.90162
1860.87,792.14,-10.8999
1861.26,792.54,-10.90248
1861.65,792.94,-10.90532
1862.04,793.34,-10.90224
1862.43,793.74,-10.90726
1862.82,794.14,-10.90304
1863.21,794.54,-10.90376
1863.6,794.94,-10.89882
1863.99,795.34,-10.89955
1864.38,795.74,-10.89873
1864.78,796.14,-10.90239
1865.169,796.54,-10.90245
1865.56,796.94,-10.90855
1865.95,797.34,-10.91042
1866.35,797.74,-10.90781
1866.74,798.14,-10.90987
1867.13,798.54,-10.91037
1867.53,798.94,-10.91375
1867.92,799.34,-10.91566
1868.32,799.74,-10.91971
1868.712,800.14,-10.91687
1869.11,800.54,-10.91644
1869.501,800.94,-10.91869
1869.9,801.34,-10.91739
1870.29,801.74,-10.91909
1870.69,802.14,-10.92251
1871.08,802.54,-10.92493
1871.48,802.94,-10.92976
1871.874,803.34,-10.92887
1872.27,803.74,-10.93088
1872.666,804.14,-10.93256
1873.062,804.54,-10.93309
1873.46,804.94,-10.93511
1873.86,805.34,-10.93186
1874.25,805.74,-10.93796
1874.65,806.14,-10.93577
1875.048,806.54,-10.93993
1875.45,806.94,-10.94263
1875.85,807.34,-10.94572
1876.25,807.74,-10.94642
1876.65,808.14,-10.94673
1877.04,808.54,-10.94613
1877.44,808.94,-10.94772
1877.84,809.34,-10.95437
1878.24,809.74,-10.95552
1878.642,810.14,-10.95817
1879.04,810.54,-10.96371
1879.44,810.94,-10.96414
1879.845,811.34,-10.96681
1880.25,811.74,-10.9681
1880.65,812.14,-10.96531
1881.048,812.54,-10.96648
1881.45,812.94,-10.96644
1881.85,813.34,-10.96534
1882.25,813.74,-10.96868
1882.66,814.14,-10.96966
1883.06,814.54,-10.97326
1883.46,814.94,-10.97599
1883.9,815.34,-10.97639