File: PMMA/Calibration_Data/Sandia/Sandia_TGA_Ar_50K_3.csv
Time,Temperature,Mass,
[s],[K],[mg],
1200.1,306.944,4.68E+00,
1269.15,307.344,4.67E+00,
1284.16,307.744,4.67E+00,
1294.08,308.144,4.67E+00,
1301.57,308.544,4.67E+00,
1307.67,308.944,4.66E+00,
1312.86,309.344,4.66E+00,
1317.43,309.744,4.66E+00,
1321.461,310.144,4.66E+00,
1325.21,310.544,4.66E+00,
1328.64,310.944,4.66E+00,
1331.87,311.344,4.66E+00,
1334.85,311.744,4.66E+00,
1337.63,312.144,4.66E+00,
1340.253,312.544,4.66E+00,
1342.77,312.944,4.66E+00,
1345.182,313.344,4.66E+00,
1347.47,313.744,4.66E+00,
1349.69,314.144,4.66E+00,
1351.78,314.544,4.65E+00,
1353.81,314.944,4.65E+00,
1355.74,315.344,4.65E+00,
1357.6,315.744,4.65E+00,
1359.43,316.144,4.65E+00,
1361.22,316.544,4.65E+00,
1362.93,316.944,4.65E+00,
1364.58,317.344,4.65E+00,
1366.2,317.744,4.65E+00,
1367.799,318.144,4.65E+00,
1369.36,318.544,4.65E+00,
1370.86,318.944,4.65E+00,
1372.34,319.344,4.65E+00,
1373.77,319.744,4.65E+00,
1375.18,320.144,4.65E+00,
1376.56,320.544,4.65E+00,
1377.92,320.944,4.65E+00,
1379.25,321.344,4.65E+00,
1380.552,321.744,4.65E+00,
1381.842,322.144,4.65E+00,
1383.102,322.544,4.65E+00,
1384.35,322.944,4.65E+00,
1385.565,323.344,4.65E+00,
1386.759,323.744,4.65E+00,
1387.94,324.144,4.65E+00,
1389.11,324.544,4.65E+00,
1390.24,324.944,4.65E+00,
1391.38,325.344,4.65E+00,
1392.5,325.744,4.65E+00,
1393.61,326.144,4.65E+00,
1394.69,326.544,4.65E+00,
1395.762,326.944,4.65E+00,
1396.818,327.344,4.65E+00,
1397.865,327.744,4.65E+00,
1398.89,328.144,4.65E+00,
1399.91,328.544,4.65E+00,
1400.92,328.944,4.65E+00,
1401.91,329.344,4.65E+00,
1402.89,329.744,4.65E+00,
1403.86,330.144,4.65E+00,
1404.82,330.544,4.65E+00,
1405.76,330.944,4.65E+00,
1406.7,331.344,4.65E+00,
1407.63,331.744,4.65E+00,
1408.557,332.144,4.65E+00,
1409.48,332.544,4.65E+00,
1410.38,332.944,4.65E+00,
1411.28,333.344,4.65E+00,
1412.17,333.744,4.65E+00,
1413.05,334.144,4.65E+00,
1413.915,334.544,4.65E+00,
1414.78,334.944,4.65E+00,
1415.63,335.344,4.65E+00,
1416.48,335.744,4.65E+00,
1417.32,336.144,4.65E+00,
1418.16,336.544,4.65E+00,
1418.994,336.944,4.65E+00,
1419.82,337.344,4.65E+00,
1420.64,337.744,4.65E+00,
1421.45,338.144,4.65E+00,
1422.25,338.544,4.65E+00,
1423.04,338.944,4.65E+00,
1423.83,339.344,4.65E+00,
1424.62,339.744,4.65E+00,
1425.39,340.144,4.65E+00,
1426.17,340.544,4.65E+00,
1426.93,340.944,4.65E+00,
1427.69,341.344,4.65E+00,
1428.46,341.744,4.65E+00,
1429.21,342.144,4.65E+00,
1429.97,342.544,4.65E+00,
1430.718,342.944,4.65E+00,
1431.46,343.344,4.64E+00,
1432.19,343.744,4.65E+00,
1432.929,344.144,4.64E+00,
1433.664,344.544,4.64E+00,
1434.39,344.944,4.64E+00,
1435.12,345.344,4.64E+00,
1435.84,345.744,4.64E+00,
1436.55,346.144,4.64E+00,
1437.26,346.544,4.65E+00,
1437.96,346.944,4.64E+00,
1438.66,347.344,4.64E+00,
1439.36,347.744,4.65E+00,
1440.05,348.144,4.64E+00,
1440.735,348.544,4.64E+00,
1441.43,348.944,4.64E+00,
1442.11,349.344,4.64E+00,
1442.79,349.744,4.64E+00,
1443.47,350.144,4.64E+00,
1444.14,350.544,4.64E+00,
1444.81,350.944,4.64E+00,
1445.48,351.344,4.64E+00,
1446.14,351.744,4.64E+00,
1446.798,352.144,4.64E+00,
1447.45,352.544,4.64E+00,
1448.11,352.944,4.65E+00,
1448.76,353.344,4.64E+00,
1449.41,353.744,4.64E+00,
1450.05,354.144,4.64E+00,
1450.695,354.544,4.65E+00,
1451.33,354.944,4.64E+00,
1451.97,355.344,4.64E+00,
1452.6,355.744,4.64E+00,
1453.23,356.144,4.64E+00,
1453.857,356.544,4.64E+00,
1454.48,356.944,4.64E+00,
1455.1,357.344,4.64E+00,
1455.73,357.744,4.64E+00,
1456.35,358.144,4.64E+00,
1456.96,358.544,4.64E+00,
1457.58,358.944,4.64E+00,
1458.18,359.344,4.64E+00,
1458.79,359.744,4.64E+00,
1459.392,360.144,4.64E+00,
1459.995,360.544,4.64E+00,
1460.6,360.944,4.64E+00,
1461.19,361.344,4.64E+00,
1461.79,361.744,4.64E+00,
1462.38,362.144,4.64E+00,
1462.97,362.544,4.64E+00,
1463.56,362.944,4.64E+00,
1464.15,363.344,4.64E+00,
1464.73,363.744,4.64E+00,
1465.31,364.144,4.64E+00,
1465.89,364.544,4.64E+00,
1466.466,364.944,4.64E+00,
1467.04,365.344,4.64E+00,
1467.61,365.744,4.64E+00,
1468.18,366.144,4.64E+00,
1468.74,366.544,4.64E+00,
1469.31,366.944,4.64E+00,
1469.87,367.344,4.64E+00,
1470.44,367.744,4.64E+00,
1471,368.144,4.64E+00,
1471.56,368.544,4.64E+00,
1472.112,368.944,4.64E+00,
1472.67,369.344,4.64E+00,
1473.22,369.744,4.64E+00,
1473.771,370.144,4.64E+00,
1474.32,370.544,4.64E+00,
1474.87,370.944,4.64E+00,
1475.42,371.344,4.64E+00,
1475.97,371.744,4.64E+00,
1476.51,372.144,4.64E+00,
1477.05,372.544,4.64E+00,
1477.59,372.944,4.64E+00,
1478.133,373.344,4.64E+00,
1478.67,373.744,4.64E+00,
1479.21,374.144,4.64E+00,
1479.741,374.544,4.64E+00,
1480.27,374.944,4.64E+00,
1480.8,375.344,4.64E+00,
1481.33,375.744,4.64E+00,
1481.86,376.144,4.64E+00,
1482.39,376.544,4.64E+00,
1482.91,376.944,4.64E+00,
1483.437,377.344,4.64E+00,
1483.96,377.744,4.64E+00,
1484.48,378.144,4.64E+00,
1485.01,378.544,4.64E+00,
1485.525,378.944,4.64E+00,
1486.04,379.344,4.64E+00,
1486.56,379.744,4.64E+00,
1487.07,380.144,4.64E+00,
1487.59,380.544,4.64E+00,
1488.11,380.944,4.64E+00,
1488.62,381.344,4.64E+00,
1489.13,381.744,4.64E+00,
1489.65,382.144,4.64E+00,
1490.16,382.544,4.64E+00,
1490.66,382.944,4.64E+00,
1491.17,383.344,4.64E+00,
1491.68,383.744,4.64E+00,
1492.18,384.144,4.64E+00,
1492.68,384.544,4.64E+00,
1493.19,384.944,4.64E+00,
1493.69,385.344,4.64E+00,
1494.19,385.744,4.64E+00,
1494.69,386.144,4.64E+00,
1495.19,386.544,4.64E+00,
1495.69,386.944,4.64E+00,
1496.19,387.344,4.64E+00,
1496.69,387.744,4.64E+00,
1497.18,388.144,4.64E+00,
1497.67,388.544,4.64E+00,
1498.161,388.944,4.64E+00,
1498.65,389.344,4.64E+00,
1499.14,389.744,4.64E+00,
1499.63,390.144,4.64E+00,
1500.12,390.544,4.64E+00,
1500.61,390.944,4.64E+00,
1501.09,391.344,4.64E+00,
1501.58,391.744,4.64E+00,
1502.06,392.144,4.64E+00,
1502.55,392.544,4.64E+00,
1503.04,392.944,4.64E+00,
1503.52,393.344,4.64E+00,
1504,393.744,4.64E+00,
1504.48,394.144,4.64E+00,
1504.96,394.544,4.64E+00,
1505.433,394.944,4.64E+00,
1505.91,395.344,4.64E+00,
1506.39,395.744,4.64E+00,
1506.86,396.144,4.64E+00,
1507.34,396.544,4.63E+00,
1507.81,396.944,4.64E+00,
1508.283,397.344,4.64E+00,
1508.754,397.744,4.63E+00,
1509.22,398.144,4.64E+00,
1509.69,398.544,4.64E+00,
1510.164,398.944,4.63E+00,
1510.63,399.344,4.63E+00,
1511.1,399.744,4.63E+00,
1511.57,400.144,4.63E+00,
1512.03,400.544,4.63E+00,
1512.49,400.944,4.63E+00,
1512.954,401.344,4.63E+00,
1513.42,401.744,4.63E+00,
1513.87,402.144,4.63E+00,
1514.33,402.544,4.63E+00,
1514.79,402.944,4.63E+00,
1515.25,403.344,4.63E+00,
1515.71,403.744,4.63E+00,
1516.16,404.144,4.63E+00,
1516.62,404.544,4.63E+00,
1517.073,404.944,4.63E+00,
1517.53,405.344,4.63E+00,
1517.982,405.744,4.63E+00,
1518.43,406.144,4.63E+00,
1518.89,406.544,4.63E+00,
1519.34,406.944,4.63E+00,
1519.78,407.344,4.63E+00,
1520.23,407.744,4.63E+00,
1520.68,408.144,4.63E+00,
1521.13,408.544,4.63E+00,
1521.58,408.944,4.63E+00,
1522.02,409.344,4.63E+00,
1522.47,409.744,4.63E+00,
1522.91,410.144,4.63E+00,
1523.358,410.544,4.63E+00,
1523.8,410.944,4.63E+00,
1524.24,411.344,4.63E+00,
1524.68,411.744,4.63E+00,
1525.12,412.144,4.63E+00,
1525.56,412.544,4.63E+00,
1526.001,412.944,4.63E+00,
1526.44,413.344,4.63E+00,
1526.88,413.744,4.63E+00,
1527.32,414.144,4.63E+00,
1527.75,414.544,4.63E+00,
1528.19,414.944,4.63E+00,
1528.62,415.344,4.63E+00,
1529.05,415.744,4.63E+00,
1529.49,416.144,4.62E+00,
1529.919,416.544,4.62E+00,
1530.351,416.944,4.62E+00,
1530.78,417.344,4.62E+00,
1531.21,417.744,4.62E+00,
1531.64,418.144,4.62E+00,
1532.07,418.544,4.62E+00,
1532.5,418.944,4.62E+00,
1532.93,419.344,4.62E+00,
1533.354,419.744,4.62E+00,
1533.78,420.144,4.62E+00,
1534.21,420.544,4.62E+00,
1534.63,420.944,4.62E+00,
1535.06,421.344,4.62E+00,
1535.481,421.744,4.62E+00,
1535.9,422.144,4.62E+00,
1536.33,422.544,4.62E+00,
1536.75,422.944,4.62E+00,
1537.17,423.344,4.62E+00,
1537.59,423.744,4.62E+00,
1538.01,424.144,4.62E+00,
1538.433,424.544,4.62E+00,
1538.85,424.944,4.62E+00,
1539.27,425.344,4.62E+00,
1539.69,425.744,4.62E+00,
1540.11,426.144,4.62E+00,
1540.53,426.544,4.62E+00,
1540.94,426.944,4.62E+00,
1541.36,427.344,4.62E+00,
1541.77,427.744,4.62E+00,
1542.19,428.144,4.62E+00,
1542.6,428.544,4.62E+00,
1543.02,428.944,4.62E+00,
1543.428,429.344,4.62E+00,
1543.84,429.744,4.62E+00,
1544.26,430.144,4.62E+00,
1544.67,430.544,4.62E+00,
1545.084,430.944,4.62E+00,
1545.5,431.344,4.62E+00,
1545.91,431.744,4.62E+00,
1546.32,432.144,4.61E+00,
1546.73,432.544,4.61E+00,
1547.14,432.944,4.61E+00,
1547.55,433.344,4.61E+00,
1547.955,433.744,4.61E+00,
1548.363,434.144,4.61E+00,
1548.77,434.544,4.61E+00,
1549.176,434.944,4.61E+00,
1549.58,435.344,4.61E+00,
1549.99,435.744,4.61E+00,
1550.4,436.144,4.61E+00,
1550.8,436.544,4.61E+00,
1551.21,436.944,4.61E+00,
1551.61,437.344,4.61E+00,
1552.02,437.744,4.61E+00,
1552.42,438.144,4.61E+00,
1552.82,438.544,4.61E+00,
1553.23,438.944,4.61E+00,
1553.631,439.344,4.61E+00,
1554.03,439.744,4.61E+00,
1554.43,440.144,4.61E+00,
1554.83,440.544,4.61E+00,
1555.23,440.944,4.61E+00,
1555.632,441.344,4.61E+00,
1556.03,441.744,4.61E+00,
1556.43,442.144,4.60E+00,
1556.83,442.544,4.60E+00,
1557.23,442.944,4.60E+00,
1557.63,443.344,4.60E+00,
1558.03,443.744,4.60E+00,
1558.428,444.144,4.60E+00,
1558.83,444.544,4.60E+00,
1559.22,444.944,4.60E+00,
1559.62,445.344,4.60E+00,
1560.02,445.744,4.60E+00,
1560.41,446.144,4.60E+00,
1560.81,446.544,4.60E+00,
1561.2,446.944,4.60E+00,
1561.593,447.344,4.60E+00,
1561.99,447.744,4.60E+00,
1562.379,448.144,4.60E+00,
1562.772,448.544,4.59E+00,
1563.16,448.944,4.59E+00,
1563.56,449.344,4.59E+00,
1563.951,449.744,4.59E+00,
1564.34,450.144,4.59E+00,
1564.73,450.544,4.59E+00,
1565.12,450.944,4.59E+00,
1565.51,451.344,4.59E+00,
1565.9,451.744,4.59E+00,
1566.29,452.144,4.59E+00,
1566.68,452.544,4.59E+00,
1567.06,452.944,4.59E+00,
1567.45,453.344,4.59E+00,
1567.84,453.744,4.59E+00,
1568.229,454.144,4.58E+00,
1568.61,454.544,4.58E+00,
1569,454.944,4.58151,
1569.387,455.344,4.58056,
1569.77,455.744,4.57935,
1570.16,456.144,4.57802,
1570.54,456.544,4.57764,
1570.926,456.944,4.57584,
1571.31,457.344,4.57401,
1571.69,457.744,4.57404,
1572.08,458.144,4.57207,
1572.46,458.544,4.56992,
1572.84,458.944,4.57021,
1573.22,459.344,4.56795,
1573.6,459.744,4.5671,
1573.98,460.144,4.56495,
1574.36,460.544,4.56279,
1574.74,460.944,4.56308,
1575.123,461.344,4.56094,
1575.504,461.744,4.55899,
1575.88,462.144,4.55814,
1576.26,462.544,4.55716,
1576.64,462.944,4.55623,
1577.02,463.344,4.55473,
1577.397,463.744,4.55306,
1577.77,464.144,4.55167,
1578.15,464.544,4.55057,
1578.53,464.944,4.54891,
1578.9,465.344,4.54797,
1579.28,465.744,4.54694,
1579.653,466.144,4.54613,
1580.03,466.544,4.54406,
1580.4,466.944,4.5419,
1580.78,467.344,4.54097,
1581.15,467.744,4.54001,
1581.53,468.144,4.53792,
1581.9,468.544,4.53599,
1582.27,468.944,4.53507,
1582.65,469.344,4.53336,
1583.019,469.744,4.53346,
1583.391,470.144,4.53212,
1583.76,470.544,4.53074,
1584.13,470.944,4.52974,
1584.5,471.344,4.52799,
1584.88,471.744,4.5271,
1585.248,472.144,4.52502,
1585.62,472.544,4.52474,
1585.99,472.944,4.52286,
1586.36,473.344,4.52201,
1586.73,473.744,4.51989,
1587.1,474.144,4.519,
1587.47,474.544,4.51726,
1587.834,474.944,4.51629,
1588.2,475.344,4.51502,
1588.57,475.744,4.51417,
1588.94,476.144,4.51316,
1589.31,476.544,4.51196,
1589.67,476.944,4.51107,
1590.04,477.344,4.50947,
1590.41,477.744,4.50789,
1590.78,478.144,4.50664,
1591.15,478.544,4.50563,
1591.51,478.944,4.50398,
1591.88,479.344,4.50298,
1592.244,479.744,4.50321,
1592.61,480.144,4.50093,
1592.97,480.544,4.50005,
1593.34,480.944,4.49791,
1593.7,481.344,4.49598,
1594.07,481.744,4.4951,
1594.43,482.144,4.4936,
1594.8,482.544,4.49209,
1595.16,482.944,4.49077,
1595.52,483.344,4.48985,
1595.88,483.744,4.48802,
1596.25,484.144,4.48715,
1596.61,484.544,4.48502,
1596.97,484.944,4.48278,
1597.34,485.344,4.48303,
1597.7,485.744,4.482,
1598.06,486.144,4.48031,
1598.42,486.544,4.47876,
1598.78,486.944,4.47728,
1599.14,487.344,4.47597,
1599.5,487.744,4.47299,
1599.86,488.144,4.47212,
1600.22,488.544,4.4707,
1600.584,488.944,4.46931,
1600.944,489.344,4.46675,
1601.3,489.744,4.46598,
1601.66,490.144,4.46411,
1602.02,490.544,4.46254,
1602.381,490.944,4.46161,
1602.74,491.344,4.4587,
1603.098,491.744,4.45702,
1603.46,492.144,4.45505,
1603.81,492.544,4.45163,
1604.17,492.944,4.45085,
1604.53,493.344,4.44784,
1604.88,493.744,4.44508,
1605.24,494.144,4.44371,
1605.6,494.544,4.44031,
1605.96,494.944,4.43955,
1606.31,495.344,4.43694,
1606.671,495.744,4.43521,
1607.03,496.144,4.43232,
1607.38,496.544,4.43108,
1607.74,496.944,4.42876,
1608.09,497.344,4.42601,
1608.45,497.744,4.42625,
1608.804,498.144,4.42493,
1609.16,498.544,4.42351,
1609.51,498.944,4.42197,
1609.866,499.344,4.42112,
1610.22,499.744,4.41895,
1610.57,500.144,4.41806,
1610.93,500.544,4.41599,
1611.28,500.944,4.41609,
1611.63,501.344,4.41467,
1611.984,501.744,4.41407,
1612.338,502.144,4.41409,
1612.69,502.544,4.41204,
1613.04,502.944,4.41042,
1613.4,503.344,4.41111,
1613.748,503.744,4.41058,
1614.1,504.144,4.409,
1614.45,504.544,4.40808,
1614.8,504.944,4.4076,
1615.152,505.344,4.40575,
1615.503,505.744,4.40599,
1615.854,506.144,4.40505,
1616.2,506.544,4.40398,
1616.55,506.944,4.40275,
1616.9,507.344,4.405,
1617.25,507.744,4.40287,
1617.6,508.144,4.40293,
1617.95,508.544,4.40257,
1618.299,508.944,4.401,
1618.65,509.344,4.40023,
1618.998,509.744,4.40022,
1619.35,510.144,4.39781,
1619.7,510.544,4.398,
1620.04,510.944,4.39795,
1620.393,511.344,4.39708,
1620.741,511.744,4.396,
1621.09,512.144,4.39695,
1621.44,512.544,4.39695,
1621.78,512.944,4.3966,
1622.13,513.344,4.39601,
1622.48,513.744,4.39606,
1622.82,514.144,4.39492,
1623.17,514.544,4.39499,
1623.52,514.944,4.39499,
1623.861,515.344,4.39517,
1624.21,515.744,4.39271,
1624.55,516.144,4.39414,
1624.9,516.544,4.393,
1625.24,516.944,4.39302,
1625.59,517.344,4.3931,
1625.94,517.744,4.39193,
1626.28,518.144,4.39194,
1626.63,518.544,4.39242,
1626.97,518.944,4.39202,
1627.32,519.344,4.39195,
1627.66,519.744,4.39095,
1628,520.144,4.39084,
1628.35,520.544,4.39169,
1628.69,520.944,4.38998,
1629.03,521.344,4.38998,
1629.38,521.744,4.38992,
1629.72,522.144,4.39104,
1630.06,522.544,4.39116,
1630.4,522.944,4.3888,
1630.74,523.344,4.38903,
1631.09,523.744,4.38807,
1631.43,524.144,4.38932,
1631.77,524.544,4.38962,
1632.11,524.944,4.38901,
1632.46,525.344,4.38895,
1632.8,525.744,4.38804,
1633.14,526.144,4.38703,
1633.48,526.544,4.38705,
1633.82,526.944,4.38592,
1634.16,527.344,4.38606,
1634.5,527.744,4.38499,
1634.84,528.144,4.38499,
1635.18,528.544,4.38464,
1635.53,528.944,4.38422,
1635.87,529.344,4.38605,
1636.206,529.744,4.38549,
1636.55,530.144,4.38507,
1636.89,530.544,4.38406,
1637.23,530.944,4.38461,
1637.56,531.344,4.38438,
1637.9,531.744,4.383,
1638.24,532.144,4.3831,
1638.58,532.544,4.38192,
1638.918,532.944,4.38208,
1639.26,533.344,4.38224,
1639.59,533.744,4.38213,
1639.93,534.144,4.38091,
1640.27,534.544,4.38115,
1640.61,534.944,4.37871,
1640.946,535.344,4.38008,
1641.28,535.744,4.38,
1641.62,536.144,4.38021,
1641.96,536.544,4.37777,
1642.29,536.944,4.37802,
1642.63,537.344,4.37756,
1642.97,537.744,4.37732,
1643.307,538.144,4.37601,
1643.64,538.544,4.37603,
1643.98,538.944,4.37656,
1644.32,539.344,4.37491,
1644.65,539.744,4.37425,
1644.99,540.144,4.37421,
1645.32,540.544,4.37185,
1645.66,540.944,4.37285,
1645.99,541.344,4.37292,
1646.33,541.744,4.37276,
1646.664,542.144,4.37102,
1647,542.544,4.37014,
1647.33,542.944,4.3681,
1647.67,543.344,4.37016,
1648.002,543.744,4.36886,
1648.34,544.144,4.3687,
1648.67,544.544,4.36695,
1649.01,544.944,4.3672,
1649.34,545.344,4.36487,
1649.67,545.744,4.36409,
1650.009,546.144,4.36348,
1650.34,546.544,4.36301,
1650.68,546.944,4.36306,
1651.01,547.344,4.36203,
1651.35,547.744,4.361,
1651.68,548.144,4.35915,
1652.01,548.544,4.35843,
1652.34,548.944,4.35764,
1652.68,549.344,4.35602,
1653.01,549.744,4.35511,
1653.34,550.144,4.35286,
1653.675,550.544,4.3521,
1654.008,550.944,4.35197,
1654.34,551.344,4.35165,
1654.67,551.744,4.35002,
1655.01,552.144,4.3491,
1655.34,552.544,4.34687,
1655.67,552.944,4.34612,
1656,553.344,4.34547,
1656.33,553.744,4.34476,
1656.66,554.144,4.34302,
1656.99,554.544,4.34209,
1657.326,554.944,4.33992,
1657.656,555.344,4.33837,
1657.99,555.744,4.33772,
1658.32,556.144,4.33595,
1658.649,556.544,4.33631,
1658.98,556.944,4.33272,
1659.31,557.344,4.3319,
1659.64,557.744,4.32986,
1659.969,558.144,4.32968,
1660.3,558.544,4.32801,
1660.63,558.944,4.32488,
1660.96,559.344,4.32372,
1661.29,559.744,4.32108,
1661.62,560.144,4.31988,
1661.95,560.544,4.31938,
1662.282,560.944,4.31604,
1662.612,561.344,4.31397,
1662.94,561.744,4.31079,
1663.27,562.144,4.30815,
1663.6,562.544,4.30658,
1663.93,562.944,4.30371,
1664.26,563.344,4.30288,
1664.59,563.744,4.29995,
1664.919,564.144,4.29793,
1665.25,564.544,4.29554,
1665.58,564.944,4.29204,
1665.91,565.344,4.29095,
1666.23,565.744,4.28728,
1666.56,566.144,4.28464,
1666.893,566.544,4.28205,
1667.22,566.944,4.27945,
1667.55,567.344,4.28091,
1667.88,567.744,4.27713,
1668.207,568.144,4.27493,
1668.54,568.544,4.27285,
1668.864,568.944,4.27115,
1669.191,569.344,4.26907,
1669.518,569.744,4.26686,
1669.845,570.144,4.26422,
1670.172,570.544,4.26273,
1670.5,570.944,4.26,
1670.83,571.344,4.25892,
1671.15,571.744,4.25574,
1671.483,572.144,4.25309,
1671.81,572.544,4.252,
1672.14,572.944,4.24987,
1672.47,573.344,4.24735,
1672.8,573.744,4.24423,
1673.12,574.144,4.24494,
1673.45,574.544,4.24135,
1673.778,574.944,4.23924,
1674.105,575.344,4.23697,
1674.432,575.744,4.23355,
1674.76,576.144,4.23145,
1675.086,576.544,4.22909,
1675.41,576.944,4.2262,
1675.74,577.344,4.22571,
1676.07,577.744,4.22318,
1676.39,578.144,4.21994,
1676.72,578.544,4.21783,
1677.05,578.944,4.21527,
1677.375,579.344,4.21214,
1677.7,579.744,4.20999,
1678.03,580.144,4.20661,
1678.35,580.544,4.20459,
1678.68,580.944,4.2011,
1679.007,581.344,4.20069,
1679.33,581.744,4.19779,
1679.66,582.144,4.19546,
1679.99,582.544,4.19248,
1680.312,582.944,4.19091,
1680.64,583.344,4.1875,
1680.96,583.744,4.18545,
1681.29,584.144,4.18211,
1681.62,584.544,4.18003,
1681.94,584.944,4.17753,
1682.27,585.344,4.17436,
1682.59,585.744,4.17164,
1682.919,586.144,4.16779,
1683.24,586.544,4.16645,
1683.57,586.944,4.16393,
1683.9,587.344,4.16206,
1684.22,587.744,4.1588,
1684.55,588.144,4.15549,
1684.872,588.544,4.15317,
1685.2,588.944,4.15,
1685.52,589.344,4.14679,
1685.85,589.744,4.14358,
1686.17,590.144,4.14062,
1686.49,590.544,4.13807,
1686.819,590.944,4.13492,
1687.14,591.344,4.13047,
1687.47,591.744,4.12734,
1687.79,592.144,4.12449,
1688.12,592.544,4.12169,
1688.45,592.944,4.11834,
1688.772,593.344,4.11413,
1689.1,593.744,4.11102,
1689.42,594.144,4.10852,
1689.75,594.544,4.10439,
1690.07,594.944,4.10136,
1690.4,595.344,4.0969,
1690.722,595.744,4.09369,
1691.05,596.144,4.08958,
1691.37,596.544,4.08522,
1691.697,596.944,4.08105,
1692.02,597.344,4.07688,
1692.348,597.744,4.07287,
1692.67,598.144,4.07049,
1693,598.544,4.06604,
1693.32,598.944,4.06162,
1693.65,599.344,4.05684,
1693.97,599.744,4.05266,
1694.3,600.144,4.04806,
1694.622,600.544,4.0438,
1694.946,600.944,4.03909,
1695.27,601.344,4.03347,
1695.6,601.744,4.02961,
1695.92,602.144,4.02464,
1696.24,602.544,4.01985,
1696.569,602.944,4.01464,
1696.89,603.344,4.00909,
1697.22,603.744,4.00494,
1697.54,604.144,3.99928,
1697.868,604.544,3.9936,
1698.19,604.944,3.98809,
1698.516,605.344,3.98375,
1698.84,605.744,3.97787,
1699.17,606.144,3.97158,
1699.49,606.544,3.96618,
1699.81,606.944,3.96027,
1700.14,607.344,3.95417,
1700.463,607.744,3.94868,
1700.79,608.144,3.94106,
1701.11,608.544,3.93588,
1701.438,608.944,3.93064,
1701.762,609.344,3.92372,
1702.09,609.744,3.91824,
1702.41,610.144,3.91007,
1702.74,610.544,3.9033,
1703.06,610.944,3.89587,
1703.388,611.344,3.88883,
1703.712,611.744,3.88174,
1704.04,612.144,3.87328,
1704.36,612.544,3.86912,
1704.69,612.944,3.8604,
1705.01,613.344,3.85215,
1705.335,613.744,3.84507,
1705.659,614.144,3.836,
1705.983,614.544,3.8284,
1706.31,614.944,3.81976,
1706.63,615.344,3.81187,
1706.96,615.744,3.80515,
1707.28,616.144,3.79586,
1707.61,616.544,3.78838,
1707.93,616.944,3.7787,
1708.26,617.344,3.77453,
1708.58,617.744,3.76655,
1708.91,618.144,3.75674,
1709.23,618.544,3.74768,
1709.556,618.944,3.7394,
1709.88,619.344,3.72958,
1710.207,619.744,3.7204,
1710.53,620.144,3.70977,
1710.86,620.544,3.70091,
1711.18,620.944,3.69123,
1711.506,621.344,3.6798,
1711.83,621.744,3.67095,
1712.16,622.144,3.65906,
1712.48,622.544,3.64952,
1712.81,622.944,3.6388,
1713.13,623.344,3.62697,
1713.46,623.744,3.61746,
1713.78,624.144,3.60578,
1714.11,624.544,3.59569,
1714.43,624.944,3.58477,
1714.76,625.344,3.57177,
1715.08,625.744,3.56152,
1715.41,626.144,3.54854,
1715.74,626.544,3.53698,
1716.06,626.944,3.52483,
1716.39,627.344,3.51275,
1716.711,627.744,3.50253,
1717.04,628.144,3.48839,
1717.36,628.544,3.477,
1717.689,628.944,3.46254,
1718.02,629.344,3.45029,
1718.34,629.744,3.43644,
1718.67,630.144,3.43511,
1718.99,630.544,3.24623,
1719.32,630.944,3.24254,
1719.64,631.344,3.23063,
1719.97,631.744,3.21477,
1720.3,632.144,3.19914,
1720.62,632.544,3.18248,
1720.95,632.944,3.16967,
1721.28,633.344,3.15207,
1721.601,633.744,3.13825,
1721.928,634.144,3.12064,
1722.25,634.544,3.10552,
1722.58,634.944,3.08686,
1722.909,635.344,3.07463,
1723.23,635.744,3.05779,
1723.56,636.144,3.03928,
1723.89,636.544,3.02362,
1724.217,636.944,3.00486,
1724.544,637.344,2.98965,
1724.871,637.744,2.96935,
1725.198,638.144,2.95781,
1725.52,638.544,2.93752,
1725.85,638.944,2.92169,
1726.18,639.344,2.90658,
1726.51,639.744,2.88369,
1726.833,640.144,2.86645,
1727.16,640.544,2.84703,
1727.49,640.944,2.82666,
1727.82,641.344,2.80969,
1728.14,641.744,2.7934,
1728.47,642.144,2.77454,
1728.8,642.544,2.75238,
1729.13,642.944,2.7315,
1729.46,643.344,2.71376,
1729.785,643.744,2.69285,
1730.11,644.144,2.67328,
1730.442,644.544,2.65324,
1730.77,644.944,2.63275,
1731.1,645.344,2.61411,
1731.43,645.744,2.59067,
1731.756,646.144,2.5869,
1732.08,646.544,2.56717,
1732.41,646.944,2.54269,
1732.74,647.344,2.52355,
1733.07,647.744,2.50018,
1733.4,648.144,2.48035,
1733.73,648.544,2.46314,
1734.06,648.944,2.43967,
1734.387,649.344,2.42021,
1734.717,649.744,2.39675,
1735.05,650.144,2.37639,
1735.38,650.544,2.35077,
1735.71,650.944,2.33267,
1736.04,651.344,2.31331,
1736.37,651.744,2.29023,
1736.7,652.144,2.26825,
1737.03,652.544,2.24275,
1737.36,652.944,2.22418,
1737.69,653.344,2.20694,
1738.02,653.744,2.18335,
1738.35,654.144,2.16064,
1738.68,654.544,2.13564,
1739.007,654.944,2.11553,
1739.337,655.344,2.09683,
1739.67,655.744,2.07321,
1740,656.144,2.05304,
1740.33,656.544,2.03288,
1740.66,656.944,2.00863,
1740.99,657.344,1.98617,
1741.32,657.744,1.96642,
1741.66,658.144,1.94542,
1741.99,658.544,1.92572,
1742.32,658.944,1.9005,
1742.65,659.344,1.87867,
1742.985,659.744,1.86012,
1743.32,660.144,1.83782,
1743.648,660.544,1.81682,
1743.98,660.944,1.79727,
1744.31,661.344,1.77514,
1744.64,661.744,1.75372,
1744.98,662.144,1.73072,
1745.31,662.544,1.7125,
1745.64,662.944,1.69303,
1745.98,663.344,1.66722,
1746.31,663.744,1.64749,
1746.642,664.144,1.62447,
1746.98,664.544,1.6035,
1747.31,664.944,1.5833,
1747.644,665.344,1.55929,
1747.977,665.744,1.54016,
1748.31,666.144,1.51826,
1748.64,666.544,1.49553,
1748.98,666.944,1.47105,
1749.315,667.344,1.44802,
1749.65,667.744,1.42764,
1749.984,668.144,1.40506,
1750.32,668.544,1.38187,
1750.65,668.944,1.36047,
1750.99,669.344,1.33691,
1751.32,669.744,1.31332,
1751.66,670.144,1.28936,
1751.99,670.544,1.27306,
1752.33,670.944,1.24753,
1752.66,671.344,1.22579,
1753,671.744,1.2036,
1753.34,672.144,1.17855,
1753.67,672.544,1.15934,
1754.01,672.944,1.14041,
1754.34,673.344,1.1123,
1754.68,673.744,1.08636,
1755.02,674.144,1.06056,
1755.35,674.544,1.05266,
1755.69,674.944,1.03819,
1756.03,675.344,1.01502,
1756.36,675.744,0.99409,
1756.698,676.144,0.97114,
1757.03,676.544,0.95083,
1757.37,676.944,0.93144,
1757.71,677.344,0.91161,
1758.05,677.744,0.89262,
1758.38,678.144,0.87237,
1758.72,678.544,0.85371,
1759.06,678.944,0.83072,
1759.39,679.344,0.80957,
1759.73,679.744,0.79254,
1760.07,680.144,0.77659,
1760.406,680.544,0.75671,
1760.74,680.944,0.73596,
1761.08,681.344,0.71904,
1761.42,681.744,0.70026,
1761.76,682.144,0.68452,
1762.1,682.544,0.66719,
1762.44,682.944,0.64999,
1762.77,683.344,0.63193,
1763.11,683.744,0.61336,
1763.454,684.144,0.60179,
1763.79,684.544,0.58393,
1764.13,684.944,0.56422,
1764.474,685.344,0.549,
1764.81,685.744,0.53244,
1765.155,686.144,0.51907,
1765.5,686.544,0.5032,
1765.836,686.944,0.48465,
1766.18,687.344,0.47052,
1766.517,687.744,0.45508,
1766.86,688.144,0.44054,
1767.2,688.544,0.42591,
1767.54,688.944,0.41236,
1767.88,689.344,0.40063,
1768.221,689.744,0.38945,
1768.56,690.144,0.37657,
1768.9,690.544,0.36187,
1769.244,690.944,0.3509,
1769.58,691.344,0.33927,
1769.925,691.744,0.32862,
1770.27,692.144,0.32198,
1770.61,692.544,0.31188,
1770.948,692.944,0.30041,
1771.29,693.344,0.29127,
1771.63,693.744,0.27969,
1771.97,694.144,0.27139,
1772.31,694.544,0.2624,
1772.655,694.944,0.25426,
1772.997,695.344,0.24775,
1773.34,695.744,0.23821,
1773.681,696.144,0.23055,
1774.02,696.544,0.22186,
1774.36,696.944,0.21611,
1774.71,697.344,0.20887,
1775.05,697.744,0.20061,
1775.391,698.144,0.19578,
1775.73,698.544,0.18826,
1776.08,698.944,0.1806,
1776.42,699.344,0.17426,
1776.76,699.744,0.16777,
1777.11,700.144,0.16092,
1777.449,700.544,0.15942,
1777.79,700.944,0.15423,
1778.14,701.344,0.14742,
1778.48,701.744,0.14223,
1778.823,702.144,0.13721,
1779.17,702.544,0.13459,
1779.51,702.944,0.13102,
1779.85,703.344,0.13269,
1780.2,703.744,0.12933,
1780.539,704.144,0.12656,
1780.88,704.544,0.12211,
1781.23,704.944,0.12052,
1781.57,705.344,0.11797,
1781.92,705.744,0.11593,
1782.261,706.144,0.1145,
1782.606,706.544,0.1116,
1782.95,706.944,0.10935,
1783.3,707.344,0.10904,
1783.64,707.744,0.10626,
1783.99,708.144,0.10465,
1784.33,708.544,0.10177,
1784.679,708.944,0.10004,
1785.03,709.344,0.09882,
1785.37,709.744,0.09677,
1785.72,710.144,0.09392,
1786.06,710.544,0.09333,
1786.41,710.944,0.091,
1786.76,711.344,0.08831,
1787.1,711.744,0.08598,
1787.45,712.144,0.08421,
1787.79,712.544,0.08089,
1788.14,712.944,0.07893,
1788.49,713.344,0.07618,
1788.83,713.744,0.07435,
1789.18,714.144,0.07217,
1789.53,714.544,0.07108,
1789.87,714.944,0.06923,
1790.22,715.344,0.06674,
1790.568,715.744,0.06626,
1790.91,716.144,0.06284,
1791.261,716.544,0.0611,
1791.61,716.944,0.05993,
1791.96,717.344,0.05907,
1792.302,717.744,0.05901,
1792.65,718.144,0.05663,
1793,718.544,0.05555,
1793.34,718.944,0.05464,
1793.69,719.344,0.05304,
1794.039,719.744,0.05097,
1794.387,720.144,0.04998,
1794.74,720.544,0.04897,
1795.08,720.944,0.04795,
1795.43,721.344,0.04876,
1795.78,721.744,0.04766,
1796.13,722.144,0.04691,
1796.48,722.544,0.04595,
1796.83,722.944,0.04463,
1797.177,723.344,0.04367,
1797.53,723.744,0.04292,
1797.88,724.144,0.04197,
1798.224,724.544,0.04199,
1798.57,724.944,0.04196,
1798.923,725.344,0.04182,
1799.27,725.744,0.04001,
1799.622,726.144,0.03888,
1799.97,726.544,0.03865,
1800.324,726.944,0.03802,
1800.68,727.344,0.03797,
1801.03,727.744,0.03667,
1801.38,728.144,0.03606,
1801.73,728.544,0.03599,
1802.085,728.944,0.03604,
1802.44,729.344,0.03498,
1802.79,729.744,0.03562,
1803.14,730.144,0.0338,
1803.49,730.544,0.034,
1803.85,730.944,0.03403,
1804.2,731.344,0.03444,
1804.55,731.744,0.03451,
1804.91,732.144,0.03301,
1805.26,732.544,0.03307,
1805.62,732.944,0.0318,
1805.97,733.344,0.03308,
1806.33,733.744,0.03291,
1806.681,734.144,0.03199,
1807.04,734.544,0.03213,
1807.39,734.944,0.03135,
1807.75,735.344,0.03194,
1808.11,735.744,0.03196,
1808.46,736.144,0.02976,
1808.82,736.544,0.03215,
1809.18,736.944,0.03201,
1809.54,737.344,0.032,
1809.9,737.744,0.032,
1810.25,738.144,0.03201,
1810.61,738.544,0.03221,
1810.97,738.944,0.02978,
1811.33,739.344,0.02994,
1811.69,739.744,0.0319,
1812.05,740.144,0.0312,
1812.41,740.544,0.03102,
1812.76,740.944,0.03101,
1813.125,741.344,0.03103,
1813.49,741.744,0.03005,
1813.85,742.144,0.03002,
1814.21,742.544,0.03006,
1814.57,742.944,0.03063,
1814.93,743.344,0.03184,
1815.29,743.744,0.03099,
1815.65,744.144,0.031,
1816.02,744.544,0.03103,
1816.38,744.944,0.03135,
1816.74,745.344,0.03181,
1817.1,745.744,0.031,
1817.47,746.144,0.031,
1817.83,746.544,0.03101,
1818.19,746.944,0.03109,
1818.55,747.344,0.0299,
1818.918,747.744,0.03,
1819.28,748.144,0.03,
1819.64,748.544,0.03,
1820.01,748.944,0.03003,
1820.37,749.344,0.03035,
1820.74,749.744,0.03098,
1821.1,750.144,0.031,
1821.47,750.544,0.03103,
1821.83,750.944,0.03189,
1822.2,751.344,0.02977,
1822.56,751.744,0.02998,
1822.92,752.144,0.03,
1823.29,752.544,0.03,
1823.658,752.944,0.02982,
1824.02,753.344,0.03216,
1824.39,753.744,0.03202,
1824.759,754.144,0.032,
1825.13,754.544,0.032,
1825.49,754.944,0.03199,
1825.86,755.344,0.03031,
1826.229,755.744,0.03004,
1826.6,756.144,0.03,
1826.97,756.544,0.03,
1827.333,756.944,0.03002,
1827.7,757.344,0.03001,
1828.071,757.744,0.03206,
1828.44,758.144,0.03201,
1828.81,758.544,0.032,
1829.18,758.944,0.03201,
1829.55,759.344,0.03211,
1829.92,759.744,0.02989,
1830.291,760.144,0.03,
1830.66,760.544,0.03,
1831.03,760.944,0.02998,
1831.4,761.344,0.02977,
1831.77,761.744,0.03187,
1832.145,762.144,0.03104,
1832.52,762.544,0.031,
1832.886,762.944,0.031,
1833.258,763.344,0.031,
1833.63,763.744,0.031,
1834,764.144,0.031,
1834.37,764.544,0.031,
1834.74,764.944,0.03098,
1835.12,765.344,0.03091,
1835.49,765.744,0.03097,
1835.865,766.144,0.03099,
1836.24,766.544,0.031,
1836.61,766.944,0.03101,
1836.984,767.344,0.03111,
1837.36,767.744,0.03015,
1837.73,768.144,0.03098,
1838.1,768.544,0.031,
1838.48,768.944,0.031,
1838.85,769.344,0.03109,
1839.23,769.744,0.02982,
1839.6,770.144,0.03109,
1839.98,770.544,0.03096,
1840.35,770.944,0.03052,
1840.731,771.344,0.02905,
1841.11,771.744,0.02902,
1841.484,772.144,0.03001,
1841.86,772.544,0.03,
1842.24,772.944,0.03,
1842.62,773.344,0.03003,
1843,773.744,0.03048,
1843.38,774.144,0.03097,
1843.75,774.544,0.03096,
1844.13,774.944,0.03068,
1844.51,775.344,0.03108,
1844.89,775.744,0.03099,
1845.27,776.144,0.031,
1845.648,776.544,0.031,
1846.03,776.944,0.031,
1846.41,777.344,0.031,
1846.788,777.744,0.031,
1847.17,778.144,0.031,
1847.55,778.544,0.03101,
1847.93,778.944,0.03108,
1848.31,779.344,0.02901,
1848.69,779.744,0.03102,
1849.07,780.144,0.03101,
1849.45,780.544,0.031,
1849.84,780.944,0.03097,
1850.22,781.344,0.0304,
1850.6,781.744,0.03003,
1850.98,782.144,0.03001,
1851.37,782.544,0.03004,
1851.75,782.944,0.03046,
1852.131,783.344,0.03089,
1852.51,783.744,0.031,
1852.9,784.144,0.031,
1853.28,784.544,0.031,
1853.67,784.944,0.031,
1854.051,785.344,0.031,
1854.44,785.744,0.031,
1854.82,786.144,0.03101,
1855.21,786.544,0.0311,
1855.59,786.944,0.0298,
1855.98,787.344,0.0311,
1856.364,787.744,0.03101,
1856.75,788.144,0.031,
1857.14,788.544,0.03103,
1857.52,788.944,0.02992,
1857.91,789.344,0.03103,
1858.296,789.744,0.031,
1858.683,790.144,0.031,
1859.07,790.544,0.03098,
1859.46,790.944,0.03017,
1859.847,791.344,0.03002,
1860.24,791.744,0.03,
1860.62,792.144,0.02998,
1861.01,792.544,0.02979,
1861.401,792.944,0.0322,
1861.79,793.344,0.03202,
1862.18,793.744,0.032,
1862.57,794.144,0.03201,
1862.96,794.544,0.03213,
1863.35,794.944,0.02981,
1863.74,795.344,0.02999,
1864.131,795.744,0.03,
1864.52,796.144,0.03001,
1864.91,796.544,0.03009,
1865.3,796.944,0.03199,
1865.7,797.344,0.032,
1866.09,797.744,0.032,
1866.48,798.144,0.032,
1866.87,798.544,0.03201,
1867.27,798.944,0.03215,
1867.66,799.344,0.02992,
1868.05,799.744,0.02998,
1868.448,800.144,0.0298,
1868.84,800.544,0.0321,
1869.24,800.944,0.03129,
1869.63,801.344,0.03102,
1870.026,801.744,0.031,
1870.42,802.144,0.03101,
1870.82,802.544,0.03111,
1871.21,802.944,0.02991,
1871.61,803.344,0.02999,
1872,803.744,0.03,
1872.4,804.144,0.03005,
1872.79,804.544,0.03091,
1873.188,804.944,0.03203,
1873.58,805.344,0.03089,
1873.98,805.744,0.03099,
1874.38,806.144,0.03092,
1874.77,806.544,0.03211,
1875.17,806.944,0.03208,
1875.57,807.344,0.03089,
1875.97,807.744,0.03099,
1876.365,808.144,0.03099,
1876.76,808.544,0.03093,
1877.16,808.944,0.03207,
1877.56,809.344,0.03146,
1877.96,809.744,0.03006,
1878.36,810.144,0.03001,
1878.76,810.544,0.03002,
1879.16,810.944,0.03027,
1879.56,811.344,0.03097,
1879.959,811.744,0.031,
1880.358,812.144,0.031,
1880.76,812.544,0.03102,
1881.159,812.944,0.03127,
1881.56,813.344,0.0321,
1881.96,813.744,0.02979,
1882.36,814.144,0.02998,
1882.77,814.544,0.02993,
1883.16,814.944,0.03111,
1883.56,815.344,0.03101,
1883.91,815.644,0.031,