File: PMMA/Calibration_Data/Sandia/Sandia_TGA_Ar_50K_2.csv
Time,Temperature,Mass,
[s],[K],[mg],
1200.1,306.94,4.84E+00,
1270.36,307.34,4.84E+00,
1285.39,307.74,4.84E+00,
1294.99,308.14,4.84E+00,
1302.21,308.54,4.84E+00,
1308.35,308.94,4.84E+00,
1313.48,309.34,4.84E+00,
1318.002,309.74,4.84E+00,
1322.04,310.14,4.84E+00,
1325.73,310.54,4.84E+00,
1329.19,310.94,4.84E+00,
1332.29,311.34,4.84E+00,
1335.201,311.74,4.84E+00,
1338.02,312.14,4.84E+00,
1340.64,312.54,4.84E+00,
1343.12,312.94,4.84E+00,
1345.51,313.34,4.84E+00,
1347.76,313.74,4.84E+00,
1349.96,314.14,4.84E+00,
1352.04,314.54,4.84E+00,
1354.04,314.94,4.84E+00,
1355.99,315.34,4.84E+00,
1357.86,315.74,4.84E+00,
1359.681,316.14,4.84E+00,
1361.45,316.54,4.84E+00,
1363.185,316.94,4.84E+00,
1364.86,317.34,4.84E+00,
1366.49,317.74,4.84E+00,
1368.06,318.14,4.84E+00,
1369.59,318.54,4.83E+00,
1371.081,318.94,4.83E+00,
1372.54,319.34,4.84E+00,
1373.96,319.74,4.84E+00,
1375.37,320.14,4.84E+00,
1376.754,320.54,4.84E+00,
1378.11,320.94,4.83E+00,
1379.44,321.34,4.84E+00,
1380.73,321.74,4.84E+00,
1382.01,322.14,4.83E+00,
1383.27,322.54,4.84E+00,
1384.5,322.94,4.84E+00,
1385.71,323.34,4.84E+00,
1386.89,323.74,4.84E+00,
1388.07,324.14,4.84E+00,
1389.246,324.54,4.84E+00,
1390.39,324.94,4.84E+00,
1391.51,325.34,4.84E+00,
1392.62,325.74,4.84E+00,
1393.716,326.14,4.84E+00,
1394.79,326.54,4.84E+00,
1395.855,326.94,4.84E+00,
1396.91,327.34,4.84E+00,
1397.95,327.74,4.84E+00,
1398.97,328.14,4.84E+00,
1399.98,328.54,4.84E+00,
1400.99,328.94,4.84E+00,
1401.981,329.34,4.84E+00,
1402.947,329.74,4.84E+00,
1403.92,330.14,4.84E+00,
1404.88,330.54,4.84E+00,
1405.83,330.94,4.84E+00,
1406.77,331.34,4.84E+00,
1407.702,331.74,4.84E+00,
1408.623,332.14,4.84E+00,
1409.53,332.54,4.84E+00,
1410.432,332.94,4.84E+00,
1411.326,333.34,4.84E+00,
1412.21,333.74,4.84E+00,
1413.087,334.14,4.83E+00,
1413.95,334.54,4.84E+00,
1414.81,334.94,4.83E+00,
1415.661,335.34,4.84E+00,
1416.51,335.74,4.84E+00,
1417.35,336.14,4.84E+00,
1418.175,336.54,4.83E+00,
1419,336.94,4.83E+00,
1419.82,337.34,4.84E+00,
1420.63,337.74,4.83E+00,
1421.436,338.14,4.83E+00,
1422.24,338.54,4.84E+00,
1423.03,338.94,4.84E+00,
1423.82,339.34,4.84E+00,
1424.6,339.74,4.84E+00,
1425.37,340.14,4.84E+00,
1426.14,340.54,4.84E+00,
1426.902,340.94,4.84E+00,
1427.66,341.34,4.84E+00,
1428.42,341.74,4.84E+00,
1429.17,342.14,4.83E+00,
1429.92,342.54,4.83E+00,
1430.66,342.94,4.84E+00,
1431.39,343.34,4.83E+00,
1432.13,343.74,4.83E+00,
1432.85,344.14,4.83E+00,
1433.58,344.54,4.84E+00,
1434.3,344.94,4.83E+00,
1435.02,345.34,4.83E+00,
1435.731,345.74,4.84E+00,
1436.44,346.14,4.83E+00,
1437.14,346.54,4.83E+00,
1437.84,346.94,4.83E+00,
1438.539,347.34,4.83E+00,
1439.232,347.74,4.83E+00,
1439.92,348.14,4.83E+00,
1440.61,348.54,4.83E+00,
1441.29,348.94,4.84E+00,
1441.97,349.34,4.83E+00,
1442.64,349.74,4.83E+00,
1443.31,350.14,4.83E+00,
1443.98,350.54,4.83E+00,
1444.65,350.94,4.83E+00,
1445.31,351.34,4.84E+00,
1445.967,351.74,4.83E+00,
1446.62,352.14,4.83E+00,
1447.28,352.54,4.83E+00,
1447.929,352.94,4.83E+00,
1448.57,353.34,4.83E+00,
1449.21,353.74,4.84E+00,
1449.85,354.14,4.83E+00,
1450.488,354.54,4.84E+00,
1451.12,354.94,4.84E+00,
1451.76,355.34,4.84E+00,
1452.38,355.74,4.83E+00,
1453.01,356.14,4.84E+00,
1453.63,356.54,4.83E+00,
1454.25,356.94,4.83E+00,
1454.87,357.34,4.83E+00,
1455.49,357.74,4.84E+00,
1456.1,358.14,4.83E+00,
1456.71,358.54,4.83E+00,
1457.31,358.94,4.83E+00,
1457.92,359.34,4.84E+00,
1458.52,359.74,4.83E+00,
1459.12,360.14,4.83E+00,
1459.72,360.54,4.83E+00,
1460.31,360.94,4.83E+00,
1460.9,361.34,4.83E+00,
1461.49,361.74,4.83E+00,
1462.08,362.14,4.83E+00,
1462.66,362.54,4.83E+00,
1463.24,362.94,4.83E+00,
1463.83,363.34,4.83E+00,
1464.4,363.74,4.83E+00,
1464.98,364.14,4.83E+00,
1465.56,364.54,4.83E+00,
1466.13,364.94,4.83E+00,
1466.7,365.34,4.83E+00,
1467.27,365.74,4.83E+00,
1467.84,366.14,4.83E+00,
1468.401,366.54,4.83E+00,
1468.96,366.94,4.83E+00,
1469.52,367.34,4.83E+00,
1470.08,367.74,4.83E+00,
1470.636,368.14,4.83E+00,
1471.19,368.54,4.83E+00,
1471.74,368.94,4.83E+00,
1472.292,369.34,4.83E+00,
1472.84,369.74,4.83E+00,
1473.39,370.14,4.83E+00,
1473.94,370.54,4.83E+00,
1474.48,370.94,4.83E+00,
1475.02,371.34,4.83E+00,
1475.562,371.74,4.83E+00,
1476.1,372.14,4.83E+00,
1476.633,372.54,4.83E+00,
1477.17,372.94,4.83E+00,
1477.701,373.34,4.83E+00,
1478.23,373.74,4.83E+00,
1478.76,374.14,4.83E+00,
1479.29,374.54,4.83E+00,
1479.82,374.94,4.83E+00,
1480.35,375.34,4.83E+00,
1480.88,375.74,4.83E+00,
1481.4,376.14,4.83E+00,
1481.93,376.54,4.83E+00,
1482.447,376.94,4.83E+00,
1482.97,377.34,4.83E+00,
1483.49,377.74,4.83E+00,
1484,378.14,4.83E+00,
1484.52,378.54,4.83E+00,
1485.03,378.94,4.83E+00,
1485.55,379.34,4.83E+00,
1486.06,379.74,4.83E+00,
1486.572,380.14,4.83E+00,
1487.082,380.54,4.83E+00,
1487.592,380.94,4.83E+00,
1488.099,381.34,4.83E+00,
1488.61,381.74,4.83E+00,
1489.11,382.14,4.83E+00,
1489.62,382.54,4.83E+00,
1490.121,382.94,4.83E+00,
1490.625,383.34,4.83E+00,
1491.13,383.74,4.83E+00,
1491.63,384.14,4.83E+00,
1492.13,384.54,4.83E+00,
1492.63,384.94,4.83E+00,
1493.13,385.34,4.83E+00,
1493.62,385.74,4.83E+00,
1494.12,386.14,4.83E+00,
1494.61,386.54,4.83E+00,
1495.11,386.94,4.83E+00,
1495.6,387.34,4.83E+00,
1496.091,387.74,4.83E+00,
1496.58,388.14,4.83E+00,
1497.069,388.54,4.83E+00,
1497.56,388.94,4.83E+00,
1498.04,389.34,4.83E+00,
1498.53,389.74,4.83E+00,
1499.01,390.14,4.83E+00,
1499.5,390.54,4.83E+00,
1499.99,390.94,4.83E+00,
1500.47,391.34,4.83E+00,
1500.95,391.74,4.83E+00,
1501.44,392.14,4.83E+00,
1501.92,392.54,4.83E+00,
1502.4,392.94,4.83E+00,
1502.87,393.34,4.83E+00,
1503.351,393.74,4.82E+00,
1503.83,394.14,4.83E+00,
1504.3,394.54,4.83E+00,
1504.77,394.94,4.83E+00,
1505.25,395.34,4.83E+00,
1505.72,395.74,4.82E+00,
1506.19,396.14,4.82E+00,
1506.66,396.54,4.83E+00,
1507.13,396.94,4.83E+00,
1507.596,397.34,4.82E+00,
1508.06,397.74,4.82E+00,
1508.53,398.14,4.82E+00,
1509,398.54,4.82E+00,
1509.459,398.94,4.82E+00,
1509.92,399.34,4.82E+00,
1510.39,399.74,4.82E+00,
1510.848,400.14,4.82E+00,
1511.31,400.54,4.82E+00,
1511.77,400.94,4.82E+00,
1512.23,401.34,4.82E+00,
1512.69,401.74,4.82E+00,
1513.15,402.14,4.82E+00,
1513.6,402.54,4.82E+00,
1514.06,402.94,4.82E+00,
1514.51,403.34,4.82E+00,
1514.97,403.74,4.82E+00,
1515.42,404.14,4.82E+00,
1515.88,404.54,4.82E+00,
1516.329,404.94,4.82E+00,
1516.779,405.34,4.82E+00,
1517.23,405.74,4.82E+00,
1517.68,406.14,4.82E+00,
1518.123,406.54,4.82E+00,
1518.57,406.94,4.82E+00,
1519.02,407.34,4.82E+00,
1519.461,407.74,4.82E+00,
1519.91,408.14,4.82E+00,
1520.35,408.54,4.82E+00,
1520.79,408.94,4.82E+00,
1521.23,409.34,4.82E+00,
1521.67,409.74,4.82E+00,
1522.11,410.14,4.82E+00,
1522.554,410.54,4.82E+00,
1522.995,410.94,4.82E+00,
1523.43,411.34,4.82E+00,
1523.87,411.74,4.82E+00,
1524.31,412.14,4.82E+00,
1524.74,412.54,4.82E+00,
1525.18,412.94,4.82E+00,
1525.61,413.34,4.82E+00,
1526.04,413.74,4.82E+00,
1526.48,414.14,4.82E+00,
1526.91,414.54,4.82E+00,
1527.34,414.94,4.82E+00,
1527.77,415.34,4.82E+00,
1528.2,415.74,4.82E+00,
1528.64,416.14,4.82E+00,
1529.07,416.54,4.82E+00,
1529.496,416.94,4.81E+00,
1529.92,417.34,4.81E+00,
1530.351,417.74,4.81E+00,
1530.78,418.14,4.81E+00,
1531.2,418.54,4.81E+00,
1531.63,418.94,4.81E+00,
1532.05,419.34,4.81E+00,
1532.48,419.74,4.81E+00,
1532.9,420.14,4.81E+00,
1533.32,420.54,4.81E+00,
1533.75,420.94,4.81E+00,
1534.17,421.34,4.81E+00,
1534.59,421.74,4.81E+00,
1535.01,422.14,4.81E+00,
1535.43,422.54,4.81E+00,
1535.85,422.94,4.81E+00,
1536.27,423.34,4.81E+00,
1536.69,423.74,4.81E+00,
1537.11,424.14,4.81E+00,
1537.53,424.54,4.81E+00,
1537.94,424.94,4.81E+00,
1538.36,425.34,4.81E+00,
1538.775,425.74,4.80E+00,
1539.19,426.14,4.80E+00,
1539.606,426.54,4.80E+00,
1540.02,426.94,4.80E+00,
1540.43,427.34,4.80E+00,
1540.85,427.74,4.80E+00,
1541.26,428.14,4.80E+00,
1541.67,428.54,4.80E+00,
1542.09,428.94,4.80E+00,
1542.5,429.34,4.80E+00,
1542.91,429.74,4.80E+00,
1543.317,430.14,4.80E+00,
1543.73,430.54,4.80E+00,
1544.14,430.94,4.80E+00,
1544.55,431.34,4.80E+00,
1544.96,431.74,4.80E+00,
1545.36,432.14,4.80E+00,
1545.77,432.54,4.79E+00,
1546.179,432.94,4.79E+00,
1546.59,433.34,4.79E+00,
1546.992,433.74,4.79E+00,
1547.397,434.14,4.79E+00,
1547.8,434.54,4.79E+00,
1548.21,434.94,4.79E+00,
1548.61,435.34,4.79E+00,
1549.02,435.74,4.79E+00,
1549.42,436.14,4.79E+00,
1549.82,436.54,4.79E+00,
1550.23,436.94,4.79E+00,
1550.63,437.34,4.79E+00,
1551.033,437.74,4.79E+00,
1551.44,438.14,4.78E+00,
1551.84,438.54,4.78E+00,
1552.239,438.94,4.78E+00,
1552.64,439.34,4.78E+00,
1553.04,439.74,4.78E+00,
1553.442,440.14,4.78E+00,
1553.841,440.54,4.78E+00,
1554.24,440.94,4.78E+00,
1554.64,441.34,4.78E+00,
1555.04,441.74,4.78E+00,
1555.44,442.14,4.77E+00,
1555.833,442.54,4.78E+00,
1556.229,442.94,4.77E+00,
1556.625,443.34,4.77E+00,
1557.02,443.74,4.77E+00,
1557.42,444.14,4.77E+00,
1557.81,444.54,4.77E+00,
1558.21,444.94,4.77E+00,
1558.6,445.34,4.76E+00,
1559,445.74,4.76E+00,
1559.39,446.14,4.76E+00,
1559.79,446.54,4.76E+00,
1560.18,446.94,4.76E+00,
1560.57,447.34,4.76E+00,
1560.963,447.74,4.76E+00,
1561.35,448.14,4.76E+00,
1561.75,448.54,4.75E+00,
1562.14,448.94,4.75E+00,
1562.53,449.34,4.75E+00,
1562.92,449.74,4.75E+00,
1563.31,450.14,4.75E+00,
1563.7,450.54,4.74E+00,
1564.089,450.94,4.74E+00,
1564.48,451.34,4.74E+00,
1564.87,451.74,4.74E+00,
1565.25,452.14,4.74E+00,
1565.64,452.54,4.74E+00,
1566.03,452.94,4.73496,
1566.42,453.34,4.73413,
1566.8,453.74,4.73201,
1567.19,454.14,4.72997,
1567.57,454.54,4.72786,
1567.96,454.94,4.72702,
1568.34,455.34,4.72491,
1568.73,455.74,4.72292,
1569.11,456.14,4.72096,
1569.49,456.54,4.72002,
1569.87,456.94,4.71817,
1570.257,457.34,4.71634,
1570.64,457.74,4.71456,
1571.02,458.14,4.71337,
1571.4,458.54,4.71195,
1571.78,458.94,4.71024,
1572.16,459.34,4.70874,
1572.543,459.74,4.70764,
1572.92,460.14,4.70585,
1573.3,460.54,4.70398,
1573.68,460.94,4.70202,
1574.06,461.34,4.70113,
1574.442,461.74,4.69909,
1574.82,462.14,4.69704,
1575.198,462.54,4.69492,
1575.57,462.94,4.6944,
1575.951,463.34,4.69289,
1576.33,463.74,4.69091,
1576.7,464.14,4.68898,
1577.08,464.54,4.68806,
1577.454,464.94,4.68635,
1577.83,465.34,4.68466,
1578.2,465.74,4.68347,
1578.579,466.14,4.68225,
1578.95,466.54,4.68073,
1579.33,466.94,4.68087,
1579.7,467.34,4.679,
1580.073,467.74,4.67702,
1580.45,468.14,4.67615,
1580.82,468.54,4.67405,
1581.19,468.94,4.67189,
1581.57,469.34,4.67103,
1581.94,469.74,4.66887,
1582.31,470.14,4.66799,
1582.68,470.54,4.66606,
1583.05,470.94,4.66622,
1583.42,471.34,4.66473,
1583.79,471.74,4.66354,
1584.16,472.14,4.66241,
1584.534,472.54,4.66076,
1584.903,472.94,4.65899,
1585.27,473.34,4.65806,
1585.64,473.74,4.6579,
1586.01,474.14,4.656,
1586.38,474.54,4.65385,
1586.75,474.94,4.65286,
1587.12,475.34,4.65289,
1587.483,475.74,4.65099,
1587.85,476.14,4.64837,
1588.22,476.54,4.64816,
1588.59,476.94,4.64712,
1588.95,477.34,4.64515,
1589.32,477.74,4.64389,
1589.69,478.14,4.64303,
1590.06,478.54,4.64137,
1590.42,478.94,4.64036,
1590.79,479.34,4.63913,
1591.152,479.74,4.63759,
1591.52,480.14,4.63597,
1591.88,480.54,4.63494,
1592.25,480.94,4.63627,
1592.61,481.34,4.63404,
1592.97,481.74,4.63193,
1593.34,482.14,4.62987,
1593.702,482.54,4.629,
1594.06,482.94,4.62727,
1594.43,483.34,4.62631,
1594.79,483.74,4.62509,
1595.16,484.14,4.62378,
1595.52,484.54,4.62287,
1595.88,484.94,4.62106,
1596.24,485.34,4.61898,
1596.606,485.74,4.61799,
1596.97,486.14,4.6169,
1597.33,486.54,4.61705,
1597.689,486.94,4.61507,
1598.05,487.34,4.61419,
1598.41,487.74,4.61286,
1598.77,488.14,4.61167,
1599.13,488.54,4.61074,
1599.495,488.94,4.60901,
1599.86,489.34,4.60805,
1600.22,489.74,4.60713,
1600.575,490.14,4.60494,
1600.93,490.54,4.60287,
1601.29,490.94,4.60202,
1601.65,491.34,4.60123,
1602.01,491.74,4.601,
1602.37,492.14,4.60065,
1602.726,492.54,4.59982,
1603.08,492.94,4.59798,
1603.44,493.34,4.5982,
1603.8,493.74,4.59591,
1604.16,494.14,4.59495,
1604.51,494.54,4.59397,
1604.87,494.94,4.59309,
1605.23,495.34,4.59167,
1605.58,495.74,4.59055,
1605.939,496.14,4.59094,
1606.29,496.54,4.59001,
1606.65,496.94,4.58914,
1607,497.34,4.58691,
1607.36,497.74,4.58595,
1607.71,498.14,4.58498,
1608.07,498.54,4.58402,
1608.426,498.94,4.58379,
1608.78,499.34,4.58302,
1609.137,499.74,4.58271,
1609.49,500.14,4.58097,
1609.84,500.54,4.58021,
1610.2,500.94,4.57951,
1610.55,501.34,4.57882,
1610.9,501.74,4.57802,
1611.26,502.14,4.57922,
1611.61,502.54,4.57679,
1611.96,502.94,4.57669,
1612.32,503.34,4.57603,
1612.671,503.74,4.57512,
1613.02,504.14,4.57513,
1613.37,504.54,4.57389,
1613.73,504.94,4.57399,
1614.08,505.34,4.57401,
1614.43,505.74,4.57424,
1614.78,506.14,4.57215,
1615.13,506.54,4.57285,
1615.482,506.94,4.57197,
1615.833,507.34,4.5713,
1616.184,507.74,4.57097,
1616.53,508.14,4.57066,
1616.88,508.54,4.57086,
1617.234,508.94,4.57095,
1617.58,509.34,4.57095,
1617.93,509.74,4.57074,
1618.28,510.14,4.56897,
1618.63,510.54,4.5691,
1618.98,510.94,4.5679,
1619.33,511.34,4.56802,
1619.67,511.74,4.5671,
1620.02,512.14,4.56703,
1620.37,512.54,4.56707,
1620.72,512.94,4.56592,
1621.07,513.34,4.56772,
1621.41,513.74,4.56737,
1621.76,514.14,4.56699,
1622.11,514.54,4.56695,
1622.46,514.94,4.56481,
1622.802,515.34,4.56609,
1623.15,515.74,4.56601,
1623.49,516.14,4.566,
1623.84,516.54,4.56594,
1624.19,516.94,4.56507,
1624.533,517.34,4.56512,
1624.878,517.74,4.56499,
1625.223,518.14,4.56499,
1625.57,518.54,4.56496,
1625.91,518.94,4.5649,
1626.258,519.34,4.56282,
1626.6,519.74,4.56406,
1626.94,520.14,4.56382,
1627.29,520.54,4.56299,
1627.632,520.94,4.56296,
1627.98,521.34,4.56256,
1628.32,521.74,4.56306,
1628.66,522.14,4.56307,
1629.01,522.54,4.56189,
1629.35,522.94,4.5619,
1629.7,523.34,4.56301,
1630.04,523.74,4.56086,
1630.39,524.14,4.56098,
1630.73,524.54,4.561,
1631.07,524.94,4.56103,
1631.41,525.34,4.56211,
1631.76,525.74,4.56246,
1632.1,526.14,4.56099,
1632.44,526.54,4.5611,
1632.78,526.94,4.5599,
1633.119,527.34,4.56003,
1633.46,527.74,4.55833,
1633.8,528.14,4.55805,
1634.14,528.54,4.558,
1634.484,528.94,4.558,
1634.83,529.34,4.55795,
1635.17,529.74,4.55742,
1635.51,530.14,4.55607,
1635.849,530.54,4.5581,
1636.19,530.94,4.55796,
1636.53,531.34,4.55776,
1636.87,531.74,4.55597,
1637.211,532.14,4.55676,
1637.55,532.54,4.55478,
1637.89,532.94,4.55501,
1638.23,533.34,4.55502,
1638.57,533.74,4.55517,
1638.91,534.14,4.55298,
1639.25,534.54,4.55419,
1639.59,534.94,4.55288,
1639.923,535.34,4.55291,
1640.26,535.74,4.55197,
1640.6,536.14,4.55209,
1640.94,536.54,4.55091,
1641.28,536.94,4.551,
1641.62,537.34,4.55094,
1641.954,537.74,4.55053,
1642.29,538.14,4.54899,
1642.63,538.54,4.549,
1642.97,538.94,4.54914,
1643.3,539.34,4.54698,
1643.64,539.74,4.54716,
1643.98,540.14,4.54625,
1644.31,540.54,4.54694,
1644.65,540.94,4.5459,
1644.987,541.34,4.54515,
1645.32,541.74,4.54403,
1645.66,542.14,4.54397,
1646,542.54,4.54349,
1646.33,542.94,4.54288,
1646.67,543.34,4.54204,
1647.01,543.74,4.54089,
1647.34,544.14,4.54098,
1647.68,544.54,4.54107,
1648.01,544.94,4.54012,
1648.347,545.34,4.53781,
1648.683,545.74,4.53798,
1649.02,546.14,4.53675,
1649.35,546.54,4.53578,
1649.69,546.94,4.53505,
1650.024,547.34,4.53301,
1650.36,547.74,4.53254,
1650.69,548.14,4.53204,
1651.03,548.54,4.53133,
1651.36,548.94,4.53045,
1651.7,549.34,4.529,
1652.03,549.74,4.52815,
1652.37,550.14,4.52593,
1652.7,550.54,4.52399,
1653.04,550.94,4.52327,
1653.369,551.34,4.52236,
1653.7,551.74,4.52099,
1654.038,552.14,4.52159,
1654.37,552.54,4.51988,
1654.71,552.94,4.51797,
1655.04,553.34,4.51655,
1655.37,553.74,4.51573,
1655.71,554.14,4.51502,
1656.04,554.54,4.51348,
1656.37,554.94,4.51236,
1656.71,555.34,4.51099,
1657.04,555.74,4.50932,
1657.37,556.14,4.50806,
1657.7,556.54,4.50597,
1658.04,556.94,4.50625,
1658.37,557.34,4.50382,
1658.7,557.74,4.50296,
1659.04,558.14,4.50107,
1659.37,558.54,4.49846,
1659.702,558.94,4.49697,
1660.03,559.34,4.49459,
1660.37,559.74,4.49367,
1660.7,560.14,4.49101,
1661.031,560.54,4.48864,
1661.36,560.94,4.48628,
1661.694,561.34,4.486,
1662.03,561.74,4.48339,
1662.36,562.14,4.48098,
1662.69,562.54,4.47813,
1663.02,562.94,4.4758,
1663.35,563.34,4.4736,
1663.68,563.74,4.47012,
1664.02,564.14,4.46832,
1664.346,564.54,4.46774,
1664.68,564.94,4.46408,
1665.01,565.34,4.46244,
1665.34,565.74,4.45962,
1665.67,566.14,4.45814,
1666,566.54,4.45423,
1666.33,566.94,4.45268,
1666.66,567.34,4.45023,
1666.99,567.74,4.44745,
1667.32,568.14,4.44596,
1667.65,568.54,4.44538,
1667.98,568.94,4.44257,
1668.31,569.34,4.43989,
1668.64,569.74,4.43814,
1668.97,570.14,4.43701,
1669.305,570.54,4.43396,
1669.63,570.94,4.43218,
1669.96,571.34,4.4287,
1670.29,571.74,4.42806,
1670.62,572.14,4.42543,
1670.95,572.54,4.42268,
1671.28,572.94,4.42015,
1671.612,573.34,4.41843,
1671.94,573.74,4.41661,
1672.27,574.14,4.41418,
1672.602,574.54,4.41151,
1672.93,574.94,4.40888,
1673.26,575.34,4.40834,
1673.59,575.74,4.40555,
1673.919,576.14,4.40287,
1674.25,576.54,4.40048,
1674.58,576.94,4.39837,
1674.9,577.34,4.39497,
1675.23,577.74,4.39268,
1675.56,578.14,4.39107,
1675.89,578.54,4.38906,
1676.22,578.94,4.38692,
1676.55,579.34,4.38372,
1676.88,579.74,4.38125,
1677.21,580.14,4.37848,
1677.534,580.54,4.37565,
1677.861,580.94,4.3723,
1678.19,581.34,4.37013,
1678.52,581.74,4.36786,
1678.84,582.14,4.36607,
1679.17,582.54,4.36356,
1679.499,582.94,4.36101,
1679.83,583.34,4.35751,
1680.16,583.74,4.35665,
1680.48,584.14,4.35316,
1680.81,584.54,4.34996,
1681.14,584.94,4.34704,
1681.467,585.34,4.34346,
1681.8,585.74,4.34415,
1682.12,586.14,4.33882,
1682.45,586.54,4.33764,
1682.78,586.94,4.33427,
1683.105,587.34,4.33096,
1683.43,587.74,4.32875,
1683.76,588.14,4.32543,
1684.09,588.54,4.32209,
1684.41,588.94,4.3194,
1684.74,589.34,4.31574,
1685.07,589.74,4.31429,
1685.4,590.14,4.30993,
1685.72,590.54,4.30677,
1686.051,590.94,4.3034,
1686.38,591.34,4.30132,
1686.71,591.74,4.29794,
1687.03,592.14,4.29396,
1687.36,592.54,4.29044,
1687.69,592.94,4.28709,
1688.01,593.34,4.28492,
1688.34,593.74,4.28143,
1688.67,594.14,4.27739,
1688.991,594.54,4.273,
1689.32,594.94,4.26989,
1689.642,595.34,4.26762,
1689.969,595.74,4.26407,
1690.3,596.14,4.25906,
1690.62,596.54,4.25587,
1690.95,596.94,4.25119,
1691.28,597.34,4.24726,
1691.6,597.74,4.24232,
1691.93,598.14,4.2386,
1692.26,598.54,4.23427,
1692.58,598.94,4.23196,
1692.91,599.34,4.22689,
1693.24,599.74,4.22302,
1693.56,600.14,4.21808,
1693.89,600.54,4.21313,
1694.22,600.94,4.20935,
1694.54,601.34,4.20438,
1694.87,601.74,4.19947,
1695.19,602.14,4.19458,
1695.52,602.54,4.18969,
1695.846,602.94,4.18482,
1696.17,603.34,4.18001,
1696.497,603.74,4.17405,
1696.82,604.14,4.16854,
1697.15,604.54,4.16327,
1697.475,604.94,4.15843,
1697.802,605.34,4.15244,
1698.129,605.74,4.14635,
1698.46,606.14,4.14142,
1698.78,606.54,4.13641,
1699.11,606.94,4.12984,
1699.434,607.34,4.12415,
1699.76,607.74,4.11687,
1700.09,608.14,4.11225,
1700.41,608.54,4.10587,
1700.739,608.94,4.0983,
1701.07,609.34,4.09265,
1701.39,609.74,4.08727,
1701.72,610.14,4.08064,
1702.05,610.54,4.07343,
1702.37,610.94,4.06547,
1702.7,611.34,4.05904,
1703.02,611.74,4.05081,
1703.35,612.14,4.04411,
1703.68,612.54,4.0357,
1704.003,612.94,4.02778,
1704.33,613.34,4.02246,
1704.65,613.74,4.01354,
1704.98,614.14,4.00982,
1705.31,614.54,3.997,
1705.63,614.94,3.99001,
1705.96,615.34,3.98625,
1706.29,615.74,3.97643,
1706.61,616.14,3.96711,
1706.937,616.54,3.95888,
1707.26,616.94,3.95076,
1707.59,617.34,3.9429,
1707.915,617.74,3.93248,
1708.24,618.14,3.92358,
1708.57,618.54,3.91437,
1708.89,618.94,3.90424,
1709.22,619.34,3.89626,
1709.55,619.74,3.88547,
1709.87,620.14,3.87671,
1710.2,620.54,3.86657,
1710.53,620.94,3.85509,
1710.85,621.34,3.84718,
1711.18,621.74,3.8354,
1711.51,622.14,3.82473,
1711.836,622.54,3.81469,
1712.16,622.94,3.80306,
1712.49,623.34,3.79337,
1712.82,623.74,3.78087,
1713.14,624.14,3.76971,
1713.47,624.54,3.75837,
1713.8,624.94,3.74639,
1714.12,625.34,3.7371,
1714.45,625.74,3.72288,
1714.78,626.14,3.71181,
1715.11,626.54,3.69877,
1715.433,626.94,3.68557,
1715.76,627.34,3.67339,
1716.09,627.74,3.65946,
1716.42,628.14,3.6479,
1716.74,628.54,3.63298,
1717.07,628.94,3.63325,
1717.398,629.34,3.4384,
1717.725,629.74,3.43931,
1718.052,630.14,3.42724,
1718.38,630.54,3.41131,
1718.71,630.94,3.3967,
1719.04,631.34,3.37932,
1719.363,631.74,3.36105,
1719.69,632.14,3.34641,
1720.02,632.54,3.33064,
1720.347,632.94,3.31629,
1720.68,633.34,3.29775,
1721,633.74,3.28111,
1721.33,634.14,3.26954,
1721.66,634.54,3.24924,
1721.99,634.94,3.23521,
1722.31,635.34,3.21514,
1722.64,635.74,3.19657,
1722.97,636.14,3.18172,
1723.3,636.54,3.15911,
1723.63,636.94,3.14675,
1723.96,637.34,3.12738,
1724.28,637.74,3.11076,
1724.61,638.14,3.089,
1724.943,638.54,3.06932,
1725.27,638.94,3.05851,
1725.6,639.34,3.03631,
1725.93,639.74,3.01531,
1726.26,640.14,2.99749,
1726.59,640.54,2.97853,
1726.92,640.94,2.95982,
1727.25,641.34,2.93946,
1727.58,641.74,2.91653,
1727.91,642.14,2.89963,
1728.24,642.54,2.88254,
1728.57,642.94,2.86106,
1728.9,643.34,2.83712,
1729.23,643.74,2.82009,
1729.56,644.14,2.81492,
1729.89,644.54,2.78967,
1730.22,644.94,2.76933,
1730.55,645.34,2.74821,
1730.88,645.74,2.7251,
1731.21,646.14,2.70423,
1731.54,646.54,2.68227,
1731.873,646.94,2.66541,
1732.203,647.34,2.64274,
1732.53,647.74,2.61838,
1732.86,648.14,2.59591,
1733.196,648.54,2.57661,
1733.53,648.94,2.55198,
1733.86,649.34,2.52955,
1734.19,649.74,2.50711,
1734.522,650.14,2.48445,
1734.85,650.54,2.45995,
1735.19,650.94,2.43885,
1735.518,651.34,2.41369,
1735.85,651.74,2.39183,
1736.18,652.14,2.37094,
1736.514,652.54,2.34183,
1736.85,652.94,2.31915,
1737.18,653.34,2.297,
1737.51,653.74,2.27409,
1737.85,654.14,2.248,
1738.18,654.54,2.22576,
1738.51,654.94,2.20319,
1738.84,655.34,2.17649,
1739.18,655.74,2.15441,
1739.511,656.14,2.13412,
1739.844,656.54,2.11006,
1740.18,656.94,2.08901,
1740.51,657.34,2.06539,
1740.84,657.74,2.04392,
1741.18,658.14,2.01988,
1741.51,658.54,1.99848,
1741.84,658.94,1.9755,
1742.17,659.34,1.95047,
1742.51,659.74,1.93163,
1742.84,660.14,1.90871,
1743.17,660.54,1.88538,
1743.51,660.94,1.8654,
1743.84,661.34,1.8418,
1744.179,661.74,1.81952,
1744.51,662.14,1.79716,
1744.848,662.54,1.77537,
1745.18,662.94,1.75356,
1745.52,663.34,1.73173,
1745.85,663.74,1.70681,
1746.19,664.14,1.68164,
1746.525,664.54,1.66351,
1746.86,664.94,1.63931,
1747.2,665.34,1.61328,
1747.53,665.74,1.58732,
1747.87,666.14,1.56417,
1748.202,666.54,1.53803,
1748.54,666.94,1.51579,
1748.87,667.34,1.49394,
1749.21,667.74,1.47148,
1749.55,668.14,1.44743,
1749.88,668.54,1.42224,
1750.22,668.94,1.39811,
1750.56,669.34,1.37526,
1750.896,669.74,1.35033,
1751.23,670.14,1.32806,
1751.57,670.54,1.30464,
1751.907,670.94,1.28046,
1752.24,671.34,1.25486,
1752.58,671.74,1.23482,
1752.92,672.14,1.21491,
1753.254,672.54,1.19153,
1753.59,672.94,1.18163,
1753.929,673.34,1.15753,
1754.27,673.74,1.13932,
1754.6,674.14,1.11514,
1754.94,674.54,1.09205,
1755.28,674.94,1.06912,
1755.62,675.34,1.04812,
1755.96,675.74,1.02843,
1756.3,676.14,1.00622,
1756.64,676.54,0.98825,
1756.97,676.94,0.96926,
1757.31,677.34,0.94823,
1757.65,677.74,0.9269,
1757.99,678.14,0.90738,
1758.33,678.54,0.88928,
1758.672,678.94,0.87144,
1759.01,679.34,0.85301,
1759.35,679.74,0.83172,
1759.69,680.14,0.81244,
1760.03,680.54,0.79627,
1760.37,680.94,0.77683,
1760.71,681.34,0.75945,
1761.05,681.74,0.74201,
1761.39,682.14,0.72301,
1761.73,682.54,0.70817,
1762.08,682.94,0.68724,
1762.42,683.34,0.6748,
1762.76,683.74,0.65515,
1763.1,684.14,0.63606,
1763.44,684.54,0.61723,
1763.78,684.94,0.60274,
1764.12,685.34,0.59115,
1764.47,685.74,0.56982,
1764.81,686.14,0.55418,
1765.15,686.54,0.53855,
1765.5,686.94,0.52514,
1765.839,687.34,0.51002,
1766.18,687.74,0.49658,
1766.52,688.14,0.48399,
1766.87,688.54,0.47035,
1767.21,688.94,0.45764,
1767.552,689.34,0.44611,
1767.894,689.74,0.43518,
1768.24,690.14,0.42437,
1768.58,690.54,0.41306,
1768.92,690.94,0.40238,
1769.26,691.34,0.39143,
1769.61,691.74,0.38133,
1769.95,692.14,0.37118,
1770.29,692.54,0.36114,
1770.64,692.94,0.35172,
1770.98,693.34,0.34124,
1771.33,693.74,0.33242,
1771.67,694.14,0.32305,
1772.01,694.54,0.31694,
1772.36,694.94,0.31047,
1772.7,695.34,0.3,
1773.04,695.74,0.29168,
1773.39,696.14,0.28221,
1773.732,696.54,0.27548,
1774.077,696.94,0.27233,
1774.422,697.34,0.26334,
1774.767,697.74,0.25669,
1775.11,698.14,0.24869,
1775.46,698.54,0.24157,
1775.799,698.94,0.23585,
1776.14,699.34,0.23282,
1776.49,699.74,0.22544,
1776.834,700.14,0.21944,
1777.18,700.54,0.2115,
1777.524,700.94,0.21261,
1777.87,701.34,0.20738,
1778.22,701.74,0.20147,
1778.56,702.14,0.19286,
1778.91,702.54,0.192,
1779.255,702.94,0.19214,
1779.6,703.34,0.18895,
1779.95,703.74,0.18552,
1780.29,704.14,0.18204,
1780.64,704.54,0.1804,
1780.99,704.94,0.17743,
1781.34,705.34,0.17565,
1781.68,705.74,0.17311,
1782.03,706.14,0.17038,
1782.38,706.54,0.16756,
1782.73,706.94,0.16473,
1783.07,707.34,0.16498,
1783.42,707.74,0.1615,
1783.77,708.14,0.16052,
1784.118,708.54,0.15686,
1784.47,708.94,0.15602,
1784.814,709.34,0.15394,
1785.16,709.74,0.15066,
1785.51,710.14,0.14789,
1785.86,710.54,0.14519,
1786.206,710.94,0.14368,
1786.554,711.34,0.13959,
1786.902,711.74,0.13698,
1787.25,712.14,0.13456,
1787.6,712.54,0.1314,
1787.95,712.94,0.1295,
1788.3,713.34,0.12699,
1788.65,713.74,0.12518,
1789,714.14,0.12146,
1789.35,714.54,0.1194,
1789.7,714.94,0.118,
1790.05,715.34,0.11626,
1790.4,715.74,0.11398,
1790.75,716.14,0.1117,
1791.102,716.54,0.11099,
1791.45,716.94,0.10731,
1791.8,717.34,0.10715,
1792.15,717.74,0.10597,
1792.506,718.14,0.10499,
1792.857,718.54,0.10332,
1793.21,718.94,0.10191,
1793.56,719.34,0.10075,
1793.91,719.74,0.09991,
1794.27,720.14,0.09802,
1794.62,720.54,0.09711,
1794.97,720.94,0.09471,
1795.32,721.34,0.09608,
1795.68,721.74,0.09505,
1796.03,722.14,0.09365,
1796.38,722.54,0.09264,
1796.73,722.94,0.09187,
1797.087,723.34,0.09106,
1797.44,723.74,0.08887,
1797.79,724.14,0.08899,
1798.15,724.54,0.08905,
1798.5,724.94,0.08799,
1798.857,725.34,0.08714,
1799.21,725.74,0.08586,
1799.57,726.14,0.08475,
1799.922,726.54,0.08402,
1800.28,726.94,0.08401,
1800.63,727.34,0.08421,
1800.99,727.74,0.08178,
1801.34,728.14,0.08192,
1801.7,728.54,0.083,
1802.055,728.94,0.08084,
1802.41,729.34,0.07988,
1802.77,729.74,0.07937,
1803.12,730.14,0.07997,
1803.48,730.54,0.0801,
1803.84,730.94,0.07787,
1804.2,731.34,0.07798,
1804.55,731.74,0.07798,
1804.91,732.14,0.07796,
1805.268,732.54,0.07697,
1805.63,732.94,0.0771,
1805.98,733.34,0.07589,
1806.342,733.74,0.07599,
1806.7,734.14,0.076,
1807.06,734.54,0.07598,
1807.42,734.94,0.0754,
1807.77,735.34,0.07504,
1808.133,735.74,0.07505,
1808.493,736.14,0.07398,
1808.853,736.54,0.07611,
1809.21,736.94,0.07599,
1809.573,737.34,0.07566,
1809.93,737.74,0.07502,
1810.29,738.14,0.07499,
1810.65,738.54,0.0742,
1811.01,738.94,0.07401,
1811.37,739.34,0.07382,
1811.73,739.74,0.07602,
1812.1,740.14,0.075,
1812.459,740.54,0.07499,
1812.82,740.94,0.07497,
1813.18,741.34,0.07461,
1813.54,741.74,0.07402,
1813.91,742.14,0.074,
1814.268,742.54,0.07404,
1814.63,742.94,0.07529,
1814.99,743.34,0.07503,
1815.36,743.74,0.07405,
1815.72,744.14,0.074,
1816.08,744.54,0.07401,
1816.45,744.94,0.07477,
1816.81,745.34,0.07497,
1817.17,745.74,0.07499,
1817.538,746.14,0.07498,
1817.9,746.54,0.07499,
1818.27,746.94,0.07285,
1818.63,747.34,0.07406,
1819,747.74,0.07401,
1819.36,748.14,0.074,
1819.73,748.54,0.074,
1820.09,748.94,0.07401,
1820.46,749.34,0.07483,
1820.826,749.74,0.07497,
1821.19,750.14,0.07494,
1821.56,750.54,0.0744,
1821.927,750.94,0.0741,
1822.29,751.34,0.074,
1822.66,751.74,0.07401,
1823.03,752.14,0.07411,
1823.39,752.54,0.07295,
1823.76,752.94,0.07353,
1824.13,753.34,0.07496,
1824.49,753.74,0.075,
1824.86,754.14,0.07508,
1825.23,754.54,0.07392,
1825.6,754.94,0.07399,
1825.97,755.34,0.074,
1826.34,755.74,0.07404,
1826.71,756.14,0.07298,
1827.08,756.54,0.07301,
1827.45,756.94,0.07305,
1827.819,757.34,0.07423,
1828.188,757.74,0.07504,
1828.56,758.14,0.07389,
1828.93,758.54,0.07399,
1829.3,758.94,0.074,
1829.67,759.34,0.07407,
1830.04,759.74,0.07294,
1830.41,760.14,0.07299,
1830.786,760.54,0.07301,
1831.16,760.94,0.0731,
1831.53,761.34,0.07216,
1831.9,761.74,0.07399,
1832.28,762.14,0.074,
1832.649,762.54,0.07398,
1833.02,762.94,0.0734,
1833.4,763.34,0.0735,
1833.77,763.74,0.07397,
1834.143,764.14,0.07397,
1834.52,764.54,0.07388,
1834.89,764.94,0.07198,
1835.27,765.34,0.07192,
1835.64,765.74,0.07306,
1836.015,766.14,0.07301,
1836.39,766.54,0.073,
1836.77,766.94,0.07299,
1837.14,767.34,0.07293,
1837.518,767.74,0.07392,
1837.89,768.14,0.07199,
1838.27,768.54,0.072,
1838.646,768.94,0.072,
1839.02,769.34,0.07203,
1839.4,769.74,0.07249,
1839.774,770.14,0.07297,
1840.152,770.54,0.073,
1840.53,770.94,0.073,
1840.908,771.34,0.07299,
1841.29,771.74,0.07403,
1841.67,772.14,0.07192,
1842.04,772.54,0.07199,
1842.42,772.94,0.07199,
1842.8,773.34,0.0719,
1843.182,773.74,0.07311,
1843.56,774.14,0.07301,
1843.94,774.54,0.07303,
1844.32,774.94,0.0732,
1844.7,775.34,0.07299,
1845.08,775.74,0.07301,
1845.46,776.14,0.073,
1845.84,776.54,0.07301,
1846.22,776.94,0.07311,
1846.605,777.34,0.0719,
1846.99,777.74,0.07199,
1847.367,778.14,0.072,
1847.75,778.54,0.07199,
1848.13,778.94,0.07193,
1848.513,779.34,0.07403,
1848.897,779.74,0.073,
1849.28,780.14,0.073,
1849.66,780.54,0.07298,
1850.05,780.94,0.07223,
1850.43,781.34,0.07202,
1850.814,781.74,0.072,
1851.198,782.14,0.07196,
1851.582,782.54,0.07143,
1851.966,782.94,0.07324,
1852.35,783.34,0.07302,
1852.74,783.74,0.073,
1853.121,784.14,0.07299,
1853.51,784.54,0.07297,
1853.89,784.94,0.07296,
1854.28,785.34,0.07299,
1854.66,785.74,0.073,
1855.05,786.14,0.073,
1855.44,786.54,0.07297,
1855.82,786.94,0.07236,
1856.21,787.34,0.07202,
1856.6,787.74,0.072,
1856.99,788.14,0.072,
1857.37,788.54,0.07202,
1857.759,788.94,0.07227,
1858.15,789.34,0.07297,
1858.53,789.74,0.073,
1858.923,790.14,0.07301,
1859.31,790.54,0.07303,
1859.7,790.94,0.074,
1860.09,791.34,0.07198,
1860.48,791.74,0.072,
1860.87,792.14,0.07204,
1861.26,792.54,0.07366,
1861.65,792.94,0.07397,
1862.04,793.34,0.074,
1862.43,793.74,0.074,
1862.82,794.14,0.074,
1863.21,794.54,0.07394,
1863.6,794.94,0.07299,
1863.99,795.34,0.07206,
1864.38,795.74,0.072,
1864.78,796.14,0.07192,
1865.169,796.54,0.07311,
1865.56,796.94,0.07301,
1865.95,797.34,0.073,
1866.35,797.74,0.07299,
1866.74,798.14,0.07283,
1867.13,798.54,0.07202,
1867.53,798.94,0.072,
1867.92,799.34,0.072,
1868.32,799.74,0.07197,
1868.712,800.14,0.07408,
1869.11,800.54,0.07298,
1869.501,800.94,0.073,
1869.9,801.34,0.073,
1870.29,801.74,0.073,
1870.69,802.14,0.073,
1871.08,802.54,0.07305,
1871.48,802.94,0.07198,
1871.874,803.34,0.072,
1872.27,803.74,0.07199,
1872.666,804.14,0.07182,
1873.062,804.54,0.07323,
1873.46,804.94,0.07302,
1873.86,805.34,0.073,
1874.25,805.74,0.07303,
1874.65,806.14,0.07379,
1875.048,806.54,0.07408,
1875.45,806.94,0.07294,
1875.85,807.34,0.073,
1876.25,807.74,0.073,
1876.65,808.14,0.07302,
1877.04,808.54,0.0737,
1877.44,808.94,0.07248,
1877.84,809.34,0.07203,
1878.24,809.74,0.072,
1878.642,810.14,0.07199,
1879.04,810.54,0.0719,
1879.44,810.94,0.07306,
1879.845,811.34,0.073,
1880.25,811.74,0.073,
1880.65,812.14,0.07299,
1881.048,812.54,0.07285,
1881.45,812.94,0.07249,
1881.85,813.34,0.07203,
1882.25,813.74,0.072,
1882.66,814.14,0.07202,
1883.06,814.54,0.07282,
1883.46,814.94,0.07299,
1883.9,815.34,0.073,