File: PMMA/Calibration_Data/Sandia/Sandia_DSC_Ar_50K_1.csv
Time,Temperature,Heat Flow
[s],[K],[W/g]
1200.1,306.872,-7.36E-04
1270.032,307.272,-5.30E-03
1284.93,307.672,-1.05E-02
1294.674,308.072,-1.40E-02
1302.01,308.472,-2.13E-02
1308.08,308.872,-2.73E-02
1313.26,309.272,-3.41E-02
1317.88,309.672,-4.39E-02
1321.96,310.072,-5.22E-02
1325.694,310.472,-6.23E-02
1329.132,310.872,-7.53E-02
1332.303,311.272,-8.14E-02
1335.31,311.672,-9.57E-02
1338.11,312.072,-0.10424
1340.74,312.472,-0.11614
1343.27,312.872,-0.12605
1345.683,313.272,-0.13733
1347.96,313.672,-0.15077
1350.17,314.072,-0.16241
1352.27,314.472,-0.17237
1354.3,314.872,-0.18704
1356.27,315.272,-0.19893
1358.18,315.672,-0.20854
1360.01,316.072,-0.22272
1361.81,316.472,-0.23503
1363.53,316.872,-0.24706
1365.2,317.272,-0.25987
1366.84,317.672,-0.27133
1368.43,318.072,-0.28367
1370,318.472,-0.29497
1371.52,318.872,-0.30692
1373.01,319.272,-0.32008
1374.49,319.672,-0.33289
1375.91,320.072,-0.34468
1377.303,320.472,-0.35808
1378.67,320.872,-0.37296
1380.018,321.272,-0.38767
1381.33,321.672,-0.40113
1382.62,322.072,-0.41113
1383.89,322.472,-0.42588
1385.15,322.872,-0.43563
1386.38,323.272,-0.44906
1387.59,323.672,-0.46248
1388.775,324.072,-0.47841
1389.95,324.472,-0.49153
1391.11,324.872,-0.50621
1392.26,325.272,-0.52032
1393.38,325.672,-0.53365
1394.48,326.072,-0.54465
1395.58,326.472,-0.55873
1396.67,326.872,-0.57325
1397.74,327.272,-0.58654
1398.79,327.672,-0.60135
1399.83,328.072,-0.61441
1400.86,328.472,-0.62961
1401.879,328.872,-0.64341
1402.88,329.272,-0.65985
1403.87,329.672,-0.67465
1404.85,330.072,-0.68902
1405.83,330.472,-0.70312
1406.8,330.872,-0.71542
1407.75,331.272,-0.73072
1408.69,331.672,-0.74538
1409.62,332.072,-0.75835
1410.549,332.472,-0.77257
1411.461,332.872,-0.78563
1412.37,333.272,-0.80216
1413.26,333.672,-0.81514
1414.15,334.072,-0.83004
1415.04,334.472,-0.84229
1415.91,334.872,-0.8561
1416.78,335.272,-0.87017
1417.63,335.672,-0.88334
1418.49,336.072,-0.90054
1419.33,336.472,-0.91344
1420.17,336.872,-0.92713
1421,337.272,-0.94088
1421.82,337.672,-0.95398
1422.645,338.072,-0.96909
1423.46,338.472,-0.98476
1424.271,338.872,-0.9985
1425.07,339.272,-1.01436
1425.861,339.672,-1.02573
1426.647,340.072,-1.042
1427.427,340.472,-1.05615
1428.21,340.872,-1.06996
1428.98,341.272,-1.08453
1429.75,341.672,-1.09862
1430.52,342.072,-1.11119
1431.27,342.472,-1.12202
1432.03,342.872,-1.13917
1432.78,343.272,-1.15297
1433.52,343.672,-1.16579
1434.27,344.072,-1.18167
1435.008,344.472,-1.19578
1435.74,344.872,-1.20848
1436.47,345.272,-1.22163
1437.2,345.672,-1.23482
1437.92,346.072,-1.24965
1438.63,346.472,-1.26259
1439.34,346.872,-1.27687
1440.05,347.272,-1.29197
1440.76,347.672,-1.30428
1441.45,348.072,-1.31895
1442.15,348.472,-1.33137
1442.84,348.872,-1.34528
1443.53,349.272,-1.36122
1444.22,349.672,-1.37341
1444.9,350.072,-1.38643
1445.58,350.472,-1.39761
1446.258,350.872,-1.41416
1446.93,351.272,-1.42808
1447.6,351.672,-1.44242
1448.27,352.072,-1.45734
1448.94,352.472,-1.46981
1449.59,352.872,-1.4852
1450.25,353.272,-1.49854
1450.9,353.672,-1.51231
1451.56,354.072,-1.52853
1452.21,354.472,-1.53997
1452.85,354.872,-1.55643
1453.5,355.272,-1.5703
1454.139,355.672,-1.58684
1454.775,356.072,-1.59923
1455.41,356.472,-1.61599
1456.041,356.872,-1.63124
1456.668,357.272,-1.64729
1457.29,357.672,-1.66026
1457.92,358.072,-1.67633
1458.54,358.472,-1.69083
1459.16,358.872,-1.70632
1459.77,359.272,-1.71908
1460.39,359.672,-1.73529
1461,360.072,-1.74834
1461.606,360.472,-1.76398
1462.21,360.872,-1.77615
1462.809,361.272,-1.79067
1463.41,361.672,-1.80439
1464.003,362.072,-1.81841
1464.6,362.472,-1.83255
1465.194,362.872,-1.8469
1465.79,363.272,-1.86228
1466.37,363.672,-1.87597
1466.96,364.072,-1.88997
1467.54,364.472,-1.90393
1468.13,364.872,-1.92029
1468.71,365.272,-1.93311
1469.283,365.672,-1.94672
1469.86,366.072,-1.9616
1470.43,366.472,-1.97603
1471,366.872,-1.99142
1471.57,367.272,-2.00406
1472.13,367.672,-2.02025
1472.697,368.072,-2.03459
1473.26,368.472,-2.04796
1473.83,368.872,-2.06286
1474.386,369.272,-2.07808
1474.95,369.672,-2.09365
1475.5,370.072,-2.10435
1476.06,370.472,-2.11817
1476.61,370.872,-2.1313
1477.16,371.272,-2.14643
1477.704,371.672,-2.16106
1478.25,372.072,-2.17675
1478.8,372.472,-2.1905
1479.34,372.872,-2.2036
1479.89,373.272,-2.21737
1480.43,373.672,-2.23314
1480.97,374.072,-2.24721
1481.51,374.472,-2.25881
1482.05,374.872,-2.27322
1482.58,375.272,-2.28931
1483.11,375.672,-2.30208
1483.65,376.072,-2.31476
1484.18,376.472,-2.33068
1484.71,376.872,-2.34277
1485.24,377.272,-2.35516
1485.76,377.672,-2.3687
1486.29,378.072,-2.3848
1486.81,378.472,-2.397
1487.33,378.872,-2.40777
1487.85,379.272,-2.42169
1488.38,379.672,-2.4382
1488.894,380.072,-2.44928
1489.41,380.472,-2.46165
1489.929,380.872,-2.47159
1490.45,381.272,-2.48551
1490.961,381.672,-2.49694
1491.477,382.072,-2.51079
1491.99,382.472,-2.5242
1492.5,382.872,-2.53712
1493.02,383.272,-2.54989
1493.526,383.672,-2.56356
1494.033,384.072,-2.57464
1494.54,384.472,-2.59124
1495.05,384.872,-2.6032
1495.55,385.272,-2.61536
1496.05,385.672,-2.62818
1496.56,386.072,-2.64316
1497.06,386.472,-2.65448
1497.56,386.872,-2.66573
1498.06,387.272,-2.67903
1498.557,387.672,-2.69091
1499.06,388.072,-2.70464
1499.55,388.472,-2.7183
1500.05,388.872,-2.72986
1500.54,389.272,-2.7448
1501.04,389.672,-2.75524
1501.53,390.072,-2.77005
1502.02,390.472,-2.78278
1502.51,390.872,-2.79648
1502.994,391.272,-2.81017
1503.48,391.672,-2.82422
1503.97,392.072,-2.83559
1504.46,392.472,-2.84953
1504.944,392.872,-2.86288
1505.43,393.272,-2.8768
1505.91,393.672,-2.88923
1506.39,394.072,-2.90404
1506.87,394.472,-2.91785
1507.36,394.872,-2.9307
1507.83,395.272,-2.9452
1508.31,395.672,-2.96178
1508.79,396.072,-2.97425
1509.27,396.472,-2.98864
1509.74,396.872,-3.00529
1510.22,397.272,-3.01918
1510.69,397.672,-3.03452
1511.16,398.072,-3.05004
1511.634,398.472,-3.06595
1512.1,398.872,-3.08334
1512.573,399.272,-3.09944
1513.041,399.672,-3.11196
1513.51,400.072,-3.12748
1513.97,400.472,-3.14471
1514.44,400.872,-3.15981
1514.9,401.272,-3.1766
1515.36,401.672,-3.19407
1515.83,402.072,-3.20961
1516.287,402.472,-3.22658
1516.75,402.872,-3.24488
1517.21,403.272,-3.26023
1517.66,403.672,-3.27848
1518.12,404.072,-3.29648
1518.58,404.472,-3.31532
1519.03,404.872,-3.33455
1519.49,405.272,-3.35387
1519.95,405.672,-3.36818
1520.4,406.072,-3.38524
1520.85,406.472,-3.40339
1521.3,406.872,-3.42104
1521.75,407.272,-3.44123
1522.2,407.672,-3.4589
1522.65,408.072,-3.47628
1523.09,408.472,-3.49192
1523.54,408.872,-3.5108
1523.99,409.272,-3.52938
1524.44,409.672,-3.54598
1524.88,410.072,-3.56358
1525.32,410.472,-3.5811
1525.767,410.872,-3.59803
1526.21,411.272,-3.61539
1526.65,411.672,-3.63564
1527.09,412.072,-3.65309
1527.534,412.472,-3.67068
1527.972,412.872,-3.69275
1528.41,413.272,-3.71003
1528.85,413.672,-3.7275
1529.29,414.072,-3.74237
1529.72,414.472,-3.75922
1530.159,414.872,-3.77996
1530.59,415.272,-3.79632
1531.029,415.672,-3.81341
1531.46,416.072,-3.83264
1531.89,416.472,-3.8501
1532.325,416.872,-3.86472
1532.76,417.272,-3.88161
1533.19,417.672,-3.89905
1533.62,418.072,-3.91669
1534.05,418.472,-3.93331
1534.47,418.872,-3.9494
1534.9,419.272,-3.96384
1535.33,419.672,-3.98238
1535.76,420.072,-3.99717
1536.18,420.472,-4.01465
1536.61,420.872,-4.03023
1537.035,421.272,-4.04553
1537.461,421.672,-4.06288
1537.884,422.072,-4.07939
1538.31,422.472,-4.09488
1538.73,422.872,-4.11263
1539.15,423.272,-4.12864
1539.57,423.672,-4.14354
1539.99,424.072,-4.16097
1540.413,424.472,-4.17751
1540.83,424.872,-4.19344
1541.25,425.272,-4.21021
1541.67,425.672,-4.22634
1542.087,426.072,-4.24143
1542.51,426.472,-4.25593
1542.921,426.872,-4.27434
1543.34,427.272,-4.28661
1543.75,427.672,-4.30182
1544.17,428.072,-4.3173
1544.58,428.472,-4.33303
1545,428.872,-4.35068
1545.41,429.272,-4.36356
1545.822,429.672,-4.37607
1546.23,430.072,-4.39239
1546.65,430.472,-4.40826
1547.06,430.872,-4.42379
1547.47,431.272,-4.43734
1547.88,431.672,-4.4508
1548.288,432.072,-4.46653
1548.7,432.472,-4.48048
1549.107,432.872,-4.49151
1549.52,433.272,-4.5079
1549.92,433.672,-4.51817
1550.33,434.072,-4.53162
1550.74,434.472,-4.54835
1551.15,434.872,-4.56264
1551.552,435.272,-4.57339
1551.957,435.672,-4.58701
1552.36,436.072,-4.60073
1552.77,436.472,-4.6159
1553.17,436.872,-4.62958
1553.57,437.272,-4.64412
1553.976,437.672,-4.65807
1554.38,438.072,-4.67144
1554.78,438.472,-4.68354
1555.19,438.872,-4.69956
1555.59,439.272,-4.71344
1555.99,439.672,-4.72685
1556.394,440.072,-4.73841
1556.79,440.472,-4.75353
1557.19,440.872,-4.76861
1557.59,441.272,-4.78113
1557.99,441.672,-4.79198
1558.389,442.072,-4.80668
1558.79,442.472,-4.8204
1559.18,442.872,-4.83147
1559.58,443.272,-4.84661
1559.976,443.672,-4.86036
1560.372,444.072,-4.87166
1560.77,444.472,-4.88667
1561.16,444.872,-4.90049
1561.56,445.272,-4.9126
1561.95,445.672,-4.92388
1562.35,446.072,-4.93516
1562.74,446.472,-4.94942
1563.13,446.872,-4.96203
1563.53,447.272,-4.97487
1563.92,447.672,-4.98638
1564.311,448.072,-5.0005
1564.7,448.472,-5.01283
1565.094,448.872,-5.02617
1565.49,449.272,-5.0407
1565.88,449.672,-5.05364
1566.27,450.072,-5.06405
1566.66,450.472,-5.07785
1567.04,450.872,-5.09087
1567.43,451.272,-5.10306
1567.821,451.672,-5.11675
1568.21,452.072,-5.13093
1568.6,452.472,-5.14297
1568.99,452.872,-5.15413
1569.37,453.272,-5.16772
1569.76,453.672,-5.18139
1570.14,454.072,-5.19437
1570.53,454.472,-5.20562
1570.91,454.872,-5.21756
1571.29,455.272,-5.23173
1571.68,455.672,-5.2441
1572.06,456.072,-5.25571
1572.441,456.472,-5.26727
1572.82,456.872,-5.27851
1573.21,457.272,-5.29051
1573.59,457.672,-5.30368
1573.97,458.072,-5.31712
1574.35,458.472,-5.33029
1574.73,458.872,-5.34376
1575.111,459.272,-5.35605
1575.49,459.672,-5.36823
1575.87,460.072,-5.38032
1576.25,460.472,-5.39299
1576.62,460.872,-5.40745
1577,461.272,-5.42184
1577.379,461.672,-5.434
1577.76,462.072,-5.44726
1578.132,462.472,-5.46135
1578.51,462.872,-5.47224
1578.88,463.272,-5.48725
1579.26,463.672,-5.50268
1579.64,464.072,-5.5161
1580.01,464.472,-5.53069
1580.39,464.872,-5.544
1580.76,465.272,-5.55889
1581.14,465.672,-5.57284
1581.51,466.072,-5.58753
1581.88,466.472,-5.60254
1582.257,466.872,-5.61575
1582.629,467.272,-5.62998
1583.001,467.672,-5.64514
1583.37,468.072,-5.65911
1583.74,468.472,-5.67085
1584.12,468.872,-5.68626
1584.49,469.272,-5.70183
1584.855,469.672,-5.71569
1585.23,470.072,-5.73003
1585.59,470.472,-5.74579
1585.965,470.872,-5.76019
1586.33,471.272,-5.77437
1586.7,471.672,-5.78644
1587.07,472.072,-5.80247
1587.44,472.472,-5.81567
1587.81,472.872,-5.8299
1588.18,473.272,-5.84236
1588.542,473.672,-5.85829
1588.91,474.072,-5.87191
1589.28,474.472,-5.88777
1589.64,474.872,-5.90048
1590.009,475.272,-5.91511
1590.375,475.672,-5.92873
1590.741,476.072,-5.94306
1591.11,476.472,-5.95689
1591.47,476.872,-5.96994
1591.83,477.272,-5.98493
1592.2,477.672,-5.99875
1592.56,478.072,-6.01306
1592.93,478.472,-6.02839
1593.29,478.872,-6.04157
1593.65,479.272,-6.05668
1594.02,479.672,-6.0703
1594.38,480.072,-6.08547
1594.74,480.472,-6.10043
1595.1,480.872,-6.11326
1595.47,481.272,-6.13063
1595.83,481.672,-6.14368
1596.19,482.072,-6.15688
1596.55,482.472,-6.17002
1596.91,482.872,-6.18478
1597.27,483.272,-6.19819
1597.64,483.672,-6.21311
1598,484.072,-6.22571
1598.35,484.472,-6.2406
1598.71,484.872,-6.25516
1599.07,485.272,-6.26936
1599.432,485.672,-6.28263
1599.792,486.072,-6.2972
1600.15,486.472,-6.31184
1600.51,486.872,-6.32528
1600.87,487.272,-6.34171
1601.22,487.672,-6.35604
1601.58,488.072,-6.37165
1601.94,488.472,-6.38495
1602.297,488.872,-6.40004
1602.65,489.272,-6.41177
1603.01,489.672,-6.42562
1603.37,490.072,-6.44228
1603.72,490.472,-6.45752
1604.08,490.872,-6.47179
1604.44,491.272,-6.48555
1604.79,491.672,-6.50201
1605.15,492.072,-6.51584
1605.5,492.472,-6.53409
1605.855,492.872,-6.54734
1606.21,493.272,-6.55971
1606.56,493.672,-6.57319
1606.92,494.072,-6.58899
1607.27,494.472,-6.60415
1607.63,494.872,-6.61929
1607.98,495.272,-6.6356
1608.33,495.672,-6.65123
1608.69,496.072,-6.66834
1609.04,496.472,-6.68708
1609.395,496.872,-6.70167
1609.75,497.272,-6.71704
1610.1,497.672,-6.73657
1610.45,498.072,-6.75309
1610.8,498.472,-6.76825
1611.153,498.872,-6.78354
1611.504,499.272,-6.80243
1611.855,499.672,-6.81896
1612.206,500.072,-6.8371
1612.56,500.472,-6.85309
1612.91,500.872,-6.86914
1613.256,501.272,-6.88614
1613.61,501.672,-6.9021
1613.96,502.072,-6.91992
1614.31,502.472,-6.93752
1614.654,502.872,-6.95406
1615,503.272,-6.97113
1615.353,503.672,-6.98696
1615.7,504.072,-7.00301
1616.049,504.472,-7.01997
1616.4,504.872,-7.03631
1616.75,505.272,-7.05114
1617.09,505.672,-7.06988
1617.44,506.072,-7.08602
1617.79,506.472,-7.10289
1618.14,506.872,-7.11862
1618.485,507.272,-7.13706
1618.83,507.672,-7.1521
1619.18,508.072,-7.16872
1619.52,508.472,-7.18461
1619.87,508.872,-7.20194
1620.21,509.272,-7.21842
1620.56,509.672,-7.23403
1620.903,510.072,-7.25224
1621.248,510.472,-7.26809
1621.59,510.872,-7.28353
1621.94,511.272,-7.30196
1622.28,511.672,-7.3166
1622.63,512.072,-7.33382
1622.97,512.472,-7.34889
1623.32,512.872,-7.36494
1623.66,513.272,-7.37988
1624,513.672,-7.3959
1624.35,514.072,-7.4143
1624.69,514.472,-7.43137
1625.034,514.872,-7.446
1625.376,515.272,-7.45883
1625.718,515.672,-7.47445
1626.06,516.072,-7.48912
1626.4,516.472,-7.50575
1626.74,516.872,-7.52111
1627.09,517.272,-7.53651
1627.43,517.672,-7.55116
1627.77,518.072,-7.56748
1628.11,518.472,-7.58101
1628.45,518.872,-7.59261
1628.79,519.272,-7.60632
1629.13,519.672,-7.62088
1629.471,520.072,-7.63627
1629.81,520.472,-7.65004
1630.15,520.872,-7.6648
1630.49,521.272,-7.67845
1630.83,521.672,-7.69229
1631.17,522.072,-7.70498
1631.51,522.472,-7.71986
1631.85,522.872,-7.73161
1632.19,523.272,-7.74677
1632.53,523.672,-7.76177
1632.86,524.072,-7.77424
1633.2,524.472,-7.79004
1633.54,524.872,-7.80161
1633.88,525.272,-7.81464
1634.217,525.672,-7.83047
1634.55,526.072,-7.84618
1634.89,526.472,-7.85949
1635.23,526.872,-7.87362
1635.57,527.272,-7.88885
1635.906,527.672,-7.9025
1636.24,528.072,-7.91661
1636.58,528.472,-7.93084
1636.92,528.872,-7.94382
1637.25,529.272,-7.95992
1637.589,529.672,-7.97437
1637.92,530.072,-7.9899
1638.26,530.472,-8.0071
1638.6,530.872,-8.02205
1638.93,531.272,-8.0362
1639.266,531.672,-8.04986
1639.6,532.072,-8.06833
1639.94,532.472,-8.08488
1640.27,532.872,-8.10029
1640.607,533.272,-8.11651
1640.94,533.672,-8.13097
1641.276,534.072,-8.14579
1641.61,534.472,-8.16108
1641.945,534.872,-8.17195
1642.28,535.272,-8.18469
1642.61,535.672,-8.19674
1642.95,536.072,-8.20886
1643.28,536.472,-8.2214
1643.61,536.872,-8.2337
1643.94,537.272,-8.24504
1644.28,537.672,-8.25701
1644.61,538.072,-8.26906
1644.94,538.472,-8.28
1645.28,538.872,-8.2918
1645.61,539.272,-8.30999
1645.94,539.672,-8.32839
1646.28,540.072,-8.34435
1646.61,540.472,-8.35561
1646.94,540.872,-8.36963
1647.27,541.272,-8.38231
1647.6,541.672,-8.39404
1647.936,542.072,-8.40546
1648.27,542.472,-8.41692
1648.6,542.872,-8.42959
1648.93,543.272,-8.43993
1649.26,543.672,-8.45351
1649.592,544.072,-8.4689
1649.92,544.472,-8.48021
1650.25,544.872,-8.49094
1650.585,545.272,-8.5028
1650.92,545.672,-8.51556
1651.25,546.072,-8.52871
1651.578,546.472,-8.54356
1651.91,546.872,-8.55064
1652.24,547.272,-8.56173
1652.57,547.672,-8.57059
1652.9,548.072,-8.58133
1653.23,548.472,-8.59074
1653.56,548.872,-8.59923
1653.89,549.272,-8.61056
1654.218,549.672,-8.62074
1654.55,550.072,-8.63107
1654.88,550.472,-8.64289
1655.21,550.872,-8.65649
1655.53,551.272,-8.67
1655.862,551.672,-8.67929
1656.19,552.072,-8.68677
1656.52,552.472,-8.69863
1656.85,552.872,-8.70833
1657.18,553.272,-8.71677
1657.51,553.672,-8.72491
1657.836,554.072,-8.7333
1658.16,554.472,-8.74238
1658.493,554.872,-8.74691
1658.82,555.272,-8.75909
1659.15,555.672,-8.76417
1659.48,556.072,-8.77233
1659.807,556.472,-8.78048
1660.14,556.872,-8.78822
1660.46,557.272,-8.79616
1660.79,557.672,-8.80694
1661.12,558.072,-8.81588
1661.45,558.472,-8.82394
1661.77,558.872,-8.83324
1662.099,559.272,-8.83933
1662.43,559.672,-8.84489
1662.75,560.072,-8.85199
1663.08,560.472,-8.85998
1663.41,560.872,-8.8688
1663.74,561.272,-8.87356
1664.06,561.672,-8.88109
1664.39,562.072,-8.88728
1664.72,562.472,-8.89398
1665.04,562.872,-8.89834
1665.37,563.272,-8.90344
1665.69,563.672,-8.90979
1666.02,564.072,-8.9138
1666.35,564.472,-8.91905
1666.671,564.872,-8.92399
1667,565.272,-8.93149
1667.32,565.672,-8.93492
1667.649,566.072,-8.93827
1667.98,566.472,-8.93203
1668.3,566.872,-8.93345
1668.63,567.272,-8.93724
1668.96,567.672,-8.94199
1669.281,568.072,-8.94644
1669.61,568.472,-8.95227
1669.932,568.872,-8.95783
1670.26,569.272,-8.96467
1670.58,569.672,-8.96976
1670.91,570.072,-8.97589
1671.23,570.472,-8.98543
1671.56,570.872,-8.99482
1671.88,571.272,-9.00454
1672.206,571.672,-9.00985
1672.53,572.072,-9.01632
1672.86,572.472,-9.01979
1673.18,572.872,-9.02595
1673.505,573.272,-9.03038
1673.83,573.672,-9.03739
1674.15,574.072,-9.04485
1674.48,574.472,-9.05265
1674.804,574.872,-9.05741
1675.13,575.272,-9.05449
1675.45,575.672,-9.05598
1675.77,576.072,-9.05797
1676.1,576.472,-9.06043
1676.42,576.872,-9.065
1676.75,577.272,-9.06971
1677.07,577.672,-9.07452
1677.39,578.072,-9.07516
1677.72,578.472,-9.07709
1678.04,578.872,-9.08058
1678.36,579.272,-9.08601
1678.686,579.672,-9.08894
1679.01,580.072,-9.09212
1679.33,580.472,-9.09571
1679.66,580.872,-9.10251
1679.98,581.272,-9.10809
1680.3,581.672,-9.10964
1680.624,582.072,-9.11202
1680.95,582.472,-9.11358
1681.27,582.872,-9.11155
1681.59,583.272,-9.11357
1681.914,583.672,-9.11409
1682.24,584.072,-9.11527
1682.56,584.472,-9.11875
1682.883,584.872,-9.12167
1683.21,585.272,-9.12733
1683.53,585.672,-9.13023
1683.85,586.072,-9.1338
1684.17,586.472,-9.13569
1684.5,586.872,-9.13633
1684.818,587.272,-9.13823
1685.14,587.672,-9.14131
1685.46,588.072,-9.1427
1685.79,588.472,-9.14604
1686.11,588.872,-9.14644
1686.43,589.272,-9.14597
1686.75,589.672,-9.14738
1687.07,590.072,-9.14878
1687.4,590.472,-9.1501
1687.719,590.872,-9.15336
1688.04,591.272,-9.15426
1688.36,591.672,-9.15585
1688.68,592.072,-9.15876
1689,592.472,-9.16002
1689.33,592.872,-9.16334
1689.648,593.272,-9.16534
1689.97,593.672,-9.16241
1690.29,594.072,-9.1626
1690.61,594.472,-9.16136
1690.93,594.872,-9.15979
1691.26,595.272,-9.15742
1691.58,595.672,-9.15563
1691.9,596.072,-9.15335
1692.22,596.472,-9.1505
1692.54,596.872,-9.14749
1692.86,597.272,-9.14415
1693.185,597.672,-9.13866
1693.51,598.072,-9.13687
1693.83,598.472,-9.13266
1694.15,598.872,-9.12824
1694.47,599.272,-9.1242
1694.79,599.672,-9.11944
1695.11,600.072,-9.11188
1695.43,600.472,-9.10604
1695.75,600.872,-9.09974
1696.08,601.272,-9.09136
1696.4,601.672,-9.08591
1696.72,602.072,-9.07714
1697.04,602.472,-9.06869
1697.36,602.872,-9.05815
1697.68,603.272,-9.04753
1698,603.672,-9.04002
1698.32,604.072,-9.03377
1698.64,604.472,-9.02542
1698.96,604.872,-9.01698
1699.28,605.272,-9.00726
1699.6,605.672,-8.99644
1699.93,606.072,-8.98979
1700.25,606.472,-8.97764
1700.57,606.872,-8.96572
1700.889,607.272,-8.95061
1701.21,607.672,-8.939
1701.53,608.072,-8.92571
1701.852,608.472,-8.9124
1702.17,608.872,-8.89726
1702.49,609.272,-8.87999
1702.815,609.672,-8.86404
1703.136,610.072,-8.8484
1703.457,610.472,-8.82995
1703.78,610.872,-8.81345
1704.1,611.272,-8.79512
1704.42,611.672,-8.77516
1704.74,612.072,-8.75621
1705.06,612.472,-8.73895
1705.38,612.872,-8.72068
1705.71,613.272,-8.70218
1706.03,613.672,-8.67873
1706.35,614.072,-8.65738
1706.67,614.472,-8.63666
1706.99,614.872,-8.6171
1707.31,615.272,-8.59528
1707.63,615.672,-8.57016
1707.95,616.072,-8.54566
1708.27,616.472,-8.5207
1708.59,616.872,-8.4977
1708.91,617.272,-8.47101
1709.23,617.672,-8.44618
1709.55,618.072,-8.4182
1709.88,618.472,-8.3917
1710.198,618.872,-8.36685
1710.52,619.272,-8.34045
1710.84,619.672,-8.31293
1711.164,620.072,-8.28328
1711.49,620.472,-8.25425
1711.81,620.872,-8.21955
1712.13,621.272,-8.18961
1712.451,621.672,-8.15539
1712.77,622.072,-8.12644
1713.09,622.472,-8.09167
1713.42,622.872,-8.05826
1713.738,623.272,-8.02899
1714.059,623.672,-7.99382
1714.38,624.072,-7.95875
1714.7,624.472,-7.92305
1715.02,624.872,-7.88889
1715.35,625.272,-7.85166
1715.67,625.672,-7.81542
1715.99,626.072,-7.77697
1716.312,626.472,-7.73898
1716.63,626.872,-7.69702
1716.957,627.272,-7.66008
1717.28,627.672,-7.6179
1717.602,628.072,-7.57785
1717.926,628.472,-7.53627
1718.25,628.872,-7.49713
1718.571,629.272,-7.45639
1718.89,629.672,-7.4183
1719.216,630.072,-7.37438
1719.54,630.472,-7.33014
1719.861,630.872,-7.28357
1720.18,631.272,-7.239
1720.51,631.672,-7.19738
1720.83,632.072,-7.15485
1721.15,632.472,-7.11046
1721.48,632.872,-7.0641
1721.8,633.272,-7.01888
1722.123,633.672,-6.97311
1722.45,634.072,-6.93085
1722.77,634.472,-6.88564
1723.09,634.872,-6.84116
1723.42,635.272,-6.7963
1723.74,635.672,-6.75159
1724.064,636.072,-6.70543
1724.39,636.472,-6.65786
1724.71,636.872,-6.61091
1725.04,637.272,-6.56231
1725.36,637.672,-6.51295
1725.69,638.072,-6.46591
1726.011,638.472,-6.41753
1726.34,638.872,-6.36978
1726.66,639.272,-6.32428
1726.99,639.672,-6.27904
1727.31,640.072,-6.23252
1727.63,640.472,-6.18707
1727.958,640.872,-6.14031
1728.28,641.272,-6.09223
1728.61,641.672,-6.05096
1728.93,642.072,-6.00779
1729.26,642.472,-5.96247
1729.58,642.872,-5.92006
1729.91,643.272,-5.87669
1730.235,643.672,-5.83053
1730.56,644.072,-5.78726
1730.88,644.472,-5.73841
1731.21,644.872,-5.69134
1731.534,645.272,-5.64579
1731.86,645.672,-5.5983
1732.18,646.072,-5.55129
1732.51,646.472,-5.50278
1732.83,646.872,-5.45702
1733.16,647.272,-5.41029
1733.49,647.672,-5.36516
1733.81,648.072,-5.32001
1734.14,648.472,-5.27376
1734.47,648.872,-5.22695
1734.79,649.272,-5.1832
1735.12,649.672,-5.13649
1735.45,650.072,-5.09285
1735.77,650.472,-5.04911
1736.1,650.872,-5.00476
1736.43,651.272,-4.95861
1736.76,651.672,-4.90987
1737.08,652.072,-4.86107
1737.41,652.472,-4.81196
1737.74,652.872,-4.76101
1738.065,653.272,-4.71469
1738.392,653.672,-4.67377
1738.72,654.072,-4.63203
1739.05,654.472,-4.58832
1739.37,654.872,-4.54809
1739.7,655.272,-4.49936
1740.03,655.672,-4.45329
1740.36,656.072,-4.40664
1740.687,656.472,-4.36226
1741.02,656.872,-4.31957
1741.34,657.272,-4.27358
1741.67,657.672,-4.2266
1742,658.072,-4.17913
1742.33,658.472,-4.1296
1742.66,658.872,-4.08435
1742.991,659.272,-4.04435
1743.32,659.672,-3.99802
1743.65,660.072,-3.9552
1743.98,660.472,-3.91018
1744.31,660.872,-3.86691
1744.64,661.272,-3.82245
1744.97,661.672,-3.78247
1745.3,662.072,-3.74566
1745.63,662.472,-3.7073
1745.96,662.872,-3.66725
1746.29,663.272,-3.62959
1746.62,663.672,-3.59556
1746.95,664.072,-3.56284
1747.28,664.472,-3.5273
1747.61,664.872,-3.49382
1747.94,665.272,-3.46128
1748.27,665.672,-3.43019
1748.61,666.072,-3.40321
1748.937,666.472,-3.37571
1749.27,666.872,-3.34999
1749.6,667.272,-3.32486
1749.93,667.672,-3.30317
1750.266,668.072,-3.28139
1750.6,668.472,-3.25688
1750.93,668.872,-3.23419
1751.26,669.272,-3.21755
1751.6,669.672,-3.20428
1751.93,670.072,-3.18956
1752.26,670.472,-3.17286
1752.6,670.872,-3.15716
1752.93,671.272,-3.13953
1753.26,671.672,-3.12506
1753.59,672.072,-3.11216
1753.93,672.472,-3.09344
1754.26,672.872,-3.07886
1754.59,673.272,-3.06691
1754.93,673.672,-3.05536
1755.26,674.072,-3.04447
1755.59,674.472,-3.03661
1755.93,674.872,-3.0286
1756.26,675.272,-3.0247
1756.6,675.672,-3.02056
1756.94,676.072,-3.01879
1757.27,676.472,-3.01801
1757.607,676.872,-3.01506
1757.94,677.272,-3.01302
1758.28,677.672,-3.01545
1758.61,678.072,-3.01602
1758.95,678.472,-3.01299
1759.28,678.872,-3.01512
1759.62,679.272,-3.01747
1759.96,679.672,-3.02216
1760.29,680.072,-3.0307
1760.63,680.472,-3.03615
1760.97,680.872,-3.04936
1761.3,681.272,-3.06777
1761.642,681.672,-3.08732
1761.98,682.072,-3.1091
1762.32,682.472,-3.13667
1762.65,682.872,-3.1708
1762.99,683.272,-3.20964
1763.331,683.672,-3.25521
1763.67,684.072,-3.30371
1764.01,684.472,-3.36109
1764.35,684.872,-3.42674
1764.69,685.272,-3.50038
1765.02,685.672,-3.57781
1765.36,686.072,-3.65595
1765.7,686.472,-3.73734
1766.04,686.872,-3.82825
1766.38,687.272,-3.91817
1766.72,687.672,-4.01098
1767.06,688.072,-4.1082
1767.399,688.472,-4.20724
1767.74,688.872,-4.30596
1768.077,689.272,-4.40601
1768.42,689.672,-4.50333
1768.76,690.072,-4.60387
1769.1,690.472,-4.70085
1769.43,690.872,-4.79857
1769.775,691.272,-4.89517
1770.114,691.672,-4.98845
1770.45,692.072,-5.07917
1770.795,692.472,-5.17064
1771.14,692.872,-5.2593
1771.48,693.272,-5.34684
1771.82,693.672,-5.43361
1772.16,694.072,-5.51778
1772.5,694.472,-5.59638
1772.84,694.872,-5.67693
1773.18,695.272,-5.75356
1773.519,695.672,-5.8322
1773.86,696.072,-5.90854
1774.2,696.472,-5.98439
1774.54,696.872,-6.06078
1774.88,697.272,-6.13137
1775.23,697.672,-6.20342
1775.568,698.072,-6.27493
1775.91,698.472,-6.34476
1776.252,698.872,-6.4143
1776.59,699.272,-6.48439
1776.94,699.672,-6.55117
1777.28,700.072,-6.62082
1777.62,700.472,-6.69011
1777.97,700.872,-6.75654
1778.31,701.272,-6.8232
1778.65,701.672,-6.88595
1779,702.072,-6.95167
1779.34,702.472,-7.01215
1779.68,702.872,-7.07594
1780.02,703.272,-7.13199
1780.37,703.672,-7.19608
1780.71,704.072,-7.25711
1781.05,704.472,-7.31637
1781.4,704.872,-7.38123
1781.74,705.272,-7.44221
1782.08,705.672,-7.49942
1782.43,706.072,-7.55764
1782.77,706.472,-7.61339
1783.12,706.872,-7.6696
1783.46,707.272,-7.72523
1783.81,707.672,-7.77521
1784.15,708.072,-7.83096
1784.499,708.472,-7.88446
1784.84,708.872,-7.93442
1785.19,709.272,-7.98834
1785.54,709.672,-8.03855
1785.88,710.072,-8.08838
1786.23,710.472,-8.13577
1786.57,710.872,-8.1855
1786.92,711.272,-8.23383
1787.27,711.672,-8.28025
1787.62,712.072,-8.3294
1787.96,712.472,-8.37205
1788.31,712.872,-8.41918
1788.66,713.272,-8.46411
1789,713.672,-8.50746
1789.35,714.072,-8.55067
1789.7,714.472,-8.59274
1790.05,714.872,-8.63415
1790.39,715.272,-8.67879
1790.74,715.672,-8.72061
1791.09,716.072,-8.76326
1791.44,716.472,-8.80357
1791.786,716.872,-8.8436
1792.13,717.272,-8.88116
1792.48,717.672,-8.9183
1792.83,718.072,-8.95518
1793.18,718.472,-8.99127
1793.53,718.872,-9.02845
1793.88,719.272,-9.06381
1794.23,719.672,-9.10038
1794.58,720.072,-9.13789
1794.93,720.472,-9.16843
1795.28,720.872,-9.1989
1795.64,721.272,-9.23115
1795.99,721.672,-9.2604
1796.34,722.072,-9.29113
1796.69,722.472,-9.31714
1797.04,722.872,-9.34119
1797.393,723.272,-9.36561
1797.744,723.672,-9.38631
1798.09,724.072,-9.40879
1798.45,724.472,-9.43261
1798.8,724.872,-9.44862
1799.15,725.272,-9.46813
1799.51,725.672,-9.48499
1799.86,726.072,-9.50169
1800.21,726.472,-9.51398
1800.56,726.872,-9.52717
1800.918,727.272,-9.54318
1801.27,727.672,-9.55526
1801.63,728.072,-9.56936
1801.98,728.472,-9.58203
1802.33,728.872,-9.59898
1802.69,729.272,-9.61502
1803.04,729.672,-9.62782
1803.4,730.072,-9.63743
1803.753,730.472,-9.64805
1804.11,730.872,-9.6602
1804.464,731.272,-9.66938
1804.82,731.672,-9.68242
1805.175,732.072,-9.69257
1805.532,732.472,-9.70268
1805.889,732.872,-9.71091
1806.25,733.272,-9.7199
1806.6,733.672,-9.73095
1806.96,734.072,-9.73892
1807.32,734.472,-9.75146
1807.68,734.872,-9.76291
1808.034,735.272,-9.77424
1808.39,735.672,-9.78877
1808.75,736.072,-9.79636
1809.11,736.472,-9.80618
1809.47,736.872,-9.81601
1809.83,737.272,-9.82576
1810.18,737.672,-9.83571
1810.54,738.072,-9.84243
1810.9,738.472,-9.8513
1811.26,738.872,-9.86022
1811.625,739.272,-9.8673
1811.99,739.672,-9.8783
1812.35,740.072,-9.88616
1812.71,740.472,-9.89314
1813.07,740.872,-9.899
1813.43,741.272,-9.90697
1813.79,741.672,-9.91461
1814.15,742.072,-9.92264
1814.514,742.472,-9.93268
1814.88,742.872,-9.94184
1815.24,743.272,-9.94846
1815.6,743.672,-9.95408
1815.96,744.072,-9.96435
1816.33,744.472,-9.97267
1816.69,744.872,-9.98061
1817.05,745.272,-9.9896
1817.42,745.672,-9.99511
1817.781,746.072,-10.00315
1818.14,746.472,-10.01085
1818.51,746.872,-10.01643
1818.873,747.272,-10.02091
1819.236,747.672,-10.02346
1819.6,748.072,-10.03015
1819.97,748.472,-10.0349
1820.33,748.872,-10.04089
1820.697,749.272,-10.04757
1821.06,749.672,-10.05434
1821.43,750.072,-10.06246
1821.795,750.472,-10.06692
1822.16,750.872,-10.07173
1822.53,751.272,-10.07761
1822.89,751.672,-10.0819
1823.26,752.072,-10.0871
1823.63,752.472,-10.09039
1824,752.872,-10.10104
1824.36,753.272,-10.10507
1824.732,753.672,-10.10811
1825.101,754.072,-10.11291
1825.47,754.472,-10.11544
1825.839,754.872,-10.11931
1826.21,755.272,-10.12387
1826.58,755.672,-10.12943
1826.949,756.072,-10.13265
1827.32,756.472,-10.13508
1827.69,756.872,-10.13833
1828.06,757.272,-10.14252
1828.43,757.672,-10.1474
1828.8,758.072,-10.15478
1829.18,758.472,-10.15853
1829.55,758.872,-10.16184
1829.92,759.272,-10.1633
1830.29,759.672,-10.1671
1830.66,760.072,-10.16985
1831.04,760.472,-10.172
1831.41,760.872,-10.17186
1831.782,761.272,-10.17498
1832.15,761.672,-10.1786
1832.53,762.072,-10.18129
1832.901,762.472,-10.1848
1833.28,762.872,-10.18821
1833.65,763.272,-10.19327
1834.03,763.672,-10.19766
1834.401,764.072,-10.20035
1834.78,764.472,-10.20434
1835.15,764.872,-10.20934
1835.53,765.272,-10.21645
1835.9,765.672,-10.21862
1836.28,766.072,-10.21807
1836.65,766.472,-10.22159
1837.03,766.872,-10.22228
1837.4,767.272,-10.22621
1837.78,767.672,-10.22971
1838.16,768.072,-10.23078
1838.54,768.472,-10.23185
1838.91,768.872,-10.23213
1839.29,769.272,-10.23445
1839.67,769.672,-10.23696
1840.05,770.072,-10.24012
1840.43,770.472,-10.24294
1840.8,770.872,-10.24612
1841.18,771.272,-10.24932
1841.56,771.672,-10.24893
1841.94,772.072,-10.25192
1842.32,772.472,-10.25569
1842.7,772.872,-10.25534
1843.083,773.272,-10.2576
1843.46,773.672,-10.2607
1843.842,774.072,-10.25839
1844.22,774.472,-10.26001
1844.6,774.872,-10.26533
1844.985,775.272,-10.26469
1845.37,775.672,-10.26812
1845.75,776.072,-10.27127
1846.13,776.472,-10.2726
1846.51,776.872,-10.27555
1846.896,777.272,-10.27489
1847.28,777.672,-10.28079
1847.661,778.072,-10.28099
1848.04,778.472,-10.28149
1848.43,778.872,-10.28383
1848.81,779.272,-10.28579
1849.19,779.672,-10.28566
1849.58,780.072,-10.2848
1849.96,780.472,-10.29088
1850.35,780.872,-10.29259
1850.73,781.272,-10.29138
1851.12,781.672,-10.29521
1851.504,782.072,-10.29839
1851.89,782.472,-10.29611
1852.27,782.872,-10.29801
1852.66,783.272,-10.30263
1853.05,783.672,-10.30416
1853.43,784.072,-10.30498
1853.82,784.472,-10.30732
1854.2,784.872,-10.30833
1854.59,785.272,-10.30863
1854.975,785.672,-10.311
1855.36,786.072,-10.30971
1855.75,786.472,-10.31379
1856.139,786.872,-10.31631
1856.53,787.272,-10.31844
1856.91,787.672,-10.32093
1857.3,788.072,-10.3217
1857.693,788.472,-10.32912
1858.08,788.872,-10.33319
1858.47,789.272,-10.33587
1858.86,789.672,-10.33647
1859.25,790.072,-10.33999
1859.64,790.472,-10.34069
1860.033,790.872,-10.33969
1860.423,791.272,-10.34316
1860.81,791.672,-10.34492
1861.206,792.072,-10.34453
1861.6,792.472,-10.34239
1861.99,792.872,-10.34396
1862.38,793.272,-10.35005
1862.77,793.672,-10.34937
1863.165,794.072,-10.35128
1863.56,794.472,-10.35087
1863.95,794.872,-10.3498
1864.34,795.272,-10.34867
1864.73,795.672,-10.3519
1865.13,796.072,-10.35227
1865.52,796.472,-10.3541
1865.91,796.872,-10.35686
1866.309,797.272,-10.35659
1866.7,797.672,-10.35843
1867.1,798.072,-10.35901
1867.491,798.472,-10.36334
1867.89,798.872,-10.36882
1868.28,799.272,-10.37165
1868.67,799.672,-10.36825
1869.07,800.072,-10.37127
1869.465,800.472,-10.37264
1869.86,800.872,-10.37391
1870.26,801.272,-10.37437
1870.65,801.672,-10.378
1871.05,802.072,-10.38018
1871.45,802.472,-10.38225
1871.84,802.872,-10.38471
1872.24,803.272,-10.38689
1872.64,803.672,-10.3851
1873.04,804.072,-10.38734
1873.43,804.472,-10.3864
1873.83,804.872,-10.38396
1874.23,805.272,-10.38806
1874.62,805.672,-10.39208
1875.02,806.072,-10.39414
1875.42,806.472,-10.39793
1875.82,806.872,-10.39787
1876.221,807.272,-10.39979
1876.62,807.672,-10.40065
1877.02,808.072,-10.40257
1877.42,808.472,-10.40389
1877.82,808.872,-10.40955
1878.22,809.272,-10.41245
1878.62,809.672,-10.41392
1879.02,810.072,-10.41956
1879.42,810.472,-10.42097
1879.82,810.872,-10.4218
1880.22,811.272,-10.42576
1880.63,811.672,-10.42527
1881.03,812.072,-10.42813
1881.43,812.472,-10.42968
1881.83,812.872,-10.43144
1882.23,813.272,-10.43462
1882.64,813.672,-10.43712
1883.04,814.072,-10.4411
1883.448,814.472,-10.44204
1883.93,814.872,-10.44392