File: Non-charring/PMMA/DBI_Lund/DBI-Lund_Cone_25kW_4.csv
Time,Mass,HRR,Back Surface Temperature
[s],[g],[kW/m2],[K]
0,27.74,1.21876,295.779
1,28.1353,-0.323945,295.789
2,29.0933,-1.2502,295.789
3,29.47264,-1.22405,295.776
4,29.3989,-1.2092,295.769
5,29.30403,-1.22672,295.84
6,29.203,0.388699,295.94
7,29.1907,1.57239,295.973
8,29.1738,1.70334,296.03
9,29.13442,2.21234,296.077
10,29.09569,2.79468,296.063
11,29.0482,2.88482,296.051
12,29.0171,2.65796,296.17
13,29.0113,2.29216,296.291
14,28.934,0.614988,296.32
15,28.7416,-0.260872,296.343
16,28.6003,-0.358649,296.38
17,28.5908,-1.37339,296.393
18,28.6079,-1.95409,296.453
19,28.6064,-2.68835,296.539
20,28.5812,-3.15646,296.568
21,28.5547,-3.13269,296.61
22,28.549,-3.18935,296.661
23,28.5625,-3.20536,296.675
24,28.5804,-3.16721,296.753
25,28.5743,-3.10213,296.897
26,28.5562,-4.25731,297.035
27,28.5448,-4.9416,297.088
28,28.5463,-4.86806,297.12
29,28.519,-4.72774,297.328
30,28.5033,-4.53352,297.436
31,28.5121,-4.356,297.584
32,28.5239,-4.38252,297.841
33,28.5159,-4.53829,297.941
34,28.5128,-4.65207,298.108
35,28.503,-3.4481,298.428
36,28.4729,-2.41029,298.573
37,28.4664,-2.25639,298.804
38,28.48095,-2.52501,299.194
39,28.4841,-2.85136,299.339
40,28.4742,-2.97362,299.577
41,28.4633,-3.05834,300.037
42,28.4298,-3.18551,300.22
43,28.4282,-3.22372,300.553
44,28.47959,-3.23299,301.108
45,28.5635,-3.07559,301.667
46,28.5914,-2.98098,301.876
47,28.6224,-2.8781,302.262
48,28.6986,-2.8485,302.973
49,28.68014,-2.64027,303.251
50,28.5042,-2.43204,303.714
51,28.37887,-2.25927,304.368
52,28.3618,-2.31775,304.59
53,28.3668,-2.3789,305.084
54,28.3731,-2.66436,305.883
55,28.3733,-2.96058,306.2
56,28.3655,-3.01839,306.692
57,28.3426,-3.12252,307.535
58,28.3528,-3.33452,307.85
59,28.3698,-3.40946,308.423
60,28.3605,-3.44852,309.412
61,28.3347,-3.47165,310.311
62,28.3349,-3.42199,310.607
63,28.3498,-3.36873,311.182
64,28.3422,-3.20387,312.091
65,28.3262,-3.03816,312.486
66,28.3274,-3.04937,313.1
67,28.3337,-3.04685,314.117
68,28.3438,-1.47969,314.495
69,28.3389,-0.437372,315.143
70,28.3443,-0.201258,316.157
71,28.3943,0.0664146,316.536
72,28.524,0.129521,317.166
73,28.6599,-0.0416667,318.201
74,28.7427,-1.9767,318.657
75,28.7447,-3.01337,319.283
76,28.7081,-2.98034,320.505
77,28.6875,-3.01085,321.611
78,28.6793,-3.06876,321.981
79,28.6814,-3.10398,322.731
80,28.6795,-3.20852,323.884
81,28.6821,-3.21273,324.286
82,28.6742,-3.1748,325.002
83,28.6677,-1.73907,326.194
84,28.6487,-0.840346,326.675
85,28.6443,-0.817749,327.326
86,28.6493,-0.762481,328.564
87,28.6575,-1.90642,329.039
88,28.6598,-2.69886,329.73
89,28.6479,-2.60446,330.989
90,28.6515,-1.68748,331.493
91,28.6358,-1.10297,332.266
92,28.63713,-0.419719,333.451
93,28.6515,0.224004,334.672
94,28.6509,0.363581,335.21
95,28.6571,-1.14072,335.984
96,28.6571,-2.00043,337.266
97,28.6454,-2.08489,337.734
98,28.6379,-2.16443,338.558
99,28.6277,-2.23252,339.813
100,28.6134,-2.16598,340.256
101,28.5814,-2.1144,341.151
102,28.5816,-2.09714,342.415
103,28.6052,-2.00009,342.929
104,28.6144,-1.97364,343.703
105,28.5792,-2.26979,345.073
106,28.5566,-3.83125,345.597
107,28.5813,-4.81122,346.444
108,28.6041,-5.0457,347.762
109,28.5946,1.66323,349.092
110,28.5835,6.00707,349.599
111,28.5693,21.358,350.084
112,28.5097,50.1879,351.337
113,28.41124,85.9729,352.037
114,28.4174,98.5024,352.954
115,28.5021,115.586,354.513
116,28.5142,148.212,355.092
117,28.4682,161.892,355.958
118,28.4304,182.888,357.304
119,28.4073,216.237,357.799
120,28.3775,222.045,358.672
121,28.3324,238.362,360.014
122,28.2807,268.177,360.591
123,28.2453,276.012,361.379
124,28.2004,282.809,362.8
125,28.1581,295.463,364.232
126,28.1031,304.519,364.773
127,28.0415,316.985,365.653
128,27.9959,322.756,367.079
129,27.9514,323.734,367.601
130,27.88161,323.817,368.456
131,27.8309,317.967,369.918
132,27.7953,315.576,370.447
133,27.7492,317.122,371.248
134,27.6877,323.745,372.777
135,27.6222,328.811,373.383
136,27.5469,329.011,374.179
137,27.4778,328.321,375.624
138,27.4321,329.523,376.149
139,27.3885,328.105,377.006
140,27.33531,327.831,378.25
141,27.2819,327.911,379.4
142,27.2331,325.34,379.883
143,27.16635,328.498,380.571
144,27.108,329.457,381.727
145,27.0538,330.309,382.142
146,26.9939,334.824,382.752
147,26.93694,340.034,383.635
148,26.8725,346.1,383.994
149,26.79129,341.086,384.46
150,26.6931,341.831,385.165
151,26.6107,344.878,385.458
152,26.54771,346.607,385.797
153,26.4734,350.204,386.316
154,26.3924,354.747,386.518
155,26.319,354.451,386.771
156,26.2662,356.716,387.185
157,26.2114,360.798,387.602
158,26.1345,356.745,387.765
159,26.04517,352.03,387.988
160,25.9882,358.436,388.363
161,25.9426,363.787,388.525
162,25.8858,363.917,388.547
163,25.79666,355.823,389.293
164,25.7746,360.081,389.546
165,25.7156,366.317,389.764
166,25.6487,363.379,390.207
167,25.5825,358.559,390.434
168,25.5144,363.982,390.776
169,25.451,363.459,391.409
170,25.386,360.9,391.692
171,25.3172,364.816,392.062
172,25.2705,371.936,392.722
173,25.23097,377.315,393.432
174,25.1715,368.956,393.762
175,25.0956,371.489,394.289
176,25.0471,383.811,395.057
177,25.00406,386.252,395.35
178,24.9448,384.31,395.408
179,24.8256,376.112,396.649
180,24.75616,379.253,397.019
181,24.7023,376.75,397.522
182,24.6568,370.855,398.441
183,24.5958,368.491,398.837
184,24.5261,372.256,399.402
185,24.4574,375.736,400.339
186,24.4054,378.19,400.738
187,24.3518,381.818,401.284
188,24.2885,382.461,402.202
189,24.217,381.126,403.141
190,24.1512,374.695,403.563
191,24.0991,371.044,404.192
192,24.0414,372.558,405.153
193,23.9712,372.999,405.518
194,23.8905,380.279,406.068
195,23.817,387.675,407.085
196,23.7645,393.002,407.517
197,23.7153,390.333,408.09
198,23.6621,388.127,409.097
199,23.577,389.843,409.531
200,23.4987,388.243,410.068
201,23.4564,385.547,411.081
202,23.39984,384.704,411.53
203,23.3177,386.981,412.125
204,23.2315,390.492,413.17
205,23.1795,391.493,413.574
206,23.13171,386.392,414.142
207,23.0729,381.141,415.16
208,23.0061,381.024,416.287
209,22.9205,392.708,416.793
210,22.8408,401.754,417.317
211,22.7728,401.982,418.301
212,22.7063,400.815,418.742
213,22.6222,400.124,419.324
214,22.5522,393.683,420.359
215,22.5059,388.38,420.82
216,22.4557,389.893,421.403
217,22.3931,386.285,422.429
218,22.3137,383.696,422.864
219,22.2358,394.85,423.511
220,22.1797,398.452,424.537
221,22.1272,394.527,424.951
222,22.0558,401.333,425.552
223,21.9979,402.491,426.547
224,21.9549,399.944,427.557
225,21.8963,404.622,427.975
226,21.8035,400.983,428.574
227,21.7177,396.587,429.588
228,21.663,397.428,430.011
229,21.605,403.474,430.585
230,21.5384,403.304,431.625
231,21.4841,399.72,432.082
232,21.404,399.279,432.662
233,21.3167,405.147,433.674
234,21.23795,409.905,434.11
235,21.1616,402.753,434.709
236,21.102,399.429,435.159
237,21.0378,411.24,435.901
238,20.94776,411.3,437.002
239,20.882,407.366,438.037
240,20.8301,414.388,438.481
241,20.7732,407.618,439.055
242,20.71,400.208,440.083
243,20.631,401.311,440.495
244,20.5419,412.744,441.042
245,20.4791,415.263,442.056
246,20.43833,410.796,442.512
247,20.3794,407.264,443.104
248,20.3083,407.729,444.054
249,20.23073,408.235,444.439
250,20.1614,408.701,445.022
251,20.1163,413.047,446.025
252,20.0575,415.362,446.461
253,19.9812,416.283,446.986
254,19.9115,413.458,447.949
255,19.8458,411.265,448.947
256,19.7681,414.844,449.373
257,19.6645,411.367,449.98
258,19.5848,407.105,450.965
259,19.5196,409.208,451.396
260,19.4547,421.924,451.892
261,19.3868,429,452.909
262,19.3201,426.473,453.395
263,19.2621,417.271,453.98
264,19.1949,415.933,455.011
265,19.1026,418.574,455.45
266,19.0203,415.361,455.977
267,18.96024,420.01,456.951
268,18.8974,429.973,457.401
269,18.8198,430.134,457.947
270,18.747,427.681,458.914
271,18.6886,431.074,459.904
272,18.6281,432.808,460.301
273,18.55167,442.124,460.838
274,18.46739,442.403,461.821
275,18.3898,437.246,462.26
276,18.3287,437.267,462.834
277,18.266,445.025,463.767
278,18.1811,451.945,464.17
279,18.0725,447.284,464.67
280,18.0088,446.088,465.653
281,17.9631,448.151,466.125
282,17.8884,450.28,466.666
283,17.8125,445.29,467.621
284,17.724,439.113,468.04
285,17.6256,432.46,468.569
286,17.55782,429.657,469.52
287,17.5103,434.01,470.441
288,17.4564,439.012,470.852
289,17.3745,451.763,471.439
290,17.2681,457.74,472.475
291,17.1822,457.369,472.929
292,17.12591,461.09,473.482
293,17.062,461.157,474.462
294,16.9703,460.379,474.893
295,16.8793,460.287,475.439
296,16.8191,466.508,476.387
297,16.7514,471.345,476.791
298,16.66074,461.835,477.311
299,16.5874,462.518,478.256
300,16.5252,472.659,478.691
301,16.4549,469.046,479.179
302,16.3728,470.775,480.107
303,16.291,477.892,481.073
304,16.2147,482.026,481.518
305,16.1372,482.444,481.983
306,16.04559,477.925,482.86
307,15.9577,475.352,483.274
308,15.8703,478.695,483.814
309,15.784,484.004,484.784
310,15.6927,488.032,485.215
311,15.6174,486.918,485.717
312,15.5608,485.947,486.624
313,15.4893,487.968,487.03
314,15.3885,489.778,487.557
315,15.3093,487.502,488.494
316,15.2456,486.005,488.891
317,15.1679,492.399,489.407
318,15.0723,496.695,490.335
319,14.9739,496.33,490.76
320,14.8967,494.763,491.241
321,14.8302,496.643,492.15
322,14.7579,498.25,493.089
323,14.67903,492.632,493.507
324,14.5843,492.385,494.063
325,14.51,491.292,495.003
326,14.4393,487.504,495.422
327,14.3583,482.323,495.95
328,14.266,482.641,496.947
329,14.1903,490.24,497.395
330,14.1238,488.393,497.99
331,14.0355,490.934,499.009
332,13.956,495.708,499.389
333,13.873,507.585,499.989
334,13.7676,505.807,501.132
335,13.6971,498.4,501.578
336,13.64387,503.483,502.163
337,13.5551,511.365,503.203
338,13.4556,513.971,504.272
339,13.347,506.578,504.756
340,13.2507,502.122,505.359
341,13.1889,498.998,506.528
342,13.1337,498.665,506.994
343,13.0528,507.435,507.655
344,12.9643,508.714,508.741
345,12.8932,507.329,509.182
346,12.83353,519.617,509.778
347,12.7602,513.833,510.786
348,12.6756,500.911,511.193
349,12.5856,498.367,511.87
350,12.5015,502.57,513.013
351,12.4259,511.195,513.503
352,12.3395,521.009,514.166
353,12.2118,522.06,515.297
354,12.14387,519.159,516.461
355,12.0956,519.016,516.983
356,11.9972,519.196,517.659
357,11.8909,517.01,518.843
358,11.8012,516.612,519.356
359,11.7369,516.414,520.065
360,11.6811,523.1,521.29
361,11.6025,530.866,521.782
362,11.5142,522.902,522.496
363,11.42249,522.261,523.717
364,11.3398,526.503,524.205
365,11.24967,522.484,524.847
366,11.1403,529.498,526.032
367,11.0524,538.827,526.58
368,10.9799,540.802,527.223
369,10.8934,531.956,528.467
370,10.8017,526.765,529.73
371,10.7183,527.263,530.192
372,10.6407,529.635,530.927
373,10.5581,541.923,532.232
374,10.4567,551.562,532.811
375,10.3505,549.599,533.528
376,10.2696,540.047,534.784
377,10.2049,535.803,535.341
378,10.1183,543.328,535.968
379,10.0248,550.864,537.177
380,9.928996,552.811,537.737
381,9.841914,544.535,538.501
382,9.772226,550.539,539.846
383,9.687791,558.839,540.438
384,9.58538,557.066,541.222
385,9.465122,552.526,542.708
386,9.379429,553.205,544.096
387,9.302713,568.842,544.65
388,9.194606,580.414,545.667
389,9.073844,573.13,547.638
390,8.964548,565.358,548.563
391,8.873706,559.524,551.001
392,8.783629,566.489,556.668
393,8.694399,576.508,559.587
394,8.591608,572.415,562.796
395,8.495874,567.306,568.213
396,8.406447,569.007,570.453
397,8.318816,574.014,572.884
398,8.229973,571.855,577.029
399,8.13843,568.301,578.89
400,8.056941,575.366,580.772
401,7.965101,580.446,583.939
402,7.866698,582.051,586.712
403,7.788256,577.014,587.905
404,7.707247,575.837,589.221
405,7.607607,581.391,591.467
406,7.503175,582.802,592.474
407,7.409009,590.318,593.601
408,7.323638,592.689,595.513
409,7.23445,593.212,596.347
410,7.119984,597.147,597.263
411,7.006576,600.54,598.845
412,6.936218,603.511,599.524
413,6.85779,599.479,600.428
414,6.740359,592.434,601.997
415,6.630742,589.046,602.694
416,6.546931,589.709,603.529
417,6.457897,584.675,605.038
418,6.351232,579.006,606.449
419,6.242419,570.05,607.064
420,6.149877,583.506,607.846
421,6.062402,594.157,609.318
422,5.965044,589.412,609.936
423,5.860878,585.122,610.65
424,5.76554,595.206,611.942
425,5.686766,609.57,612.558
426,5.590808,603.137,613.362
427,5.468135,596.349,614.837
428,5.374384,599.878,615.973
429,5.306792,603.693,616.826
430,5.209493,601.04,617.538
431,5.120317,598.771,618.147
432,5.002912,604.078,618.988
433,4.905349,596.054,620.45
434,4.826108,584.164,621.893
435,4.732722,591.837,622.578
436,4.632814,605.991,623.399
437,4.53872,613.169,624.922
438,4.451381,603.504,625.636
439,4.364487,590.969,626.478
440,4.268799,598.728,628.061
441,4.16012,605.856,628.791
442,4.071621,590.847,629.68
443,3.991099,592.019,631.306
444,3.895083,604.405,632.079
445,3.782762,606.241,632.991
446,3.685391,603.812,634.705
447,3.609403,599.371,635.506
448,3.524994,588.979,636.601
449,3.42086,578.126,638.741
450,3.310461,572.31,639.759
451,3.231281,569.676,641.057
452,3.160342,577.917,643.441
453,3.061481,585.092,646.038
454,2.965599,585.7,647.36
455,2.890804,568.941,648.821
456,2.820042,566.14,651.553
457,2.736001,574.72,652.81
458,2.628798,562.352,654.476
459,2.538994,562.327,657.965
460,2.475627,564.357,659.709
461,2.39727,557.38,662.109
462,2.286236,537.838,666.261
463,2.206634,517.329,668.046
464,2.138927,521.378,670.431
465,2.041269,530.099,674.544
466,1.951816,516.944,678.663
467,1.886611,517.17,680.717
468,1.818281,514.418,684.367
469,1.724355,498.68,690.569
470,1.633744,487.101,693.199
471,1.574938,465.057,696.377
472,1.529422,434.013,702.189
473,1.458897,407.597,704.891
474,1.382545,396.06,709.03
475,1.35462,383.749,717.285
476,1.313218,357.688,721.202
477,1.234096,343.924,730.124
478,1.178377,334.906,753.216
479,1.141937,321.04,777.565
480,1.10519,307.388,798.338
481,1.035442,303.15,811.812
482,1.01064,286.735,823.752
483,0.980225,280.625,833.627
484,0.938281,274.372,848.93
485,0.882324,263.807,860.634
486,0.839532,258.516,865.468
487,0.798562,256.806,869.994
488,0.761921,251.29,876.302
489,0.715866,243.145,878.321
490,0.670948,238.484,881.216
491,0.639498,234.906,892.867
492,0.611502,224.01,900.3
493,0.586233,217.524,900.683
494,0.558735,209.759,901.396
495,0.49929,197.694,911.97
496,0.494944,191.498,918.422
497,0.468695,185.927,926.354
498,0.450105,177.11,928.373
499,0.431305,173.29,929.015
500,0.394683,167.158,932.171
501,0.363897,157.33,940.345
502,0.348781,154.171,945.422
503,0.317482,150.365,953.947
504,0.276274,138.464,964.544
505,0.257671,126.687,967.342
506,0.247483,122.904,968.585
507,0.231654,118.948,969.685
508,0.209694,110.723,969.73
509,0.192242,107.029,969.261
510,0.179088,104.362,967.801
511,0.162394,98.7657,966.957
512,0.139846,95.1482,965.236
513,0.112382,92.2818,962.409
514,0.104483,85.2518,961.221
515,0.106258,80.4765,957.209
516,0.094224,74.986,950.052
517,0.097622,65.9071,945.521
518,0.080997,62.6689,944.48
519,0.054992,60.5678,941.235
520,0.073249,52.506,934.715
521,0.082733,45.5542,931.577
522,0.055099,42.5753,929.774
523,0.038569,40.076,926.384
524,0.054631,36.4811,924.717
525,0.067,35.3125,921.051
526,0.056129,32.3747,907.195
527,0.048609,27.2172,898.085
528,0.041904,24.8775,885.393
529,0.017161,23.1866,862.568
530,-0.024427,20.4167,853.043
531,-0.055708,19.1322,842.391
532,-0.059734,16.7476,823.198
533,-0.063897,13.167,807.041
534,-0.116602,11.8534,800.354
535,-0.136774,10.6808,794.136
536,-0.053982,8.29343,784.256
537,0.008092,6.3354,779.978
538,0.025665,5.66207,774.693
539,0.032411,5.74743,765.273
540,0.016854,4.45377,761.231
541,-0.005754,3.25995,757.875
542,0.002447,3.03513,751.982
543,0.021063,2.76432,749.489
544,0.005709,2.66683,747.186
545,0.008141,1.55454,742.435
546,0.023553,0.845291,740.119
547,0.001209,1.11815,738.123
548,-0.02831,1.45759,734.906
549,0.015649,0.287734,732.14
550,0.044148,-1.11297,730.879
551,0.012327,-1.2941,729.829
552,-0.004544,-1.46233,727.459
553,-0.004949,-1.48225,726.136
554,-0.010402,-1.38742,725.292
555,-0.011252,-1.3233,724.171
556,-0.005959,-1.03521,723.827
557,-0.008664,-0.752296,723.081
558,-0.014663,-0.442236,721.658
559,-0.011659,-0.173986,721.004
560,-0.00911,-0.181883,719.85
561,-0.013086,-0.412093,718.364
562,-0.012385,-0.770042,717.95
563,-0.004832,-0.914063,717.433
564,-0.000519,-1.40315,716.704
565,-0.006361,-1.60351,716.477
566,-0.011536,-1.39894,716.629
567,-0.004034,-1.91834,716.762
568,-0.014591,-3.1579,716.909
569,-0.005775,-3.81236,717.037
570,0.018082,-3.77926,716.602
571,0.01739,-3.70255,715.689
572,0.013953,-3.4702,715.22
573,0.018251,-3.33278,714.496
574,0.009623,-2.19583,713.44
575,-0.012175,-0.537952,713.092
576,-0.006178,0.02982264,712.434
577,0.021808,-0.197964,712.022
578,0.013625,-0.688916,712.271
579,-0.002367,-0.927474,712.124
580,-0.001042,-1.05828,711.628
581,0.002633,-1.20457,711.294
582,0.00595,-1.20813,710.441
583,0.007663,-1.10842,709.38
584,0.01,-0.762067,708.431
585,0.003033,-0.518168,707.805
586,0.014294,-0.320264,707.198
587,0.01369,-0.481833,706.328
588,-0.011537,0.270337,706.099
589,-0.019,1.2434,706.103
590,-0.018479,1.18319,705.898
591,-0.01277,1.31205,705.705
592,0.001062,1.48009,706.128
593,0.004732,1.73925,706.714
594,-0.000608,2.13232,706.903
595,-0.003609,2.33374,707.075
596,-0.015621,2.14313,707.874
597,-0.02926,1.7092,708.448
598,-0.020182,1.46068,707.627
599,-0.021663,1.29728,706.556
600,-0.033,1.16605,705.934
601,-0.019167,1.19468,705.654
602,-0.012687,0.152441,705.793
603,-0.040109,-0.596762,704.987
604,-0.036115,-0.503853,704.162
605,-0.019589,-0.272331,703.778
606,-0.031621,-0.325247,703.326
607,-0.044198,-0.828288,703.228
608,-0.030964,-0.995216,703.639
609,-0.042325,-1.11304,703.701
610,-0.063434,-1.2184,703.436
611,-0.050482,-1.21004,703.373
612,-0.046921,-1.07195,703.918
613,-0.041331,-0.750581,704.534
614,-0.02759,-0.584302,704.533
615,-0.039429,-0.646892,704.612
616,-0.056205,-0.487937,704.799
617,-0.044541,-0.295796,704.893
618,-0.033107,-0.05221633,704.671
619,-0.040731,-0.227204,703.932
620,-0.044432,-0.618318,703.436
621,-0.036711,-2.12266,702.83
622,-0.033102,-3.56604,701.651
623,-0.040798,-4.66247,701.084
624,-0.059226,-5.54884,701.01
625,-0.054554,-4.09178,700.85
626,-0.023506,-2.52476,700.767
627,-0.018604,-2.4502,700.784
628,-0.039307,-2.77828,701.102
629,-0.043657,-3.14951,701.366
630,-0.043754,-3.22827,701.402
631,-0.044804,-3.44224,701.306
632,-0.045807,-3.6131,701.19
633,-0.044655,-3.58308,701.555
634,-0.029766,-3.36869,702.09
635,-0.039505,-3.12025,702.052
636,-0.056065,-3.04535,701.794
637,-0.046057,-2.77589,702.391
638,-0.041583,-2.67972,702.772
639,-0.053312,-3.16258,702.647
640,-0.057447,-3.54377,702.742
641,-0.045578,-3.64904,702.446
642,-0.042162,-3.66063,702.041
643,-0.037663,-3.6325,702.068
644,-0.025116,-3.462,701.548
645,-0.024842,-3.17926,701.064
646,-0.038529,-3.10512,700.769