File: Non-charring/PMMA/DBI_Lund/DBI-Lund_Cone_50kW_2.csv
Time,Mass,HRR,Back Surface Temperature
[s],[g],[kW/m2],[K]
0,73.92,2.01242,0
1,73.8724,1.84591,0
2,73.8605,1.72763,0
3,73.888,1.68914,0
4,73.9061,1.35916,0
5,73.9158,1.10872,0
6,73.93073,1.05104,0
7,73.9305,1.228,0
8,73.929,1.3436,0
9,73.907,1.33603,0
10,73.895,0.671672,0
11,73.9201,0.257613,0
12,73.9396,0.220433,0
13,73.9329,0.169851,0
14,73.9201,0.23504,0
15,73.9101,0.411679,0
16,73.909,0.472693,0
17,73.8995,0.625646,0
18,73.8598,0.470405,0
19,73.8562,0.375899,0
20,73.868,-0.115303,0
21,73.8839,-1.48085,0
22,73.8929,-2.03853,0
23,73.8818,3.481,0
24,73.8653,24.1436,0
25,73.8504,33.0157,0
26,73.85147,62.2287,0
27,73.8249,114.79,0
28,73.771,131.486,0
29,73.6915,185.605,0
30,73.588,262.55,0
31,73.4634,332.289,0
32,73.32073,348.884,0
33,73.1539,390.984,0
34,72.9537,452.226,0
35,72.7663,443.688,0
36,72.55811,461.88,0
37,72.3605,498.197,0
38,72.1851,482.241,0
39,71.9807,491.758,0
40,71.7609,524.872,0
41,71.5387,528.943,0
42,71.3276,551.112,0
43,71.0992,575.368,0
44,70.855,575.891,0
45,70.6126,588.656,0
46,70.3773,599.204,0
47,70.1364,606.416,0
48,69.893,591.625,0
49,69.6395,596.32,0
50,69.3798,611.936,0
51,69.1303,608.121,0
52,68.85937,641.193,0
53,68.59381,663.261,0
54,68.3583,654.829,0
55,68.1159,656.147,0
56,67.8607,662.245,0
57,67.6166,624.466,0
58,67.3739,636.804,0
59,67.0946,656.712,0
60,66.82858,635.674,0
61,66.6047,653.382,0
62,66.3746,635.342,0
63,66.1148,618.308,0
64,65.8663,629.378,0
65,65.6236,654.181,0
66,65.3568,668.754,0
67,65.075,655.908,0
68,64.7869,637.721,0
69,64.5408,636.002,0
70,64.29487,638.21,0
71,64.0226,640.456,0
72,63.7402,641.648,0
73,63.4717,669.3,0
74,63.2105,655.564,0
75,62.95377,641.534,0
76,62.7009,642.673,0
77,62.4036,665.687,0
78,62.1012,680.953,0
79,61.8564,677.898,0
80,61.6061,683.286,0
81,61.3352,667.7,0
82,61.0562,660.453,0
83,60.7715,678.263,0
84,60.4969,683.346,0
85,60.1991,683.688,0
86,59.899,693.364,0
87,59.6379,690.848,0
88,59.3675,688.539,0
89,59.083,669.073,0
90,58.789,681.424,0
91,58.4882,694.204,0
92,58.2069,662.508,0
93,57.9587,675.635,0
94,57.7062,694.606,0
95,57.44058,700.504,0
96,57.14891,694.948,0
97,56.83566,718.215,0
98,56.5447,738.675,0
99,56.2436,720.657,0
100,55.9502,715.513,0
101,55.6877,718.946,0
102,55.4157,718.705,0
103,55.1259,703.735,0
104,54.8377,695.27,0
105,54.5604,711.981,0
106,54.277,712.667,0
107,53.9491,714.572,0
108,53.6429,729.168,0
109,53.3818,740.612,0
110,53.0871,747.224,0
111,52.78358,738.597,0
112,52.4866,722.049,0
113,52.186,701.336,0
114,51.8829,692.687,0
115,51.5737,728.335,0
116,51.28384,749.924,0
117,51.0001,755.463,0
118,50.706,771.372,0
119,50.3954,731.152,0
120,50.1026,707.647,0
121,49.8053,737.932,0
122,49.4715,750.497,0
123,49.1684,750.91,0
124,48.8697,739.009,0
125,48.5454,754.284,0
126,48.247,766.604,0
127,47.94755,779.918,0
128,47.63226,740.085,0
129,47.3326,718.076,0
130,47.0183,764.762,0
131,46.6985,777.593,0
132,46.3746,774.134,0
133,46.0428,779.675,0
134,45.719,765.138,0
135,45.3966,802.268,0
136,45.0663,828.149,0
137,44.74911,779.473,0
138,44.4611,763.967,0
139,44.1656,770.149,0
140,43.8513,776.779,0
141,43.5262,781.492,0
142,43.1843,788.418,0
143,42.8333,787.64,0
144,42.5165,785.144,0
145,42.21117,789.51,0
146,41.8952,792.521,0
147,41.5758,776.658,0
148,41.2452,805.689,0
149,40.9133,825.74,0
150,40.5584,842.405,0
151,40.2391,792.031,0
152,39.9372,756.019,0
153,39.61215,805.471,0
154,39.2896,810.207,0
155,38.9524,800.453,0
156,38.6041,804.754,0
157,38.2445,813.194,0
158,37.8819,821.644,0
159,37.5661,809.217,0
160,37.2655,803.206,0
161,36.9395,802.901,0
162,36.5876,829.004,0
163,36.2326,843.591,0
164,35.8848,845.528,0
165,35.56286,819.827,0
166,35.237,849.44,0
167,34.909,869.079,0
168,34.5772,868.88,0
169,34.2193,839.803,0
170,33.8761,806.266,0
171,33.5216,797.448,0
172,33.1668,835.182,0
173,32.7957,885.883,0
174,32.4565,904.801,0
175,32.1248,858.27,0
176,31.7831,844.042,0
177,31.4306,856.448,0
178,31.0594,842.684,0
179,30.6924,830.391,0
180,30.3186,830.995,0
181,29.9242,843.807,0
182,29.5555,870.392,0
183,29.2139,862.785,0
184,28.8642,858.595,0
185,28.4904,867.374,0
186,28.1218,890.016,0
187,27.7404,903.032,0
188,27.35412,879.57,0
189,26.982,909.662,0
190,26.5852,937.12,0
191,26.2279,901.326,0
192,25.8726,875.74,0
193,25.491,876.35,0
194,25.1372,891.946,0
195,24.7638,899.898,0
196,24.3619,904.787,0
197,23.9831,929.291,0
198,23.5965,962.68,0
199,23.217,964.637,0
200,22.834,957.326,0
201,22.4637,957.036,0
202,22.0663,954.835,0
203,21.6521,958.893,0
204,21.2693,910.339,0
205,20.8883,948.375,0
206,20.5114,992.095,0
207,20.1118,1002.86,0
208,19.7319,999.448,0
209,19.3686,995.457,0
210,18.978,924.067,0
211,18.5687,896.14,0
212,18.18,917.047,0
213,17.7989,952.254,0
214,17.4098,952.815,0
215,17.0266,942.478,0
216,16.6252,942.88,0
217,16.2329,1004.86,0
218,15.8456,1016.3,0
219,15.4163,1006.44,0
220,14.9786,996.558,0
221,14.5528,986.746,0
222,14.1554,994.719,0
223,13.7766,996.683,0
224,13.4037,1000.59,0
225,13.0068,1015.37,0
226,12.4634,1015.36,0
227,12.0908,1075.22,0
228,11.6516,1118.8,0
229,11.2063,1040.14,0
230,10.7813,989.247,0
231,10.3503,1001.24,0
232,9.909084,1024.07,0
233,9.5104,1064.22,0
234,9.089602,1051.66,0
235,8.656347,1030.04,0
236,8.227741,984.145,0
237,7.789876,1081.58,0
238,7.344897,1139.82,0
239,6.914299,1043.27,0
240,6.505997,974.677,0
241,6.089211,963.205,0
242,5.673478,994.026,0
243,5.261146,976.501,0
244,4.86388,924.219,0
245,4.487407,885.171,0
246,4.13193,870.459,0
247,3.813247,840.762,0
248,3.520455,829.225,0
249,3.194262,799.861,0
250,2.868227,781.406,0
251,2.544943,781.581,0
252,2.243295,719.389,0
253,1.971895,640.819,0
254,1.709411,571.482,0
255,1.466641,552.506,0
256,1.26055,510.735,0
257,1.075921,438.691,0
258,0.898699,424.668,0
259,0.769302,436.814,0
260,0.654878,362.895,0
261,0.537071,344.67,0
262,0.42879,315.608,0
263,0.329506,263.581,0
264,0.241907,236.444,0
265,0.146186,215.816,0
266,0.066337,186.077,0
267,0.025105,172.765,0
268,-0.015878,160.515,0
269,-0.062645,139.301,0
270,-0.119539,117.791,0
271,-0.163773,108.875,0
272,-0.20793,98.3007,0
273,-0.230998,82.6468,0
274,-0.238268,76.3386,0
275,-0.270119,68.655,0
276,-0.282847,54.1509,0
277,-0.300841,48.7904,0
278,-0.326218,41.6719,0
279,-0.342332,30.9703,0
280,-0.340204,27.0071,0
281,-0.346023,22.9422,0
282,-0.358974,17.0489,0
283,-0.367832,14.9136,0
284,-0.375029,12.5251,0
285,-0.354394,9.2841,0
286,-0.33524,7.15438,0
287,-0.338934,6.61854,0
288,-0.337158,6.11834,0
289,-0.347354,5.22913,0
290,-0.364577,4.77706,0
291,-0.352728,4.32895,0
292,-0.35355,3.60097,0
293,-0.355005,3.27609,0
294,-0.357963,2.84574,0
295,-0.370198,2.28465,0
296,-0.361754,2.12457,0
297,-0.366236,1.97154,0
298,-0.390137,1.57016,0
299,-0.377212,1.35896,0
300,-0.380202,1.30861,0
301,-0.388994,1.29726,0
302,-0.375814,1.3121,0
303,-0.367851,1.36669,0
304,-0.376933,1.58029,0
305,-0.383314,1.63582,0
306,-0.38892,1.61362,0
307,-0.385497,1.51966,0
308,-0.3722,1.38758,0
309,-0.374838,1.3519,0
310,-0.386401,1.3464,0
311,-0.384772,1.43458,0
312,-0.400873,1.50472,0
313,-0.431139,1.61162,0
314,-0.444269,1.681,0
315,-0.42751,1.66558,0
316,-0.398423,1.55526,0
317,-0.393757,1.41954,0
318,-0.392303,1.37561,0
319,-0.396099,1.3927,0
320,-0.420041,1.47428,0
321,-0.424553,1.6541,0
322,-0.412354,1.76929,0
323,-0.402905,1.68683,0
324,-0.406378,1.53077,0
325,-0.429074,1.47145,0
326,-0.443713,1.41517,0
327,-0.432976,1.43604,0
328,-0.424574,1.50193,0
329,-0.430104,2.02164,0
330,-0.427261,2.48384,0
331,-0.424253,2.58806,0
332,-0.427695,2.51478,0
333,-0.437637,2.33148,0
334,-0.44285,2.26111,0
335,-0.441439,2.24525,0
336,-0.426,2.23899,0
337,-0.406073,2.21123,0
338,-0.415047,2.25129,0
339,-0.444709,2.45662,0
340,-0.452255,2.57258,0
341,-0.465598,2.57585,0
342,-0.491303,2.01896,0
343,-0.488657,1.53712,0
344,-0.465554,1.4958,0
345,-0.443073,1.49904,0
346,-0.440211,1.43716,0
347,-0.438122,1.39265,0
348,-0.442778,1.20605,0
349,-0.467336,1.08408,0
350,-0.479889,1.09988,0
351,-0.487591,0.962395,0
352,-0.48828,0.789965,0
353,-0.469255,0.740888,0
354,-0.456293,0.774797,0
355,-0.442633,0.822413,0
356,-0.45081,0.936146,0
357,-0.477466,1.00415,0
358,-0.493793,1.11169,0
359,-0.489461,0.647939,0
360,-0.485379,0.221341,0
361,-0.495339,0.129538,0
362,-0.501,0.0281044,0
363,-0.514054,0.004520147,0