File: Non-charring/PMMA/DBI_Lund/DBI-Lund_Cone_25kW_6.csv
Time,Mass,HRR,Back Surface Temperature
[s],[g],[kW/m2],[K]
0,27.45,14.0728,0
1,27.4396,12.2834,0
2,27.4182,11.072,0
3,27.39329,10.875,0
4,27.3802,10.2644,0
5,27.3934,9.18479,0
6,27.4048,7.41995,0
7,27.4057,6.74996,0
8,27.4012,5.32574,0
9,27.406,4.74881,0
10,27.3983,5.01591,0
11,27.4004,5.24067,0
12,27.4076,4.31644,0
13,27.4121,3.71586,0
14,27.4164,3.71356,0
15,27.3971,3.66162,0
16,27.3863,3.59818,0
17,27.39086,3.54657,0
18,27.393,3.1691,0
19,27.3861,2.90092,0
20,27.3781,2.78185,0
21,27.3925,2.66068,0
22,27.3945,2.68545,0
23,27.3974,2.68141,0
24,27.4041,1.37435,0
25,27.3985,0.48633,0
26,27.3827,0.429099,0
27,27.3773,1.89276,0
28,27.378,2.74674,0
29,27.378,2.84484,0
30,27.3805,3.03002,0
31,27.3756,3.36727,0
32,27.3681,3.47063,0
33,27.373,3.63259,0
34,27.384,3.55336,0
35,27.3811,3.45021,0
36,27.3833,3.31448,0
37,27.38323,3.10369,0
38,27.3835,1.46376,0
39,27.3737,0.587529,0
40,27.3766,1.94285,0
41,27.38265,1.20448,0
42,27.3811,0.296293,0
43,27.3794,0.239235,0
44,27.3753,0.22297,0
45,27.3605,0.234809,0
46,27.3681,0.312795,0
47,27.3889,0.519071,0
48,27.3865,0.617712,0
49,27.3679,0.739522,0
50,27.35184,0.969308,0
51,27.38321,1.08505,0
52,27.3989,2.58477,0
53,27.3877,3.74034,0
54,27.3761,3.91375,0
55,27.3576,3.7401,0
56,27.3691,3.45819,0
57,27.3986,3.08674,0
58,27.3966,3.00156,0
59,27.389,2.93777,0
60,27.3768,1.36979,0
61,27.3368,0.483642,0
62,27.3344,0.4446,0
63,27.3726,0.541421,0
64,27.3925,0.61783,0
65,27.3871,-0.727431,0
66,27.3805,-1.27113,0
67,27.374,-1.15782,0
68,27.3616,-0.914543,0
69,27.3666,-0.749361,0
70,27.3793,-0.736544,0
71,27.3811,0.381234,0
72,27.3692,0.787932,0
73,27.3574,0.628651,0
74,27.3603,0.624721,0
75,27.36964,0.465928,0
76,27.3761,0.460057,0
77,27.3704,0.515017,0
78,27.3589,0.502196,0
79,27.3742,0.458499,0
80,27.3831,0.44275,0
81,27.3716,0.430046,0
82,27.347,0.506996,0
83,27.3585,0.56275,0
84,27.3751,0.77562,0
85,27.39,2.50426,0
86,27.3887,3.41914,0
87,27.3725,3.67051,0
88,27.3673,3.86864,0
89,27.3661,3.96742,0
90,27.3456,4.02996,0
91,27.3271,4.06011,0
92,27.3274,3.99289,0
93,27.3319,3.92567,0
94,27.3472,3.5426,0
95,27.3572,4.63178,0
96,27.3425,5.43462,0
97,27.3336,5.28804,0
98,27.3494,5.05502,0
99,27.3548,5.01783,0
100,27.3447,5.16719,0
101,27.33,5.25641,0
102,27.3103,5.30752,0
103,27.3232,5.05074,0
104,27.3373,3.89297,0
105,27.3275,2.62976,0
106,27.3129,2.21208,0
107,27.2769,4.50489,0
108,27.2674,21.0436,0
109,27.273,30.1842,0
110,27.2743,58.3875,0
111,27.2568,101.74,0
112,27.2373,119.366,0
113,27.2107,144.909,0
114,27.1906,181.125,0
115,27.1542,190.13,0
116,27.1245,208.389,0
117,27.0848,242.647,0
118,27.0271,253.654,0
119,26.9606,266.083,0
120,26.9281,292.572,0
121,26.8985,315.21,0
122,26.85366,318.337,0
123,26.7897,327.725,0
124,26.7099,339.89,0
125,26.6648,345.924,0
126,26.631,350.634,0
127,26.5892,358.181,0
128,26.5297,355.459,0
129,26.478,355.468,0
130,26.4279,358.458,0
131,26.3703,358.263,0
132,26.2949,359.022,0
133,26.2242,359.232,0
134,26.1622,355.928,0
135,26.1069,366.504,0
136,26.0431,366.322,0
137,25.9948,366.389,0
138,25.9523,376.968,0
139,25.8931,386.964,0
140,25.8229,393.651,0
141,25.7424,392.925,0
142,25.6639,386.162,0
143,25.6397,393.61,0
144,25.5866,396.259,0
145,25.5206,397.766,0
146,25.4473,400.24,0
147,25.3875,396.568,0
148,25.33,392.692,0
149,25.2507,391.984,0
150,25.1862,393.157,0
151,25.1412,401.378,0
152,25.082,404.556,0
153,25.0022,404.066,0
154,24.9284,409.574,0
155,24.8772,409.677,0
156,24.82909,410.73,0
157,24.7723,404.081,0
158,24.70108,401.523,0
159,24.6458,404.343,0
160,24.5862,404.223,0
161,24.5096,408.716,0
162,24.439,413.523,0
163,24.3843,414.009,0
164,24.3312,409.843,0
165,24.2535,409.004,0
166,24.18105,412.761,0
167,24.1203,416.189,0
168,24.0524,417.52,0
169,23.9871,417.639,0
170,23.90932,416.48,0
171,23.8366,416.398,0
172,23.7793,416.909,0
173,23.7182,417.308,0
174,23.656,415.733,0
175,23.6042,415.133,0
176,23.5493,417.318,0
177,23.46974,423.045,0
178,23.38228,427.864,0
179,23.3153,428.76,0
180,23.2651,427.321,0
181,23.1972,424.032,0
182,23.1165,421.692,0
183,23.0243,425.281,0
184,22.9584,431.913,0
185,22.9141,429.964,0
186,22.8629,427.716,0
187,22.7855,433.404,0
188,22.696,436.052,0
189,22.6438,430.303,0
190,22.5923,434.212,0
191,22.5087,440.079,0
192,22.43407,438.781,0
193,22.394,438.851,0
194,22.3375,439.424,0
195,22.2645,440.976,0
196,22.1913,435.096,0
197,22.1079,431.758,0
198,22.03366,437.447,0
199,21.9749,440.439,0
200,21.9043,440.71,0
201,21.828,443.073,0
202,21.7495,443.838,0
203,21.7084,440.81,0
204,21.6458,439.159,0
205,21.5687,438.603,0
206,21.4923,435.711,0
207,21.4207,435.529,0
208,21.3357,442.538,0
209,21.2697,439.641,0
210,21.2177,434.584,0
211,21.1655,428.226,0
212,21.0799,436.657,0
213,20.9965,445.193,0
214,20.9424,437.394,0
215,20.8768,437.163,0
216,20.8076,443.112,0
217,20.7288,448.144,0
218,20.6515,448.822,0
219,20.5727,460.234,0
220,20.5103,471.842,0
221,20.43048,463.565,0
222,20.3536,457.839,0
223,20.2908,459.954,0
224,20.224,448.687,0
225,20.1237,445.927,0
226,20.05473,448.953,0
227,20.0044,457.795,0
228,19.93656,458.46,0
229,19.8569,454.161,0
230,19.7715,453.552,0
231,19.7013,449.16,0
232,19.6469,444.782,0
233,19.5913,458.34,0
234,19.51662,454.198,0
235,19.429,455.392,0
236,19.3467,463.115,0
237,19.3009,452.672,0
238,19.2422,454.336,0
239,19.1516,462.561,0
240,19.0514,471.48,0
241,18.9805,465.831,0
242,18.92,459.334,0
243,18.8393,462.924,0
244,18.7551,471.899,0
245,18.6881,478.612,0
246,18.6307,472.253,0
247,18.5605,470.763,0
248,18.4877,473.815,0
249,18.4,476.105,0
250,18.3274,478.242,0
251,18.2613,483.128,0
252,18.19063,487.265,0
253,18.1133,477.17,0
254,18.03537,469.47,0
255,17.9563,469.476,0
256,17.8772,484.822,0
257,17.7953,487.604,0
258,17.7084,482.88,0
259,17.6374,484.853,0
260,17.5731,474.58,0
261,17.5007,466.488,0
262,17.41657,472.834,0
263,17.3263,486.146,0
264,17.2659,495.404,0
265,17.1982,492.383,0
266,17.1246,497.403,0
267,17.0238,489,0
268,16.912,479.958,0
269,16.8563,476.021,0
270,16.8085,487.991,0
271,16.7357,500.753,0
272,16.644,500.023,0
273,16.5392,499.866,0
274,16.4706,501.985,0
275,16.4097,504.652,0
276,16.3222,499.781,0
277,16.2333,496.969,0
278,16.1594,498.229,0
279,16.0818,498.764,0
280,15.9913,498.277,0
281,15.9157,493.262,0
282,15.85281,493.715,0
283,15.7729,502.46,0
284,15.6799,506.654,0
285,15.58102,515.253,0
286,15.5104,509.338,0
287,15.4486,500.428,0
288,15.36724,503.373,0
289,15.2794,511.332,0
290,15.1851,518.984,0
291,15.1138,524.446,0
292,15.0403,532.328,0
293,14.9527,537.548,0
294,14.8562,526.417,0
295,14.7738,527.431,0
296,14.707,533.313,0
297,14.6249,528.899,0
298,14.51429,528.893,0
299,14.4246,531.572,0
300,14.3662,540.41,0
301,14.2903,533.473,0
302,14.1915,524.471,0
303,14.0802,525.798,0
304,14.00297,531.224,0
305,13.944,533.359,0
306,13.8695,534.995,0
307,13.782,538.324,0
308,13.6805,542.934,0
309,13.59415,548.409,0
310,13.5245,544.86,0
311,13.4505,536.659,0
312,13.3667,533.133,0
313,13.2715,537.088,0
314,13.167,544.591,0
315,13.0804,548.648,0
316,13.0219,548.598,0
317,12.9487,549.305,0
318,12.85115,559.086,0
319,12.7567,566.959,0
320,12.6586,558.216,0
321,12.5773,546.742,0
322,12.4985,543.809,0
323,12.4056,543.092,0
324,12.3147,540.945,0
325,12.2393,540.489,0
326,12.1515,545.298,0
327,12.0478,555.041,0
328,11.95596,561.176,0
329,11.874,558.972,0
330,11.791,551.766,0
331,11.6897,549.916,0
332,11.5897,563.881,0
333,11.5133,571.528,0
334,11.4466,556.834,0
335,11.3653,545.64,0
336,11.269,554.189,0
337,11.1737,558.079,0
338,11.0865,558.481,0
339,11,561.926,0
340,10.9054,573.089,0
341,10.79923,583.85,0
342,10.7028,574.927,0
343,10.6238,576.132,0
344,10.5451,583.721,0
345,10.4487,584.761,0
346,10.3324,580.127,0
347,10.2163,575.789,0
348,10.1227,576.496,0
349,10.0578,576.811,0
350,9.987476,577.939,0
351,9.891623,581.07,0
352,9.791154,595.283,0
353,9.701941,595.211,0
354,9.610517,590.341,0
355,9.513526,594.132,0
356,9.411568,599.029,0
357,9.326314,604.044,0
358,9.242737,594.899,0
359,9.140642,600.897,0
360,9.034477,613.202,0
361,8.92343,612.236,0
362,8.839148,610.093,0
363,8.753522,610.574,0
364,8.659019,609.114,0
365,8.55198,608.503,0
366,8.459958,612.193,0
367,8.3867,614.173,0
368,8.29906,606.082,0
369,8.183761,598.886,0
370,8.071653,598.721,0
371,7.98118,600.441,0
372,7.894062,607.452,0
373,7.794226,612.464,0
374,7.696473,620.241,0
375,7.609122,622.572,0
376,7.521357,616.91,0
377,7.418517,601.223,0
378,7.302638,596.768,0
379,7.220216,601.121,0
380,7.136818,600.113,0
381,7.036587,588.38,0
382,6.928989,593.971,0
383,6.826211,608.253,0
384,6.751269,615.156,0
385,6.670082,611.833,0
386,6.562537,601.565,0
387,6.467213,602.776,0
388,6.394543,610.039,0
389,6.313556,610.644,0
390,6.199304,604.348,0
391,6.094781,601.475,0
392,6.005963,600.714,0
393,5.914514,593.723,0
394,5.827845,582.734,0
395,5.720124,579.413,0
396,5.628052,587.677,0
397,5.545367,587.439,0
398,5.454081,583.927,0
399,5.341012,584.538,0
400,5.222225,580.712,0
401,5.150299,585.556,0
402,5.078598,592.366,0
403,4.994484,588.854,0
404,4.881372,597.707,0
405,4.771165,608.491,0
406,4.695416,607.027,0
407,4.614574,604.611,0
408,4.506537,601.138,0
409,4.403792,590.145,0
410,4.333631,574.826,0
411,4.252389,565.183,0
412,4.159836,572.015,0
413,4.050495,570.017,0
414,3.944719,573.061,0
415,3.867308,581.523,0
416,3.786007,571.865,0
417,3.677868,564.073,0
418,3.567031,564.836,0
419,3.491047,565.474,0
420,3.415426,569.717,0
421,3.331735,572.486,0
422,3.225445,575.128,0
423,3.134351,569.879,0
424,3.065715,563.471,0
425,2.985883,571.724,0
426,2.903163,569.663,0
427,2.794487,555.824,0
428,2.689623,549.049,0
429,2.610483,542.644,0
430,2.526485,536.747,0
431,2.426082,550.2,0
432,2.331657,550.397,0
433,2.239914,544.727,0
434,2.128863,549.095,0
435,2.067211,558.218,0
436,2.013381,550.075,0
437,1.921652,535.521,0
438,1.816336,534.575,0
439,1.712784,529.012,0
440,1.652296,520.438,0
441,1.571557,523.313,0
442,1.468122,521.995,0
443,1.394811,511.902,0
444,1.340473,509.952,0
445,1.267518,503.925,0
446,1.168991,489.865,0
447,1.089433,490.404,0
448,1.027637,473.168,0
449,0.958643,458,0
450,0.881254,450.776,0
451,0.801318,436.678,0
452,0.753439,415.403,0
453,0.70902,389.065,0
454,0.644,383.615,0
455,0.593231,374.981,0
456,0.547319,353.294,0
457,0.490907,338.011,0
458,0.426438,329.295,0
459,0.373108,310.263,0
460,0.338594,303.104,0
461,0.29647,286.004,0
462,0.242687,248.441,0
463,0.203279,233.181,0
464,0.180838,214.876,0
465,0.153409,190.248,0
466,0.117153,169.745,0
467,0.093552,158.152,0
468,0.091768,151.251,0
469,0.071053,138.272,0
470,0.033062,130.156,0
471,0.008319,125.677,0
472,0.006741,118.912,0
473,0.004326,115.741,0
474,-0.021387,112.475,0
475,-0.040208,105.968,0
476,-0.044652,102.379,0
477,-0.073605,99.926,0
478,-0.109299,96.7256,0
479,-0.107959,95.4718,0
480,-0.102874,94.25,0
481,-0.120577,91.9726,0
482,-0.150777,91.4399,0
483,-0.159991,89.1072,0
484,-0.16371,83.5684,0
485,-0.197101,78.1316,0
486,-0.213109,76.1567,0
487,-0.205886,74.8596,0
488,-0.211965,70.8435,0
489,-0.223391,68.8276,0
490,-0.23524,66.8291,0
491,-0.25271,61.1666,0
492,-0.262538,56.5498,0
493,-0.271615,53.8955,0
494,-0.282195,50.7296,0
495,-0.299655,49.719,0
496,-0.301521,47.5836,0
497,-0.289734,43.1771,0
498,-0.290774,41.3431,0
499,-0.301568,38.7903,0
500,-0.301495,34.668,0
501,-0.310459,29.6702,0
502,-0.333071,26.5436,0
503,-0.338811,24.5372,0
504,-0.327471,20.7749,0
505,-0.33176,18.9544,0
506,-0.343072,17.9581,0
507,-0.335929,16.3064,0
508,-0.344647,15.613,0
509,-0.340144,14.793,0
510,-0.314692,13.7413,0
511,-0.320459,13.6237,0
512,-0.340542,13.3334,0
513,-0.339987,12.8783,0
514,-0.338338,12.7807,0
515,-0.347424,11.8661,0
516,-0.348828,9.6412,0
517,-0.34391,8.60498,0
518,-0.352276,8.71395,0
519,-0.363193,8.00282,0
520,-0.349794,7.39514,0
521,-0.338073,7.49616,0
522,-0.341653,6.61742,0
523,-0.345705,4.94259,0
524,-0.343036,4.22972,0
525,-0.356747,5.33742,0
526,-0.351591,6.3839,0
527,-0.336122,6.35739,0
528,-0.356657,6.35523,0
529,-0.369205,6.47551,0
530,-0.365481,6.47408,0
531,-0.377849,6.72025,0
532,-0.382274,7.15614,0
533,-0.378058,8.60333,0
534,-0.391012,9.84208,0
535,-0.376949,9.93383,0
536,-0.358075,9.80601,0
537,-0.371588,9.68699,0
538,-0.369959,9.66499,0
539,-0.356747,9.46411,0
540,-0.357163,9.31315,0
541,-0.371141,9.01073,0
542,-0.390154,7.54511,0
543,-0.383834,6.51732,0
544,-0.374633,6.49899,0
545,-0.382685,6.44537,0
546,-0.38439,6.39645,0
547,-0.381476,6.4238,0
548,-0.385273,6.68365,0
549,-0.377421,7.10063,0
550,-0.364141,7.39717,0
551,-0.374228,6.648,0
552,-0.388539,5.61191,0
553,-0.394627,5.34206,0
554,-0.383254,5.02177,0
555,-0.373647,4.69829,0
556,-0.376477,4.64421,0
557,-0.372856,4.53423,0
558,-0.366844,4.46599,0
559,-0.38219,4.48333,0
560,-0.392838,4.43784,0
561,-0.374639,4.60966,0
562,-0.361967,4.86189,0
563,-0.375505,5.15367,0
564,-0.397841,5.46917,0
565,-0.398177,5.41078,0
566,-0.381062,5.25388,0
567,-0.386926,5.02177,0
568,-0.406402,4.67777,0
569,-0.389652,4.64345,0
570,-0.371653,4.6039,0
571,-0.384602,4.48565,0
572,-0.391415,4.49905,0
573,-0.379667,3.29551,0
574,-0.391802,2.17097,0
575,-0.421963,2.12522,0
576,-0.421735,2.19878,0
577,-0.40437,2.35752,0
578,-0.393841,2.47286,0
579,-0.379221,2.62831,0
580,-0.368,3.02311,0
581,-0.381414,3.27566,0
582,-0.398723,3.29714,0
583,-0.397329,4.18398,0
584,-0.390397,4.77945,0
585,-0.412536,4.59612,0
586,-0.433428,4.58706,0
587,-0.4073,3.38069,0
588,-0.382325,2.19549,0
589,-0.375778,3.31163,0
590,-0.362739,4.38123,0
591,-0.365869,4.38645,0
592,-0.383216,4.50042,0
593,-0.391078,4.77375,0
594,-0.40811,4.9336,0
595,-0.429315,5.21244,0
596,-0.408749,6.32384,0
597,-0.386071,7.13791,0
598,-0.390599,7.66628,0
599,-0.390851,7.97322,0
600,-0.372581,7.47305,0
601,-0.371429,7.20095,0
602,-0.384518,6.99227,0
603,-0.391761,6.8283,0
604,-0.410517,7.00261,0
605,-0.4152,5.8755,0
606,-0.402282,4.10045,0
607,-0.397556,3.48369,0
608,-0.391204,3.31758,0
609,-0.371663,3.28927,0
610,-0.36053,3.40317,0
611,-0.385245,4.40887,0
612,-0.410947,4.9424,0
613,-0.40889,4.64382,0
614,-0.416919,4.62379,0
615,-0.431759,4.59402,0
616,-0.424399,4.59774,0
617,-0.411395,4.6364,0
618,-0.405716,4.86742,0
619,-0.383219,5.13212,0
620,-0.359292,5.21945,0
621,-0.353,5.5174,0
622,-0.376876,5.8159,0
623,-0.411492,5.83635,0
624,-0.413081,5.75137,0
625,-0.402952,5.29054,0
626,-0.403602,4.9597,0
627,-0.411414,4.83251,0
628,-0.403462,4.62032,0
629,-0.374021,4.57431,0
630,-0.359548,4.55041,0
631,-0.369941,4.46875,0
632,-0.370627,3.20826,0
633,-0.384321,2.11152,0
634,-0.426514,2.16623,0
635,-0.433327,2.28011,0
636,-0.415266,2.35035,0
637,-0.417969,2.40145,0
638,-0.419247,2.53647,0
639,-0.394914,2.62509,0
640,-0.366186,1.70014,0