File: Non-charring/PMMA/DBI_Lund/DBI-Lund_Cone_50kW_3.csv
Time,Mass,HRR,Back Surface Temperature
[s],[g],[kW/m2],[K]
0,72.42,3.10927,0
1,72.4026,2.88797,0
2,72.4403,2.91175,0
3,72.4926,2.42034,0
4,72.494,1.83558,0
5,72.47004,1.68565,0
6,72.4786,1.80132,0
7,72.48284,1.07636,0
8,72.482,0.659649,0
9,72.4916,1.1725,0
10,72.4868,1.45094,0
11,72.4664,1.47915,0
12,72.4625,1.4724,0
13,72.4806,1.52324,0
14,72.4893,1.09645,0
15,72.4883,0.836465,0
16,72.4767,0.981582,0
17,72.4716,0.950637,0
18,72.4733,0.907011,0
19,72.4898,1.19853,0
20,72.5051,1.14341,0
21,72.5058,1.04689,0
22,72.48,0.253498,0
23,72.4553,-0.842481,0
24,72.44379,-1.2057,0
25,72.4273,4.21759,0
26,72.4181,31.6388,0
27,72.4027,89.4257,0
28,72.37,113.405,0
29,72.3349,157.807,0
30,72.2507,228.329,0
31,72.1515,245.548,0
32,72.0308,289.801,0
33,71.8889,366.469,0
34,71.721,387.439,0
35,71.5114,419.863,0
36,71.3057,470.923,0
37,71.1088,484.998,0
38,70.9312,500.727,0
39,70.7341,522.985,0
40,70.534,524.321,0
41,70.31962,526.339,0
42,70.092,563.119,0
43,69.85071,595.951,0
44,69.62002,574.117,0
45,69.3942,579.312,0
46,69.1361,602.647,0
47,68.9016,595.013,0
48,68.6711,603.807,0
49,68.4242,620.015,0
50,68.1919,608.107,0
51,67.9532,634.478,0
52,67.6763,655.74,0
53,67.3994,668.87,0
54,67.1526,638.332,0
55,66.9279,621.076,0
56,66.6979,659.806,0
57,66.4569,663.586,0
58,66.1997,664.283,0
59,65.9223,670.207,0
60,65.653,639.896,0
61,65.4141,653.034,0
62,65.1648,675.31,0
63,64.9023,660.399,0
64,64.6407,654.521,0
65,64.38192,656.183,0
66,64.1144,647.062,0
67,63.8389,649.429,0
68,63.5533,659.868,0
69,63.2868,664.647,0
70,63.0447,675.243,0
71,62.7815,682.458,0
72,62.5122,658.792,0
73,62.2429,660.08,0
74,61.9572,668.412,0
75,61.666,664.017,0
76,61.3958,649.093,0
77,61.1437,649.711,0
78,60.8858,659.174,0
79,60.6172,697.605,0
80,60.342,693.325,0
81,60.0576,681.846,0
82,59.7667,695.419,0
83,59.4691,679.257,0
84,59.1922,667.365,0
85,58.9385,680.792,0
86,58.66975,684.088,0
87,58.3931,683.982,0
88,58.1194,694.174,0
89,57.8496,695.81,0
90,57.5467,690.781,0
91,57.2039,700.01,0
92,56.9675,694.571,0
93,56.7041,689.106,0
94,56.4315,688.391,0
95,56.1513,680.172,0
96,55.8695,684.154,0
97,55.5613,693.2,0
98,55.2711,703.125,0
99,55.0051,695.196,0
100,54.7171,692.655,0
101,54.4157,690.874,0
102,54.1573,698.886,0
103,53.88018,707.33,0
104,53.5822,695.348,0
105,53.27446,685.305,0
106,52.9519,692.717,0
107,52.6614,721.599,0
108,52.35737,732.227,0
109,52.0325,733.283,0
110,51.7194,753.373,0
111,51.4262,739.944,0
112,51.1263,741.128,0
113,50.8237,752.426,0
114,50.5459,764.037,0
115,50.2543,741.002,0
116,49.9298,724.989,0
117,49.6052,718.622,0
118,49.2973,733.564,0
119,48.9839,746.989,0
120,48.6912,745.555,0
121,48.39961,745.57,0
122,48.10739,748.624,0
123,47.7976,745.082,0
124,47.4934,735.637,0
125,47.1865,733.273,0
126,46.8556,748.957,0
127,46.5247,748.951,0
128,46.2307,743.534,0
129,45.9406,744.407,0
130,45.6288,755.308,0
131,45.30684,747.376,0
132,45.0085,744.904,0
133,44.681,767.914,0
134,44.344,809.653,0
135,43.99868,835.089,0
136,43.6598,790.14,0
137,43.3329,776.001,0
138,43.0102,792.663,0
139,42.6947,805.788,0
140,42.3701,824.347,0
141,42.0436,835.272,0
142,41.7208,826.082,0
143,41.3855,811.498,0
144,41.0332,849.844,0
145,40.69171,874.005,0
146,40.355,845.182,0
147,40.0433,856.986,0
148,39.71874,877.728,0
149,39.37984,847.594,0
150,39.0273,833.331,0
151,38.7013,839.404,0
152,38.36773,796.26,0
153,38.0102,827.864,0
154,37.6613,863.106,0
155,37.326,836.008,0
156,37.0032,867.974,0
157,36.654,906.341,0
158,36.3057,861.225,0
159,35.956,849.874,0
160,35.6093,861.246,0
161,35.2517,870.358,0
162,34.8723,856.14,0
163,34.51197,850.742,0
164,34.1636,858.932,0
165,33.8304,867.154,0
166,33.48998,889.355,0
167,33.1404,901.655,0
168,32.8037,849.697,0
169,32.4587,855.493,0
170,32.0755,878.59,0
171,31.7032,857.425,0
172,31.3541,866.988,0
173,30.9949,882.697,0
174,30.63519,903.508,0
175,30.2937,899.84,0
176,29.9297,886.241,0
177,29.5512,840.999,0
178,29.18507,866.057,0
179,28.8061,889.799,0
180,28.42541,897.556,0
181,28.041,918.412,0
182,27.6574,916.077,0
183,27.27603,911.717,0
184,26.8862,904.515,0
185,26.5025,931.932,0
186,26.1188,958.232,0
187,25.749,912.979,0
188,25.3814,891.527,0
189,25.0093,900.859,0
190,24.6171,984.832,0
191,24.2106,942.865,0
192,23.8049,889.038,0
193,23.4119,940.249,0
194,23.0416,972.867,0
195,22.5873,964.417,0
196,22.1966,960.541,0
197,21.8693,941.957,0
198,21.4775,951.976,0
199,21.0748,971.376,0
200,20.6843,924.9405,0
201,20.2935,953.585,0
202,19.9127,993.085,0
203,19.5089,970.995,0
204,19.1039,994.628,0
205,18.704,1029.58,0
206,18.3137,1007.89,0
207,17.9055,992.1,0
208,17.4891,996.902,0
209,17.1019,963.045,0
210,16.7191,974.989,0
211,16.3039,1003.38,0
212,15.8991,955.655,0
213,15.4834,940.766,0
214,15.0659,1009.8,0
215,14.6494,1061.69,0
216,14.2452,1004.26,0
217,13.8573,1007.17,0
218,13.4348,1045.61,0
219,13.0163,1084.6,0
220,12.5884,1071.18,0
221,12.1404,1080.49,0
222,11.6695,1157.04,0
223,11.2201,1209.69,0
224,10.7706,1219.8,0
225,10.3062,1137.12,0
226,9.856453,1159.6,0
227,9.3959,1224.34,0
228,8.948747,1111.25,0
229,8.481749,1045.19,0
230,8.016234,1157.69,0
231,7.556505,1213.49,0
232,7.078714,1144.83,0
233,6.60086,1118.84,0
234,6.150703,1134.52,0
235,5.705201,1128.33,0
236,5.170396,1066.61,0
237,4.80666,1024.36,0
238,4.355673,1053.77,0
239,3.911047,1091.42,0
240,3.479635,1070.07,0
241,3.082112,1110.15,0
242,2.678718,1048.59,0
243,2.272691,934.297,0
244,1.897164,902.707,0
245,1.571472,851.892,0
246,1.271363,755.518,0
247,0.991931,715.234,0
248,0.744538,638.151,0
249,0.546101,513.612,0
250,0.406233,410.682,0
251,0.306287,375.882,0
252,0.218454,330.993,0
253,0.13918,261.612,0
254,0.062211,250.87,0
255,0.008139,231.614,0
256,-0.027158,183.679,0
257,-0.084664,164.26,0
258,-0.136531,146.455,0
259,-0.169405,116.851,0
260,-0.197854,104.922,0
261,-0.236057,91.7427,0
262,-0.265026,75.6824,0
263,-0.28253,69.696,0
264,-0.289169,62.6546,0
265,-0.291462,53.9461,0
266,-0.3024,46.4951,0
267,-0.31237,44.0959,0
268,-0.343996,40.6746,0
269,-0.372308,34.1298,0
270,-0.385192,31.5484,0
271,-0.406115,28.3039,0
272,-0.401227,23.9184,0
273,-0.393628,22.4414,0
274,-0.398325,20.6185,0
275,-0.415638,17.4535,0
276,-0.422912,16.1841,0
277,-0.447158,15.0606,0
278,-0.473964,12.7566,0
279,-0.449922,11.4635,0
280,-0.433228,9.75262,0
281,-0.428408,7.54279,0
282,-0.430775,6.87759,0
283,-0.462746,5.89094,0
284,-0.501961,4.91625,0
285,-0.509507,4.32136,0
286,-0.47447,4.00563,0
287,-0.467199,3.93912,0
288,-0.475401,3.84056,0
289,-0.476991,3.81034,0
290,-0.479035,3.7766,0
291,-0.497605,3.75015,0
292,-0.495046,3.83613,0
293,-0.484233,4.03755,0
294,-0.479513,3.74466,0
295,-0.495047,3.4456,0
296,-0.501876,3.29453,0
297,-0.499259,3.15153,0
298,-0.491671,3.13152,0
299,-0.477552,3.1424,0
300,-0.480556,3.30482,0
301,-0.494663,3.51658,0
302,-0.501117,3.54322,0
303,-0.507753,3.51253,0
304,-0.527516,3.05445,0
305,-0.514148,2.6844,0
306,-0.494899,2.93749,0
307,-0.510977,3.11594,0
308,-0.516378,3.15542,0
309,-0.505255,3.25905,0
310,-0.517976,3.49639,0
311,-0.540328,3.57062,0
312,-0.566254,3.45608,0
313,-0.565989,3.34133,0
314,-0.536457,3.30049,0
315,-0.528042,2.9007,0
316,-0.531834,3.03267,0
317,-0.529732,3.55799,0
318,-0.555006,3.65883,0
319,-0.565382,3.23996,0
320,-0.549429,2.7862,0
321,-0.542867,2.6895,0
322,-0.548476,2.20001,0
323,-0.539662,1.81058,0
324,-0.541805,1.81868,0
325,-0.565892,1.88126,0
326,-0.568555,1.68395,0
327,-0.554935,1.49861,0
328,-0.54776,1.48521,0
329,-0.549873,1.28172,0
330,-0.563962,1.12285,0
331,-0.58509,0.725993,0
332,-0.59996,0.429197,0
333,-0.591479,0.404503,0
334,-0.586564,0.421443,0
335,-0.580301,0.576761,0
336,-0.565867,0.749468,0
337,-0.571064,0.803533,0
338,-0.57403,0.67991,0
339,-0.567778,0.477305,0
340,-0.582657,0.401792,0
341,-0.600468,0.681553,0
342,-0.617955,1.02338,0
343,-0.626192,1.13162,0
344,-0.613338,1.58878,0
345,-0.603888,2.07979,0
346,-0.593119,2.1908,0
347,-0.598099,2.25893,0
348,-0.631218,2.23775,0
349,-0.623645,2.20529,0
350,-0.603194,2.15195,0
351,-0.597299,2.0349,0
352,-0.591561,2.00712,0