File: Non-charring/PMMA/DBI_Lund/DBI-Lund_Cone_25kW_3.csv
Time,Mass,HRR,Back Surface Temperature
[s],[g],[kW/m2],[K]
0,72.24,3.66619,0
1,72.2269,3.79573,0
2,72.2115,3.73935,0
3,72.2132,3.79984,0
4,72.2145,3.50467,0
5,72.2198,3.24345,0
6,72.20819,3.22801,0
7,72.1843,3.25244,0
8,72.1843,3.30646,0
9,72.2074,2.84186,0
10,72.2167,2.41278,0
11,72.21662,2.24756,0
12,72.2176,2.20706,0
13,72.2274,2.16999,0
14,72.2361,2.14819,0
15,72.2268,2.13809,0
16,72.2138,2.17946,0
17,72.2087,2.29806,0
18,72.1881,2.3503,0
19,72.1714,2.44461,0
20,72.1815,2.57005,0
21,72.185,2.61187,0
22,72.1895,2.45849,0
23,72.1977,2.28046,0
24,72.1926,2.23163,0
25,72.1912,2.20041,0
26,72.193,1.73327,0
27,72.1887,1.37312,0
28,72.1872,1.35565,0
29,72.1915,1.4017,0
30,72.1888,1.4384,0
31,72.1777,1.41813,0
32,72.1736,1.43609,0
33,72.1819,0.954444,0
34,72.1803,0.623659,0
35,72.1643,0.668564,0
36,72.1459,0.762946,0
37,72.1545,0.814798,0
38,72.1822,0.847892,0
39,72.18929,0.887395,0
40,72.1936,0.90178,0
41,72.2097,0.780047,0
42,72.1956,0.658482,0
43,72.1503,0.603557,0
44,72.1288,0.578053,0
45,72.151,0.49452,0
46,72.1908,0.402101,0
47,72.207,0.384806,0
48,72.2137,0.384041,0
49,72.2143,0.391293,0
50,72.2016,0.386786,0
51,72.1759,0.46223,0
52,72.1646,0.568354,0
53,72.1685,0.59632,0
54,72.17969,0.760486,0
55,72.1897,0.871646,0
56,72.17577,0.851679,0
57,72.1516,0.820363,0
58,72.1377,0.663196,0
59,72.14939,0.490383,0
60,72.1653,0.435712,0
61,72.1638,0.362127,0
62,72.1628,0.843761,0
63,72.164,1.18467,0
64,72.15915,1.25071,0
65,72.1505,1.38673,0
66,72.1616,1.49771,0
67,72.1643,1.61488,0
68,72.13796,1.96424,0
69,72.1345,2.14881,0
70,72.1537,1.69277,0
71,72.16491,1.29804,0
72,72.1578,1.25787,0
73,72.152,1.22964,0
74,72.1459,1.2207,0
75,72.13459,1.29828,0
76,72.1394,1.34906,0
77,72.1555,1.45679,0
78,72.1783,1.10347,0
79,72.1871,0.834714,0
80,72.1736,0.82491,0
81,72.1667,0.7323,0
82,72.1592,0.675269,0
83,72.1421,0.0613901,0
84,72.13864,-0.460549,0
85,72.1398,-0.491012,0
86,72.1512,-0.503619,0
87,72.1555,-0.520201,0
88,72.1459,-0.526478,0
89,72.1394,-1.04659,0
90,72.1376,-1.33832,0
91,72.1255,-1.30156,0
92,72.1045,-1.27803,0
93,72.0942,-0.779326,0
94,72.1053,-0.435646,0
95,72.113,-0.476142,0
96,72.1197,-1.00426,0
97,72.1224,1.32855,0
98,72.1073,3.08967,0
99,72.0838,9.27914,0
100,72.064,24.8973,0
101,72.0543,32.5075,0
102,72.0417,46.3403,0
103,72.001,75.8432,0
104,71.9498,91.5158,0
105,71.8908,110.908,0
106,71.8162,147.455,0
107,71.7236,160.094,0
108,71.6578,175.012,0
109,71.5984,202.481,0
110,71.51363,232.912,0
111,71.4263,248.124,0
112,71.3189,260.368,0
113,71.1912,283.401,0
114,71.0551,303.084,0
115,70.9245,314.717,0
116,70.8054,329.245,0
117,70.6837,331.564,0
118,70.5464,334.795,0
119,70.4057,345.249,0
120,70.2634,356.13,0
121,70.1094,356.069,0
122,69.9601,355.165,0
123,69.8037,366.377,0
124,69.6618,372.816,0
125,69.53208,369.198,0
126,69.3957,369.168,0
127,69.2422,381.392,0
128,69.085,383.007,0
129,68.9336,379.513,0
130,68.7671,382.972,0
131,68.5921,378.971,0
132,68.4152,376.283,0
133,68.2748,376.369,0
134,68.157,381.793,0
135,68.0214,386.904,0
136,67.87485,385.749,0
137,67.71617,386.149,0
138,67.5377,389.654,0
139,67.3552,394.136,0
140,67.2063,394.465,0
141,67.0612,413.037,0
142,66.9046,428.592,0
143,66.76403,408.503,0
144,66.5979,412.189,0
145,66.4036,426.414,0
146,66.234,422.699,0
147,66.0517,432.203,0
148,65.8778,442.949,0
149,65.7279,430.649,0
150,65.5761,416.312,0
151,65.4232,416.246,0
152,65.2486,417.645,0
153,65.0593,427.554,0
154,64.8854,432.932,0
155,64.72112,430.055,0
156,64.545,423.136,0
157,64.3721,416.737,0
158,64.215,420.278,0
159,64.0442,434.071,0
160,63.8672,453.338,0
161,63.6964,463.163,0
162,63.5196,452.741,0
163,63.334,449.017,0
164,63.17706,453.598,0
165,63.0211,434.944,0
166,62.8517,439.075,0
167,62.6655,457.648,0
168,62.4609,456.974,0
169,62.2541,455.497,0
170,62.0808,456.859,0
171,61.9279,443.494,0
172,61.755,448.197,0
173,61.5747,452.379,0
174,61.3983,447.102,0
175,61.2029,443.482,0
176,61.0152,440.735,0
177,60.8312,442.731,0
178,60.6475,447.738,0
179,60.4773,457.232,0
180,60.3,464.633,0
181,60.1101,455.942,0
182,59.9124,449.495,0
183,59.7258,454.898,0
184,59.5356,470.642,0
185,59.3321,474.199,0
186,59.12993,469.5,0
187,58.93418,480.363,0
188,58.7527,475.854,0
189,58.5764,464.188,0
190,58.3927,473.531,0
191,58.1932,478.139,0
192,57.989,479.244,0
193,57.7696,483.33,0
194,57.5744,482.874,0
195,57.40706,494.742,0
196,57.2187,509.071,0
197,57.0158,495.627,0
198,56.8206,495.682,0
199,56.6254,507.838,0
200,56.4167,496.249,0
201,56.2141,489.497,0
202,56.0045,491.686,0
203,55.8147,484.975,0
204,55.6344,482.309,0
205,55.4368,490.787,0
206,55.24058,496.28,0
207,55.03465,491.657,0
208,54.8181,485.32,0
209,54.5969,486.972,0
210,54.3849,492.333,0
211,54.1703,511.835,0
212,53.9642,527.336,0
213,53.7881,518.081,0
214,53.6046,503.529,0
215,53.3968,498.807,0
216,53.18,505.5,0
217,52.9707,499.088,0
218,52.7685,488.883,0
219,52.5613,497.407,0
220,52.35224,506.805,0
221,52.1454,510.668,0
222,51.9382,502.925,0
223,51.736,504.013,0
224,51.5342,517.739,0
225,51.3279,524.521,0
226,51.12503,523.598,0
227,50.9046,519.385,0
228,50.675,516.913,0
229,50.4534,525.934,0
230,50.2361,527.407,0
231,50.0424,521.542,0
232,49.8542,516.208,0
233,49.65313,512.78,0
234,49.434,516.017,0
235,49.2012,519.837,0
236,48.9896,523.17,0
237,48.781,526.285,0
238,48.5415,523.304,0
239,48.3219,517.169,0
240,48.1225,523.481,0
241,47.9178,531.803,0
242,47.7198,535.5,0
243,47.5028,521.007,0
244,47.2605,507.204,0
245,47.03,516.601,0
246,46.8288,527.965,0
247,46.63,532.609,0
248,46.4083,527.837,0
249,46.2026,534.133,0
250,46.0019,542.728,0
251,45.7789,537.788,0
252,45.5588,536.942,0
253,45.3417,538.018,0
254,45.1298,530.448,0
255,44.9178,508.079,0
256,44.7054,521.831,0
257,44.4905,546.566,0
258,44.26105,550.282,0
259,44.0187,557.851,0
260,43.7768,567.661,0
261,43.5482,561.653,0
262,43.3285,555.56,0
263,43.1066,558.081,0
264,42.89693,551.133,0
265,42.69,553.824,0
266,42.46816,563.14,0
267,42.2262,557.665,0
268,41.987,553.652,0
269,41.7523,556.47,0
270,41.5214,566.736,0
271,41.3095,563.779,0
272,41.0925,557.222,0
273,40.8692,560.159,0
274,40.6335,582.599,0
275,40.3698,577.92,0
276,40.1266,562.416,0
277,39.90197,576.488,0
278,39.6767,574.712,0
279,39.4511,567.951,0
280,39.2181,571.409,0
281,38.9794,582.12,0
282,38.7226,591.249,0
283,38.4616,602.195,0
284,38.199,604.566,0
285,37.9572,599.992,0
286,37.7433,581.78,0
287,37.5322,589.165,0
288,37.3128,605.643,0
289,37.0791,603.662,0
290,36.8231,597.114,0
291,36.573,582.199,0
292,36.3296,576.252,0
293,36.0658,587.993,0
294,35.8169,611.31,0
295,35.5979,624.126,0
296,35.3681,631.622,0
297,35.1245,609.552,0
298,34.8811,584.815,0
299,34.6289,581.007,0
300,34.4002,591.082,0
301,34.1812,605.476,0
302,33.9358,598.572,0
303,33.6904,596.353,0
304,33.4477,593.907,0
305,33.1988,586.146,0
306,32.9503,602.566,0
307,32.6914,604.54,0
308,32.4361,592.292,0
309,32.2098,578.072,0
310,31.9746,584.563,0
311,31.728,599.685,0
312,31.4947,591.328,0
313,31.2465,596.249,0
314,30.9824,611.588,0
315,30.728,608.244,0
316,30.4597,600.729,0
317,30.2091,601.243,0
318,29.9823,625.999,0
319,29.7416,629.985,0
320,29.485,615.344,0
321,29.2233,617.192,0
322,28.9718,622.035,0
323,28.711,645.643,0
324,28.4567,666.869,0
325,28.221,652.37,0
326,27.9733,648.143,0
327,27.715,661.448,0
328,27.4549,637.197,0
329,27.1851,612.172,0
330,26.9006,610.619,0
331,26.641,631.271,0
332,26.414,642.499,0
333,26.1782,639.432,0
334,25.9181,635.472,0
335,25.6552,641.561,0
336,25.3978,653.746,0
337,25.1308,649.192,0
338,24.8458,633.74,0
339,24.5806,618.116,0
340,24.3445,614.469,0
341,24.1031,631.051,0
342,23.83763,644.71,0
343,23.5674,645.944,0
344,23.3028,638.572,0
345,23.0395,645.769,0
346,22.7977,658.549,0
347,22.5373,663.145,0
348,22.2652,658.686,0
349,22.00527,652.938,0
350,21.7429,651.358,0
351,21.4685,640.555,0
352,21.1814,634.461,0
353,20.913,645.988,0
354,20.6525,652.352,0
355,20.3853,665.715,0
356,20.1187,683.248,0
357,19.8448,677.922,0
358,19.5711,658.467,0
359,19.3141,650.56,0
360,19.0376,666.43,0
361,18.7356,674.731,0
362,18.4717,673.249,0
363,18.2209,681.239,0
364,17.9397,691.258,0
365,17.6521,695.126,0
366,17.3713,685.832,0
367,17.0919,691.01,0
368,16.8083,709.88,0
369,16.5172,697.784,0
370,16.2273,710.629,0
371,15.9242,734.429,0
372,15.6305,733.645,0
373,15.3622,724.259,0
374,15.1066,724.808,0
375,14.8297,735.345,0
376,14.5241,739.521,0
377,14.2216,720.968,0
378,13.9253,705.638,0
379,13.6281,705.176,0
380,13.3506,733.463,0
381,13.0729,757.271,0
382,12.77803,730.264,0
383,12.4871,737.336,0
384,12.2172,756.895,0
385,11.93233,739.901,0
386,11.6282,731.385,0
387,11.3388,733.575,0
388,11.0479,725.236,0
389,10.7491,698.899,0
390,10.4659,703.574,0
391,10.1864,720.841,0
392,9.893653,692.134,0
393,9.612479,683.76,0
394,9.332185,697.239,0
395,9.024386,688.411,0
396,8.72892,692.258,0
397,8.453507,701.483,0
398,8.174369,741.474,0
399,7.895678,732.246,0
400,7.615858,694.359,0
401,7.333998,704.48,0
402,7.047603,710.286,0
403,6.767337,706.344,0
404,6.48937,691.488,0
405,6.196648,683.495,0
406,5.894003,669.964,0
407,5.602823,653.294,0
408,5.335641,686.712,0
409,5.078689,688.772,0
410,4.813334,660.222,0
411,4.526834,671.712,0
412,4.242216,661.744,0
413,3.963077,630.398,0
414,3.698647,618.071,0
415,3.470867,603.069,0
416,3.238618,582.657,0
417,2.987826,589.52,0
418,2.74477,596.967,0
419,2.503218,579.983,0
420,2.2629,565.018,0
421,2.043322,554.843,0
422,1.832056,525.017,0
423,1.611914,484.401,0
424,1.399516,469.052,0
425,1.207017,452.773,0
426,1.035116,408.123,0
427,0.86173,384.375,0
428,0.698966,364.679,0
429,0.575037,314.293,0
430,0.478127,291.16,0
431,0.387702,267.866,0
432,0.3036,215.787,0
433,0.231841,191.003,0
434,0.169377,173.743,0
435,0.141,137.521,0
436,0.133997,120.89,0
437,0.113974,107.71,0
438,0.085179,84.9463,0
439,0.053633,76.9564,0
440,0.023671,72.4521,0
441,-0.006988,61.3656,0
442,-0.039537,51.0689,0
443,-0.059208,46.6929,0
444,-0.05456,43.4532,0
445,-0.054407,37.3966,0
446,-0.05092,34.5205,0
447,-0.035083,32.2547,0
448,-0.040902,28.2044,0
449,-0.065318,26.5923,0
450,-0.091038,25.1117,0
451,-0.117122,22.4628,0
452,-0.123181,21.6028,0
453,-0.109109,20.6823,0
454,-0.106224,18.2055,0
455,-0.111059,16.9996,0
456,-0.100138,16.1346,0
457,-0.107539,14.1392,0
458,-0.123599,12.5245,0
459,-0.117834,11.867,0
460,-0.124371,10.9802,0
461,-0.139094,9.64545,0
462,-0.140475,9.26904,0
463,-0.137367,9.00659,0
464,-0.130776,7.93875,0
465,-0.13124,7.37764,0
466,-0.149351,6.68515,0
467,-0.159901,5.18964,0
468,-0.164964,4.46216,0
469,-0.179024,4.05496,0
470,-0.169295,3.336,0
471,-0.145091,3.01198,0
472,-0.145934,2.61348,0
473,-0.156108,2.398,0
474,-0.161223,2.64324,0
475,-0.181199,2.76085,0
476,-0.194404,2.63352,0
477,-0.171783,2.16187,0
478,-0.145348,1.84358,0
479,-0.140563,1.77013,0
480,-0.136775,1.69417,0
481,-0.138289,1.68585,0
482,-0.157151,1.67517,0
483,-0.153174,1.29134,0
484,-0.141645,0.948807,0
485,-0.152087,1.46691,0
486,-0.150369,2.01593,0
487,-0.148256,2.08321,0
488,-0.157752,2.14404,0
489,-0.169929,2.54295,0
490,-0.174941,2.35744,0
491,-0.161631,1.98389,0
492,-0.138375,1.92317,0
493,-0.122776,1.84722,0
494,-0.134886,1.85519,0
495,-0.163339,1.85234,0
496,-0.179247,1.466,0
497,-0.18883,1.11193,0
498,-0.185771,1.14121,0
499,-0.157162,1.25536,0
500,-0.135859,1.35105,0
501,-0.142976,1.37495,0
502,-0.151473,0.98801,0
503,-0.153683,0.634558,0
504,-0.168899,0.480089,0
505,-0.168116,0.273807,0
506,-0.158,0.208491,0
507,-0.165373,0.198527,0
508,-0.169436,-0.228318,0
509,-0.172662,-0.582684,0
510,-0.171811,-0.536999,0
511,-0.171178,-0.513929,0
512,-0.172838,-0.056639,0
513,-0.176151,0.438067,0
514,-0.17376,0.439009,0
515,-0.155196,0.682007,0
516,-0.140756,0.64998,0
517,-0.156286,0.988153,0
518,-0.178172,1.2439,0
519,-0.183613,1.18696,0
520,-0.200673,1.15161,0
521,-0.201375,1.11066,0