File: Non-charring/PMMA/DBI_Lund/DBI-Lund_Cone_25kW_5.csv
Time,Mass,HRR,Back Surface Temperature
[s],[g],[kW/m2],[K]
0,27.52,9.6688,0
1,27.5059,9.45913,0
2,27.4742,8.0134,0
3,27.4616,7.56833,0
4,27.4762,7.10055,0
5,27.484,5.48241,0
6,27.4853,4.72748,0
7,27.4782,3.14257,0
8,27.4701,1.98457,0
9,27.4425,1.77912,0
10,27.4349,1.58542,0
11,27.462,0.0243873,0
12,27.4707,-0.80651,0
13,27.4709,-0.885246,0
14,27.4701,-0.804695,0
15,27.4664,-0.749649,0
16,27.4669,-0.785028,0
17,27.479,0.847774,0
18,27.48169,1.91313,0
19,27.4721,2.00388,0
20,27.45818,2.11583,0
21,27.4437,2.35058,0
22,27.45402,2.4577,0
23,27.4582,1.09158,0
24,27.45856,0.574743,0
25,27.4619,0.687288,0
26,27.4649,0.780004,0
27,27.46858,0.59621,0
28,27.4869,0.459722,0
29,27.50776,0.223807,0
30,27.5032,-0.145961,0
31,27.4824,-0.266809,0
32,27.4798,-0.362829,0
33,27.4741,-0.454788,0
34,27.469,-1.10957,0
35,27.469,-1.41943,0
36,27.4602,-2.31597,0
37,27.46,-2.83941,0
38,27.4688,-2.84557,0
39,27.4818,-4.22283,0
40,27.4895,-5.15198,0
41,27.4757,-5.2338,0
42,27.467,-5.3318,0
43,27.488,-4.9232,0
44,27.5044,-4.72153,0
45,27.5096,-4.71365,0
46,27.511,-4.58745,0
47,27.5003,-4.46334,0
48,27.4744,-4.29137,0
49,27.4448,-4.12403,0
50,27.44549,-4.02102,0
51,27.46086,-4.02804,0
52,27.46537,-4.31675,0
53,27.4536,-4.74334,0
54,27.4536,-4.93542,0
55,27.4601,-5.15382,0
56,27.4587,-5.45047,0
57,27.4507,-5.48722,0
58,27.4336,-4.66032,0
59,27.456,-3.51704,0
60,27.4679,-3.11104,0
61,27.4563,-3.04303,0
62,27.4442,-1.51341,0
63,27.4583,-0.682502,0
64,27.469,-0.371963,0
65,27.4715,0.123805,0
66,27.4604,0.605753,0
67,27.4298,0.776677,0
68,27.4097,0.525768,0
69,27.4297,0.282705,0
70,27.4539,0.228014,0
71,27.44987,-1.3486,0
72,27.4545,-2.38427,0
73,27.454,-2.44253,0
74,27.4605,-2.6405,0
75,27.4688,-2.86181,0
76,27.4575,-2.8577,0
77,27.42853,-2.84478,0
78,27.4294,-2.9044,0
79,27.4428,-2.9594,0
80,27.451,-2.80365,0
81,27.4472,-2.47492,0
82,27.4312,-2.3485,0
83,27.41903,-2.19402,0
84,27.4166,-1.92807,0
85,27.4326,-1.72198,0
86,27.4319,-1.67788,0
87,27.4354,-0.265387,0
88,27.441,0.426336,0
89,27.4175,0.326073,0
90,27.3918,0.165328,0
91,27.3958,-0.181384,0
92,27.4169,-0.333148,0
93,27.4254,-0.431004,0
94,27.4144,-0.507716,0
95,27.4143,-0.528985,0
96,27.4167,-0.5885174,0
97,27.4109,-0.538835,0
98,27.3967,-0.48486,0
99,27.3798,-0.2943,0
100,27.3866,-0.0567883,0
101,27.3996,0.192861,0
102,27.3986,0.3009,0
103,27.3929,0.378822,0
104,27.3879,0.676121,0
105,27.38475,0.820987,0
106,27.3846,0.47377,0
107,27.3818,-0.634711,0
108,27.3679,-1.21556,0
109,27.3482,-1.84304,0
110,27.3516,2.90864,0
111,27.3524,7.70961,0
112,27.3408,28.6792,0
113,27.3296,72.2306,0
114,27.3402,90.446,0
115,27.3422,119.824,0
116,27.3152,157.963,0
117,27.2833,193.877,0
118,27.2237,208.408,0
119,27.1832,232.646,0
120,27.1431,266.544,0
121,27.09133,276.208,0
122,27.0198,291.039,0
123,26.9713,315.917,0
124,26.9338,325.823,0
125,26.8852,336.147,0
126,26.834,350.8,0
127,26.7668,358.843,0
128,26.7115,364.544,0
129,26.6511,369.213,0
130,26.5858,365.147,0
131,26.50443,368.052,0
132,26.4366,375.486,0
133,26.3788,379.16,0
134,26.3367,375.452,0
135,26.2843,380.303,0
136,26.2126,384.387,0
137,26.1332,368.408,0
138,26.0707,371.468,0
139,26.0193,384.777,0
140,25.9527,395.822,0
141,25.8744,399.561,0
142,25.8155,400.871,0
143,25.7748,400.115,0
144,25.7298,409.177,0
145,25.6713,415.125,0
146,25.6193,406.857,0
147,25.5595,404.932,0
148,25.4818,409.401,0
149,25.4089,410.573,0
150,25.3488,403.708,0
151,25.30628,400.924,0
152,25.2593,404.016,0
153,25.2017,409.962,0
154,25.112,409.994,0
155,25.0297,410.921,0
156,24.9801,413.622,0
157,24.9225,413.965,0
158,24.84285,415.422,0
159,24.7797,413.874,0
160,24.72514,412.156,0
161,24.6623,410.863,0
162,24.5873,410.363,0
163,24.5226,418.003,0
164,24.4631,417.921,0
165,24.4076,414.544,0
166,24.33489,412.507,0
167,24.243,409.272,0
168,24.1832,410.627,0
169,24.1307,417.694,0
170,24.0661,423.873,0
171,23.9804,427.956,0
172,23.9106,422.144,0
173,23.8646,417.675,0
174,23.808,418.447,0
175,23.7318,427.167,0
176,23.6449,426.401,0
177,23.5888,424.186,0
178,23.5391,419.314,0
179,23.4807,420.644,0
180,23.3977,432.223,0
181,23.3113,438.306,0
182,23.2535,433.509,0
183,23.2127,431.246,0
184,23.1452,430.261,0
185,23.0676,432.971,0
186,22.9822,429.876,0
187,22.9039,425.801,0
188,22.8518,428.972,0
189,22.8042,427.611,0
190,22.7352,427.986,0
191,22.6429,435.992,0
192,22.5776,439.805,0
193,22.52448,439.344,0
194,22.4538,437.601,0
195,22.3839,431.063,0
196,22.3054,427.771,0
197,22.2514,438.252,0
198,22.2044,437.574,0
199,22.1291,431.14,0
200,22.0609,428.911,0
201,22.006,427.657,0
202,21.94537,430.966,0
203,21.86101,433.312,0
204,21.7642,431.218,0
205,21.6937,427.572,0
206,21.6502,426.7,0
207,21.5867,435.978,0
208,21.5001,442.658,0
209,21.3981,445.892,0
210,21.3143,445.286,0
211,21.2683,446.584,0
212,21.217,447.634,0
213,21.135,440.387,0
214,21.05861,441.319,0
215,21.00543,440.718,0
216,20.9435,437.52,0
217,20.8732,439.697,0
218,20.7913,447.039,0
219,20.7243,452.828,0
220,20.6699,444.33,0
221,20.594,447.064,0
222,20.5073,452.711,0
223,20.4484,450.634,0
224,20.3897,440.755,0
225,20.3198,434.578,0
226,20.2533,444.232,0
227,20.1649,451.641,0
228,20.0811,452.485,0
229,20.038,446.327,0
230,19.9777,443.437,0
231,19.8922,442.237,0
232,19.8064,443.236,0
233,19.7386,452.712,0
234,19.6767,451.892,0
235,19.6131,449.378,0
236,19.5386,454.727,0
237,19.4472,456.81,0
238,19.361,456.311,0
239,19.2958,466.228,0
240,19.239,465.872,0
241,19.1744,458.832,0
242,19.086,455.878,0
243,19.002,456.18,0
244,18.944,460.087,0
245,18.8734,466.548,0
246,18.7902,471.577,0
247,18.7053,473.314,0
248,18.6415,473.712,0
249,18.5805,471.969,0
250,18.5058,468.605,0
251,18.4161,467.378,0
252,18.3247,471.076,0
253,18.2792,462.912,0
254,18.2402,454.736,0
255,18.1692,462.655,0
256,18.0761,466.774,0
257,17.9746,466.673,0
258,17.8999,462.702,0
259,17.8446,470.957,0
260,17.78006,481.75,0
261,17.6902,475.443,0
262,17.6031,470.09,0
263,17.5463,478.748,0
264,17.4896,485.269,0
265,17.4098,485.489,0
266,17.3346,484.421,0
267,17.2482,482.965,0
268,17.1436,477.073,0
269,17.0594,483.59,0
270,17.00073,493.061,0
271,16.9396,485.456,0
272,16.8653,478.954,0
273,16.7734,480.443,0
274,16.6847,492.937,0
275,16.6185,495.346,0
276,16.54979,491.0088,0
277,16.4681,488.323,0
278,16.3715,495.938,0
279,16.29837,506.874,0
280,16.2429,508.95,0
281,16.1662,502.693,0
282,16.0697,493.273,0
283,15.977,492.21,0
284,15.917,504.276,0
285,15.8523,503.912,0
286,15.7661,502.421,0
287,15.6864,504,0
288,15.6108,507.948,0
289,15.5271,511.007,0
290,15.4469,513.53,0
291,15.35275,507.884,0
292,15.2691,503.323,0
293,15.1899,513.991,0
294,15.1307,520.975,0
295,15.0541,510.205,0
296,14.9547,506.516,0
297,14.8717,517.033,0
298,14.7995,523.125,0
299,14.71482,526.555,0
300,14.6113,533.638,0
301,14.51,535.76,0
302,14.4425,536.085,0
303,14.3876,540.098,0
304,14.3002,540.439,0
305,14.1891,539.435,0
306,14.0823,532.431,0
307,14.0149,531.736,0
308,13.9488,535.753,0
309,13.8678,533.623,0
310,13.7639,530.121,0
311,13.6616,533.094,0
312,13.60031,539.349,0
313,13.53276,531.613,0
314,13.4323,529.349,0
315,13.3484,535.954,0
316,13.2711,540.279,0
317,13.1851,552.225,0
318,13.09813,560.247,0
319,13.01622,552.356,0
320,12.9389,551.895,0
321,12.8528,555.986,0
322,12.7347,554.538,0
323,12.6443,553.692,0
324,12.5858,553.326,0
325,12.5114,550.575,0
326,12.4116,544.551,0
327,12.3196,554.326,0
328,12.251,564.699,0
329,12.1722,552.843,0
330,12.0721,537.432,0
331,11.9686,531.837,0
332,11.8975,539.848,0
333,11.8233,548.904,0
334,11.7283,553.401,0
335,11.6404,550.635,0
336,11.5477,559.046,0
337,11.4649,572.949,0
338,11.3935,569.439,0
339,11.3009,561.005,0
340,11.196,559.773,0
341,11.1071,556.275,0
342,11.036,549.932,0
343,10.9597,547.562,0
344,10.869,554.953,0
345,10.76599,569.49,0
346,10.6596,570.072,0
347,10.5726,566.71,0
348,10.4934,566.013,0
349,10.4039,570.689,0
350,10.3053,578.907,0
351,10.1989,571.486,0
352,10.1156,568.684,0
353,10.0448,574.122,0
354,9.953443,573.538,0
355,9.844725,580.961,0
356,9.74648,587.595,0
357,9.673684,595.049,0
358,9.591052,585.167,0
359,9.477766,570.387,0
360,9.376553,568.134,0
361,9.307349,564.258,0
362,9.219728,577.942,0
363,9.119025,592.052,0
364,9.035728,586.301,0
365,8.958463,582.724,0
366,8.867136,583.82,0
367,8.767365,580.939,0
368,8.662,579.693,0
369,8.570344,581.643,0
370,8.486285,590.882,0
371,8.391571,594.395,0
372,8.285993,594.552,0
373,8.204797,606.828,0
374,8.12509,616.111,0
375,8.024387,615.267,0
376,7.917262,608.77,0
377,7.811934,602.447,0
378,7.702996,612.674,0
379,7.621304,622.277,0
380,7.542423,618.779,0
381,7.443895,608.36,0
382,7.337643,602.979,0
383,7.263737,602.396,0
384,7.186842,597.519,0
385,7.089189,592.911,0
386,6.987623,588.784,0
387,6.871056,593.591,0
388,6.759289,599.637,0
389,6.671216,589.963,0
390,6.591761,592.958,0
391,6.49714,603.559,0
392,6.381172,612.049,0
393,6.256361,610.626,0
394,6.177956,601.708,0
395,6.113953,599.196,0
396,6.029654,601.014,0
397,5.935265,603.03,0
398,5.8318,600.39,0
399,5.742426,603.765,0
400,5.660826,599.875,0
401,5.558124,590.356,0
402,5.454589,584.825,0
403,5.363941,579.654,0
404,5.267236,578.083,0
405,5.165136,577.651,0
406,5.081677,582.787,0
407,5.004698,589.12,0
408,4.896633,592.853,0
409,4.777022,594.008,0
410,4.696593,599.512,0
411,4.624443,602.387,0
412,4.529773,592.368,0
413,4.418211,583.03,0
414,4.323702,582.371,0
415,4.260511,589.065,0
416,4.180666,593.506,0
417,4.061535,595.839,0
418,3.949979,605.128,0
419,3.86941,614.271,0
420,3.784775,618.449,0
421,3.672172,615.521,0
422,3.560505,609.842,0
423,3.478233,606.589,0
424,3.398552,606.873,0
425,3.295521,609.933,0
426,3.198489,601.616,0
427,3.112748,592.489,0
428,3.02195,602.524,0
429,2.913698,605.926,0
430,2.81176,603.697,0
431,2.735274,611.729,0
432,2.661099,624.512,0
433,2.562467,630.99,0
434,2.44902,614.209,0
435,2.344464,600.629,0
436,2.282798,601.338,0
437,2.21647,604.455,0
438,2.109631,606.124,0
439,1.986688,606.6,0
440,1.862503,610.032,0
441,1.767441,615.728,0
442,1.685272,618.605,0
443,1.577601,619.213,0
444,1.488793,592.715,0
445,1.389373,567.641,0
446,1.274826,560.303,0
447,1.198522,555.4,0
448,1.122214,553.835,0
449,1.03956,543.874,0
450,0.952684,536.659,0
451,0.860361,521.183,0
452,0.791295,491.668,0
453,0.730506,487.395,0
454,0.653456,476.542,0
455,0.565648,450.567,0
456,0.496946,439.282,0
457,0.439277,434.216,0
458,0.355591,422.545,0
459,0.279995,437.281,0
460,0.239681,413.53,0
461,0.200398,354.502,0
462,0.139548,303.398,0
463,0.080918,279.064,0
464,0.038185,246.251,0
465,0.011367,196.213,0
466,-0.021972,182.808,0
467,-0.045629,169.448,0
468,-0.045911,139.708,0
469,-0.057197,128.585,0
470,-0.073651,119.131,0
471,-0.087647,102.375,0
472,-0.105332,96.4108,0
473,-0.121621,88.3313,0
474,-0.133306,76.3497,0
475,-0.133736,73.6366,0
476,-0.135415,70.0658,0
477,-0.139457,62.3253,0
478,-0.161349,54.5616,0
479,-0.202408,50.1874,0
480,-0.213875,45.7528,0
481,-0.196807,39.791,0
482,-0.184888,37.9163,0
483,-0.189004,36.1543,0
484,-0.206566,31.215,0
485,-0.212135,28.0323,0
486,-0.204205,27.1594,0
487,-0.220024,25.4728,0
488,-0.232184,24.5665,0
489,-0.219002,23.7131,0
490,-0.217566,22.5401,0
491,-0.233156,22.0663,0
492,-0.23438,20.8593,0
493,-0.238888,18.8425,0
494,-0.261477,17.8951,0
495,-0.261096,17.6203,0
496,-0.25534,15.9313,0
497,-0.269882,13.322,0
498,-0.279,12.2465,0
499,-0.263481,11.8806,0
500,-0.249919,10.3862,0
501,-0.260586,9.32141,0
502,-0.276819,8.01108,0
503,-0.270162,5.84888,0
504,-0.279963,4.98957,0
505,-0.297541,4.11756,0
506,-0.285509,3.42851,0
507,-0.270644,3.50574,0
508,-0.283929,3.6442,0
509,-0.304222,3.93167,0
510,-0.298067,4.27912,0
511,-0.28636,4.46928,0
512,-0.302798,4.46879,0
513,-0.306614,2.98686,0
514,-0.301941,1.80124,0
515,-0.304834,1.57407,0
516,-0.312776,1.24804,0
517,-0.310643,1.15485,0
518,-0.302,1.16743,0
519,-0.306997,1.29844,0
520,-0.318038,1.43126,0
521,-0.320787,1.61516,0
522,-0.311555,2.06028,0
523,-0.31502,2.29564,0
524,-0.330996,1.61457,0
525,-0.330845,0.175788,0
526,-0.318947,-1.49642,0
527,-0.323971,-2.2966,0
528,-0.320915,-2.67768,0
529,-0.310379,-3.09701,0
530,-0.328485,-3.17903,0
531,-0.352877,-3.18662,0
532,-0.336961,-3.1548,0
533,-0.333633,-3.14387,0
534,-0.359781,-3.10654,0
535,-0.351201,-2.75827,0
536,-0.31931,-2.44013,0
537,-0.31191,-2.34351,0
538,-0.352141,-2.23408,0
539,-0.370432,-2.16773,0
540,-0.35933,-2.47676,0
541,-0.354916,-2.83351,0
542,-0.349814,-2.8954,0
543,-0.33513,-2.95757,0
544,-0.330858,-3.13489,0
545,-0.342852,-3.26535,0
546,-0.341356,-3.28906,0
547,-0.325196,-4.60331,0
548,-0.308098,-5.77753,0
549,-0.304733,-5.79323,0
550,-0.332698,-5.67315,0
551,-0.348269,-4.27979,0
552,-0.33769,-3.03645,0
553,-0.328216,-2.85841,0
554,-0.328807,-2.42622,0
555,-0.323519,-2.19066,0
556,-0.322544,-2.09991,0
557,-0.331766,-2.13141,0
558,-0.323211,-2.19325,0
559,-0.324808,-2.3933,0
560,-0.348148,-2.84521,0
561,-0.352914,-4.41944,0
562,-0.336432,-5.51214,0
563,-0.348237,-5.57045,0
564,-0.361261,-5.57136,0
565,-0.355944,-5.49165,0
566,-0.359941,-5.43601,0
567,-0.371121,-5.39517,0
568,-0.359504,-5.44593,0
569,-0.351262,-5.34991,0
570,-0.366127,-4.91508,0
571,-0.371059,-4.67071,0
572,-0.3809,-3.25893,0
573,-0.398605,-2.19866,0
574,-0.37974,-2.49554,0
575,-0.350092,-2.72899,0
576,-0.35498,-3.04325,0
577,-0.376856,-3.22998,0
578,-0.371507,-3.35361,0
579,-0.365824,-3.35645,0
580,-0.377126,-3.28734,0
581,-0.376342,-3.28887,0
582,-0.365139,-3.15206,0
583,-0.36975,-2.93989,0
584,-0.374026,-2.86033,0
585,-0.369,-3.76645,0
586,-0.37286,-4.57397,0
587,-0.373134,-4.50609,0
588,-0.36243,-4.34636,0
589,-0.369508,-4.19139,0
590,-0.373663,-4.21472,0
591,-0.361293,-4.57254,0
592,-0.364868,-3.65693,0
593,-0.375624,-2.71031,0
594,-0.369643,-2.83231,0
595,-0.353891,-2.95677,0
596,-0.355919,-3.1147,0
597,-0.37091,-3.11063,0
598,-0.36391,-3.12368,0
599,-0.360801,-3.04676,0
600,-0.383646,-2.94367,0
601,-0.391723,-2.66583,0
602,-0.375148,-3.48983,0
603,-0.375376,-4.43305,0
604,-0.385536,-4.2883,0
605,-0.372588,-4.30915,0
606,-0.358345,-4.47327,0
607,-0.362296,-4.6851,0
608,-0.394471,-5.05136,0
609,-0.39922,-5.33712,0
610,-0.37578,-5.44382,0
611,-0.364811,-5.46492,0
612,-0.366767,-4.25813,0
613,-0.363183,-3.13879,0