File: Non-charring/PMMA/DBI_Lund/DBI-Lund_Cone_65kW_2.csv
Time,Mass,HRR,Back Surface Temperature
[s],[g],[kW/m2],[K]
0,73.86,1.7356,0
1,73.8364,1.63574,0
2,73.8736,1.58845,0
3,74.0377,1.57464,0
4,74.1738,1.09694,0
5,74.2083,0.850266,0
6,74.2044,0.940486,0
7,74.2017,1.16156,0
8,74.2101,1.2201,0
9,74.2154,1.33609,0
10,74.21665,1.28169,0
11,74.1894,0.794711,0
12,74.15709,0.60943,0
13,74.1722,-0.845808,0
14,74.1857,-2.80472,0
15,74.1736,-3.46832,0
16,74.1487,6.26824,0
17,74.1272,38.3876,0
18,74.09771,53.1883,0
19,74.0752,113.091,0
20,74.0271,218.411,0
21,73.93525,256.492,0
22,73.7795,315.026,0
23,73.5903,415.986,0
24,73.3778,443.333,0
25,73.13574,495.804,0
26,72.9168,550.356,0
27,72.6921,559.868,0
28,72.4351,612.291,0
29,72.1506,622.726,0
30,71.8972,629.421,0
31,71.6583,652.861,0
32,71.3966,654.627,0
33,71.1027,667.499,0
34,70.8175,679.444,0
35,70.5293,700.82,0
36,70.2198,727.846,0
37,69.9404,744.185,0
38,69.6469,750.498,0
39,69.3476,758.384,0
40,69.0608,742.377,0
41,68.7651,766.531,0
42,68.4526,794.242,0
43,68.138,801.757,0
44,67.8464,794.167,0
45,67.5378,801.354,0
46,67.2042,814.539,0
47,66.90843,808.342,0
48,66.6113,789.103,0
49,66.3078,782.579,0
50,65.9895,811.101,0
51,65.6786,790.843,0
52,65.3544,770.843,0
53,65.03216,760.481,0
54,64.7173,750.503,0
55,64.3921,758.496,0
56,64.0649,803.423,0
57,63.7579,802.025,0
58,63.4206,792.384,0
59,63.078,797.458,0
60,62.7479,786.091,0
61,62.4138,792.378,0
62,62.0763,801.718,0
63,61.7668,802.066,0
64,61.4695,808.87,0
65,61.1494,814.226,0
66,60.8173,787.503,0
67,60.4963,771.465,0
68,60.1754,771.623,0
69,59.8483,820.993,0
70,59.4988,808.079,0
71,59.152,787.904,0
72,58.8452,772.621,0
73,58.5345,784.039,0
74,58.1902,799.679,0
75,57.8501,836.181,0
76,57.52639,841.834,0
77,57.1891,817.496,0
78,56.84757,806.147,0
79,56.51275,792.678,0
80,56.1885,859.455,0
81,55.8671,902.495,0
82,55.5394,863.471,0
83,55.1924,840.824,0
84,54.85173,842.802,0
85,54.5188,832.09,0
86,54.1881,821.853,0
87,53.8412,822.301,0
88,53.4904,804.791,0
89,53.17155,790.249,0
90,52.8495,789.906,0
91,52.4957,801.483,0
92,52.1454,795.538,0
93,51.812,790.602,0
94,51.4733,813.011,0
95,51.13,846.276,0
96,50.7813,823.658,0
97,50.4152,804.343,0
98,50.0703,832.033,0
99,49.7167,862.782,0
100,49.3786,874.078,0
101,49.0285,839.202,0
102,48.67009,845.026,0
103,48.3314,861.454,0
104,47.9643,854.312,0
105,47.5888,865.666,0
106,47.217,882.326,0
107,46.8299,900.872,0
108,46.482,881.423,0
109,46.1427,870.904,0
110,45.7702,900.085,0
111,45.405,964.474,0
112,45.0399,930.296,0
113,44.6729,898.992,0
114,44.2753,885.803,0
115,43.897,923.446,0
116,43.5611,955.934,0
117,43.21835,951.682,0
118,42.8343,911.068,0
119,42.4523,885.889,0
120,42.0958,902.714,0
121,41.70421,863.552,0
122,41.3208,835.492,0
123,40.9652,868.978,0
124,40.60809,926.205,0
125,40.2189,957.075,0
126,39.8385,950.84,0
127,39.4484,953.381,0
128,39.0682,906.17,0
129,38.6864,872.547,0
130,38.2788,890.39,0
131,37.8979,911.885,0
132,37.5242,925.239,0
133,37.1452,995.275,0
134,36.7744,961.243,0
135,36.3949,926.014,0
136,35.978,950.089,0
137,35.5734,988.196,0
138,35.156,1009.67,0
139,34.7486,1001.06,0
140,34.3532,962.785,0
141,33.96773,946.411,0
142,33.5872,975.832,0
143,33.2042,977.675,0
144,32.8033,970.452,0
145,32.392,930.697,0
146,31.9872,929.478,0
147,31.5388,949.573,0
148,31.135,958.679,0
149,30.764,989.651,0
150,30.3611,976.758,0
151,29.9444,965.508,0
152,29.5189,975.153,0
153,29.0843,997.948,0
154,28.6688,1017.13,0
155,28.2499,1013.92,0
156,27.8431,1069.78,0
157,27.4462,1105.85,0
158,27.0118,1033.77,0
159,26.5688,990.111,0
160,26.1474,1004.75,0
161,25.7075,1005.25,0
162,25.2626,1056.11,0
163,24.84463,1017.02,0
164,24.4202,979.301,0
165,23.9592,1006.26,0
166,23.5302,997.496,0
167,23.1042,982.825,0
168,22.6264,1080.52,0
169,22.1799,1222.57,0
170,21.7621,1278.13,0
171,21.3308,1123,0
172,20.8818,1074.34,0
173,20.427,1108.42,0
174,19.96262,1080.11,0
175,19.4985,1063.01,0
176,19.017,1070.24,0
177,18.5597,1053.83,0
178,18.1149,1100.64,0
179,17.6564,1166.07,0
180,17.192,1197.29,0
181,16.7263,1126,0
182,16.2403,1144.97,0
183,15.7458,1200.65,0
184,15.2504,1175.72,0
185,14.7835,1173.24,0
186,14.303,1193.34,0
187,13.81512,1145.99,0
188,13.3173,1152.66,0
189,12.8205,1194.47,0
190,12.3228,1297.74,0
191,11.8053,1413.88,0
192,11.2559,1489.44,0
193,10.6936,1450.7,0
194,10.1101,1434.73,0
195,9.559679,1302.98,0
196,9.028553,1181.22,0
197,8.469755,1202.59,0
198,7.920362,1355.24,0
199,7.362947,1436.57,0
200,6.766751,1421.29,0
201,6.170266,1267.04,0
202,5.60258,1150.71,0
203,5.051913,1355.78,0
204,4.557108,1352.39,0
205,4.090398,1117.61,0
206,3.444517,1087.93,0
207,3.047244,1034.81,0
208,2.645822,942.695,0
209,2.2756,950.292,0
210,1.926641,886.776,0
211,1.62823,733.379,0
212,1.365667,695.287,0
213,1.145335,620.014,0
214,0.951111,523.402,0
215,0.778826,443.111,0
216,0.633365,417.392,0
217,0.520106,380.413,0
218,0.44612,314.248,0
219,0.3604,287.845,0
220,0.269686,263.075,0
221,0.197515,214.446,0
222,0.134232,198.657,0
223,0.073186,180.36,0
224,0.02151,145.303,0
225,-0.008776,130.741,0
226,-0.03775,115.177,0
227,-0.071666,93.6342,0
228,-0.093908,84.9887,0
229,-0.114895,74.8088,0
230,-0.146743,58.6911,0
231,-0.178876,44.7492,0
232,-0.189679,40.5824,0
233,-0.170567,33.4723,0
234,-0.159963,23.3073,0
235,-0.16073,19.9969,0
236,-0.167959,16.1827,0
237,-0.192202,10.8263,0
238,-0.224258,8.68348,0
239,-0.233894,7.64513,0
240,-0.213944,6.8904,0
241,-0.199197,6.9882,0
242,-0.210897,6.64839,0
243,-0.219028,6.00562,0
244,-0.203836,5.7587,0
245,-0.189591,5.12517,0
246,-0.213099,4.46361,0
247,-0.227782,4.35852,0
248,-0.237335,4.05847,0
249,-0.264071,3.79013,0
250,-0.25069,3.47954,0
251,-0.231589,3.27143,0
252,-0.235694,2.82419,0
253,-0.244114,2.0874,0
254,-0.255061,1.78444,0
255,-0.253303,1.78263,0
256,-0.265619,1.467,0
257,-0.259297,1.23108,0
258,-0.253342,1.29351,0
259,-0.256,1.15573,0
260,-0.244675,1.01067,0
261,-0.232287,0.967708,0
262,-0.236853,1.22188,0
263,-0.235292,1.39385,0
264,-0.235671,1.31349,0
265,-0.255645,1.29022,0
266,-0.268554,1.3357,0
267,-0.253281,1.37594,0
268,-0.251199,1.44355,0
269,-0.260803,1.59284,0
270,-0.271385,1.67526,0
271,-0.272495,1.17721,0
272,-0.269565,0.761656,0
273,-0.255281,0.68281,0
274,-0.242297,1.09258,0
275,-0.256064,1.34318,0
276,-0.259115,1.3397,0
277,-0.245271,1.34684,0
278,-0.24987,1.2943,0
279,-0.272452,1.26327,0
280,-0.28858,1.10232,0
281,-0.274457,0.926388,0
282,-0.254349,0.92575,0
283,-0.254533,0.841047,0
284,-0.256923,0.74124,0
285,-0.264174,0.682383,0
286,-0.272766,0.658618,0
287,-0.287266,0.668452,0
288,-0.292799,1.07688,0
289,-0.27853,1.4043,0
290,-0.260209,1.58351,0
291,-0.26574,1.79362,0
292,-0.275117,1.85476,0
293,-0.278233,1.73811,0
294,-0.289403,1.59397,0
295,-0.319557,1.52216,0
296,-0.31834,1.49572,0
297,-0.290998,1.44764,0
298,-0.278474,1.42034,0
299,-0.280414,1.45755,0
300,-0.293588,1.30663,0
301,-0.299155,1.09919,0
302,-0.295495,1.05467,0
303,-0.300287,1.10491,0
304,-0.308784,1.02893,0
305,-0.297091,0.941525,0
306,-0.282773,1.28762,0
307,-0.280133,1.54132,0
308,-0.301248,1.51784,0
309,-0.312882,1.52174,0
310,-0.318327,1.55365,0
311,-0.311371,1.56088,0
312,-0.308157,1.17644,0
313,-0.30351,0.990518,0
314,-0.292786,1.06415,0
315,-0.290799,1.12735,0
316,-0.278535,1.04304,0
317,-0.26586,0.853921,0
318,-0.268337,0.801312,0
319,-0.284434,0.797034,0
320,-0.295663,1.2215,0
321,-0.299232,1.50482,0
322,-0.318304,1.52603,0
323,-0.318739,1.6508,0
324,-0.301905,1.74333,0
325,-0.301444,1.45018,0
326,-0.302467,1.07988,0
327,-0.299965,0.976306,0
328,-0.317698,0.8819,0