File: Non-charring/PMMA/DBI_Lund/DBI-Lund_Cone_65kW_3.csv
Time,Mass,HRR,Back Surface Temperature
[s],[g],[kW/m2],[K]
0,73.03,2.66635,0
1,73.0433,2.5891,0
2,73.1735,2.53946,0
3,73.31459,1.99684,0
4,73.2947,1.4448,0
5,73.2594,1.28027,0
6,73.3059,1.02257,0
7,73.3209,0.958789,0
8,73.31183,1.00265,0
9,73.3193,0.581486,0
10,73.3113,0.336861,0
11,73.2824,-0.416381,0
12,73.2814,-0.851973,0
13,73.307,-5.40955,0
14,73.3161,-5.16743,0
15,73.3042,-3.44717,0
16,73.28332,24.2544,0
17,73.2777,94.0706,0
18,73.2344,124.603,0
19,73.152,192.518,0
20,73.0352,317.443,0
21,72.8828,354.708,0
22,72.7126,419.213,0
23,72.5178,501.393,0
24,72.2956,496.426,0
25,72.08403,505.01,0
26,71.8621,543.547,0
27,71.6198,553.444,0
28,71.363,585.481,0
29,71.0879,630.553,0
30,70.8201,669.15,0
31,70.54823,701.414,0
32,70.2553,724.628,0
33,69.9902,741.904,0
34,69.7345,726.602,0
35,69.4442,742.927,0
36,69.1422,766.114,0
37,68.8402,739.669,0
38,68.548,708.216,0
39,68.2533,711.334,0
40,67.9267,730.385,0
41,67.6202,732.718,0
42,67.3525,771.882,0
43,67.0614,796.891,0
44,66.7608,782.878,0
45,66.4468,777.942,0
46,66.1263,787.703,0
47,65.8214,803.547,0
48,65.4982,818.824,0
49,65.1729,828.441,0
50,64.839,796.48,0
51,64.5309,794.283,0
52,64.2363,807.276,0
53,63.93528,808.133,0
54,63.6152,799.652,0
55,63.294,795.924,0
56,62.9708,797.095,0
57,62.6277,822.602,0
58,62.3015,841.729,0
59,62.01228,826.225,0
60,61.7078,789.129,0
61,61.3911,786.876,0
62,61.0605,797.399,0
63,60.7048,763.719,0
64,60.3641,814.733,0
65,60.0656,863.719,0
66,59.7419,831.792,0
67,59.3926,849.613,0
68,59.0482,877.894,0
69,58.7148,808.814,0
70,58.38682,827.516,0
71,58.047,869.447,0
72,57.7087,840.269,0
73,57.3874,821.57,0
74,57.0522,822.324,0
75,56.734,818.473,0
76,56.4179,805.265,0
77,56.0722,811.837,0
78,55.7102,820.567,0
79,55.3645,837.61,0
80,55.0027,838.146,0
81,54.6502,835.261,0
82,54.329,872.303,0
83,53.9886,828.135,0
84,53.6344,788.235,0
85,53.3114,824.044,0
86,52.964,808.088,0
87,52.5999,789.278,0
88,52.2402,797.698,0
89,51.8775,829.637,0
90,51.5441,849.508,0
91,51.2288,838.654,0
92,50.8779,843.694,0
93,50.5316,876.407,0
94,50.1882,890.86,0
95,49.8424,896.5,0
96,49.4901,866.611,0
97,49.1233,851.796,0
98,48.7577,929.528,0
99,48.3838,953.433,0
100,48.0432,943.227,0
101,47.7056,912.008,0
102,47.3548,875.015,0
103,47.0018,866.627,0
104,46.6238,865.799,0
105,46.24,867.6473,0
106,45.86568,872.576,0
107,45.4939,885.968,0
108,45.1125,868.126,0
109,44.7717,853.229,0
110,44.4399,882.39,0
111,44.0755,914.144,0
112,43.7062,972.534,0
113,43.3355,1011.01,0
114,42.9609,952.055,0
115,42.5699,951.801,0
116,42.1982,981.972,0
117,41.8447,929.775,0
118,41.4677,916.555,0
119,41.0905,931.338,0
120,40.7243,928.166,0
121,40.34312,895.255,0
122,39.9558,876.656,0
123,39.5586,885.906,0
124,39.1715,890.606,0
125,38.7907,894.435,0
126,38.421,964.987,0
127,38.0554,989.621,0
128,37.6714,920.784,0
129,37.2908,880.953,0
130,36.896,898.804,0
131,36.5165,943.39,0
132,36.1252,973.351,0
133,35.6968,1004.1,0
134,35.2937,1030.92,0
135,34.9303,1042.29,0
136,34.5541,1004.45,0
137,34.1565,926.363,0
138,33.7496,896.84,0
139,33.3443,943.534,0
140,32.952,993.469,0
141,32.5348,1011.86,0
142,32.1429,977.059,0
143,31.7703,950.301,0
144,31.3647,956.457,0
145,30.9342,967.274,0
146,30.517,963.621,0
147,30.1022,1005.56,0
148,29.6681,1047.98,0
149,29.2779,1106.96,0
150,28.8418,1093,0
151,28.4272,1071.1,0
152,28.0139,1067.64,0
153,27.5416,1014.3,0
154,27.11073,987.92,0
155,26.7433,964.666,0
156,26.3264,986.887,0
157,25.8703,1019.65,0
158,25.4277,1057.91,0
159,25.0124,1048.19,0
160,24.5933,1100.89,0
161,24.1121,1145.76,0
162,23.6053,1088.38,0
163,23.1818,1106.03,0
164,22.7874,1140.18,0
165,22.3656,1137.36,0
166,21.90357,1087.2,0
167,21.4074,1050.84,0
168,20.9322,1132.23,0
169,20.4753,1134.24,0
170,20.0634,1106.22,0
171,19.6675,1094.41,0
172,19.1946,1096.97,0
173,18.692,1111.29,0
174,18.2705,1168.71,0
175,17.8445,1253.6,0
176,17.32626,1292.15,0
177,16.7991,1192.39,0
178,16.3721,1143.06,0
179,15.9566,1175.06,0
180,15.4758,1196.76,0
181,14.9914,1121.4,0
182,14.5372,1106.23,0
183,14.0236,1138.51,0
184,13.5126,1141.48,0
185,12.9921,1270.98,0
186,12.4712,1393.85,0
187,11.996,1269.91,0
188,11.4734,1236.49,0
189,10.947,1305.1,0
190,10.4305,1219.26,0
191,9.906027,1225.43,0
192,9.380183,1282.04,0
193,8.811169,1223.6,0
194,8.243236,1216.84,0
195,7.654243,1217.42,0
196,7.090296,1194.87,0
197,6.532221,1278.53,0
198,5.990965,1258.65,0
199,5.478024,1187.55,0
200,4.973994,1353.65,0
201,4.445879,1320.96,0
202,3.928325,1194.5,0
203,3.429526,1185.52,0
204,2.975154,1080.67,0
205,2.586133,920.124,0
206,2.20243,920.532,0
207,1.837988,862.7,0
208,1.516654,725.848,0
209,1.23827,742.443,0
210,0.986513,654.926,0
211,0.775568,539.455,0
212,0.636187,447.688,0
213,0.523612,424.386,0
214,0.427476,383.611,0
215,0.334437,301.975,0
216,0.261203,272.423,0
217,0.202359,232.208,0
218,0.155924,174.738,0
219,0.105983,159.363,0
220,0.089155,138.631,0
221,0.078892,103.417,0
222,0.040311,91.5395,0
223,0.011281,81.8614,0
224,0.000924,65.782,0
225,-0.019697,58.4473,0
226,-0.034431,49.0485,0
227,-0.046242,36.1757,0
228,-0.090289,32.3664,0
229,-0.088824,27.2205,0
230,-0.065038,18.8779,0
231,-0.053825,12.5819,0
232,-0.034,10.2991,0
233,-0.025862,8.59371,0
234,-0.035688,7.08426,0
235,-0.068305,6.8988,0
236,-0.108755,6.62986,0
237,-0.101996,5.75763,0
238,-0.085984,5.40491,0
239,-0.056793,4.67259,0
240,-0.037181,3.78907,0
241,-0.045123,3.6264,0
242,-0.062152,3.63997,0
243,-0.083901,3.72283,0
244,-0.106841,3.80726,0
245,-0.115503,3.54837,0
246,-0.09806,3.06554,0
247,-0.086381,2.74992,0
248,-0.10209,2.66708,0
249,-0.101554,2.59562,0
250,-0.11521,2.1304,0
251,-0.126764,1.89527,0
252,-0.136478,1.88503,0
253,-0.141301,1.85931,0
254,-0.139483,1.87285,0
255,-0.140656,1.91352,0
256,-0.122702,2.45776,0
257,-0.104696,2.80977,0
258,-0.098933,2.89323,0
259,-0.12268,2.94581,0
260,-0.139,2.94695,0
261,-0.156203,2.85892,0
262,-0.142139,2.72409,0
263,-0.124427,2.66071,0
264,-0.119489,2.67147,0
265,-0.118538,2.67712,0
266,-0.12829,2.69286,0
267,-0.14831,2.69491,0
268,-0.182418,2.72304,0
269,-0.205275,2.81375,0
270,-0.189949,2.85949,0
271,-0.177,2.58067,0
272,-0.176155,2.2857,0
273,-0.170845,2.23358,0
274,-0.16537,2.20248,0
275,-0.171648,2.11885,0
276,-0.185565,2.07773,0
277,-0.195222,2.01321,0
278,-0.176494,1.66539,0
279,-0.155038,1.36778,0
280,-0.144443,1.3393,0
281,-0.157615,1.40259,0
282,-0.165578,1.51415,0
283,-0.192667,1.58032,0
284,-0.216439,1.685,0
285,-0.189787,1.62157,0
286,-0.176752,1.5476,0
287,-0.17543,1.50236,0
288,-0.172649,1.47033,0
289,-0.175466,1.46895,0
290,-0.168262,1.01279,0
291,-0.173066,0.694508,0
292,-0.18461,0.702784,0
293,-0.198941,0.757114,0
294,-0.207364,0.902689,0
295,-0.213422,0.989879,0
296,-0.207897,1.03899,0
297,-0.188801,0.611672,0
298,-0.185354,0.122164,0
299,-0.192011,0.05207389,0
300,-0.191602,0.394578,0
301,-0.216406,0.672304,0
302,-0.238993,0.680315,0
303,-0.22872,0.696862,0
304,-0.228254,0.712878,0
305,-0.228017,0.712469,0
306,-0.210595,0.828331,0
307,-0.207229,1.04109,0
308,-0.222158,1.14676,0
309,-0.231,1.1401,0
310,-0.246303,1.02754,0
311,-0.241738,0.928244,0
312,-0.213648,0.442391,0
313,-0.215831,0.04391778,0
314,-0.230361,-0.009261743,0
315,-0.228009,-0.02343564,0
316,-0.239109,-0.399628,0