File: Non-charring/PMMA/DBI_Lund/DBI-Lund_Cone_65kW_1.csv
Time,Mass,HRR,Back Surface Temperature
[s],[g],[kW/m2],[K]
0,73.31,1.04803,295.764
1,73.3633,1.02255,295.734
2,73.46624,0.898881,295.726
3,73.5574,0.321429,295.73
4,73.61,0.0569524,295.721
5,73.6623,-0.0534033,295.715
6,73.7076,-0.116656,295.714
7,73.7424,-0.119466,295.652
8,73.8269,-0.0727754,295.6
9,73.8958,-0.498112,295.59
10,73.9283,-0.740825,295.594
11,73.9573,-0.839235,295.621
12,74.0028,-3.32763,295.635
13,74.0361,-4.76776,295.635
14,74.0371,-5.07433,295.635
15,74.0311,4.62704,295.67
16,74.0429,48.9087,295.688
17,74.0497,72.0366,295.766
18,74.0458,139.054,295.904
19,74.0281,262.501,295.954
20,73.9356,306.072,296.061
21,73.7828,372.995,296.313
22,73.5934,470.365,296.412
23,73.38611,487.045,296.649
24,73.18466,510.752,297.017
25,72.9626,576.773,297.143
26,72.7187,603.152,297.501
27,72.4742,599.022,298.057
28,72.2138,623.625,298.254
29,71.93049,677.87,298.705
30,71.62124,702.327,299.483
31,71.3566,714.305,300.345
32,71.1269,718.918,300.668
33,70.85,715.62,301.289
34,70.5476,743.368,302.339
35,70.259,766.578,302.738
36,69.9769,776.239,303.501
37,69.6693,785.786,304.748
38,69.351,805.708,305.223
39,69.0616,827.939,306.046
40,68.76565,790.835,307.463
41,68.458,768.182,308.011
42,68.1191,765.958,308.926
43,67.8053,767.289,310.501
44,67.4942,769.008,311.065
45,67.1718,787.596,312.055
46,66.8344,803.369,313.759
47,66.5366,812.621,315.527
48,66.2419,841.755,316.152
49,65.9251,858.459,317.345
50,65.5983,830.301,319.137
51,65.267,821.214,319.764
52,64.936,784.594,320.963
53,64.6118,780.221,322.889
54,64.2822,793.34,323.594
55,63.9356,819.166,324.852
56,63.616,832.352,326.787
57,63.306,835.87,327.471
58,62.9705,834.668,328.782
59,62.6526,829.113,330.749
60,62.317,829.829,331.579
61,61.9713,831.82,332.891
62,61.6451,827.971,335.05
63,61.3285,829.324,337.064
64,61.0031,828.527,337.753
65,60.6638,820.945,339.123
66,60.3166,809.747,341.225
67,59.9668,806.544,341.999
68,59.6186,843.373,343.346
69,59.2715,805.376,345.478
70,58.9326,770.334,346.28
71,58.6138,787.843,347.598
72,58.3104,801.315,349.732
73,57.9675,807.241,350.528
74,57.6249,814.7,351.881
75,57.2842,849.499,354.019
76,56.9101,875.121,354.788
77,56.5416,853.269,356.14
78,56.2131,853.638,358.26
79,55.8858,865.317,359.013
80,55.54981,832.806,360.326
81,55.2025,869.12,362.411
82,54.85323,911.791,364.51
83,54.4895,917.428,365.265
84,54.1255,876.583,366.58
85,53.7625,849.383,368.523
86,53.4143,848.615,369.196
87,53.0705,833.399,370.589
88,52.713,879.525,372.67
89,52.3614,908.019,373.389
90,52.0144,866.599,374.6
91,51.6472,837.525,376.648
92,51.2874,837.888,377.43
93,50.9175,813.823,378.731
94,50.5946,861.876,380.775
95,50.2568,901.334,381.51
96,49.893,869.753,382.784
97,49.5093,874.932,384.758
98,49.1431,893.061,386.596
99,48.7794,896.779,387.253
100,48.3969,874.023,388.456
101,48.0129,865.707,390.482
102,47.6841,865.277,391.244
103,47.3373,875.208,392.621
104,46.9796,881.673,394.79
105,46.6369,890.569,395.569
106,46.2735,857.102,396.928
107,45.8821,909.889,399.177
108,45.51979,954.709,400
109,45.1474,930.968,401.393
110,44.7899,935.168,403.713
111,44.4303,952.063,404.532
112,44.03814,922.907,405.975
113,43.6451,923.993,408.191
114,43.2575,944.103,410.493
115,42.8882,945.375,411.341
116,42.5023,926.773,412.844
117,42.108,886.04,415.134
118,41.7409,871.08,415.909
119,41.3598,901.697,417.34
120,40.9613,964.283,419.523
121,40.5353,991.133,420.301
122,40.1503,971.647,421.861
123,39.8059,966.025,424.193
124,39.4244,969.497,425.044
125,39.0685,967.933,425.91
126,38.7197,960.742,427.437
127,38.2089,918.564,429.664
128,37.8554,895.563,431.106
129,37.4528,931.7973,433.395
130,37.0599,965.13,435.657
131,36.683,935.227,436.462
132,36.2863,962.144,438.065
133,35.8876,963.032,440.451
134,35.48339,948.949,441.282
135,35.069,961.008,442.916
136,34.6774,923.786,445.343
137,34.28701,906.199,446.142
138,33.8679,944.505,447.633
139,33.4604,992.542,450.159
140,33.0907,1008.09,452.104
141,32.7039,998.306,453.646
142,32.2151,947.266,455.366
143,31.86342,958.121,456.36
144,31.4487,962.153,458.12
145,31.0173,1005.6,460.874
146,30.5959,1042.03,461.898
147,30.1874,1000.95,463.648
148,29.7968,1033.11,465.886
149,29.3964,1137.59,467.985
150,28.9003,1107.83,470.594
151,28.5352,1018.89,472.403
152,28.0923,1024.34,475.287
153,27.653,1053.44,476.379
154,27.25131,1036.25,478.077
155,26.8472,1002.17,480.647
156,26.4081,986.464,481.71
157,25.9844,1028.09,483.222
158,25.5415,1097.94,485.741
159,25.0814,1139.99,486.86
160,24.64031,1100.81,488.341
161,24.2152,1036.41,490.933
162,23.7718,1022.92,491.872
163,23.3487,1080.54,492.827
164,22.9192,1152.02,494.768
165,22.3994,1080.1,498.553
166,21.9845,1081.88,499.406
167,21.50339,1121.52,501.061
168,21.0351,1086.03,504.242
169,20.5997,1043.02,505.479
170,20.1579,1067.89,507.638
171,19.7188,1088.69,511.487
172,19.2569,1106,513.017
173,18.786,1082.19,515.74
174,18.3075,1043.36,520.645
175,17.8289,1043.79,522.596
176,17.38568,1170.85,525.901
177,16.9043,1164.31,532.062
178,16.4045,1105.45,535.002
179,15.9148,1251.37,539.973
180,15.4127,1233.37,549.394
181,14.9442,1159.41,559.065
182,14.44757,1106.28,562.632
183,13.9118,1186.82,568.361
184,13.3872,1193.29,576.536
185,12.8827,1146.64,579.768
186,12.3954,1237.97,584.83
187,11.8881,1388.78,592.582
188,11.3501,1465.36,595.813
189,10.7964,1435.18,599.961
190,10.23633,1383.12,606.499
191,9.68218,1372.7,608.769
192,9.153481,1283.59,612.553
193,8.650883,1275.15,619.34
194,8.106595,1313.82,622.347
195,7.548808,1250.04,626.421
196,7.010262,1441.77,632.909
197,6.453151,1535.58,635.705
198,5.909118,1508.42,640.276
199,5.421031,1282.93,649.424
200,4.970378,1087.09,661.208
201,4.54076,1065.22,666.046
202,4.130499,1072.19,678.75
203,3.722467,976.44,709.87
204,3.379629,824.298,724.55
205,3.052389,767.244,764.575
206,2.766587,698.003,837.582
207,2.517133,592.773,869.537
208,2.300683,563.899,907.707
209,2.123328,551.136,978.541
210,1.973389,481.465,1006.467
211,1.836695,439.136,1057.485
212,1.712054,391.891,1099.93
213,1.614349,313.639,1105.099
214,1.512595,289.707,1079.554
215,1.424234,257.498,1041.931
216,1.372367,204.265,1005.221
217,1.340563,188.062,989.38
218,1.295033,162.355,974.931
219,1.241755,128.659,960.06
220,1.208384,104.214,957.348
221,1.187222,95.1748,948.094
222,1.153069,84.5499,936.223
223,1.134118,64.1619,931.828
224,1.144005,56.1974,928.43
225,1.148253,48.041,922.807
226,1.133825,35.3655,920.337
227,1.122582,30.6111,907.539
228,1.124024,25.3038,889.845
229,1.107809,18.5234,883.807
230,1.095228,16.868,877.134
231,1.094091,13.7517,869.207
232,1.081064,9.48874,862.14
233,1.092254,8.20618,859.344
234,1.104635,7.98914,855.57
235,1.113675,7.35588,852.109
236,1.119454,6.49683,851.222
237,1.103679,6.1256,844.437
238,1.105729,4.9736,839.031
239,1.102969,3.73094,838.799
240,1.094496,3.4097,836.191
241,1.090624,3.05774,830.237
242,1.09957,2.44711,827.593
243,1.109538,2.19744,826.816
244,1.122458,2.28736,826.243
245,1.111615,2.00559,826.169
246,1.093557,1.78013,825.385
247,1.090446,1.75998,826.521
248,1.074912,1.24936,826.957
249,1.067508,0.962451,826.399
250,1.060973,0.98472,826.156
251,1.071161,0.669274,823.041
252,1.080104,0.433815,821.2
253,1.087283,0.136474,823.234
254,1.098265,-0.0238819,823.875
255,1.098162,-0.109715,823.497
256,1.089578,-0.179411,822.55
257,1.047298,-0.218653,823.283
258,1.059355,-0.259259,824.355
259,1.084427,-0.265788,823.437
260,1.086479,-0.601085,820.638
261,1.091863,-0.76071,819.301
262,1.081589,-0.673351,820.191
263,1.083632,-0.607138,821.543
264,1.07813,-0.709466,822.028
265,1.078801,-0.818029,820.574
266,1.074835,-1.23445,819.735
267,1.065984,-1.5708,822.001
268,1.069559,-1.61246,823.504
269,1.077605,-1.55358,821.782
270,1.084711,-1.44821,820.279
271,1.076494,-1.30718,820.061
272,1.075993,-1.24142,820.367
273,1.041553,-1.26765,821.012
274,1.045743,-1.78048,821.262
275,1.078932,-2.1729,820.052
276,1.085569,-2.22184,817.874
277,1.08569,-2.25436,816.948
278,1.079197,-2.27238,816.179
279,1.066333,-2.22091,815.602
280,1.053333,-2.04023,815.619
281,1.034565,-1.90145,817.923
282,1.032863,-1.92805,819.951
283,1.039794,-2.08744,820.936
284,1.065281,-2.14316,821.363
285,1.059926,-2.21815,822.734
286,1.045072,-2.26235,822.509
287,1.057791,-2.23978,821.461
288,1.079969,-2.57735,822.175
289,1.081755,-2.77561,823.387
290,1.070267,-2.79717,823.915
291,1.05994,-2.83039,824.583
292,1.053593,-2.86781,824.658
293,1.054968,-2.93934,824.323
294,1.0484,-3.00949,825.684
295,1.017239,-3.002,824.006
296,1.054097,-2.91422,821.8
297,1.08906,-2.78209,823.614
298,1.079675,-2.66856,821.278
299,1.066935,-2.69091,818.758
300,1.050446,-2.75537,816.91
301,1.035334,-2.84702,817.777
302,1.019646,-2.50025,820.673
303,1.034573,-2.21093,821.499
304,1.057278,-2.18175,821.521
305,1.05337,-2.47004,820.881
306,1.03779,-2.62887,820.358
307,1.030831,-2.58568,820.783
308,1.031017,-2.76158,821.542
309,1.010744,-3.36306,821.789
310,0.989383,-3.71164,822.979
311,1.015315,-3.67023,824.466