File: Non-charring/PMMA/DBI_Lund/DBI-Lund_Cone_25kW_1.csv
Time,Mass,HRR,Back Surface Temperature
[s],[g],[kW/m2],[K]
0,72.96,0.536132,295.148
1,72.9817,0.0124838,295.127
2,72.99791,-0.100748,295.109
3,73.0487,-0.101131,295.122
4,73.0578,-0.129631,295.123
5,73.0425,-0.202647,295.12
6,73.0668,-0.240488,295.022
7,73.0878,-0.247571,295.006
8,73.0845,0.219895,295.027
9,73.0967,0.511025,295.091
10,73.0926,0.998156,295.046
11,73.0582,1.90084,295.005
12,73.0547,2.30279,295.099
13,73.0802,2.45735,295.166
14,73.091,2.69661,295.176
15,73.0851,2.74064,295.158
16,73.0964,3.37781,295.178
17,73.127,3.02061,295.188
18,73.1387,2.59893,295.184
19,73.1284,2.52241,295.221
20,73.1258,2.44855,295.261
21,73.12695,2.42075,295.274
22,73.1232,2.42068,295.291
23,73.1037,2.38048,295.424
24,73.1165,1.82912,295.428
25,73.1461,1.52586,295.499
26,73.1551,1.61106,295.653
27,73.1592,1.79395,295.715
28,73.1719,1.87862,295.772
29,73.1694,2.26611,295.921
30,73.1533,2.26578,295.986
31,73.161,2.14337,296.108
32,73.2002,1.52587,296.264
33,73.2348,0.942431,296.558
34,73.2517,0.813434,296.693
35,73.2445,0.760109,296.923
36,73.2247,0.73557,297.25
37,73.2303,0.824384,297.364
38,73.2623,0.871657,297.514
39,73.2786,0.933733,297.929
40,73.2403,1.12185,298.115
41,73.1799,1.21106,298.428
42,73.1536,1.19041,298.934
43,73.1384,1.54083,299.123
44,73.1323,1.82042,299.442
45,73.1362,1.7774,299.951
46,73.1463,1.70206,300.131
47,73.1281,1.67209,300.532
48,73.1613,1.65516,301.154
49,73.1814,1.70077,301.824
50,73.1809,1.74452,302.114
51,73.2021,1.35841,302.537
52,73.2028,1.64886,303.187
53,73.18982,2.11325,303.422
54,73.1869,2.13766,304.063
55,73.2007,2.12683,304.894
56,73.2127,2.08165,305.475
57,73.2203,2.05425,305.962
58,73.2273,1.95282,306.458
59,73.2211,1.71982,306.825
60,73.2072,1.596162,307.406
61,73.1913,1.69955,308.331
62,73.1624,1.74322,308.68
63,73.154,1.72209,309.249
64,73.1715,1.15713,310.178
65,73.1762,0.909389,310.525
66,73.1822,0.972381,311.102
67,73.1885,0.943248,312.111
68,73.1948,0.993591,313.214
69,73.1932,1.04224,313.687
70,73.1762,1.15278,314.27
71,73.17572,1.11874,315.321
72,73.1844,1.4325,315.721
73,73.2028,1.71121,316.438
74,73.2373,1.71181,317.583
75,73.2571,1.65576,318.006
76,73.24357,1.62309,318.723
77,73.2171,1.55943,319.932
78,73.2146,1.57739,320.397
79,73.2386,1.62818,321.172
80,73.2275,1.05514,322.437
81,73.1687,0.763263,322.893
82,73.1284,0.780005,323.674
83,73.1053,0.876396,324.948
84,73.1212,0.989476,326.298
85,73.1477,1.02819,326.802
86,73.1555,1.11642,327.642
87,73.1495,1.17224,329.017
88,73.1395,1.14558,329.594
89,73.1215,1.10604,330.514
90,73.0998,0.974445,331.968
91,73.092,0.855742,332.513
92,73.10081,0.83511,333.463
93,73.1079,0.582597,334.94
94,73.1033,-0.131912,335.477
95,73.1,-0.46242,336.445
96,73.097,-0.939852,337.93
97,73.0647,2.10775,338.529
98,73.0366,4.08678,339.452
99,73.0401,14.139,340.953
100,73.0492,33.8177,342.463
101,73.04032,43.4777,343.02
102,73.0453,56.291,344
103,73.0589,81.0659,345.516
104,73.0332,113.687,346.065
105,72.9669,126.567,346.977
106,72.9048,145.708,348.486
107,72.86493,177.089,349.051
108,72.8087,191.369,349.996
109,72.72422,208.944,351.513
110,72.627,235.792,352.063
111,72.5244,242.45,352.985
112,72.4249,251.445,354.41
113,72.3094,270.109,354.934
114,72.175,277.098,355.841
115,72.06,291.476,357.187
116,71.9383,308.263,358.546
117,71.8075,310.703,359.144
118,71.676,310.085,360.038
119,71.5494,326.462,361.546
120,71.4212,348.57,362.101
121,71.2814,362.3,363.02
122,71.13845,365.691,364.396
123,70.9791,370.315,364.885
124,70.8442,369.378,365.724
125,70.7038,364.575,367.01
126,70.5394,370.778,367.529
127,70.3797,379.152,368.235
128,70.2081,392.418,369.538
129,70.0483,402.484,370.058
130,69.90676,404.3643,370.902
131,69.76124,404.377,372.203
132,69.6066,403.093,373.422
133,69.4533,396.161,373.933
134,69.3112,391.051,374.635
135,69.1553,399.852,375.849
136,68.9858,407.55,376.4
137,68.8182,392.014,377.112
138,68.6746,393.894,378.368
139,68.521,406.018,378.901
140,68.3485,403.243,379.613
141,68.1864,404.106,380.856
142,68.0398,408.85,381.313
143,67.8906,406.897,382.038
144,67.7346,399.101,383.142
145,67.5548,399.271,383.542
146,67.3585,403.148,384.076
147,67.1832,408.844,384.972
148,67.02404,414.818,385.858
149,66.8649,428.025,386.188
150,66.70371,426.39,386.566
151,66.53858,424.754,387.139
152,66.3639,429.112,387.386
153,66.189,423.252,387.668
154,66.0264,422.191,388.04
155,65.8521,424.345,388.171
156,65.6925,429.96,388.295
157,65.5462,427.268,388.552
158,65.3786,422.924,388.679
159,65.1966,418.988,388.834
160,65.0162,421.515,389.109
161,64.8519,427.302,389.228
162,64.6688,428.97,389.409
163,64.4788,434.211,389.738
164,64.2909,439.625,390.124
165,64.105,436.7,390.314
166,63.9411,437.567,390.544
167,63.769,435.566,391.047
168,63.5942,432.826,391.293
169,63.4304,430.538,391.596
170,63.2347,432.332,392.178
171,63.0361,436.494,392.444
172,62.8764,431.831,392.861
173,62.7153,433.265,393.549
174,62.5361,437.366,393.83
175,62.3573,441.749,394.276
176,62.16655,444.706,395.039
177,61.97,444.6,395.369
178,61.8144,439.118,395.851
179,61.6601,440.265,396.672
180,61.4796,444.456,397.439
181,61.2891,437.516,397.774
182,61.1109,431.885,398.266
183,60.93873,431.931,399.157
184,60.76954,432.789,399.545
185,60.5883,436.347,400.05
186,60.4181,439.429,400.943
187,60.2416,441.25,401.323
188,60.0634,445.361,401.855
189,59.88953,442.274,402.786
190,59.706,438.227,403.185
191,59.5209,440.236,403.721
192,59.3376,440.443,404.606
193,59.1458,440.713,404.964
194,58.9689,443.778,405.496
195,58.803,449.038,406.433
196,58.62932,452.775,407.361
197,58.4444,454.579,407.763
198,58.2429,445.718,408.287
199,58.0444,437.418,409.133
200,57.85235,436.359,409.472
201,57.665,456.978,410.125
202,57.499,458.273,411.143
203,57.3302,454.004,411.486
204,57.1493,454.492,412.04
205,56.9604,446.429,413.012
206,56.7851,442.23,413.425
207,56.5928,449.245,413.958
208,56.4046,455.08,414.9
209,56.2101,455.983,415.308
210,56.017,454.326,415.877
211,55.835,458.736,416.869
212,55.6538,463.892,417.855
213,55.4735,466.139,418.278
214,55.276,469.975,418.824
215,55.0774,476.04,419.812
216,54.8843,478.931,420.24
217,54.685,480.33,420.788
218,54.4799,484.893,421.772
219,54.28111,488.719,422.202
220,54.1011,482.131,422.759
221,53.928,471.198,423.703
222,53.74134,467.43,424.084
223,53.5467,463.663,424.654
224,53.3491,459.371,425.642
225,53.1622,457.128,426.075
226,52.9611,451.66,426.623
227,52.7707,463.016,427.583
228,52.5945,473.79,427.994
229,52.3992,460.161,428.587
230,52.1855,449.071,429.6
231,51.9721,451.43,430.581
232,51.7781,462.184,430.992
233,51.6171,482.678,431.53
234,51.4313,494.49,432.531
235,51.2334,497.177,432.983
236,51.0324,495.402,433.419
237,50.8342,488.415,434.436
238,50.6379,486.545,434.903
239,50.4333,481.045,435.488
240,50.2507,489.375,436.477
241,50.0571,499.804,436.889
242,49.8635,494.809,437.478
243,49.6698,500.685,438.432
244,49.4524,507.862,438.836
245,49.2157,498.451,439.396
246,49.012,473.224,440.428
247,48.8456,460.033,441.387
248,48.665,468.571,441.783
249,48.473,477.556,442.321
250,48.2741,477.17,443.322
251,48.07852,475.892,443.754
252,47.8863,479.153,444.294
253,47.67499,494.27,445.265
254,47.4573,510.987,445.677
255,47.2631,503.949,446.221
256,47.0738,503.536,447.218
257,46.87477,511.68,447.662
258,46.6803,509.597,448.228
259,46.4831,512.431,449.215
260,46.2682,515.911,449.644
261,46.0416,508.537,450.177
262,45.8274,514.033,451.159
263,45.6278,526.476,452.184
264,45.4119,517.372,452.636
265,45.2046,515.691,453.168
266,45.0141,519.21,454.147
267,44.8083,517.621,454.6
268,44.5796,512.447,455.192
269,44.3499,499.508,456.251
270,44.1429,494.315,456.645
271,43.93111,499.058,457.19
272,43.7405,512.426,458.168
273,43.5555,519.321,458.624
274,43.3483,517.682,459.211
275,43.1404,515.478,460.288
276,42.93068,514.787,460.74
277,42.7253,529.221,461.301
278,42.51766,531.546,462.321
279,42.3097,528.688,463.328
280,42.1003,523.868,463.788
281,41.898,523.058,464.392
282,41.6731,528.534,465.36
283,41.4347,531.048,465.806
284,41.2086,524.002,466.369
285,40.9727,524.271,467.408
286,40.7499,532.777,467.879
287,40.5432,539.706,468.449
288,40.3285,539.936,469.48
289,40.1223,541.295,469.923
290,39.8969,537.039,470.493
291,39.6557,551.231,471.568
292,39.4137,570.518,472.067
293,39.1648,571.839,472.56
294,38.9366,556.328,473.617
295,38.73513,543.787,474.765
296,38.5248,561.498,475.269
297,38.2898,575.784,475.847
298,38.0593,581.013,476.904
299,37.844,584.004,477.361
300,37.6315,576.735,477.967
301,37.38954,559.183,479.069
302,37.1331,550.323,479.571
303,36.9103,570.883,480.104
304,36.7112,561.462,481.209
305,36.4957,539.673,481.757
306,36.2521,558.113,482.366
307,36.0033,561.346,483.483
308,35.7455,555.179,483.985
309,35.5091,544.58,484.595
310,35.2938,554.67,485.639
311,35.04791,575.842,486.763
312,34.8047,581.124,487.316
313,34.6008,573.511,487.943
314,34.3819,578.711,489.079
315,34.1342,587.826,489.588
316,33.9163,587.77,490.187
317,33.685,585.072,491.312
318,33.4434,581.62,491.81
319,33.1854,573.277,492.483
320,32.9435,588.717,493.614
321,32.7107,606.138,494.115
322,32.475,597.064,494.77
323,32.2603,592.589,495.941
324,32.0425,596.338,496.472
325,31.8155,585.89,497.142
326,31.5879,562.701,498.383
327,31.3571,550.982,499.544
328,31.1177,559.013,500.018
329,30.8655,576.429,500.757
330,30.5959,571.295,502.034
331,30.3491,563.217,502.571
332,30.1141,572.807,503.252
333,29.8894,572.382,504.492
334,29.6773,571.925,505.041
335,29.4484,583.378,505.796
336,29.1988,597.744,507.133
337,28.95,605.946,507.628
338,28.7063,610.336,508.405
339,28.4733,599.762,509.669
340,28.239,590.137,510.188
341,27.9992,592.225,510.964
342,27.75877,592.478,512.375
343,27.5111,593.988,513.775
344,27.2333,603.484,514.385
345,26.95907,609.002,515.165
346,26.7263,619.266,516.59
347,26.4892,626.976,517.197
348,26.2426,610.074,518.041
349,25.9841,607.28,519.436
350,25.7147,614.455,520.071
351,25.4464,624.006,520.908
352,25.20321,622.745,522.419
353,24.96084,617.522,523.085
354,24.702,619.412,523.989
355,24.4493,615.533,525.599
356,24.1999,612.709,526.272
357,23.9236,616.119,527.205
358,23.6448,630.608,528.837
359,23.3953,638.629,530.423
360,23.13571,632.189,531.089
361,22.8793,627.816,532.093
362,22.6505,630.43,534.012
363,22.4226,616.576,534.893
364,22.16798,617.292,536.225
365,21.9036,625.271,538.94
366,21.64804,625.493,540.044
367,21.3832,635.762,542.115
368,21.1089,633.407,545.912
369,20.8276,629.39,547.601
370,20.5746,625.489,550.261
371,20.3331,647.822,555.164
372,20.07293,668.124,557.283
373,19.8104,651.859,560.332
374,19.5483,651.509,565.689
375,19.272,665.111,567.996
376,18.9831,652.324,570.788
377,18.6997,646.187,575.433
378,18.4426,653.12,579.693
379,18.2085,648.59,581.427
380,17.9676,658.914,583.61
381,17.7117,674.302,587.372
382,17.4555,676.987,588.97
383,17.192,678.306,590.901
384,16.9251,667.715,594.158
385,16.6572,656.399,595.466
386,16.3967,649.749,597.276
387,16.1218,658.883,600.073
388,15.8553,670.018,601.248
389,15.5944,652.61,602.645
390,15.3271,651.467,605.155
391,15.0546,664.238,606.231
392,14.7788,659.89,607.533
393,14.4941,668.08,609.765
394,14.2042,676.301,611.883
395,13.954,666.594,612.766
396,13.7318,649.031,612.766
397,13.4193,634.29,615.732
398,13.20814,620.697,616.511
399,12.9531,636.662,617.42
400,12.6929,654.168,619.013
401,12.4244,658.301,619.723
402,12.1558,651.181,620.57
403,11.8957,629.316,621.956
404,11.6255,618.844,622.541
405,11.3617,634.384,623.491
406,11.1037,651.297,625.131
407,10.8498,657.598,625.8
408,10.5902,637.786,626.643
409,10.32,673.513,628.217
410,10.0439,715.47,629.881
411,9.766367,680.334,630.637
412,9.481447,645.55,631.624
413,9.20226,639.776,633.503
414,8.936178,630.275,634.313
415,8.672438,654.079,635.461
416,8.412337,655.261,637.546
417,8.162016,632.808,638.495
418,7.908939,620.476,639.777
419,7.659963,621.857,642.243
420,7.409704,623.663,643.404
421,7.157962,621.886,644.93
422,6.929372,635.127,647.874
423,6.698182,639.974,649.207
424,6.441594,610.529,651.16
425,6.191361,579.811,655.088
426,5.941116,567.731,659.602
427,5.686274,573.414,661.733
428,5.443289,567.351,664.815
429,5.218467,550.359,671.722
430,5.002498,546.308,675.33
431,4.776969,528.985,680.851
432,4.550346,504.792,692.41
433,4.328789,481.446,697.951
434,4.131872,481.728,705.992
435,3.946699,469.137,721.123
436,3.759778,421.619,728.176
437,3.597945,404.837,741.949
438,3.469002,384.859,773.901
439,3.332601,340.2,791.238
440,3.188571,326.204,822.714
441,3.061818,310.107,870.669
442,2.940955,272.353,888.902
443,2.822623,254.664,901.515
444,2.719008,243.187,916.06
445,2.626536,222.635,920.116
446,2.537834,215.345,920.602
447,2.442165,209.255,917.251
448,2.355321,196.199,908.93
449,2.304012,180.629,904.318
450,2.252341,171.106,896.526
451,2.198178,161.647,882.066
452,2.148354,147.197,875.712
453,2.107745,141.626,866.959
454,2.064836,139.774,852.448
455,1.995343,133.576,846.658
456,1.931584,128.506,838.563
457,1.887841,124.803,824.875
458,1.836267,120.706,818.957
459,1.78836,118.593,813.174
460,1.759964,117.6915,803.078
461,1.6792,114.041,793.146
462,1.576011,110.421,788.732
463,1.518432,106.974,784.006
464,1.471191,103.72,776.113
465,1.451917,100.595,772.743
466,1.467363,99.8798,770.149
467,1.462337,96.178,765.531
468,1.429613,90.5212,763.497
469,1.392289,90.6497,761.096
470,1.349396,89.3518,755.655
471,1.308468,85.7743,752.876
472,1.282394,84.8028,749.928
473,1.259634,83.7605,746.249
474,1.239134,80.2201,745.159
475,1.207556,78.3865,744.107
476,1.169357,76.4511,740.483
477,1.128475,72.4688,736.796
478,1.098279,71.9625,735.623
479,1.078976,70.9604,734.652
480,1.058984,67.5663,732.962
481,1.034611,64.9796,732.257
482,1.018597,64.1592,730.893
483,1.007728,62.9629,728.405
484,0.982939,60.0525,727.228
485,0.938444,57.7348,726.451
486,0.906953,56.3659,724.69
487,0.890673,54.7646,723.745
488,0.872733,53.7669,722.624
489,0.856668,52.0066,720.67
490,0.836119,48.6015,719.856
491,0.816748,47.2173,718.206
492,0.781974,46.6566,715.47
493,0.75888,44.4347,713.194
494,0.766195,42.5334,712.261
495,0.757309,41.4109,711.1
496,0.730979,40.3879,709.107
497,0.702589,40.1373,708.257
498,0.688,39.379,708.01
499,0.689112,36.6826,707.699
500,0.67758,33.9883,707.614
501,0.653724,32.8709,707.085
502,0.63273,32.0657,705.83
503,0.607003,30.7892,705.146
504,0.590381,30.4727,704.827
505,0.59387,30.0787,704.256
506,0.595327,28.8971,704.004
507,0.586651,28.2108,703.883
508,0.570217,27.6555,703.284
509,0.561,26.347,702.114
510,0.565393,25.583,701.494
511,0.558152,24.5064,700.724
512,0.556089,23.0547,699.342
513,0.563662,22.4669,698.73
514,0.565556,21.866,698.134
515,0.564379,20.7195,697.27
516,0.557639,19.6037,696.939
517,0.532402,19.1118,696.795
518,0.516617,17.7988,695.938
519,0.525494,16.3643,695.275
520,0.521506,16.3619,694.525
521,0.509335,16.128,692.879
522,0.498248,15.0691,691.901
523,0.485917,14.3644,690.951
524,0.48313,13.9703,690.239
525,0.471837,13.4558,690.362
526,0.455095,13.4273,690.394
527,0.457627,13.3672,690.37
528,0.469089,12.7331,689.639
529,0.474442,12.3658,688.947
530,0.476122,12.0836,687.743
531,0.471933,11.3929,687.042
532,0.45981,10.8059,687.295
533,0.447339,10.4966,686.955
534,0.441452,10.529,686.928
535,0.449552,10.3363,687.129
536,0.455943,9.99913,687.347
537,0.452309,9.6638,687.445
538,0.439992,9.25696,687.361
539,0.411482,9.06442,688.295
540,0.395329,9.02039,688.687
541,0.408349,8.60551,688.213
542,0.420824,8.03953,687.586
543,0.423454,7.70522,687.142
544,0.417589,7.54316,686.873
545,0.403768,7.66831,686.592
546,0.398113,7.35779,686.585
547,0.39634,6.7691,685.991
548,0.390299,6.02459,685.455
549,0.401489,5.52977,684.798
550,0.409431,5.38878,683.827
551,0.407685,4.87265,683.488
552,0.412693,4.48107,683.63
553,0.410139,4.5609,684.226
554,0.392662,4.23687,684.631
555,0.370639,3.93731,684.923
556,0.375132,3.96688,685.505
557,0.402279,3.64895,685.793
558,0.402452,3.25599,685.911
559,0.396338,2.95782,685.649
560,0.401085,2.62166,684.483
561,0.394481,2.50894,683.761
562,0.373984,2.02529,682.996
563,0.368923,1.545,682.317
564,0.385531,1.53106,682.296
565,0.397112,1.52387,682.597
566,0.397435,1.513075,683.138
567,0.392333,1.5881,683.388
568,0.386294,1.69747,683.36
569,0.382917,1.84887,683.588
570,0.383623,1.96385,683.458
571,0.386657,1.96633,682.818
572,0.380263,1.38345,682.408
573,0.353245,0.875488,682.004
574,0.32577,0.863662,681.337
575,0.311733,0.986823,681.004
576,0.2972,1.22801,681.399
577,0.265336,1.32872,681.527
578,0.260411,0.911735,681.775
579,0.295679,0.356586,681.469
580,0.307479,0.169876,681.005
581,0.295005,0.139553,681.578
582,0.27767,0.10703,682.554
583,0.26587,0.298047,682.967
584,0.260311,0.460571,682.833
585,0.261232,0.541566,682.044
586,0.277401,0.530936,681.449
587,0.281527,0.452943,681.166
588,0.283718,0.384252,680.799
589,0.329057,-0.131426,680.675
590,0.389683,-0.596588,680.76
591,0.400845,-0.601862,680.447
592,0.374097,-0.572639,680.115
593,0.359067,-0.53493,680.112
594,0.375298,-0.402829,680.712
595,0.385355,-0.2661,681.297
596,0.386711,-0.241615,681.338
597,0.389918,-0.353577,681.901
598,0.381962,-0.512761,682.977
599,0.366896,-0.580271,683.483
600,0.352018,-0.599266,682.469
601,0.362711,-0.516043,681.615
602,0.392728,-0.305375,681.633
603,0.400774,-0.192034,681.232
604,0.393645,-0.217735,680.555
605,0.389205,-0.369119,680.244
606,0.371465,-0.498959,680.377
607,0.344189,-0.536062,680.202
608,0.342001,-0.598845,679.896
609,0.372443,-0.626129,680.334
610,0.394225,-0.551883,681.309
611,0.395383,-0.319788,682.403
612,0.384414,-0.152755,682.899
613,0.377581,0.288004,682.291
614,0.370015,0.595801,681.826
615,0.35829,0.537378,681.898
616,0.392207,0.446401,682.028
617,0.409831,0.379858,682.359
618,0.388321,0.307796,682.543
619,0.382102,0.236974,682.432
620,0.37621,0.270133,681.406
621,0.369205,0.399365,680.516
622,0.36795,0.495575,679.81
623,0.357643,0.582031,678.971
624,0.356936,0.468409,678.787
625,0.371427,0.305265,678.634
626,0.380593,0.275524,678.693
627,0.374052,0.555559,678.919
628,0.359114,0.833944,678.95
629,0.348629,1.10159,678.6
630,0.333768,1.16543,678.706
631,0.336515,0.906677,679.056
632,0.357347,0.81854,679.273
633,0.376495,0.589037,679.127
634,0.377064,0.378763,678.832
635,0.366765,0.332159,679.824
636,0.373171,0.324651,680.604
637,0.364742,0.354282,680.546
638,0.354647,0.381711,680.209
639,0.379055,0.522414,680.098
640,0.400993,0.593957,680.287
641,0.404792,0.500987,680.034
642,0.401856,0.399038,679.526
643,0.391388,0.3436,679.288
644,0.369054,0.373981,678.676