File: Non-charring/PMMA/UMD/UMD_CAPA_25kW_Mass.csv
Mean Time,Mean MLR ,Temperature,Temperature,Temperature,MLR_error,,,,,,
[s],[kg/s/m^2],[K],[K],[K],[kg/s/m^2],,,,,,
2.493585,-0.000938839,0,0,0,0.000540742,,,,,,
7.511155,0.000401505,0,0,0,0.00014885,,,,,,
12.4411,0.000468942,0,0,0,0.000117623,,,,,,
17.3754,0.000269239,0,0,0,0.000142155,,,,Time,Mass,Temperature
22.3921,0.0004123,0,0,0,0.000121883,,,,[s],[g],[K]
27.4079,0.000147808,0,0,0,9.01E-05,,,,,,
32.4232,0.000292289,0,0,0,8.77E-05,,,,,,
37.4395,9.41E-05,0,0,0,0.000110758,,,,,,
42.458,0.000253962,0,0,0,0.00017945,,,,,,
47.4779,0.000315397,0,0,0,0.000150097,,,,,,
52.49583,0.000330686,0,0,0,0.000146755,,,,,,
57.5108,0.000409706,0,0,0,0.000142335,,,,,,
62.5256,2.45E-05,0,0,0,0.000236052,,,,,,
67.5421,0.000505274,0,0,0,0.000176985,,,,,,
72.5581,0.0003016,0,0,0,0.000152919,,,,,,
77.57313,3.93E-05,0,0,0,0.00010858,,,,,,
82.587,0.000213859,0,0,0,0.000126045,,,,,,
87.6012,0.000603893,0,0,0,0.000233585,,,,,,
92.6179,0.000315268,0,0,0,0.00022529,,,,,,
97.6349,0.000421617,0,0,0,0.000116133,,,,,,
102.65,0.000388278,0,0,0,0.000106028,,,,,,
107.664,4.96E-06,0,0,0,0.000141699,,,,,,
112.68,0.000310262,0,0,0,0.000101064,,,,,,
117.698,4.79E-05,0,0,0,0.000157876,,,,,,
122.715,0.000726266,0,0,0,0.000183317,,,,,,
127.733,0.0003421,0,0,0,0.000137053,,,,,,
132.499,0.000484197,0,0,0,0.000211978,,,,,,
137.263,0.000991904,0,0,0,0.000140058,,,,,,
142.278,0.001308147,0,0,0,0.000133317,,,,,,
147.296,0.001321059,0,0,0,0.000162496,,,,,,
152.314,0.001452347,0,0,0,0.000141828,,,,,,
157.332,0.001640742,0,0,0,0.00012725,,,,,,
162.348,0.001610469,0,0,0,0.000155318,,,,,,
167.363,0.002063815,0,0,0,0.000154241,,,,,,
172.377,0.002275585,0,0,0,0.000128158,,,,,,
177.392,0.00249243,0,0,0,0.000190509,,,,,,
182.409,0.003193513,0,0,0,0.000287445,,,,,,
187.426,0.003370108,0,0,0,0.000231546,,,,,,
192.441,0.003280541,0,0,0,0.000381812,,,,,,
197.454,0.003379446,0,0,0,0.000281708,,,,,,
202.47,0.003515247,0,0,0,0.000284727,,,,,,
207.485,0.004095248,0,0,0,0.000266267,,,,,,
212.5,0.004345897,0,0,0,0.000281083,,,,,,
217.515,0.004300195,0,0,0,0.00031323,,,,,,
222.531,0.004128328,0,0,0,0.000276753,,,,,,
227.547,0.005157333,0,0,0,0.000359897,,,,,,
232.563,0.004591777,0,0,0,0.000257827,,,,,,
237.577,0.004662768,0,0,0,0.000283181,,,,,,
242.592,0.004519994,0,0,0,0.000249993,,,,,,
247.609,0.004787962,0,0,0,0.000193428,,,,,,
252.624,0.005392246,0,0,0,0.000294357,,,,,,
257.637,0.004850133,0,0,0,0.000285065,,,,,,
262.651,0.00519802,0,0,0,0.000325449,,,,,,
267.665,0.00555693,0,0,0,0.000333331,,,,,,
272.68,0.00556278,0,0,0,0.000345061,,,,,,
277.693,0.005208184,0,0,0,0.000281193,,,,,,
282.627,0.005412027,0,0,0,0.000430688,,,,,,
287.555,0.005797924,0,0,0,0.000323697,,,,,,
292.572,0.005960452,0,0,0,0.000296702,,,,,,
297.505,0.005891516,0,0,0,0.000257119,,,,,,
302.435,0.005804532,0,0,0,0.000277453,,,,,,
307.448,0.005592762,0,0,0,0.000353232,,,,,,
312.376,0.005897648,0,0,0,0.000389319,,,,,,
317.313,0.006428489,0,0,0,0.000355703,,,,,,
322.329,0.006234084,0,0,0,0.000410814,,,,,,
327.345,0.005916415,0,0,0,0.000389993,,,,,,
332.363,0.005478886,0,0,0,0.000368106,,,,,,
337.382,0.006963935,0,0,0,0.000521188,,,,,,
342.397,0.006854029,0,0,0,0.000417884,,,,,,
347.413,0.006468945,0,0,0,0.000402376,,,,,,
352.43,0.006679915,0,0,0,0.000386477,,,,,,
357.448,0.006261926,0,0,0,0.000343891,,,,,,
362.464,0.006592617,0,0,0,0.000345284,,,,,,
367.481,0.006818969,0,0,0,0.000245564,,,,,,
372.497,0.006262168,0,0,0,0.000480806,,,,,,
377.513,0.006465706,0,0,0,0.000463035,,,,,,
382.53,0.006842806,0,0,0,0.000331439,,,,,,
387.545,0.006727351,0,0,0,0.000319431,,,,,,
392.56,0.006984449,0,0,0,0.000349038,,,,,,
397.575,0.006650168,0,0,0,0.00033217,,,,,,
402.589,0.00626725,0,0,0,0.000437754,,,,,,
407.604,0.006124365,0,0,0,0.000331963,,,,,,
412.621,0.008316793,0,0,0,0.000356153,,,,,,
417.637,0.006489972,0,0,0,0.000498469,,,,,,
422.652,0.006823627,0,0,0,0.000391952,,,,,,
427.667,0.007469785,0,0,0,0.000409892,,,,,,
432.683,0.007400208,0,0,0,0.000378544,,,,,,
437.535,0.007311811,0,0,0,0.000265512,,,,,,
442.381,0.007067332,0,0,0,0.000269531,,,,,,
447.398,0.006915298,0,0,0,0.000252361,,,,,,
452.416,0.007037665,0,0,0,0.000274886,,,,,,
457.432,0.007304447,0,0,0,0.000327403,,,,,,
462.447,0.00655642,0,0,0,0.000394711,,,,,,
467.463,0.007611007,0,0,0,0.000383903,,,,,,
472.476,0.007109928,0,0,0,0.000352595,,,,,,
477.489,0.00694343,0,0,0,0.000369338,,,,,,
482.418,0.007571637,0,0,0,0.000359444,,,,,,
487.353,0.007146304,0,0,0,0.000287252,,,,,,
492.368,0.007281411,0,0,0,0.000320934,,,,,,
497.385,0.007200992,0,0,0,0.000394413,,,,,,
502.403,0.007274772,0,0,0,0.000299438,,,,,,
507.421,0.00690498,0,0,0,0.000408879,,,,,,
512.437,0.007803093,0,0,0,0.0003373,,,,,,
517.452,0.006878085,0,0,0,0.000299566,,,,,,
522.467,0.007545438,0,0,0,0.000234185,,,,,,
527.483,0.007427935,0,0,0,0.000286714,,,,,,
532.498,0.006366305,0,0,0,0.000415614,,,,,,
537.514,0.008121513,0,0,0,0.000437936,,,,,,
542.533,0.007241456,0,0,0,0.000332137,,,,,,
547.551,0.007466546,0,0,0,0.000346119,,,,,,
552.566,0.007237778,0,0,0,0.000266435,,,,,,
557.579,0.007495479,0,0,0,0.000277655,,,,,,
562.594,0.007032848,0,0,0,0.000305445,,,,,,
567.613,0.007216052,0,0,0,0.000250972,,,,,,
572.547,0.007238977,0,0,0,0.000256291,,,,,,
577.48,0.007304744,0,0,0,0.000240314,,,,,,
582.501,0.007228486,0,0,0,0.000257477,,,,,,
587.52,0.007326072,0,0,0,0.000329456,,,,,,
592.537,0.007384795,0,0,0,0.000209308,,,,,,
597.555,0.007065802,0,0,0,0.000306429,,,,,,
602.573,0.007558178,0,0,0,0.000335539,,,,,,
607.507,0.007235369,0,0,0,0.000232865,,,,,,
612.44,0.007055606,0,0,0,0.000291401,,,,,,
617.458,0.007453761,0,0,0,0.000308309,,,,,,
622.477,0.007150828,0,0,0,0.000328408,,,,,,
627.494,0.007108816,0,0,0,0.000290468,,,,,,
632.51,0.007041907,0,0,0,0.000256249,,,,,,
637.526,0.007511677,0,0,0,0.000275083,,,,,,
642.54,0.007089974,0,0,0,0.000288078,,,,,,
647.555,0.007239632,0,0,0,0.00026882,,,,,,
652.5697,0.006994963,0,0,0,0.000301943,,,,,,
657.586,0.007286688,0,0,0,0.000364108,,,,,,
662.52,0.006684625,0,0,0,0.000346411,,,,,,
667.452,0.006835712,0,0,0,0.000354813,,,,,,
672.465,0.007399596,0,0,0,0.000455507,,,,,,
677.481,0.006681887,0,0,0,0.000332911,,,,,,
682.498,0.007357717,0,0,0,0.000390257,,,,,,
687.513,0.007359543,0,0,0,0.000347832,,,,,,
692.525,0.00734333,0,0,0,0.000305392,,,,,,
697.537,0.007085023,0,0,0,0.000307754,,,,,,
702.554,0.006747526,0,0,0,0.000375047,,,,,,
707.4867,0.00720621,0,0,0,0.000341441,,,,,,
712.422,0.007300222,0,0,0,0.000327259,,,,,,
717.44,0.006944355,0,0,0,0.000215163,,,,,,
722.458,0.006284964,0,0,0,0.000353113,,,,,,
727.474,0.006724015,0,0,0,0.000508043,,,,,,
732.489,0.007600134,0,0,0,0.000463441,,,,,,
737.506,0.007106682,0,0,0,0.000291437,,,,,,
742.522,0.006751649,0,0,0,0.000361608,,,,,,
747.5376,0.007062743,0,0,0,0.00021242,,,,,,
752.555,0.007495446,0,0,0,0.000382337,,,,,,
757.489,0.007197597,0,0,0,0.000366925,,,,,,
762.423,0.007042791,0,0,0,0.000286203,,,,,,
767.441,0.007224868,0,0,0,0.000282679,,,,,,
772.458,0.006771718,0,0,0,0.000331102,,,,,,
777.474,0.00710473,0,0,0,0.00030078,,,,,,
782.489,0.006898723,0,0,0,0.00033621,,,,,,
787.505,0.006843801,0,0,0,0.000274649,,,,,,
792.521,0.006978912,0,0,0,0.000316192,,,,,,
797.535,0.006474132,0,0,0,0.000293319,,,,,,
802.548,0.0072178,0,0,0,0.000306488,,,,,,
807.56,0.007077992,0,0,0,0.000240778,,,,,,
812.573,0.00693189,0,0,0,0.000301655,,,,,,
817.586,0.006369854,0,0,0,0.000403054,,,,,,
822.6,0.006849391,0,0,0,0.000495707,,,,,,
827.615,0.006834062,0,0,0,0.000429276,,,,,,
832.548,0.00726145,0,0,0,0.000413054,,,,,,
837.478,0.007222106,0,0,0,0.000357894,,,,,,
842.493,0.006625417,0,0,0,0.000283579,,,,,,
847.509,0.006611309,0,0,0,0.000395902,,,,,,
852.524,0.007743629,0,0,0,0.000481312,,,,,,
857.454,0.006804412,0,0,0,0.000321069,,,,,,
862.387,0.006804319,0,0,0,0.000299314,,,,,,
867.402,0.007142234,0,0,0,0.000335684,,,,,,
872.417,0.006952873,0,0,0,0.000245522,,,,,,
877.431,0.006855781,0,0,0,0.000341559,,,,,,
882.445,0.007264931,0,0,0,0.000399108,,,,,,
887.46,0.007075145,0,0,0,0.000235414,,,,,,
892.477,0.006996043,0,0,0,0.000298465,,,,,,
897.493,0.006829581,0,0,0,0.000272185,,,,,,
902.507,0.006832108,0,0,0,0.000269154,,,,,,
907.52,0.006815466,0,0,0,0.000333593,,,,,,
912.535,0.006936617,0,0,0,0.000250706,,,,,,
917.549,0.006988264,0,0,0,0.000250885,,,,,,
922.478,0.006906759,0,0,0,0.000241672,,,,,,
927.409,0.006847936,0,0,0,0.000259451,,,,,,
932.423,0.007171452,0,0,0,0.000265281,,,,,,
937.436,0.006707384,0,0,0,0.000318475,,,,,,
942.45,0.00697033,0,0,0,0.000333976,,,,,,
947.466,0.006797512,0,0,0,0.000318,,,,,,
952.484,0.006412585,0,0,0,0.000306831,,,,,,
957.499,0.006825614,0,0,0,0.000252773,,,,,,
962.512,0.006545263,0,0,0,0.000275566,,,,,,
967.524,0.006809478,0,0,0,0.00029563,,,,,,
972.538,0.006652724,0,0,0,0.00028349,,,,,,
977.553,0.00657634,0,0,0,0.000261097,,,,,,
982.568,0.006637542,0,0,0,0.000315144,,,,,,
987.584,0.006317836,0,0,0,0.000321531,,,,,,
992.6,0.006825153,0,0,0,0.000316731,,,,,,
997.615,0.006300541,0,0,0,0.000320965,,,,,,
1002.63,0.006440976,0,0,0,0.000262823,,,,,,
1007.56,0.006297764,0,0,0,0.000366696,,,,,,
1012.49,0.006112104,0,0,0,0.000504325,,,,,,
1017.51,0.006296989,0,0,0,0.000399011,,,,,,
1022.52,0.00677334,0,0,0,0.000315091,,,,,,
1027.45,0.005853421,0,0,0,0.000477457,,,,,,
1032.38,0.005904874,0,0,0,0.000285201,,,,,,
1037.4,0.006044407,0,0,0,0.00032631,,,,,,
1042.42,0.006150418,0,0,0,0.000359261,,,,,,
1047.43,0.006474632,0,0,0,0.00047019,,,,,,
1052.45,0.006107616,0,0,0,0.000424447,,,,,,
1057.47,0.005643396,0,0,0,0.000358972,,,,,,
1062.48,0.005908161,0,0,0,0.000353434,,,,,,
1067.5,0.005729025,0,0,0,0.000184463,,,,,,
1072.52,0.005449158,0,0,0,0.000239147,,,,,,
1077.53,0.005496213,0,0,0,0.000341538,,,,,,
1082.46,0.005488405,0,0,0,0.000408713,,,,,,
1087.4,0.005384881,0,0,0,0.000323215,,,,,,
1092.41,0.005297237,0,0,0,0.000348249,,,,,,
1097.43,0.005313701,0,0,0,0.000378063,,,,,,
1102.44,0.004792896,0,0,0,0.000278351,,,,,,
1107.45,0.005155689,0,0,0,0.000444018,,,,,,
1112.47,0.005005179,0,0,0,0.000389307,,,,,,
1117.48,0.004532657,0,0,0,0.000363028,,,,,,
1122.5,0.004373915,0,0,0,0.000330411,,,,,,
1127.52,0.004969723,0,0,0,0.000345567,,,,,,
1132.53,0.004766959,0,0,0,0.000371124,,,,,,
1137.55,0.00471702,0,0,0,0.000286732,,,,,,
1142.56,0.00439553,0,0,0,0.000502216,,,,,,
1147.57,0.004704644,0,0,0,0.000331929,,,,,,
1152.58,0.004146942,0,0,0,0.000333447,,,,,,
1157.59,0.004029545,0,0,0,0.000370533,,,,,,
1162.61,0.004071744,0,0,0,0.000471701,,,,,,
1167.63,0.003958947,0,0,0,0.000394137,,,,,,
1172.64,0.003880335,0,0,0,0.00046103,,,,,,
1177.66,0.004067964,0,0,0,0.000512317,,,,,,
1182.59,0.0037243,0,0,0,0.000434938,,,,,,
1187.43,0.003234523,0,0,0,0.000551613,,,,,,
1192.36,0.003471801,0,0,0,0.000392601,,,,,,
1197.38,0.002626577,0,0,0,0.000287477,,,,,,
1202.4,0.003444591,0,0,0,0.000368149,,,,,,
1207.41,0.003457498,0,0,0,0.000539878,,,,,,
1212.43,0.002558952,0,0,0,0.000391452,,,,,,
1217.44,0.003126418,0,0,0,0.000380532,,,,,,
1222.46,0.002867144,0,0,0,0.000240127,,,,,,
1227.47,0.003002327,0,0,0,0.000517924,,,,,,
1232.49,0.002465634,0,0,0,0.000329903,,,,,,
1237.51,0.002587422,0,0,0,0.00055282,,,,,,
1242.52,0.002742845,0,0,0,0.000293195,,,,,,
1247.45,0.002030061,0,0,0,0.000512744,,,,,,
1252.39,0.002031831,0,0,0,0.000270302,,,,,,
1257.4,0.003044383,0,0,0,0.000472558,,,,,,
1262.42,0.001619913,0,0,0,0.000313473,,,,,,
1267.43,0.001977329,0,0,0,0.000405066,,,,,,
1272.44,0.001422879,0,0,0,0.000279825,,,,,,
1277.46,0.001735214,0,0,0,0.000343652,,,,,,
1282.48,0.002200714,0,0,0,0.000244517,,,,,,
1287.49,0.001778576,0,0,0,0.000310067,,,,,,
1292.5,0.00154366,0,0,0,0.000308034,,,,,,
1297.52,0.00137115,0,0,0,0.00027765,,,,,,
1302.53,0.001580303,0,0,0,0.000346075,,,,,,
1307.55,0.001668753,0,0,0,0.000179558,,,,,,
1312.56,0.001131464,0,0,0,0.000227463,,,,,,
1317.58,0.001299867,0,0,0,0.000258256,,,,,,
1322.59,0.001236126,0,0,0,0.000230489,,,,,,
1327.6,0.001133527,0,0,0,0.000148016,,,,,,
1332.62,0.000909401,0,0,0,0.000235263,,,,,,
1337.63,0.001025647,0,0,0,0.000204074,,,,,,
1342.65,0.001027229,0,0,0,0.000237798,,,,,,
1347.66,0.000760409,0,0,0,0.000216947,,,,,,
1352.67,0.000966789,0,0,0,0.000187812,,,,,,
1357.61,0.001143716,0,0,0,0.000237587,,,,,,
1362.45,0.000772343,0,0,0,0.00027106,,,,,,
1367.38,0.000555443,0,0,0,0.000164382,,,,,,
1372.4,0.000407457,0,0,0,0.000228462,,,,,,
1377.41,0.000712851,0,0,0,0.000169946,,,,,,
1382.43,0.000630153,0,0,0,0.000147959,,,,,,
1387.44,0.000580732,0,0,0,8.30E-05,,,,,,
1392.46,0.000784031,0,0,0,0.000125058,,,,,,
1397.47,0.000585499,0,0,0,0.000174747,,,,,,
1402.49,0.000809679,0,0,0,0.000140504,,,,,,
1407.51,0.000195835,0,0,0,0.000230832,,,,,,
1412.44,0.000850405,0,0,0,0.000159049,,,,,,
1417.37,0.000534756,0,0,0,0.000178972,,,,,,
1422.39,0.000405341,0,0,0,9.85E-05,,,,,,
1427.4,0.000391125,0,0,0,8.30E-05,,,,,,
1432.41,0.000184743,0,0,0,0.000139666,,,,,,
1437.43,0.000470046,0,0,0,0.000167534,,,,,,
1442.44,0.000256977,0,0,0,0.000151849,,,,,,
1447.46,0.000359926,0,0,0,0.000196936,,,,,,
1452.48,0.000455227,0,0,0,0.00026911,,,,,,
1457.49,0.000226678,0,0,0,0.000226828,,,,,,
1462.5,0.000459946,0,0,0,0.000121643,,,,,,
1467.52,0.000453103,0,0,0,0.000140896,,,,,,
1472.53,0.000389098,0,0,0,0.000120056,,,,,,
1477.54,0.000673712,0,0,0,0.000219732,,,,,,
1482.56,0.000145924,0,0,0,0.000178683,,,,,,
1487.57,0.000354124,0,0,0,0.000122337,,,,,,
1492.59,0.000233954,0,0,0,0.000180943,,,,,,
1497.61,0.000113884,0,0,0,0.000130994,,,,,,
1502.62,0.000171309,0,0,0,0.000203038,,,,,,
1507.64,5.43E-05,0,0,0,0.000129909,,,,,,
1512.66,0.000340532,0,0,0,0.00011236,,,,,,
1517.67,0.000375492,0,0,0,9.95E-05,,,,,,
1522.61,0.000270272,0,0,0,0.000137006,,,,,,
1527.45,8.98E-05,0,0,0,0.00010002,,,,,,
1532.38,0.000255886,0,0,0,0.000102994,,,,,,
1537.4,0.000228292,0,0,0,0.000104077,,,,,,
1542.41,8.77E-05,0,0,0,0.000159325,,,,,,
1547.43,0.000315677,0,0,0,0.000116807,,,,,,
1552.44,0.00020779,0,0,0,0.000129431,,,,,,
1557.45,0.000191032,0,0,0,0.000298414,,,,,,
1562.47,0.000567547,0,0,0,0.000356085,,,,,,
1567.48,0.00019615,0,0,0,0.000269942,,,,,,
1572.5,0.000299756,0,0,0,0.000216309,,,,,,
1577.51,-9.80E-05,0,0,0,0.00023841,,,,,,
1582.52,1.83E-05,0,0,0,0.000155955,,,,,,
1587.45,0.000529038,0,0,0,0.00011234,,,,,,
1592.39,-0.000178477,0,0,0,0.000210462,,,,,,
1597.4,-3.00E-05,0,0,0,0.000286812,,,,,,
1602.41,0.000163166,0,0,0,0.000240251,,,,,,
1607.42,0.000185121,0,0,0,0.000208225,,,,,,
1612.44,0.000308098,0,0,0,0.000138209,,,,,,
1617.45,0.000235403,0,0,0,0.000166146,,,,,,
1622.46,-1.13E-05,0,0,0,0.000161153,,,,,,
1627.48,7.53E-05,0,0,0,0.000137381,,,,,,
1632.49,0.000153312,0,0,0,0.000164803,,,,,,
1637.51,3.79E-06,0,0,0,0.000140426,,,,,,
1642.52,0.000226947,0,0,0,0.00010308,,,,,,
1647.53,0.000266061,0,0,0,0.000185369,,,,,,
1652.55,5.52E-05,0,0,0,0.000160518,,,,,,
1657.56,-0.000196388,0,0,0,0.000210526,,,,,,
1662.57,0.000584407,0,0,0,0.000300068,,,,,,
1667.59,0.000407577,0,0,0,0.000265234,,,,,,
1672.6,0.000533149,0,0,0,0.000375924,,,,,,
1677.62,-0.000789938,0,0,0,0.000293524,,,,,,
1682.55,-0.000162649,0,0,0,0.000244549,,,,,,