File: Non-charring/PMMA/UMD/UMD_TGA.csv
Time (s),Temperature (K),Mass fraction (-),Error (-)
0,313,0.9998,0.001198471
21.6744,314.002,0.9999,0.001390148
37.9164,315.004,0.9996,0.001293813
51.3912,316.006,0.9999,0.001228167
63.1614,317.008,0.9998,0.001365585
73.7172,318.01,1,0.001075098
83.3904,319.012,0.9999,0.001118732
92.3964,320.014,0.9997,0.001407205
100.8498,321.016,1,0.001380561
108.8532,322.018,0.9997,0.001427751
116.4846,323.02,0.9998,0.001265987
123.8058,324.022,0.9998,0.001312633
130.8396,325.024,0.9998,0.001322176
137.6448,326.026,1,0.001355609
144.2358,327.028,1.0001,0.001265841
150.6288,328.03,0.9996,0.001273481
156.8634,329.032,0.9995,0.00131636
162.9516,330.034,0.9996,0.001349689
168.8988,331.036,0.9997,0.001546361
174.7272,332.038,0.9998,0.00133008
180.4452,333.04,0.9995,0.001186004
186.063,334.042,0.9996,0.001109781
191.5914,335.044,0.9998,0.001103124
197.0322,336.046,0.9998,0.001079258
202.3938,337.048,0.9996,0.001053358
207.6774,338.05,0.9996,0.001250753
212.8932,339.052,0.9997,0.001389616
218.049,340.054,0.9997,0.001162757
223.1484,341.056,0.9998,0.00151285
228.1902,342.058,0.9996,0.001104284
233.1828,343.06,0.9997,0.001217349
238.1298,344.062,1.0001,0.001458404
243.0366,345.064,1.0001,0.001294516
247.9008,346.066,0.9998,0.001015832
252.729,347.068,1,0.001183509
257.5236,348.07,0.9997,0.001477851
262.2858,349.072,0.9996,0.001147352
267.0144,350.074,0.9998,0.001106219
271.7142,351.076,0.9998,0.001093361
276.3894,352.078,0.9998,0.000975676
281.0394,353.08,0.9999,0.001228348
285.6636,354.082,0.9998,0.001390486
290.2644,355.084,0.9996,0.00104906
294.8508,356.086,0.9998,0.001184689
299.4228,357.088,1.0001,0.001074589
303.981,358.09,0.9996,0.00127582
308.523,359.092,0.9996,0.001374766
313.0482,360.094,0.9997,0.001464851
317.5584,361.096,1.0001,0.001284437
322.0596,362.098,0.9998,0.001173248
326.5482,363.1,1,0.001326996
331.0302,364.102,1,0.001174278
335.5002,365.104,0.9995,0.001193706
339.9654,366.106,0.9998,0.001118071
344.4222,367.108,0.9998,0.001052528
348.876,368.11,0.9999,0.00125068
353.3262,369.112,0.9999,0.001300991
357.7776,370.114,0.9999,0.001319751
362.2224,371.116,1,0.001342246
366.669,372.118,0.9999,0.001514447
371.1114,373.12,0.9998,0.001363547
375.5538,374.122,0.9999,0.001239441
379.9956,375.124,0.9996,0.001407048
384.438,376.126,0.9997,0.00128228
388.8828,377.128,0.9997,0.001154746
393.3306,378.13,0.9998,0.001159802
397.782,379.132,0.9996,0.001257354
402.2388,380.134,0.9997,0.001291768
406.7004,381.136,0.9998,0.001265686
411.1668,382.138,0.9996,0.001709567
415.641,383.14,0.9994,0.001380382
420.1194,384.142,0.9996,0.001156701
424.6044,385.144,0.9995,0.001252448
429.0996,386.146,0.9997,0.001300123
433.6074,387.148,0.9997,0.00119828
438.1254,388.15,1,0.001499448
442.6548,389.152,0.9997,0.001623725
447.1902,390.154,0.9996,0.001453374
451.74,391.156,0.9995,0.001404444
456.3012,392.158,0.9994,0.001392474
460.8756,393.16,0.9996,0.001446118
465.4638,394.162,0.9995,0.001572742
470.0682,395.164,0.9989,0.001438119
474.6864,396.166,0.9992,0.001477433
479.3172,397.168,0.9995,0.001566402
483.963,398.17,0.9998,0.001664347
488.6268,399.172,0.9996,0.001665496
493.3068,400.174,0.9993,0.001412504
498.0054,401.176,0.999,0.001311392
502.7208,402.178,0.9989,0.001384835
507.453,403.18,0.9991,0.001419695
512.2044,404.182,0.9989,0.001661757
516.975,405.184,0.9988,0.001470763
521.7642,406.186,0.9988,0.001439498
526.5732,407.188,0.9988,0.001270898
531.3984,408.19,0.9988,0.001532537
536.2428,409.192,0.9986,0.001482853
541.11,410.194,0.9986,0.001634477
546.0012,411.196,0.9987,0.001500944
550.9146,412.198,0.9986,0.001456627
555.8508,413.2,0.9985,0.001550034
560.808,414.202,0.9988,0.001749692
565.7856,415.204,0.9987,0.001728306
570.789,416.206,0.9984,0.001644888
575.8182,417.208,0.9981,0.001621352
580.8714,418.21,0.9979,0.001441019
585.9492,419.212,0.998,0.001404917
591.051,420.214,0.9979,0.001565579
596.178,421.216,0.9975,0.001401823
601.3278,422.218,0.9976,0.001547739
606.5046,423.22,0.9977,0.001564235
611.706,424.222,0.9974,0.001480101
616.9332,425.224,0.9973,0.001532047
622.1832,426.226,0.997,0.001432831
627.4626,427.228,0.9968,0.001388719
632.772,428.23,0.9971,0.001526884
638.103,429.232,0.9968,0.001468175
643.4634,430.234,0.9967,0.001435923
648.8544,431.236,0.9962,0.001425998
654.27,432.238,0.9962,0.001493874
659.7114,433.24,0.9961,0.001433161
665.175,434.242,0.9958,0.001329923
670.6656,435.244,0.9957,0.001707643
676.1814,436.246,0.9957,0.001388194
681.726,437.248,0.9955,0.00153836
687.2982,438.25,0.9952,0.001529573
692.9016,439.252,0.9951,0.001504347
698.5272,440.254,0.9948,0.001524141
704.178,441.256,0.9945,0.001423738
709.8552,442.258,0.994,0.001293219
715.5558,443.26,0.994,0.001404607
721.281,444.262,0.9936,0.00130679
727.0296,445.264,0.9933,0.001458704
732.8034,446.266,0.9929,0.001664168
738.6012,447.268,0.9927,0.001507455
744.4248,448.27,0.9923,0.001479339
750.2676,449.272,0.9918,0.001547753
756.1302,450.274,0.9915,0.001494963
762.0156,451.276,0.991,0.001560247
767.9178,452.278,0.9905,0.001380346
773.8404,453.28,0.9902,0.001299803
779.7858,454.282,0.9896,0.001211067
785.7522,455.284,0.9891,0.001256126
791.736,456.286,0.9886,0.001313855
797.733,457.288,0.9879,0.00140765
803.7456,458.29,0.9868,0.001279076
809.781,459.292,0.9865,0.001359962
815.829,460.294,0.9861,0.00140737
821.8914,461.296,0.9854,0.001327356
827.9682,462.298,0.9849,0.001573749
834.054,463.3,0.984,0.001435021
840.1476,464.302,0.9831,0.001177197
846.2556,465.304,0.9827,0.001238888
852.3768,466.306,0.982,0.001488639
858.5058,467.308,0.9816,0.001295756
864.6408,468.31,0.9807,0.001092303
870.7836,469.312,0.9805,0.001189875
876.9312,470.314,0.9799,0.001222461
883.0806,471.316,0.9795,0.001191368
889.2384,472.318,0.9792,0.001140189
895.4028,473.32,0.979,0.001148752
901.5708,474.322,0.9786,0.001469051
907.7406,475.324,0.9783,0.001104934
913.911,476.326,0.9782,0.001079075
920.0838,477.328,0.9777,0.001005178
926.2578,478.33,0.9775,0.0009706
932.4414,479.332,0.9772,0.001291039
938.6238,480.334,0.977,0.001257731
944.8026,481.336,0.977,0.001027656
950.976,482.338,0.9771,0.001106915
957.1488,483.34,0.9769,0.001231744
963.3258,484.342,0.9767,0.001050695
969.4938,485.344,0.9763,0.001157926
975.6588,486.346,0.9764,0.001104447
981.8202,487.348,0.9759,0.001285023
987.9762,488.35,0.9759,0.001190575
994.1322,489.352,0.9754,0.001234848
1000.29,490.354,0.9755,0.001121144
1006.44,491.356,0.9751,0.001127937
1012.59,492.358,0.9754,0.001072442
1018.74,493.36,0.9754,0.00105389
1024.88,494.362,0.9752,0.001101282
1031.02,495.364,0.9751,0.00110553
1037.145,496.366,0.9747,0.001142658
1043.27,497.368,0.9746,0.001011854
1049.38,498.37,0.9744,0.001045545
1055.48,499.372,0.974,0.001453974
1061.58,500.374,0.9743,0.001218525
1067.68,501.376,0.9743,0.001390372
1073.77,502.378,0.9741,0.001160313
1079.856,503.38,0.974,0.001110095
1085.93,504.382,0.9741,0.001151465
1092,505.384,0.974,0.001123213
1098.054,506.386,0.9737,0.000980362
1104.11,507.388,0.9736,0.00104544
1110.15,508.39,0.9736,0.001262976
1116.2,509.392,0.9735,0.001336355
1122.23,510.394,0.9733,0.001183833
1128.25,511.396,0.9729,0.001105022
1134.264,512.398,0.9729,0.001262266
1140.27,513.4,0.9728,0.001147443
1146.27,514.402,0.973,0.001352142
1152.27,515.404,0.9731,0.001146771
1158.249,516.406,0.9728,0.000962148
1164.231,517.408,0.9726,0.000878463
1170.207,518.41,0.9726,0.001036194
1176.17,519.412,0.9724,0.001245503
1182.13,520.414,0.9721,0.001095573
1188.08,521.416,0.9721,0.001408383
1194.02,522.418,0.9725,0.001397048
1199.96,523.42,0.9721,0.001327472
1205.89,524.422,0.9719,0.001238996
1211.82,525.424,0.9719,0.001188231
1217.736,526.426,0.9721,0.00091774
1223.646,527.428,0.9717,0.001170392
1229.55,528.43,0.9713,0.001113609
1235.45,529.432,0.9713,0.001397513
1241.34,530.434,0.9711,0.001448932
1247.23,531.436,0.9708,0.001399202
1253.121,532.438,0.971,0.001414703
1259.004,533.44,0.9708,0.001469121
1264.88,534.442,0.9705,0.001269426
1270.75,535.444,0.9707,0.001259738
1276.62,536.446,0.9702,0.001322824
1282.48,537.448,0.9702,0.001129181
1288.341,538.45,0.97,0.001289868
1294.197,539.452,0.9698,0.001324409
1300.05,540.454,0.9693,0.001116661
1305.9,541.456,0.969,0.001064544
1311.75,542.458,0.9687,0.001247788
1317.6,543.46,0.9685,0.00125881
1323.44,544.462,0.9684,0.001174782
1329.28,545.464,0.9683,0.001402379
1335.114,546.466,0.9677,0.001285864
1340.95,547.468,0.9671,0.001376242
1346.78,548.47,0.9666,0.001156772
1352.61,549.472,0.9666,0.001138603
1358.44,550.474,0.9663,0.001354825
1364.268,551.476,0.9662,0.001339772
1370.091,552.478,0.9657,0.001368525
1375.9,553.48,0.9652,0.001331467
1381.72,554.482,0.9649,0.001316781
1387.53,555.484,0.9644,0.001728955
1393.35,556.486,0.9632,0.001282277
1399.164,557.488,0.9631,0.001161015
1404.98,558.49,0.9627,0.001160806
1410.79,559.492,0.9622,0.001237761
1416.61,560.494,0.9615,0.001451568
1422.42,561.496,0.9611,0.001595475
1428.23,562.498,0.9601,0.001397324
1434.036,563.5,0.9591,0.001421055
1439.84,564.502,0.9584,0.001532251
1445.65,565.504,0.958,0.001766736
1451.457,566.506,0.9568,0.001259155
1457.27,567.508,0.9558,0.00134043
1463.08,568.51,0.955,0.001357197
1468.88,569.512,0.9546,0.00180439
1474.686,570.514,0.9534,0.001541465
1480.49,571.516,0.9524,0.001727496
1486.3,572.518,0.9517,0.001500109
1492.11,573.52,0.9505,0.001735098
1497.91,574.522,0.9496,0.001462541
1503.72,575.524,0.9481,0.002086145
1509.525,576.526,0.9472,0.001395456
1515.33,577.528,0.9462,0.001691137
1521.15,578.53,0.9452,0.001999049
1526.96,579.532,0.9442,0.001594364
1532.77,580.534,0.9433,0.001652834
1538.58,581.536,0.9422,0.001976084
1544.4,582.538,0.941,0.001684917
1550.21,583.54,0.9396,0.001889877
1556.04,584.542,0.9384,0.001907664
1561.863,585.544,0.9374,0.002389361
1567.69,586.546,0.9358,0.001997798
1573.51,587.548,0.934,0.001830164
1579.34,588.55,0.9324,0.001731348
1585.17,589.552,0.9311,0.002023874
1591.01,590.554,0.9289,0.001425948
1596.85,591.556,0.9272,0.002003738
1602.69,592.558,0.9252,0.001781499
1608.537,593.56,0.9234,0.002042449
1614.38,594.562,0.9206,0.002445612
1620.228,595.564,0.9186,0.002138393
1626.08,596.566,0.9161,0.002549243
1631.93,597.568,0.9122,0.003024609
1637.79,598.57,0.9091,0.002984408
1643.66,599.572,0.9062,0.002772381
1649.526,600.574,0.9029,0.002748705
1655.39,601.576,0.8987,0.00308442
1661.26,602.578,0.8948,0.003143529
1667.133,603.58,0.8896,0.003690708
1673.01,604.582,0.8852,0.003559111
1678.89,605.584,0.8804,0.003625264
1684.77,606.586,0.8759,0.004109279
1690.65,607.588,0.869,0.00485152
1696.53,608.59,0.8628,0.004767508
1702.413,609.592,0.8564,0.004989718
1708.3,610.594,0.8497,0.005365622
1714.18,611.596,0.842,0.00576092
1720.07,612.598,0.8347,0.006163387
1725.97,613.6,0.8265,0.006483893
1731.86,614.602,0.8185,0.007133848
1737.76,615.604,0.8093,0.007590087
1743.65,616.606,0.8003,0.007456141
1749.54,617.608,0.7898,0.007881365
1755.435,618.61,0.7792,0.00865124
1761.33,619.612,0.7685,0.008618026
1767.23,620.614,0.7571,0.008733438
1773.12,621.616,0.7454,0.009809563
1779.012,622.618,0.7326,0.009857521
1784.91,623.62,0.72,0.010125
1790.8,624.622,0.7073,0.0112025
1796.68,625.624,0.6936,0.0104692
1802.57,626.626,0.6789,0.0111888
1808.45,627.628,0.6657,0.0116566
1814.33,628.63,0.6502,0.012414
1820.214,629.632,0.6362,0.0129499
1826.09,630.634,0.6203,0.0130887
1831.95,631.636,0.6042,0.0131988
1837.82,632.638,0.5886,0.0134624
1843.69,633.64,0.5726,0.0140058
1849.563,634.642,0.5559,0.01409893
1855.43,635.644,0.5392,0.0147793
1861.29,636.646,0.5231,0.014959
1867.15,637.648,0.5047,0.0159153
1873.01,638.65,0.4883,0.0155222
1878.87,639.652,0.4706,0.0157585
1884.72,640.654,0.4529,0.0162134
1890.56,641.656,0.4351,0.0169089
1896.4,642.658,0.4178,0.0174069
1902.23,643.66,0.4007,0.0169643
1908.05,644.662,0.3837,0.0170088
1913.85,645.664,0.3662,0.0174355
1919.65,646.666,0.3504,0.0172826
1925.46,647.668,0.3345,0.017606
1931.26,648.67,0.3186,0.0173786
1937.07,649.672,0.3027,0.0171689
1942.88,650.674,0.287,0.0175811
1948.7,651.676,0.2718,0.0177134
1954.52,652.678,0.2556,0.0180835
1960.35,653.68,0.2409,0.0178475
1966.17,654.682,0.2258,0.0181551
1972,655.684,0.2123,0.0181173
1977.82,656.686,0.1971,0.0175918
1983.63,657.688,0.1834,0.0174321
1989.43,658.69,0.1684,0.0168725
1995.22,659.692,0.1562,0.0159095
2001.01,660.694,0.1445,0.0149688
2006.799,661.696,0.1325,0.0141954
2012.6,662.698,0.1212,0.01341973
2018.39,663.7,0.1114,0.0126815
2024.18,664.702,0.1018,0.01171515
2029.99,665.704,0.0933,0.0111082
2035.791,666.706,0.0838,0.0100053
2041.6,667.708,0.0763,0.00928931
2047.41,668.71,0.0694,0.008913463
2053.24,669.712,0.0633,0.008403459
2059.07,670.714,0.0568,0.007208919
2064.91,671.716,0.0514,0.006868098
2070.76,672.718,0.0467,0.006193951
2076.61,673.72,0.0419,0.005512037
2082.48,674.722,0.0374,0.005182201
2088.35,675.724,0.0342,0.005324656
2094.23,676.726,0.0305,0.004131409
2100.13,677.728,0.0276,0.004620792
2106.027,678.73,0.0247,0.004382322
2111.93,679.732,0.0217,0.003785804
2117.85,680.734,0.0196,0.003700085
2123.78,681.736,0.0178,0.003489974
2129.715,682.738,0.0159,0.003350946
2135.66,683.74,0.0145,0.003100762
2141.62,684.742,0.0132,0.003084955
2147.59,685.744,0.0118,0.003204962
2153.56,686.746,0.0108,0.003064071
2159.55,687.748,0.0095,0.002862296
2165.55,688.75,0.0088,0.00275586
2171.55,689.752,0.0079,0.002825529
2177.56,690.754,0.0071,0.002666116
2183.586,691.756,0.0066,0.002808031
2189.62,692.758,0.0059,0.002607196
2195.67,693.76,0.0054,0.002613106
2201.715,694.762,0.0048,0.002672327
2207.769,695.764,0.0042,0.002670496
2213.84,696.766,0.0039,0.002772982
2219.92,697.768,0.0036,0.002486648
2225.997,698.77,0.0033,0.002293498
2232.078,699.772,0.0029,0.002859799
2238.174,700.774,0.0026,0.002510934
2244.28,701.776,0.0025,0.002195895
2250.4,702.778,0.0024,0.002380177
2256.51,703.78,0.0025,0.002631677
2262.61,704.782,0.0019,0.002279126
2268.717,705.784,0.0018,0.002200847
2274.84,706.786,0.0021,0.002146255
2280.972,707.788,0.0019,0.002308455
2287.13,708.79,0.0018,0.002473528
2293.296,709.792,0.0015,0.002271543
2299.47,710.794,0.0016,0.002521862
2305.67,711.796,0.0014,0.002142939
2311.88,712.798,0.0018,0.002127122
2318.1,713.8,0.0016,0.002139331
2324.325,714.802,0.0012,0.002491235
2330.54,715.804,0.0013,0.002545239
2336.76,716.806,0.0013,0.002300879
2342.976,717.808,0.0016,0.002476497
2349.204,718.81,0.0011,0.002325929
2355.44,719.812,0.0014,0.002399876
2361.68,720.814,0.0014,0.002324552
2367.93,721.816,0.0016,0.002351106
2374.18,722.818,0.0015,0.002127291
2380.43,723.82,0.0014,0.002289224
2386.677,724.822,0.0013,0.002544807
2392.95,725.824,0.001,0.002390184
2399.22,726.826,0.0016,0.002157982
2405.49,727.828,0.0016,0.002391217
2411.77,728.83,0.0015,0.00217683
2418.05,729.832,0.001,0.002306628
2424.32,730.834,0.0015,0.002387159
2430.61,731.836,0.0011,0.002483701
2436.89,732.838,0.0013,0.002405194
2443.18,733.84,0.0013,0.002428198
2449.47,734.842,0.0011,0.002425888
2455.75,735.844,0.001,0.002387971
2462.037,736.846,0.0012,0.002267374
2468.33,737.848,0.0012,0.00234265
2474.62,738.85,0.0016,0.002359532
2480.91,739.852,0.0009,0.002376626
2487.195,740.854,0.0011,0.002311103
2493.49,741.856,0.0012,0.002265934
2499.78,742.858,0.001,0.002273282
2506.07,743.86,0.0012,0.00204378
2512.35,744.862,0.0011,0.00233676
2518.64,745.864,0.0008,0.002549349
2524.93,746.866,0.0008,0.002554681
2531.22,747.868,0.001,0.002564231
2537.51,748.87,0.0011,0.002413036
2543.78,749.872,0.0013,0.00242911
2550.06,750.874,0.0011,0.002322905
2556.34,751.876,0.0011,0.002324925
2562.63,752.878,0.001,0.002189991
2568.91,753.88,0.0009,0.002337488
2575.19,754.882,0.0009,0.002375721
2581.47,755.884,0.0005,0.002345988
2587.74,756.886,0.001,0.002337487
2594.01,757.888,0.0009,0.0023039
2600.29,758.89,0.001,0.002307299
2606.56,759.892,0.0009,0.002260249
2612.83,760.894,0.0012,0.002235198
2619.09,761.896,0.0011,0.0021231
2625.354,762.898,0.0013,0.002227155
2631.61,763.9,0.0011,0.0021852
2637.861,764.902,0.0009,0.002035288
2644.116,765.904,0.0007,0.002121408
2650.37,766.906,0.0006,0.002189066
2656.62,767.908,0.0011,0.002315356
2662.87,768.91,0.0006,0.002457977
2669.12,769.912,0.0007,0.002440993
2675.37,770.914,0.0008,0.002411618
2681.61,771.916,0.0008,0.002182105
2687.85,772.918,0.001,0.002259118
2694.093,773.92,0.0009,0.002497268
2700.324,774.922,0.0008,0.002447094
2706.558,775.924,0.0007,0.002327984
2712.79,776.926,0.0005,0.002230607
2719.02,777.928,0.001,0.002489984
2725.254,778.93,0.001,0.002394163
2731.48,779.932,0.0009,0.002475817
2737.704,780.934,0.0007,0.002394552
2743.92,781.936,0.0005,0.002455161
2750.139,782.938,0.0007,0.002376079
2756.35,783.94,0.0007,0.002472607
2762.562,784.942,0.0007,0.002451543
2768.78,785.944,0.0005,0.002436769
2774.98,786.946,0.0012,0.002341678
2781.18,787.948,0.0005,0.002497211
2787.393,788.95,0.0009,0.002566791
2793.6,789.952,0.0006,0.002326771
2799.8,790.954,0.0006,0.002526657
2806,791.956,0.0005,0.002620481
2812.19,792.958,0.0007,0.002778886
2818.39,793.96,0.0004,0.002445971
2824.58,794.962,0.0009,0.002487488
2830.76,795.964,0.001,0.002341339
2836.94,796.966,0.0009,0.002417294
2843.13,797.968,0.001,0.002564797
2849.31,798.97,0.0005,0.002414254
2855.49,799.972,0.0005,0.002599377
2861.67,800.974,0.0007,0.002408411
2867.85,801.976,0.0006,0.002373425
2874.02,802.978,0.0006,0.002418613
2880.19,803.98,0.0009,0.002473859
2886.35,804.982,0.0007,0.002414288
2892.519,805.984,0.0007,0.002351028
2898.69,806.986,0.0007,0.002441878
2904.86,807.988,0.0009,0.002544615
2911.02,808.99,0.001,0.002716988
2917.18,809.992,0.0007,0.002758066
2923.33,810.994,0.0007,0.002630218
2929.48,811.996,0.0007,0.002597848
2935.64,812.998,0.0006,0.00238721
2941.79,814,0.0005,0.002281053
2947.94,815.002,0.0004,0.002476881
2954.09,816.004,0.0006,0.00249708
2960.24,817.006,0.0006,0.002566893
2966.391,818.008,0.0007,0.00246183
2972.54,819.01,0.0008,0.002432625
2978.68,820.012,0.0007,0.002627866
2984.83,821.014,0.0006,0.002436121
2990.97,822.016,0.0008,0.002281159
2997.11,823.018,0.0006,0.00248934
3003.25,824.02,0.0007,0.00244976
3009.38,825.022,0.0006,0.002387508
3015.52,826.024,0.0007,0.002324163
3021.65,827.026,0.001,0.002398401
3027.79,828.028,0.0011,0.002431746
3033.921,829.03,0.001,0.002410277
3040.06,830.032,0.0012,0.002718363
3046.19,831.034,0.001,0.002547111
3052.31,832.036,0.0009,0.002601462
3058.45,833.038,0.0008,0.002468978
3064.575,834.04,0.0008,0.002411965
3070.71,835.042,0.0007,0.002366384
3076.842,836.044,0.0006,0.002392278
3082.97,837.046,0.0005,0.002516921
3089.1,838.048,0.0007,0.002593659
3095.22,839.05,0.0007,0.002473774
3101.34,840.052,0.0007,0.002611441
3107.46,841.054,0.0008,0.002680863
3113.59,842.056,0.0009,0.002439358
3119.72,843.058,0.0008,0.002585168
3125.84,844.06,0.0007,0.00267121
3131.96,845.062,0.0008,0.002616526
3138.09,846.064,0.0009,0.002676944
3144.21,847.066,0.0009,0.002677768
3150.33,848.068,0.0008,0.002462772
3156.46,849.07,0.0007,0.002511861
3162.58,850.072,0.0007,0.002467097
3168.7,851.074,0.0007,0.002632205
3174.83,852.076,0.0007,0.00262246
3180.95,853.078,0.0008,0.002482338
3187.083,854.08,0.0005,0.002635925
3193.21,855.082,0.0005,0.002554555
3199.33,856.084,0.0008,0.002334484
3205.45,857.086,0.0009,0.002420969
3211.58,858.088,0.0007,0.002330347
3217.7,859.09,0.0006,0.002338983
3223.83,860.092,0.0008,0.002554441
3229.95,861.094,0.0005,0.002712066
3236.08,862.096,0.0005,0.00263104
3242.21,863.098,0.0008,0.002502744
3248.34,864.1,0.0009,0.002673003
3254.46,865.102,0.0007,0.002581385
3260.58,866.104,0.0009,0.002563073
3266.7,867.106,0.0009,0.00270253
3272.83,868.108,0.0008,0.002675361
3278.95,869.11,0.0008,0.002711199