File: Non-charring/PMMA/UMD/UMD_CAPA_60kWm2_Temp.csv
Relative Time [s],"Temp_avg, all4 [K]",Error [K]
0,309.29,1.43844
0.266,309.671,1.48449
0.532,309.687,1.35112
0.798,309.687,1.29261
1.064,309.445,1.38234
1.331,309.406,1.41931
1.596,309.374,1.42509
1.862,309.368,1.4264
2.129,309.373,1.41769
2.395,309.37,1.40859
2.661,309.369,1.40705
2.927,309.345,1.4122
3.193,309.392,1.39525
3.459,309.483,1.36642
3.725,309.526,1.38235
3.991,309.536,1.40443
4.257,309.529,1.38794
4.523,309.499,1.39552
4.789,309.501,1.38033
5.055,309.494,1.38137
5.321,309.456,1.39886
5.587,309.386,1.41091
5.853,309.378,1.40769
6.119,309.388,1.40588
6.385,309.392,1.40541
6.651,309.415,1.4043
6.917,309.393,1.41035
7.183,309.405,1.40905
7.449,309.423,1.39504
7.715,309.397,1.36871
7.981,309.383,1.3712
8.247,309.392,1.37299
8.513,309.409,1.35327
8.779,309.464,1.35055
9.045,309.475,1.33481
9.311,309.453,1.33581
9.577,309.451,1.33353
9.844,309.506,1.34863
10.11,309.546,1.34714
10.376,309.511,1.36057
10.642,309.514,1.35457
10.908,309.489,1.35736
11.174,309.527,1.35625
11.44,309.525,1.34734
11.706,309.542,1.34999
11.972,309.573,1.35477
12.238,309.591,1.35522
12.504,309.585,1.34555
12.77,309.589,1.35007
13.036,309.641,1.34184
13.302,309.65,1.34455
13.568,309.68,1.34994
13.835,309.636,1.37343
14.1,309.694,1.37908
14.366,309.714,1.35904
14.632,309.759,1.35849
14.899,309.777,1.36784
15.164,309.829,1.38112
15.431,309.887,1.39006
15.697,309.94,1.38502
15.963,309.958,1.41208
16.229,309.941,1.38073
16.495,309.992,1.37694
16.76,310.05,1.38406
17.027,310.115,1.37786
17.293,310.188,1.37408
17.559,310.244,1.38474
17.825,310.314,1.37712
18.091,310.409,1.37447
18.357,310.475,1.36289
18.623,310.55,1.3692
18.889,310.653,1.36754
19.155,310.732,1.3633
19.421,310.829,1.36152
19.687,310.903,1.37293
19.953,310.985,1.3854
20.219,311.073,1.37946
20.485,311.156,1.38445
20.751,311.258,1.38522
21.017,311.342,1.39156
21.283,311.486,1.38282
21.549,311.589,1.37129
21.815,311.696,1.37997
22.081,311.88,1.35379
22.347,312.027,1.3594
22.613,312.121,1.35204
22.88,312.283,1.35981
23.145,312.435,1.36058
23.411,312.527,1.34965
23.677,312.65,1.35291
23.943,312.795,1.3431
24.209,312.876,1.37087
24.475,313.029,1.38561
24.741,313.136,1.39112
25.007,313.32,1.39111
25.273,313.469,1.3945
25.539,313.686,1.39115
25.805,313.854,1.40164
26.071,314.048,1.39458
26.337,314.244,1.37856
26.603,314.407,1.36831
26.869,314.571,1.37449
27.135,314.737,1.37357
27.401,314.938,1.37646
27.667,315.105,1.37766
27.934,315.283,1.38305
28.2,315.485,1.36959
28.466,315.7,1.37418
28.732,315.892,1.38612
28.998,316.106,1.37946
29.264,316.302,1.378
29.53,316.487,1.38666
29.796,316.721,1.37766
30.062,316.907,1.39106
30.328,317.147,1.39193
30.594,317.364,1.38945
30.86,317.569,1.39465
31.126,317.821,1.39212
31.392,318.036,1.39081
31.658,318.231,1.39715
31.924,318.489,1.38427
32.19,318.748,1.38331
32.456,318.959,1.39344
32.722,319.167,1.39947
32.988,319.44,1.39397
33.254,319.679,1.39862
33.52,319.934,1.38476
33.786,320.211,1.38272
34.052,320.477,1.38065
34.318,320.703,1.38722
34.584,320.951,1.37828
34.85,321.207,1.3965
35.116,321.483,1.40631
35.382,321.716,1.41064
35.898,322.113,1.36397
36.164,322.363,1.36224
36.43,322.649,1.3593
36.64,322.905,1.36343
36.907,323.253,1.37567
37.173,323.527,1.38498
37.439,323.805,1.37682
37.705,324.108,1.3761
37.971,324.377,1.38069
38.237,324.681,1.37149
38.503,324.987,1.36833
38.757,325.239,1.38124
39.023,325.503,1.3747
39.289,325.755,1.373
39.555,326.041,1.36458
39.773,326.323,1.37077
40.039,326.598,1.36862
40.305,326.888,1.38118
40.571,327.23,1.36769
40.837,327.561,1.35974
41.103,327.872,1.36114
41.37,328.156,1.36133
41.635,328.486,1.34732
41.902,328.759,1.3443
42.168,329.061,1.35105
42.433,329.352,1.33743
42.7,329.653,1.33983
42.966,329.975,1.3353
43.232,330.314,1.337
43.498,330.608,1.33271
43.762,330.911,1.33492
44.028,331.242,1.33219
44.294,331.557,1.31716
44.56,331.869,1.32818
44.826,332.147,1.31448
45.092,332.547,1.2991
45.358,332.832,1.29108
45.624,333.173,1.28811
45.89,333.47,1.288
46.156,333.757,1.28078
46.422,334.059,1.277
46.688,334.379,1.27567
46.954,334.631,1.29416
47.22,334.869,1.27351
47.486,335.031,1.21581
47.769,335.205,1.14536
48.151,335.465,1.04271
48.417,336.403,1.29078
48.682,336.71,1.29055
48.948,337.055,1.28958
49.214,337.335,1.30496
49.48,337.672,1.30094
49.747,337.976,1.30085
50.013,338.357,1.34652
50.279,338.607,1.34742
50.545,338.914,1.32856
50.81,339.173,1.33253
51.076,339.437,1.31948
51.342,339.748,1.32983
51.608,340.039,1.345
51.874,340.357,1.33967
52.14,340.708,1.33616
52.406,341.022,1.34209
52.672,341.364,1.36478
52.938,341.713,1.36458
53.204,342.029,1.33685
53.47,342.282,1.30817
53.736,342.494,1.29525
54.002,342.846,1.29019
54.269,343.15,1.31309
54.534,343.409,1.31085
54.801,343.665,1.28153
55.067,343.897,1.273
55.333,344.192,1.24323
55.599,344.45,1.20512
55.864,344.743,1.19972
56.131,345.083,1.21745
56.397,345.371,1.2323
56.663,345.676,1.2465
56.929,346.038,1.28688
57.195,346.389,1.30241
57.461,346.759,1.31882
57.727,347.104,1.33906
57.993,347.513,1.35041
58.259,347.858,1.34811
58.525,348.157,1.34124
58.791,348.453,1.36508
59.057,348.645,1.37418
59.323,348.86,1.33732
59.589,349.16,1.33608
59.855,349.541,1.36441
60.121,349.861,1.37219
60.387,350.048,1.33692
60.653,350.277,1.31395
60.919,350.594,1.32925
61.185,350.862,1.36084
61.451,351.18,1.39643
61.717,351.454,1.39397
61.983,351.717,1.38898
62.249,351.987,1.39114
62.515,352.334,1.38863
62.781,352.745,1.44534
63.047,353.115,1.49938
63.313,353.501,1.49754
63.579,353.847,1.47346
63.845,354.256,1.48538
64.111,354.489,1.5006
64.377,354.618,1.50944
64.643,354.734,1.51998
64.909,355.075,1.52317
65.175,355.583,1.43442
65.441,355.867,1.40707
65.707,356.07,1.33034
65.973,356.322,1.27563
66.239,356.602,1.25397
66.505,356.881,1.30569
66.771,357.106,1.39779
67.037,357.311,1.43821
67.304,357.493,1.42338
67.569,357.686,1.4135
67.836,358.017,1.40769
68.102,358.363,1.45394
68.368,358.735,1.46682
68.633,358.967,1.43013
68.9,359.412,1.41569
69.166,359.881,1.3823
69.432,360.268,1.3208
69.698,360.481,1.27674
69.964,360.639,1.25164
70.23,360.969,1.2022
70.496,361.394,1.24365
70.762,361.839,1.27675
71.028,362.102,1.27676
71.294,362.368,1.28326
71.56,362.629,1.32798
71.826,363.066,1.41036
72.092,363.333,1.47552
72.358,363.549,1.50719
72.624,363.818,1.56284
72.89,364.098,1.59365
73.156,364.409,1.6159
73.422,364.674,1.66262
73.688,364.899,1.68999
73.954,365.434,1.65151
74.22,365.737,1.56746
74.486,365.923,1.48229
74.752,366.132,1.48692
75.018,366.334,1.51197
75.284,366.487,1.53003
75.55,366.692,1.52153
75.816,366.974,1.52407
76.083,367.299,1.51628
76.348,367.427,1.44838
76.614,367.648,1.38632
76.88,367.832,1.36972
77.146,368.026,1.33753
77.412,368.431,1.38801
77.678,369.012,1.48444
77.944,369.54,1.58309
78.211,369.792,1.65099
78.476,369.75,1.64399
78.742,369.912,1.57371
79.008,370.195,1.56535
79.274,370.403,1.51911
79.54,370.652,1.5266
79.806,370.952,1.56668
80.072,371.379,1.59025
80.338,371.817,1.58903
80.605,372.347,1.5935
80.871,372.638,1.58984
81.137,372.682,1.5379
81.402,372.834,1.57303
81.669,373.123,1.60229
81.935,373.565,1.61597
82.201,373.901,1.55463
82.467,374.125,1.4635
82.733,374.336,1.44639
82.999,374.701,1.45253
83.265,374.862,1.39938
83.531,375.273,1.52754
83.797,375.45,1.61358
84.063,375.66,1.73228
84.329,375.806,1.8211
84.595,376.189,1.90829
84.861,376.212,1.83889
85.127,376.359,1.76926
85.393,376.92,1.84158
85.659,377.407,1.78695
85.925,377.594,1.70652
86.191,377.551,1.72153
86.457,377.856,1.66888
86.723,378.585,1.68385
86.989,379.045,1.75108
87.255,379.246,1.78383
87.521,379.214,1.85525
87.787,379.542,1.75798
88.053,379.464,1.57264
88.319,379.575,1.56849
88.585,380.049,1.63173
88.851,380.112,1.62312
89.117,380.332,1.75239
89.384,380.626,1.84798
89.649,381.013,1.84227
89.915,381.15,1.85807
90.181,381.356,1.86702
90.447,381.702,1.89647
90.713,382.019,1.90935
90.979,382.17,1.94403
91.246,382.206,1.91177
91.512,382.121,1.88546
91.777,382.477,2.04123
92.043,382.832,2.14956
92.309,383.019,2.08643
92.575,383.516,1.96372
92.841,383.753,1.96709
93.107,384.018,2.02788
93.373,384.317,2.02534
93.639,384.839,1.97758
93.905,385.159,1.94887
94.171,384.997,2.01582
94.438,385.156,1.95921
94.704,385.476,1.94381
94.969,385.824,1.95856
95.236,386.198,1.91144
95.502,386.317,1.81061
95.768,386.389,1.74997
96.034,386.618,1.79248
96.3,386.946,1.87472
96.566,387.234,1.94231
96.832,387.571,1.96332
97.098,387.831,1.85137
97.364,388.076,1.79377
97.63,388.305,1.76382
97.896,388.278,1.69534
98.162,388.451,1.76497
98.428,388.956,1.86045
98.694,389.447,1.97094
98.96,389.866,2.08171
99.226,389.678,1.90024
99.492,389.79,1.64939
99.758,390.171,1.66983
100.024,390.623,1.81434
100.29,390.823,1.88241
100.556,391.324,2.06594
100.822,391.996,2.17542
101.088,392.447,2.34628
101.354,392.986,2.42445
101.62,393.466,2.3729
101.886,393.81,2.23932
102.152,393.786,2.06458
102.418,393.592,1.95512
102.684,393.464,2.08241
102.95,393.289,2.18498
103.216,393.669,2.00409
103.482,394.313,1.83238
103.748,394.733,1.88435
104.014,394.703,1.86111
104.28,394.962,1.766724
104.546,395.277,1.79277
104.812,395.496,1.85975
105.079,395.824,1.80879
105.344,396.245,1.72161
105.61,396.564,1.8056
105.876,396.97,1.77181
106.142,397.425,1.74621
106.409,397.841,1.6854
106.674,398.034,1.71059
106.941,398.25,1.75692
107.207,398.422,1.72349
107.473,398.56,1.64826
107.738,398.576,1.67182
108.005,398.8,1.56106
108.271,398.884,1.52787
108.537,399.37,1.45636
108.803,399.821,1.30913
109.069,399.856,1.25692
109.335,400.016,1.41099
109.601,400.465,1.51779
109.867,401.407,1.78467
110.133,401.855,1.87943
110.399,402.072,1.77681
110.665,402.219,1.55932
110.931,402.216,1.4149
111.197,402.077,1.35742
111.463,402.118,1.40117
111.729,402.46,1.49204
111.995,402.837,1.47671
112.261,402.988,1.36866
112.527,402.994,1.25376
112.793,402.969,1.2475
113.059,403.207,1.33232
113.325,403.212,1.28241
113.591,403.954,1.31258
113.857,404.495,1.29911
114.123,404.84,1.3731
114.389,405.197,1.45772
114.655,405.252,1.49702
114.921,405.87,1.43051
115.187,406.061,1.39543
115.453,406.185,1.30416
115.719,406.507,1.32606
115.985,406.674,1.26503
116.251,407.102,1.3417
116.517,407.236,1.30018
116.783,407.124,1.21366
117.049,407.736,1.36826
117.315,408.379,1.49785
117.581,408.438,1.50641
117.847,408.395,1.57624
118.113,408.339,1.35009
118.379,408.891,1.04464
118.646,409.804,1.023
118.911,410.482,1.1906
119.178,411.134,1.40418
119.444,411.111,1.35686
119.709,411.415,1.34403
119.975,411.808,1.20213
120.241,412.075,1.08509
120.507,412.745,0.952362
120.773,413.287,0.932317
121.039,413.578,1.02643
121.305,413.901,1.12411
121.571,414.13,1.15652
121.837,414.472,1.20634
122.103,414.863,1.30443
122.369,415.307,1.27913
122.635,415.721,1.3202
122.901,415.705,1.21551
123.167,415.801,1.16146
123.433,415.952,1.18163
123.699,415.859,1.21483
123.965,416.232,1.24528
124.231,416.711,1.17539
124.497,416.991,1.13083
124.765,417.037,1.08934
125.031,417.143,1.09136
125.297,417.271,1.06759
125.563,418.044,1.23839
125.829,418.384,1.23364
126.095,418.496,1.18814
126.361,419.084,1.35084
126.627,419.625,1.35248
126.893,419.7,1.28486
127.159,419.592,1.19273
127.425,419.849,1.18772
127.691,420.479,1.22202
127.957,420.769,1.18273
128.223,421.308,1.09621
128.489,421.72,1.12324
128.755,421.635,1.16493
129.021,421.736,1.15293
129.287,422.143,1.20548
129.553,423.001,1.37206
129.819,423.933,1.65689
130.085,424.605,1.82875
130.351,424.77,1.76984
130.617,424.772,1.62601
130.883,424.699,1.34761
131.149,425.057,1.13776
131.415,424.794,1.0984
131.681,424.866,1.2835
131.947,425.207,1.31821
132.213,425.25,1.2459
132.48,425.612,1.19204
132.746,426.011,1.13269
133.012,426.169,1.10998
133.277,426.616,1.21404
133.543,427.124,1.30976
133.809,427.369,1.48598
134.075,427.486,1.25781
134.342,427.588,1.15593
134.608,427.73,1.03359
134.874,427.755,0.900917
135.14,427.741,0.865581
135.405,428.034,0.955002
135.672,428.315,0.94203
135.938,428.609,1.10571
136.204,429.44,1.33921
136.47,429.661,1.40117
136.736,429.997,1.34723
137.002,430.303,1.19919
137.268,430.484,0.940883
137.534,430.739,0.787623
137.8,431.376,0.967235
138.066,432.158,1.07307
138.332,432.347,0.986513
138.598,432.237,1.19431
138.864,431.915,1.07508
139.13,432.458,1.09129
139.396,433.308,1.03343
139.662,433.719,1.17922
139.928,434.009,1.21498
140.194,434.363,1.09283
140.46,434.522,1.05832
140.726,434.623,1.09016
140.992,434.744,1.06244
141.258,435.611,1.17816
141.524,436.733,1.29293
141.79,437.403,1.40984
142.056,437.977,1.42946
142.322,438.134,1.35267
142.588,438.146,1.17115
142.855,437.758,0.969798
143.12,437.868,0.931108
143.386,438.251,0.974068
143.652,438.91,0.997059
143.918,439.726,1.22003
144.184,439.619,1.31104
144.45,439.418,1.37416
144.716,439.784,1.48645
144.983,440.21,1.46214
145.248,440.7,1.46422
145.514,440.998,1.48957
145.78,440.909,1.45235
146.046,440.937,1.41918
146.313,440.565,1.34811
146.579,440.585,1.25318
146.844,440.794,1.21371
147.11,440.88,1.07731
147.376,441.499,1.07005
147.643,442.384,1.15399
147.909,442.611,1.28049
148.175,442.378,1.0943
148.441,442.413,0.884786
148.707,442.908,0.981215
148.973,443.336,0.964031
149.239,443.52,1.07393
149.505,443.949,1.21081
149.771,444.136,1.25815
150.037,444.248,1.29154
150.303,444.36,1.27294
150.569,444.446,1.23698
150.835,444.81,1.39183
151.101,445.239,1.42977
151.367,445.715,1.39341
151.633,446.096,1.36918
151.899,446.389,1.44861
152.165,446.535,1.50327
152.431,446.462,1.51173
152.697,446.529,1.59962
152.963,446.959,1.63867
153.229,447.557,1.63734
153.495,448.35,1.7325
153.761,448.48,1.73595
154.027,448.506,1.86029
154.293,448.532,1.78077
154.559,448.881,1.61697
154.825,449.191,1.49315
155.091,449.626,1.34899
155.357,449.899,1.42688
155.623,450.393,1.59921
155.889,450.821,1.6552
156.155,450.86,1.67901
156.421,450.642,1.78069
156.687,450.655,1.87748
156.953,450.934,1.89424
157.219,451.096,1.83001
157.485,451.162,1.8154
157.751,451.335,1.85258
158.017,451.709,1.81982
158.283,452.178,1.74413
158.55,452.411,1.6563
158.815,452.54,1.61544
159.081,452.485,1.61465
159.347,452.35,1.55918
159.613,452.786,1.62712
159.88,453.331,1.82902
160.146,453.679,1.89518
160.412,453.342,1.85004
160.677,453.403,1.91268
160.943,453.495,1.88288
161.21,454.429,1.74266
161.476,454.89,1.73562
161.741,454.764,1.72629
162.008,455.022,1.77873
162.274,455.491,1.94113
162.54,456.36,2.01433
162.806,456.609,2.08676
163.072,456.819,2.06411
163.338,456.86,2.13713
163.604,456.88,2.26094
163.87,457.107,2.13317
164.136,456.892,2.17695
164.402,456.605,2.29652
164.668,457.092,2.51535
164.934,457.709,2.34879
165.2,457.488,2.364
165.466,457.503,2.25833
165.732,457.804,2.13229
165.998,458.014,2.251
166.264,458.24,2.38524
166.53,458.884,2.20517
166.796,459.683,2.01145
167.062,459.975,2.16355
167.328,459.783,2.1897
167.594,459.435,2.35496
167.86,459.8,2.22994
168.126,460.301,2.21775
168.392,459.987,2.06161
168.658,460.062,2.14042
168.924,460.753,2.29652
169.19,461.327,2.37748
169.456,461.488,2.07386
169.722,461.179,2.05453
169.988,461.199,2.29517
170.254,461.5,2.62104
170.52,461.96,2.74624
170.786,462.314,2.73062
171.052,462.902,2.76099
171.318,462.959,3.12629
171.584,463.017,3.30425
171.85,463.041,3.24138
172.116,463.127,3.2525
172.382,463.896,3.43037
172.648,463.411,3.7154
172.914,463.123,3.83361
173.18,463.592,3.71093
173.447,463.913,3.58617
173.713,464.899,3.55053
173.979,465.197,3.6309
174.245,464.931,3.75906
174.51,464.532,3.87509
174.777,464.696,3.66189
175.043,464.857,3.65389
175.309,464.993,3.84348
175.575,465.076,4.0695
175.841,465.156,4.17831
176.107,465.257,4.30408
176.373,465.194,4.47685
176.639,465.104,4.57547
176.905,465.118,4.60242
177.171,465.124,4.62061
177.437,465.294,4.55504
177.703,466.077,4.41616
177.969,466.879,4.41982
178.235,466.803,4.55809
178.501,466.236,4.73247
178.767,466.491,4.61752
179.033,467.011,4.54134
179.299,467.445,4.79833
179.565,467.651,4.91643
179.83,467.752,4.89357
180.096,467.509,4.86941
180.362,467.636,4.8346
180.628,467.764,4.66889
180.894,468.314,4.62772
181.16,469.494,4.92413
181.426,470.276,5.06665
181.692,470.427,5.01171
181.958,470.711,4.97179
182.224,471.04,4.95643
182.49,471.31,4.97161
182.756,471.486,4.88237
183.022,471.816,4.92786
183.288,471.79,4.92875
183.554,471.823,4.91764
183.82,471.914,4.86701
184.086,472.436,5.17709
184.352,472.579,5.34161
184.618,473.066,5.19001
184.884,473.582,5.15501
185.15,474.271,5.42601
185.416,475.006,5.67505
185.682,475.4,5.83458
185.948,475.635,5.80198
186.214,475.374,5.70158
186.48,475.231,5.58451
186.746,475.532,5.58161
187.013,475.598,5.72417
187.279,475.705,5.71281
187.545,476.235,5.58368
187.811,476.337,5.33482
188.077,476.258,5.17188
188.343,476.678,5.21331
188.609,476.658,5.20126
188.875,476.865,5.06654
189.141,476.85,4.97822
189.407,476.582,4.96612
189.673,476.508,4.98815
189.939,477.105,5.00883
190.205,477.385,5.05127
190.471,477.843,4.82175
190.737,478.029,4.8376
191.003,478.382,5.04907
191.269,478.765,4.9785
191.535,479.003,4.89317
191.801,478.893,4.84061
192.067,478.779,4.98269
192.333,478.963,5.06294
192.599,479.368,5.01003
192.865,479.888,4.90144
193.131,479.846,4.88905
193.397,479.889,4.90442
193.663,479.717,4.91366
193.929,479.282,5.14766
194.195,479.603,5.36213
194.461,480.84,5.37786
194.727,482.13,5.42433
194.993,482.483,5.31066
195.259,482.504,5.28379
195.525,482.362,5.54154
195.791,482.226,5.57363
196.057,482.388,5.60055
196.323,482.735,5.52747
196.589,482.636,5.82946
196.855,482.27,5.74879
197.121,483.153,5.34396
197.387,483.88,5.35497
197.653,484.152,5.29972
197.919,484.28,5.23259
198.185,484.289,5.28325
198.451,484.323,5.30139
198.717,484.535,5.41553
198.983,485.318,5.57924
199.249,485.945,5.57456
199.515,485.92,5.54553
199.781,485.826,5.38034
200.048,485.921,4.94162
200.314,485.746,4.74604
200.58,485.607,4.82876
200.846,485.848,4.66963
201.112,486.592,4.41035
201.378,486.783,4.65433
201.644,487.679,4.912
201.91,488.748,4.87283
202.176,488.768,4.80174
202.442,488.285,4.89155
202.708,488.006,5.03015
202.974,488.73,5.01141
203.24,489.416,5.07747
203.506,489.944,5.23277
203.772,490.2,5.30252
204.038,489.924,5.34222
204.304,490.139,5.48931
204.57,490.815,5.70559
204.835,490.919,5.6631
205.101,490.945,5.57951
205.367,490.989,5.65059
205.633,491.16,5.76059
205.899,491.363,5.82218
206.165,491.657,5.92655
206.431,491.966,5.94634
206.697,492.222,5.95583
206.963,492.336,5.9337
207.229,492.286,5.88516
207.495,492.656,5.89014
207.761,493.337,5.86604
208.027,494.268,5.89895
208.293,494.827,5.8284
208.559,494.933,5.74532
208.825,494.744,5.70018
209.091,494.628,5.64916
209.357,494.523,5.52587
209.623,494.684,5.42751
209.889,494.884,5.44532
210.155,495.405,5.22517
210.421,495.864,5.39507
210.687,496.413,5.67162
210.953,496.798,5.52064
211.219,497.827,5.5863
211.485,498.56,5.61999
211.751,498.506,5.36337
212.017,498.245,5.26295
212.283,498.125,5.23609
212.549,498.334,5.42304
212.815,499.548,5.37535
213.082,500.504,5.56312
213.347,501.266,5.54205
213.613,501.8715,5.51318
213.88,501.476,5.21713
214.146,501.194,5.22223
214.412,501.46,5.32864
214.678,501.682,5.39387
214.944,502.084,5.26961
215.21,501.954,5.09998
215.476,502.218,5.08319
215.742,502.147,5.25813
216.008,502.081,5.55233
216.274,501.711,5.71629
216.54,502.399,5.95315
216.806,503.088,6.09206
217.072,504.259,6.38447
217.338,505.23,6.53778
217.604,505.334,6.41407
217.87,504.637,5.98718
218.136,505.252,6.04438
218.402,506.88,6.36633
218.668,507.437,6.39405
218.934,507.17,6.11141
219.2,506.966,5.82467
219.466,506.858,5.69492
219.732,506.974,5.72365
219.998,507.126,5.80109
220.264,507.625,6.01306
220.53,508.128,6.07574
220.796,508.703,5.71674
221.062,508.5,5.47286
221.328,508.481,5.44872
221.594,508.604,5.46884
221.86,508.752,5.62537
222.126,508.528,5.92721
222.392,508.283,6.00505
222.658,508.307,5.95991
222.924,508.254,5.95317
223.19,509.016,6.2913
223.456,510.684,5.96974
223.722,510.778,5.82089
223.988,511.111,5.78156
224.254,511.194,5.86588
224.52,510.894,5.99769
224.786,510.583,5.76082
225.053,512.134,6.09917
225.318,513.14,6.17722
225.584,513.354,5.74106
225.85,513.58,5.66868
226.116,514.387,6.05558
226.382,514.546,6.07565
226.65,514.605,5.92804
226.916,514.998,5.65928
227.183,515.604,5.69451
227.448,516.066,5.53469
227.714,516.123,5.4635
227.98,516.362,5.54319
228.246,516.552,5.62639
228.512,517.02,5.5286
228.778,517.908,5.53971
229.044,519.163,6.15873
229.31,520.227,6.26837
229.576,520.791,6.12843
229.842,521.786,6.48112
230.108,522.428,6.59451
230.374,522.799,6.4218
230.64,523.578,6.23426
230.906,524.115,6.22386
231.172,524.47,6.46026
231.438,525.02,6.57955
231.704,525.065,6.47158
231.97,524.953,6.38661
232.236,525.17,6.2064
232.502,525.6427,5.92929
232.768,526.071,5.7299
233.034,526.726,5.67665
233.3,526.964,5.62611
233.566,527.022,5.64431
233.832,527.452,5.68667
234.098,527.835,5.74132
234.364,528.121,5.64962
234.63,529.276,5.74504
234.896,531.114,5.80133
235.162,532.042,5.45278
235.428,532.634,5.54164
235.694,532.638,5.52051
235.96,532.839,5.08896
236.226,533.163,4.84335
236.492,535.157,5.00868
236.758,536.911,5.43214
237.024,536.979,5.70964
237.29,536.769,5.7796
237.556,536.668,5.48755
237.822,536.93,5.45504
238.088,536.938,5.34986
238.354,537.136,5.07968
238.62,537.99,4.86828
238.886,538.054,4.66702
239.152,539.954,4.89315
239.418,542.01,5.29317
239.684,543.189,5.38361
239.95,543.743,5.26864
240.216,544.565,5.3251
240.482,544.588,5.33646
240.749,544.337,5.26102
241.014,546.155,5.64653
241.28,548.152,5.74327
241.547,549.472,5.7131
241.813,550.28,5.62414
242.079,549.643,5.50123
242.345,548.594,5.38186
242.611,548.818,5.26838
242.877,549.582,5.34134
243.143,549.809,5.24894
243.409,549.606,5.02952
243.675,550.229,4.93507
243.941,551.572,4.99587
244.207,552.62,4.84896
244.473,552.94,4.50886
244.739,554.341,4.88797
245.005,555.653,5.15436
245.271,555.845,5.35745
245.537,555.902,5.21477
245.803,556.438,5.10285
246.069,557.246,4.92862
246.335,556.915,4.6234
246.601,556.837,4.27083
246.867,558.001,4.64457
247.133,559.585,5.01221
247.399,561.245,5.15988
247.665,562.674,5.19068
247.931,564.038,5.35307
248.197,564.853,5.21101
248.463,564.922,5.25419
248.729,564.723,5.16205
248.995,564.908,5.17901
249.261,565.705,5.14494
249.527,567.881,5.3057
249.793,569.498,5.61835
250.059,570.468,5.78315
250.325,572.72,6.0382
250.591,574.953,6.43065
250.857,575.018,6.27982
251.123,573.485,6.1586
251.389,574.62,6.29253
251.655,574.102,5.96031
251.921,573.945,5.84333
252.187,575.085,6.12458
252.454,575.974,6.20982
252.719,574.36,5.87323
252.985,574.248,5.56706
253.251,573.886,5.33238
253.517,576.024,5.62152
253.784,576.934,5.61424
254.049,577.341,6.07215
254.316,578.269,6.1114
254.582,579.159,5.99649
254.847,579.252,6.0548
255.114,579.742,6.42799
255.38,580.156,6.3551
255.646,581.675,6.30599
255.912,582.367,6.00801
256.178,583.143,6.16511
256.444,584.252,6.22569
256.71,585.019,6.60322
256.976,585.79,6.64421
257.242,587.697,6.74382
257.508,588.318,7.09984
257.774,587.26,6.80506
258.04,587.383,7.26888
258.306,587.704,7.59321
258.572,588.946,7.68939
258.838,591.225,7.83724
259.104,592.005,7.82282
259.37,591.992,7.60159
259.769,591.924,7.45113
260.035,592.177,7.70136
260.301,594.706,7.90198
260.567,596.397,8.14459
260.833,596.875,8.21359
261.099,597.066,8.1773
261.365,597.61,8.24329
261.631,597.843,8.32463
261.897,597.647,8.4161
262.163,598.468,8.79692
262.429,600.2,9.14071
262.695,601.393,9.19782
262.961,602.179,9.3707
263.227,602.075,9.48594
263.493,601.93,9.8389
263.759,601.956,9.96347
264.025,603.093,9.97117
264.291,603.761,9.97587
264.557,603.913,10.2844
264.823,604.533,10.2129
265.089,605.306,10.2468
265.355,605.478,10.3828
265.621,606.032,10.5503
265.887,606.965,10.7189
266.153,608.964,11.0618
266.419,611.329,11.4039
266.685,613.951,11.518
266.951,615.3,11.5297
267.218,615.972,11.7431
267.484,616.803,11.8977
267.75,617.144,12.2192
268.016,617.992,12.4902
268.281,618.884,12.7333
268.548,621.338,12.5255
268.814,623.567,12.3427
269.08,624.413,12.1919
269.346,624.129,12.1152
269.612,623.562,12.2706
269.878,623.467,12.5307
270.144,625.711,12.6627
270.41,627.94,12.7336
270.676,630.531,12.875
270.942,631.812,13.4803
271.208,633.12,14.1719
271.474,634.955,14.919
271.74,636.097,15.2615
272.006,637.021,15.0095
272.272,638.951,14.7727
272.538,641.685,15.2616
272.804,643.09,15.8218
273.07,645.205,16.0541
273.336,647.304,16.2977
273.602,648.985,16.4628
273.868,650.536,16.0276
274.134,653.659,16.5228
274.4,656.766,17.356
274.666,658.393,17.9591
274.932,657.988,17.9924
275.198,657.152,17.5657
275.464,658.177,17.8601
275.73,659.076,18.3976
275.996,661.351,18.4432
276.262,663.623,18.6418
276.528,666.069,19.2325
276.794,668.662,19.6387
277.06,671.364,20.2821
277.326,673.515,20.4874
277.592,675.112,20.0561
277.858,676.717,20.0952
278.124,676.916,19.7944
278.39,675.504,18.8493
278.656,677.401,18.5676
278.922,677.965,19.1415
279.188,679.72,19.393
279.454,683.053,19.8082
279.72,685.058,20.292
279.986,685.648,20.2542
280.252,686.71,19.6313
280.519,687.876,19.9583
280.785,690.5,20.7943
281.05,693.599,20.629
281.317,700.117,20.0308
281.583,701.967,19.8591
281.849,700.978,19.4115
282.115,701.724,18.7046
282.381,703.449,19.3664
282.647,709.308,19.2607
282.913,713.492,20.1058
283.179,715.26,20.0116
283.445,714.97,19.7711
283.711,717.095,19.471
283.977,720.628,19.4371
284.243,722.294,18.9312
284.509,722.81,20.3262
284.775,725.025,20.2326
285.041,726.557,19.9349
285.307,731.042,19.2094
285.573,728.122,19.8274
285.839,724.395,19.3007
286.105,724.327,18.9895
286.371,724.3468,19.1278
286.637,726.616,19.6544
286.903,735.685,18.8546
287.169,738.111,18.1802
287.435,740.918,19.5252
287.701,743.693,18.8241
287.967,742.034,17.9028
288.233,743.548,17.9379
288.499,748.488,17.143
288.765,749.671,16.8003
289.031,745.487,14.6842
289.297,750.749,15.4649
289.563,753.199,14.5758
289.829,755.075,14.7629
290.095,756.246,14.7857
290.361,759.933,14.5966
290.627,761.593,14.1423
290.893,758.318,12.6342
291.159,755.3,12.9215
291.425,751.106,14.7299
291.691,748.324,14.1143
291.957,754.853,14.4233
292.223,753.909,13.7077
292.489,756.13,13.053
292.755,758.8407,12.6173
293.021,760.242,12.2276
293.287,762.156,11.6378
293.553,760.906,11.4055
293.819,757.083,12.293
294.086,758.637,11.3628
294.352,756.785,9.53358
294.617,759.369,9.77432
294.884,765.707,9.95215
295.15,766.871,9.05054
295.416,766.159,8.94939
295.682,769.55,9.24651
295.948,776.874,10.3373
296.214,776.031,9.42452
296.48,774.296,8.24474
296.746,777.476,8.29319
297.012,779.184,8.88989
297.278,777.828,8.31788
297.544,775.741,7.58352
297.81,775.722,9.21913
298.076,772.256,8.84398
298.342,774.372,7.27535
298.608,779.453,7.92515
298.874,780.07,7.15773
299.14,781.415,8.12474
299.406,783.712,8.71677
299.672,785.365,9.35943
299.938,783.597,9.37113
300.204,782.717,8.85547
300.47,784.526,8.97291
300.736,783.676,8.85899
301.002,781.856,7.91887
301.268,785.681,9.30423
301.534,784.015,9.03783
301.8,781.137,8.14777
302.066,782.669,7.12855
302.332,784.876,8.30897
302.598,787.43,7.70467
302.864,784.943,7.85906
303.13,786.881,7.22114
303.397,792.137,8.93972
303.662,792.451,8.5331
303.928,790.047,8.47151
304.194,787.068,7.34196
304.46,789.795,7.75963
304.726,790.346,7.50255
304.992,792.901,7.96216
305.258,791.098,8.11895
305.524,791.383,7.58847
305.79,793.429,8.08759
306.056,795.242,7.80798
306.322,793.889,7.2594
306.588,791.111,7.72691
306.854,792.038,7.52843
307.121,794.591,7.72828
307.386,794.323,7.88166
307.652,791.069,7.25605
307.919,793.131,7.41841
308.185,791.792,8.11198
308.451,791.111,6.66116
308.717,797.485,7.33826
308.983,796.841,7.0873
309.249,797.761,6.74235
309.515,799.683,7.19355
309.781,801.301,7.0301
310.047,799.44,7.47185
310.313,798.564,7.40503
310.579,799.984,7.11353
310.845,801.363,7.24151
311.111,800.097,7.43829
311.377,797.686,6.72237
311.643,796.279,6.90411
311.909,796.481,7.29291
312.175,795.898,6.90566
312.441,795.23,7.20773
312.707,793.655,6.30385
312.973,795.954,6.21397
313.239,799.08,6.46341
313.505,799.846,6.75679
313.771,799.007,6.33672
314.17,799.443,6.49671
314.436,802.268,6.62506
314.702,803.143,6.6472
314.968,801.637,6.27537
315.234,800.95,6.08498
315.5,802.115,5.55171
315.766,804.219,5.72908
316.032,806.176,6.09406
316.298,806.02,5.80744
316.564,803.598,5.75384
316.83,801.87,5.61146
317.096,801.901,5.83454
317.362,802.426,6.41127
317.628,804.293,6.27277
317.894,805.215,6.21478
318.16,804.728,6.66911
318.426,806.87,7.11637
318.692,807.078,6.6535
318.958,807.437,6.61659
319.224,807.847,6.63476
319.49,808.823,6.85095
319.756,810.034,6.50617
320.023,810.3,6.719
320.288,810.297,6.90309
320.554,811.44,7.38823
320.82,810.917,7.23328
321.087,810.723,7.07074
321.353,810.933,6.80584
321.618,812.391,6.79966
321.885,812.708,6.6464
322.151,814.372,7.6403
322.417,815.44,7.48225
322.683,816.676,7.4458
322.949,815.458,7.36976
323.215,814.861,7.48374
323.481,816.615,7.87287
323.747,818.355,8.00739
324.013,818.032,7.87226
324.279,817.835,7.76633
324.545,818.288,8.04428
324.811,816.723,7.62667
325.077,816.912,8.45014
325.343,816.872,8.09323
325.609,815.854,7.72248
325.875,815.616,7.64984
326.141,816.748,7.88381
326.407,818.652,7.99034
326.673,818.76,7.87157
326.939,818.144,8.18462
327.205,819.235,8.29871
327.471,819.326,8.25404
327.737,818.897,8.37145
328.003,818.351,8.17784
328.269,818.182,8.10394
328.535,818.844,8.55148
328.801,820.839,9.01566
329.067,819.397,8.83205
329.333,818.36,8.74512
329.599,818.183,8.71218
329.865,818.814,8.75861
330.131,819.54,9.04707
330.397,819.336,9.12495
330.663,819.23,9.12578
330.929,820.06,9.19831
331.195,820.523,9.53769
331.461,819.855,9.46594
331.727,819.792,9.48837
331.993,819.977,9.08128
332.259,820.321,8.88025
332.525,819.831,9.46968
332.791,818.854,9.44038
333.057,819.181,9.40189
333.323,818.272,9.55477
333.589,819.178,9.35015
333.855,819.638,9.43837
334.121,819.15,9.74723
334.387,819.432,9.96781
334.654,819.513,9.81582
334.92,820.108,9.69568
335.186,820.148,10.1959
335.452,820.776,10.2624
335.718,821.329,10.1389
335.984,821.545,10.207
336.25,821.808,10.2208
336.516,822.329,10.2469
336.782,821.302,10.4746
337.048,821.68,10.2152
337.314,820.525,10.7569
337.58,820.785,10.6842
337.846,821.108,11.2537
338.112,820.674,11.1247
338.378,820.129,10.6202
338.644,819.553,10.4621
338.91,819.276,11.173
339.176,819.99,11.4826
339.442,819.998,11.8384
339.708,820.25,11.3443
339.974,820.652,11.5291
340.24,821.586,11.457
340.506,819.748,11.5243
340.772,819.479,11.4275
341.038,820.249,11.2763
341.304,820.112,11.5085
341.57,819.455,11.6597
341.836,819.479,11.966
342.102,819.867,12.1717
342.368,818.222,12.3184
342.634,817.851,12.1435
342.9,817.798,12.3622
343.166,818.502,12.5051
343.432,817.841,12.5021
343.698,818.931,12.3874
343.964,819.003,12.0405
344.23,818.183,12.3235
344.496,817.511,12.6278
344.762,817.429,12.7999
345.028,818.132,12.8053
345.294,817.615,12.4751
345.56,817.083,12.4807
345.826,817.679,12.5878
346.092,817.289,12.4614
346.358,817.226,12.7522
346.624,816.812,13.4101
346.89,816.595,13.2774
347.156,817.041,13.1841
347.422,817.595,13.0238
347.689,816.823,12.9698
347.955,817.358,12.9725
348.221,816.317,12.9829
348.487,814.736,13.5902
348.753,814.889,13.3685
349.019,814.699,13.4207
349.284,814.803,13.4766
349.551,814.62,14.1758
349.817,815.211,14.1583
350.083,815.486,14.4508
350.349,813.987,14.3179
350.615,814.193,14.4576
350.881,813.71,14.651
351.147,814.406,15.0374
351.413,815.073,15.1212
351.679,813.753,14.9064
351.945,813.017,14.7952
352.211,812.252,14.6777
352.477,812.673,15.8026
352.743,813.278,15.646
353.009,812.838,15.6814
353.275,812.101,15.6118
353.541,811.235,15.6638
353.807,811.445,15.555
354.073,811.857,15.696
354.339,812.177,15.5575
354.605,812.268,15.2927
354.871,811.78,15.3898
355.137,811.311,15.3154
355.403,812.5,15.0837
355.669,811.057,15.271
355.935,810.079,15.2631
356.201,810.398,15.3065
356.467,810.48,15.346
356.733,810.714,15.9549
357,811.191,15.8597
357.265,811.277,16.0939
357.531,809.994,15.9067
357.797,809.471,16.0001
358.063,809.01,16.4093
358.329,808.662,16.6631
358.595,808.288,16.7062