File: Non-charring/PMMA/UMD/UMD_MCC.csv
Time (s),Temperature (K),HRR (W/g),HRR error (W/g)
0,349.619,2.22045E-16,4.44089E-16
0.5,349.737,-0.0437793,0.0863076
1,349.876,-0.0290575,0.157112
1.5,350.002,-0.0280804,0.217309
2,350.138,-0.0286044,0.23816
2.5,350.304,-0.008383738,0.253002
3.001,350.409,-0.0386597,0.208745
3.501,350.584,-0.006935816,0.171443
4,350.737,0.0617858,0.102023
4.5,350.913,0.09251,0.142607
5.001,351.072,0.118238,0.213769
5.501,351.233,0.146459,0.177387
6,351.419,0.157928,0.156786
6.501,351.575,0.17366,0.249296
7.001,351.773,0.237133,0.141755
7.5,351.944,0.213105,0.200522
8.001,352.13,0.245331,0.160805
8.501,352.323,0.292552,0.199342
9.001,352.488,0.292777,0.199006
9.502,352.711,0.347759,0.176758
10.001,352.906,0.30498,0.215998
10.501,353.116,0.350701,0.279252
11.001,353.293,0.317172,0.267319
11.5,353.515,0.263394,0.262439
12.001,353.724,0.306623,0.275144
12.502,353.943,0.269347,0.279312
13.001,354.195,0.325815,0.292968
13.501,354.379,0.291042,0.279281
14.001,354.627,0.346021,0.327499
14.501,354.831,0.361995,0.290452
15.002,355.077,0.394971,0.301924
15.501,355.303,0.38069,0.269212
16,355.537,0.426656,0.259623
16.501,355.811,0.433882,0.237174
17.001,356.021,0.408612,0.275228
17.5,356.306,0.456083,0.278947
18,356.53,0.38206,0.264059
18.501,356.818,0.452287,0.27408
19.001,357.06,0.486761,0.3249915
19.501,357.292,0.471482,0.260855
20.002,357.577,0.519707,0.284336
20.501,357.828,0.549429,0.371179
21,358.125,0.570901,0.308232
21.501,358.368,0.603874,0.31519
22.001,358.647,0.5886,0.283263
22.501,358.931,0.619327,0.305644
23.001,359.218,0.659046,0.292303
23.5,359.505,0.687265,0.319352
24,359.777,0.674992,0.275715
24.501,360.083,0.700468,0.235209
25.001,360.361,0.730438,0.288393
25.5,360.658,0.717662,0.222318
26,360.954,0.671639,0.217632
26.5,361.252,0.686113,0.176518
27.001,361.586,0.727586,0.167937
27.502,361.86,0.731815,0.143754
28.001,362.203,0.726037,0.164635
28.501,362.48,0.747009,0.165347
29.001,362.826,0.759733,0.199872
29.5,363.134,0.745204,0.191171
30,363.433,0.800178,0.167319
30.5,363.78,0.831404,0.221286
31,364.075,0.822378,0.237412
31.5,364.446,0.858847,0.300871
32.001,364.738,0.896573,0.334457
32.501,365.088,0.930052,0.392383
33,365.423,0.932773,0.362605
33.5,365.753,0.930244,0.377564
34.001,366.115,0.941721,0.278254
34.501,366.424,0.965445,0.251909
35.001,366.83,0.961916,0.226364
35.502,367.135,0.896648,0.19433
36.001,367.509,0.899119,0.212691
36.501,367.867,0.865838,0.194715
37.001,368.229,0.839065,0.225137
37.5,368.588,0.823042,0.214647
38,368.926,0.819016,0.214902
38.501,369.329,0.881492,0.208248
39.002,369.665,0.857465,0.203273
39.502,370.029,0.879686,0.267644
40.001,370.422,0.918905,0.324396
40.5,370.795,0.93313,0.333835
41,371.174,0.965609,0.417526
41.5,371.535,0.98333,0.434308
42,371.959,0.965801,0.424392
42.5,372.308,0.957777,0.424663
43,372.718,0.927004,0.43169
43.5,373.108,0.970475,0.40947
44.001,373.499,0.977696,0.417997
44.502,373.899,0.924425,0.371551
45.001,374.27,0.954399,0.387734
45.5,374.716,0.897871,0.452744
46.002,375.098,0.883852,0.47137
46.502,375.52,0.884329,0.504191
47.001,375.909,0.918048,0.479594
47.501,376.325,0.921772,0.558321
48,376.746,0.956241,0.590675
48.5,377.124,0.977712,0.57956
49.001,377.591,0.951441,0.593299
49.501,377.982,0.992415,0.576295
50.001,378.429,0.970889,0.565272
50.501,378.832,1.04836,0.55351
51,379.269,1.03208,0.547091
51.501,379.711,0.969314,0.54541
52.001,380.115,1.02678,0.486557
52.5,380.587,1.00575,0.532913
53,380.978,1.05198,0.487124
53.5,381.455,1.06995,0.582655
54,381.884,1.12392,0.561982
54.5,382.312,1.0634,0.588216
55,382.778,1.07887,0.565709
55.5,383.194,1.10585,0.586383
56.001,383.689,1.12907,0.568172
56.502,384.109,1.1093,0.628428
57.002,384.57,1.09628,0.622591
57.501,385.036,1.10776,0.601259
58.001,385.48,1.11072,0.649537
58.501,385.964,1.16269,0.643534
59.001,386.383,1.17642,0.636716
59.501,386.905,1.22689,0.585967
60,387.326,1.30787,0.617573
60.5,387.816,1.32784,0.544018
61,388.282,1.32006,0.520095
61.501,388.733,1.36378,0.553989
62.001,389.239,1.36751,0.516833
62.5,389.663,1.45173,0.547848
63,390.2,1.4262,0.554242
63.5,390.644,1.52218,0.618234
64,391.16,1.52616,0.651857
64.5,391.616,1.53588,0.592029
65,392.082,1.5661,0.561553
65.5,392.611,1.61332,0.515563
66,393.042,1.60405,0.504678
66.501,393.582,1.61603,0.450004
67.001,394.043,1.64275,0.410115
67.5,394.541,1.66423,0.432434
68.001,395.029,1.72045,0.502235
68.501,395.516,1.81817,0.523646
69,396.045,1.89114,0.499445
69.5,396.489,1.98362,0.528601
70.001,397.055,2.08584,0.573411
70.501,397.513,2.13407,0.58264
71,398.032,2.20104,0.623517
71.501,398.538,2.24102,0.600145
72.001,399.018,2.29374,0.668006
72.501,399.538,2.38171,0.680396
73.001,400.003,2.45793,0.680327
73.501,400.567,2.55666,0.679633
74.002,401.024,2.62889,0.605328
74.502,401.566,2.68761,0.629589
75.002,402.073,2.75383,0.631858
75.502,402.569,2.80456,0.624828
76,403.119,2.85302,0.63219
76.5,403.592,2.92175,0.59713
77,404.161,2.95797,0.639476
77.5,404.624,3.05145,0.664965
78.001,405.17,3.10893,0.658997
78.501,405.696,3.19015,0.721937
79.001,406.207,3.27988,0.77137
79.502,406.735,3.36285,0.750948
80.002,407.211,3.38907,0.768444
80.502,407.803,3.42755,0.792654
81.001,408.286,3.50077,0.806726
81.501,408.84,3.52549,0.797162
82.001,409.349,3.60346,0.812423
82.5,409.868,3.65143,0.802677
83,410.434,3.73541,0.744349
83.5,410.919,3.75964,0.763211
84,411.517,3.79611,0.793478
84.5,412.005,3.90283,0.839578
85.001,412.557,3.95331,0.807667
85.501,413.073,4.01128,0.84846
86,413.597,4.07126,0.869172
86.501,414.165,4.14823,0.883152
87.001,414.656,4.20621,0.925622
87.5,415.255,4.28793,0.965466
88.001,415.75,4.3979,0.951095
88.501,416.335,4.48688,0.928287
89,416.839,4.56035,0.955321
89.5,417.368,4.64207,0.96704
90,417.936,4.70329,0.952111
90.501,418.436,4.78777,0.97563
91.001,419.042,4.8235,0.930522
91.5,419.531,4.90572,0.933313
92,420.097,4.95445,0.912066
92.501,420.625,5.09168,0.96788
93.002,421.154,5.1319,1.02907
93.502,421.753,5.29637,1.02333
94.001,422.235,5.38735,0.994601
94.501,422.835,5.516564,1.06671
95.001,423.32,5.69404,1.11074
95.501,423.89,5.80876,1.13486
96.001,424.427,5.97598,1.17996
96.501,424.963,6.07946,1.20486
97.001,425.516,6.30218,1.19716
97.501,426.04,6.45441,1.27629
98.001,426.65,6.57688,1.34319
98.501,427.142,6.71261,1.32321
99.001,427.713,6.84408,1.32227
99.501,428.27,6.99355,1.25827
100.001,428.799,7.04228,1.27546
100.501,429.359,7.1905,1.34578
101.001,429.861,7.32023,1.25333
101.501,430.486,7.44845,1.24484
102.001,430.985,7.52317,1.23343
102.501,431.564,7.64565,1.29636
103.001,432.084,7.74162,1.27176
103.501,432.614,7.8001,1.30195
104.001,433.189,7.95832,1.29451
104.501,433.695,8.08479,1.28401
105.001,434.306,8.27577,1.29161
105.501,434.801,8.45124,1.2645
106.001,435.378,8.59097,1.22924
106.501,435.911,8.79469,1.23234
107.001,436.445,8.99116,1.28421
107.501,437.026,9.10639,1.23594
108.001,437.501,9.23586,1.22668
108.501,438.129,9.34208,1.23719
109.001,438.621,9.52181,1.19934
109.501,439.203,9.66553,1.17147
110.001,439.731,9.80076,1.1631
110.501,440.25,9.86573,1.13188
111.001,440.833,10.0435,1.14664
111.501,441.311,10.1457,1.15669
112.001,441.927,10.2714,1.07638
112.501,442.432,10.3911,1.01285
113.001,443.015,10.5039,0.947976
113.501,443.53,10.5826,0.896467
114.001,444.058,10.6408,0.859874
114.501,444.639,10.7395,0.773252
115.001,445.14,10.8702,0.757499
115.501,445.754,10.9327,0.640871
116.001,446.236,11.0214,0.621184
116.501,446.799,11.1322,0.591617
117.001,447.334,11.1706,0.530389
117.501,447.879,11.2536,0.485208
118.001,448.428,11.3256,0.427458
118.501,448.919,11.3958,0.415753
119.001,449.546,11.4175,0.351251
119.501,450.034,11.505,0.37816
120.001,450.594,11.4835,0.301505
120.501,451.123,11.4985,0.308821
121.001,451.649,11.5192,0.301173
121.501,452.224,11.5489,0.244659
122.001,452.7,11.5301,0.217944
122.5,453.311,11.5161,0.269789
123,453.804,11.5361,0.282951
123.5,454.369,11.5495,0.351603
124.001,454.899,11.5005,0.439075
124.501,455.429,11.4277,0.476386
125,455.964,11.4225,0.611441
125.501,456.468,11.4567,0.652978
126.001,457.07,11.3327,0.714548
126.501,457.554,11.2661,0.779167
127.001,458.126,11.1964,0.759863
127.5,458.648,11.1141,0.795238
128,459.178,11.0338,0.785644
128.5,459.735,10.9768,0.849369
129,460.24,10.9185,0.852778
129.501,460.822,10.86,0.929325
130.001,461.305,10.7417,0.981291
130.5,461.889,10.6399,0.994998
131.001,462.407,10.4802,1.004
131.501,462.933,10.4079,1.06584
132,463.499,10.2589,1.13145
132.5,463.974,10.1291,1.11905
133.001,464.58,9.9268,1.15994
133.501,465.056,9.78253,1.20788
134.001,465.614,9.6255,1.28486
134.501,466.149,9.43998,1.34197
135.001,466.671,9.26645,1.48944
135.501,467.229,9.10517,1.54329
136,467.713,8.9244,1.54876
136.501,468.308,8.70787,1.56933
137.001,468.792,8.49235,1.51322
137.5,469.344,8.28657,1.52359
138,469.882,8.10029,1.55865
138.5,470.398,7.89902,1.54002
139,470.949,7.75424,1.58069
139.5,471.439,7.52022,1.6121
140,472.029,7.31719,1.67214
140.5,472.52,7.11416,1.65041
141,473.079,6.95389,1.63139
141.501,473.597,6.73337,1.6395
142.001,474.105,6.55909,1.56468
142.5,474.64,6.30281,1.53961
143.001,475.124,6.07404,1.51817
143.501,475.695,5.85851,1.44601
144.001,476.168,5.63523,1.48171
144.501,476.713,5.4787,1.41294
145,477.235,5.29793,1.41583
145.501,477.734,5.1299,1.42117
146.001,478.293,5.02263,1.43891
146.5,478.763,4.95385,1.34212
147,479.328,4.80283,1.33826
147.5,479.805,4.6998,1.27958
148,480.349,4.57652,1.26358
148.5,480.863,4.48999,1.23308
149,481.356,4.33372,1.21637
149.501,481.888,4.19719,1.18618
150.001,482.356,4.11892,1.20264
150.501,482.928,3.98889,1.18742
151,483.407,3.96386,1.12016
151.5,483.946,3.88309,1.06516
152.001,484.455,3.76557,0.987145
152.501,484.951,3.66229,0.906043
153,485.501,3.56026,0.8225
153.501,485.955,3.44699,0.73493
154.001,486.533,3.31621,0.720265
154.5,486.99,3.15143,0.690705
155,487.54,3.09266,0.647953
155.501,488.047,3.02013,0.632428
156.001,488.54,3.00335,0.650396
156.5,489.053,2.97683,0.65716
157.001,489.523,2.9663,0.633711
157.501,490.103,2.91228,0.633324
158.001,490.572,2.91,0.590803
158.501,491.104,2.92522,0.524867
159,491.606,2.8657,0.533863
159.5,492.108,2.88217,0.492474
160,492.65,2.84639,0.500333
160.501,493.085,2.85212,0.47719
161.001,493.656,2.87759,0.457469
161.501,494.107,2.85482,0.422591
162.001,494.667,2.87304,0.446183
162.501,495.166,2.88202,0.42426
163,495.654,2.85274,0.435733
163.501,496.186,2.85471,0.424006
164.001,496.642,2.88269,0.471283
164.5,497.227,2.92566,0.446751
165,497.663,2.93438,0.415016
165.501,498.189,3.02111,0.359917
166.001,498.693,3.03258,0.371813
166.501,499.185,3.02256,0.355843
167.001,499.723,3.00828,0.448709
167.501,500.169,3.0095,0.413176
168,500.729,3.09773,0.408343
168.5,501.192,3.11995,0.454033
169,501.711,3.10518,0.438395
169.5,502.202,3.13015,0.46831
170,502.695,3.16262,0.441306
170.501,503.23,3.1341,0.41327
171.001,503.695,3.20282,0.366145
171.5,504.26,3.18554,0.375691
172,504.712,3.23927,0.316474
172.5,505.233,3.26949,0.29667
173,505.732,3.29472,0.233894
173.5,506.212,3.30794,0.277982
174.001,506.755,3.33266,0.311967
174.501,507.196,3.34214,0.251548
175,507.76,3.39336,0.257738
175.5,508.217,3.40533,0.314643
176,508.754,3.41831,0.380836
176.5,509.242,3.49378,0.371572
177,509.727,3.51551,0.396361
177.5,510.24,3.51798,0.436586
178,510.709,3.57545,0.469813
178.5,511.28,3.50843,0.494682
179,511.724,3.54815,0.467197
179.5,512.244,3.53538,0.429394
180.001,512.742,3.57661,0.462169
180.501,513.221,3.58433,0.413965
181.001,513.753,3.63255,0.387875
181.501,514.203,3.64302,0.468552
182.001,514.769,3.65275,0.42251
182.5,515.225,3.70722,0.461309
183,515.756,3.76144,0.412985
183.5,516.24,3.77167,0.439304
184,516.72,3.77864,0.363974
184.5,517.241,3.79636,0.431101
185.001,517.71,3.83609,0.384047
185.501,518.257,3.88606,0.364607
186,518.687,3.93653,0.419755
186.5,519.217,4.01226,0.406508
187,519.7,4.05598,0.444754
187.5,520.201,4.12446,0.427225
188,520.729,4.17443,0.443701
188.5,521.159,4.24166,0.444367
189,521.71,4.26288,0.467255
189.5,522.174,4.3066,0.45432
190.001,522.71,4.35083,0.447565
190.501,523.191,4.4118,0.474153
191,523.683,4.44828,0.532926
191.5,524.199,4.4675,0.523222
192.001,524.649,4.48347,0.548328
192.501,525.185,4.56445,0.544591
193.001,525.653,4.61592,0.644845
193.501,526.183,4.7064,0.596258
194.001,526.656,4.74112,0.629615
194.501,527.161,4.79309,0.639854
195,527.666,4.82207,0.63806
195.5,528.134,4.89804,0.65617
196,528.698,4.97701,0.686492
196.5,529.128,5.04999,0.76891
197.001,529.657,5.07221,0.806947
197.501,530.146,5.12894,0.821141
198.001,530.627,5.18191,0.86219
198.501,531.143,5.23138,0.898727
199,531.593,5.35286,0.866069
199.501,532.14,5.39533,0.880849
200.001,532.615,5.52256,0.898747
200.5,533.109,5.59653,0.913451
201,533.582,5.74375,0.953847
201.5,534.087,5.83323,0.926841
202,534.607,5.87545,0.984177
202.501,535.052,5.93693,1.01827
203.002,535.6,6.02815,1.04059
203.501,536.055,6.03338,1.02687
204.001,536.583,6.11285,1.08684
204.501,537.055,6.25532,1.05175
205.001,537.547,6.31104,1.03775
205.501,538.07,6.46327,1.09215
206.001,538.513,6.58749,1.11016
206.501,539.071,6.80697,1.1746
207.001,539.522,6.94869,1.21665
207.501,540.052,7.08491,1.24594
208.001,540.537,7.21814,1.24713
208.501,541.023,7.34586,1.28553
209.001,541.529,7.44234,1.26456
209.501,542.001,7.61481,1.28882
210.001,542.538,7.76754,1.3255
210.501,543,7.97976,1.33452
211.001,543.512,8.11523,1.35066
211.501,544.011,8.27846,1.38052
212.001,544.493,8.46443,1.43669
212.501,545.012,8.60466,1.46807
213.001,545.467,8.77263,1.52759
213.501,546.011,9.00435,1.57496
214.001,546.47,9.14808,1.58859
214.501,546.985,9.3618,1.56437
215.001,547.462,9.55927,1.57698
215.501,547.952,9.80125,1.56779
216.001,548.477,9.96672,1.61571
216.501,548.944,10.1699,1.64215
217.001,549.475,10.3889,1.6865
217.501,549.941,10.5324,1.72195
218.001,550.447,10.7226,1.78924
218.501,550.949,10.9751,1.81236
219.001,551.439,11.2068,1.85827
219.501,551.948,11.4528,1.8779
220.001,552.406,11.6943,1.9082
220.501,552.966,11.9795,1.97244
221.001,553.424,12.1987,1.99033
221.501,553.948,12.4384,2.09327
222.001,554.444,12.7487,2.16247
222.501,554.925,13.0189,2.21165
223.001,555.436,13.3296,2.31068
223.501,555.91,13.6263,2.38656
224.001,556.465,13.9291,2.43163
224.501,556.914,14.2353,2.39155
225.001,557.442,14.5438,2.52204
225.501,557.928,14.9,2.5325
226.001,558.402,15.1964,2.68407
226.501,558.925,15.5522,2.78803
227.001,559.393,15.8491,2.91089
227.501,559.934,16.2471,2.98653
228.001,560.416,16.6221,3.07518
228.501,560.937,16.9871,3.2111
229.001,561.413,17.3493,3.25948
229.501,561.895,17.7425,3.3529
230.001,562.428,18.132,3.46331
230.501,562.879,18.5857,3.55823
231.001,563.46,19.0004,3.71193
231.501,563.91,19.4227,3.78768
232.001,564.44,19.8546,3.91188
232.501,564.936,20.3394,4.00787
233.001,565.422,20.7783,4.13217
233.501,565.955,21.3186,4.249
234.001,566.412,21.7823,4.3502
234.501,566.967,22.2598,4.45186
235.001,567.415,22.7845,4.59159
235.501,567.947,23.2872,4.77093
236.001,568.444,23.7852,4.93956
236.501,568.93,24.3849,5.12019
237.001,569.453,24.9449,5.2473
237.501,569.898,25.5343,5.44325
238.001,570.494,26.1276,5.6219
238.501,570.933,26.7988,5.77928
239.001,571.466,27.4798,6.00926
239.501,571.956,28.1367,6.14907
240.001,572.451,28.7692,6.3421
240.501,572.985,29.4474,6.53281
241.001,573.458,30.1409,6.66505
241.501,573.983,30.8911,6.81754
242.001,574.443,31.6201,7.00856
242.501,574.967,32.3608,7.21746
243.001,575.481,33.1748,7.46845
243.501,575.958,33.9845,7.68686
244.001,576.488,34.8718,7.92491
244.501,576.939,35.6842,8.20669
245.001,577.51,36.5677,8.44486
245.501,577.977,37.4637,8.63846
246.001,578.508,38.3124,8.85901
246.501,578.989,39.2309,9.10635
247.001,579.478,40.1339,9.34562
247.501,580.019,41.1178,9.63083
248.001,580.483,42.1418,9.89285
248.501,581.042,43.1833,10.2407
249.001,581.498,44.3087,10.5075
249.501,582.021,45.4275,10.7601
250.001,582.531,46.5544,11.0999
250.501,583.018,47.6999,11.4231
251.001,583.534,48.8864,11.713
251.501,584.008,50.1246,11.993
252.001,584.571,51.4826,12.2464
252.501,585.025,52.7763,12.5063
253.001,585.542,54.0978,12.8542
253.501,586.034,55.499,13.2214
254.001,586.537,56.889,13.4971
254.501,587.065,58.4007,13.8002
255.001,587.516,59.8342,14.1059
255.501,588.086,61.3897,14.4015
256.001,588.542,62.9176,14.7457
256.501,589.076,64.4209,15.0121
257.001,589.556,66.0968,15.2938
257.501,590.059,67.6908,15.5619
258.001,590.602,69.4028,15.8404
258.501,591.057,71.0133,16.0888
259.001,591.612,72.8017,16.4678
259.501,592.049,74.6549,16.7011
260.001,592.609,76.4942,16.9871
260.501,593.092,78.4479,17.2339
261.001,593.58,80.4256,17.4942
261.501,594.109,82.4766,17.7248
262.001,594.572,84.4661,17.9422
262.501,595.125,86.5483,18.2324
263.001,595.585,88.6453,18.5346
263.501,596.114,90.719,18.7965
264.001,596.6,92.9167,19.0827
264.501,597.078,95.0759,19.3599
265.001,597.598,97.2902,19.6056
265.501,598.071,99.5411,19.8387
266.001,598.645,101.945,20.1059
266.501,599.087,104.299,20.2632
267.001,599.586,106.703,20.456
267.501,600.09,109.199,20.5646
268.001,600.597,111.617,20.7453
268.501,601.114,114.14,20.9143
269.001,601.56,116.578,21.023
269.501,602.128,119.243,21.2286
270.001,602.58,121.825,21.3736
270.501,603.113,124.411,21.5262
271.001,603.595,127.111,21.6229
271.501,604.094,129.782,21.6958
272.001,604.603,132.624,21.8716
272.501,605.066,135.303,21.9464
273.001,605.624,138.16,22.2563
273.501,606.089,141.04,22.2007
274.001,606.612,143.862,22.3829
274.501,607.107,146.858,22.4947
275.001,607.576,149.698,22.5793
275.501,608.118,152.683,22.7592
276.001,608.568,155.617,22.7965
276.501,609.13,158.68,23.0072
277.001,609.592,161.661,22.9649
277.501,610.106,164.611,23.1498
278.001,610.6,167.712,23.1876
278.501,611.096,170.692,23.2292
279.001,611.612,173.857,23.3119
279.501,612.063,176.927,23.2242
280.001,612.628,180.092,23.4136
280.501,613.082,183.26,23.3198
281.001,613.613,186.346,23.4349
281.501,614.107,189.574,23.3364
282.001,614.583,192.655,23.3787
282.501,615.108,195.919,23.442
283.001,615.559,199.023,23.3391
283.501,616.135,202.183,23.4702
284.001,616.568,205.309,23.3947
284.501,617.088,208.377,23.3911
285.001,617.569,211.445,23.2548
285.501,618.071,214.379,23.1792
286.001,618.596,217.424,23.0462
286.501,619.043,220.342,22.8117
287.001,619.607,223.444,22.8255
287.501,620.067,226.401,22.5223
288.001,620.577,229.341,22.3988
288.501,621.059,232.323,22.1524
289.001,621.539,235.155,21.9011
289.501,622.069,238.02,21.7017
290.001,622.529,240.753,21.3436
290.501,623.094,243.521,21.1047
291.001,623.539,246.304,20.5407
291.501,624.066,248.953,20.2286
292.001,624.544,251.635,19.7544
292.501,625.032,254.178,19.3011
293.001,625.553,256.772,18.9154
293.501,626.008,259.221,18.2651
294.001,626.573,261.506,17.8715
294.501,627.012,263.822,17.0649
295.001,627.537,265.923,16.5333
295.501,628.025,268.091,15.8555
296.001,628.519,270.173,15.3136
296.501,629.035,272.247,14.8412
297.001,629.506,274.267,14.2274
297.501,630.036,276.093,13.8347
298.001,630.505,277.881,13.0735
298.501,631.032,279.527,12.6432
299.001,631.515,281.053,11.9377
299.501,632.002,282.514,11.3555
300.001,632.517,283.951,10.768
300.501,632.965,285.229,10.0095
301.001,633.515,286.387,9.38488
301.501,633.969,287.375,8.43284
302.001,634.479,288.295,7.82562
302.501,634.964,289.123,7.14313
303.001,635.436,289.937,6.69695
303.501,635.959,290.827,6.29937
304.001,636.411,291.517,6.04796
304.501,636.984,292.093,6.00457
305.001,637.431,292.577,5.98243
305.501,637.946,292.928,5.91137
306.001,638.416,293.307,5.80964
306.501,638.902,293.793,5.51015
307.001,639.436,294.406,5.21391
307.501,639.888,295.041,5.21539
308.001,640.42,295.46,5.38296
308.501,640.883,295.686,6.01958
309.001,641.402,295.732,6.50629
309.501,641.875,295.567,6.91383
310.001,642.358,295.432,7.10953
310.501,642.886,295.459,6.98471
311.001,643.337,295.542,6.66723
311.501,643.879,295.5,6.42773
312.001,644.337,295.183,6.55164
312.501,644.842,294.58,6.94263
313.001,645.342,293.849,7.48025
313.501,645.814,293.161,8.02977
314.001,646.34,292.581,8.39169
314.501,646.79,292.255,8.77328
315.001,647.343,292.223,9.00132
315.501,647.801,292.421,9.19658
316.001,648.314,292.607,9.20496
316.501,648.811,292.671,8.91755
317.001,649.281,292.767,8.58556
317.501,649.811,292.888,8.01203
318.001,650.251,293.069,7.49025
318.501,650.784,293.252,7.09167
319.001,651.252,293.54,6.93329
319.501,651.766,293.614,7.22185
320.001,652.252,293.58,7.69479
320.501,652.733,293.384,8.1354
321.001,653.243,293.135,8.52262
321.501,653.703,292.827,8.87238
322.001,654.276,292.469,9.05312
322.501,654.697,291.876,8.96832
323.001,655.219,290.864,8.81584
323.501,655.709,289.711,8.80643
324.001,656.186,288.724,9.18074
324.501,656.708,288.066,9.96931
325.001,657.164,287.564,10.6099
325.501,657.709,287.08,10.9051
326.001,658.169,286.34,10.8046
326.501,658.693,285.626,10.2209
327.001,659.175,285.246,9.37648
327.501,659.663,285.08,8.62318
328.001,660.177,284.921,8.01844
328.501,660.622,284.862,7.67585
329.001,661.175,284.655,7.55108
329.501,661.636,284.56,8.02191
330.001,662.143,284.201,8.68028
330.501,662.646,283.663,9.64098
331.001,663.147,282.687,10.3635
331.502,663.649,281.253,10.9263
332.001,664.096,279.466,11.5504
332.501,664.664,277.287,12.267
333.001,665.113,275.045,13.1773
333.501,665.643,272.805,14.3287
334.001,666.127,270.525,15.6372
334.501,666.615,268.18,17.0505
335.001,667.136,265.48,18.3622
335.501,667.597,262.592,19.6271
336.001,668.143,259.343,20.6934
336.501,668.586,256.023,21.4482
337.001,669.139,252.69,22.1489
337.501,669.613,249.096,22.7508
338.001,670.1,245.58,23.2076
338.501,670.621,241.816,23.5536
339.001,671.078,238.237,23.7677
339.501,671.65,234.582,24.1772
340.001,672.115,231.104,24.3788
340.501,672.627,227.628,24.8332
341.001,673.128,223.962,25.0167
341.501,673.613,220.307,25.2491
342.001,674.159,216.397,25.5074
342.501,674.615,212.513,25.6225
343.001,675.165,208.462,26.046
343.501,675.643,204.35,26.2237
344.001,676.185,200.26,26.8154
344.501,676.682,195.979,27.291
345.001,677.163,191.776,27.9505
345.501,677.703,187.314,28.666
346.001,678.179,183.05,29.1107
346.501,678.732,178.472,29.8087
347.001,679.202,174.089,30.0276
347.501,679.739,169.886,30.3915
348.001,680.247,165.579,30.3905
348.501,680.747,161.495,30.4366
349.001,681.279,157.251,30.3537
349.501,681.753,153.171,29.9189
350.001,682.329,148.885,29.8989
350.501,682.793,144.607,29.3413
351.001,683.357,140.384,29.2203
351.501,683.854,135.941,28.9477
352.001,684.365,131.677,28.866
352.501,684.891,127.209,28.9592
353.001,685.367,122.989,28.7895
353.501,685.926,118.624,29.039
354.001,686.409,114.401,28.9986
354.501,686.952,110.33,29.2212
355.001,687.47,106.222,29.2573
355.501,687.978,102.423,29.386
356.001,688.506,98.4892,29.4847
356.501,688.973,94.7894,29.3321
357.001,689.552,90.9941,29.4677
357.501,690.024,87.3391,29.0507
358.001,690.559,83.8758,29.0134
358.501,691.079,80.3413,28.572
359.001,691.593,76.9998,28.1504
359.501,692.137,73.6302,27.7103
360.001,692.601,70.3959,26.9201
360.501,693.179,67.2042,26.4227
361.001,693.662,64.0291,25.4677
361.501,694.226,61.0204,24.8558
362.001,694.733,58.0721,24.0244
362.501,695.233,55.2416,23.2139
363.001,695.782,52.4728,22.4862
363.501,696.255,49.8638,21.6042
364.001,696.865,47.248,20.9654
364.501,697.33,44.765,19.9372
365.001,697.855,42.4634,19.3323
365.501,698.369,40.1872,18.5029
366.001,698.88,38.0296,17.7723
366.501,699.433,35.9844,17.1069
367.001,699.904,34.0336,16.2804
367.501,700.495,32.0426,15.7248
368.001,700.984,30.194,14.884
368.501,701.527,28.5173,14.2705
369.001,702.024,26.892,13.5445
369.501,702.539,25.386,12.8582
370.001,703.072,23.9012,12.2553
370.501,703.558,22.4257,11.5178
371.001,704.133,21.1496,10.9964
371.501,704.608,19.8446,10.3243
372.001,705.152,18.6798,9.83731
372.501,705.657,17.5603,9.23477
373.001,706.156,16.4278,8.76849
373.501,706.71,15.3305,8.29189
374.001,707.172,14.3322,7.78692
374.501,707.774,13.4402,7.4535
375.001,708.235,12.6074,6.91978
375.501,708.759,11.8164,6.54832
376.001,709.276,11.0406,6.14622
376.501,709.785,10.2848,5.76895
377.001,710.319,9.73381,5.42998
377.501,710.785,9.10004,5.02677
378.001,711.367,8.50226,4.69722
378.501,711.829,7.93298,4.28941
379.001,712.361,7.48146,4.01878
379.501,712.885,6.95393,3.71913
380.002,713.372,6.47841,3.39918
380.501,713.908,6.09238,3.18095
381.001,714.371,5.73935,2.86556
381.501,714.936,5.39283,2.72149
382.001,715.398,5.0343,2.40691
382.501,715.931,4.69052,2.28357
383.001,716.428,4.38925,2.16068
383.501,716.926,4.09897,1.98289
384.001,717.481,3.80445,1.86686
384.501,717.937,3.57092,1.6907
385.001,718.497,3.29439,1.62143
385.501,718.96,3.08962,1.49202
386.001,719.482,2.86609,1.34794
386.501,719.977,2.69232,1.18965
387.001,720.482,2.50429,1.15121
387.501,721.005,2.32552,1.11574
388.001,721.478,2.18449,1.06494
388.501,722.027,2.01996,0.934327
389.001,722.489,1.90969,0.887275
389.501,723.014,1.79241,0.843235
390.001,723.504,1.64389,0.82274
390.501,724.008,1.53111,0.767144
391.001,724.525,1.43608,0.729536
391.501,724.987,1.28906,0.680692
392.001,725.552,1.18803,0.644228
392.501,725.999,1.1115,0.525663
393.001,726.528,1.01148,0.521391
393.501,727.026,0.92895,0.534101
394.001,727.51,0.845674,0.466119
394.501,728.045,0.705148,0.506163
395.001,728.483,0.607622,0.439019
395.501,729.045,0.520596,0.387535
396.001,729.494,0.45482,0.363002
396.501,730.025,0.361294,0.274625
397.001,730.521,0.271268,0.242244
397.501,731.001,0.210742,0.196943
398.001,731.52,0.135465,0.155272
398.501,731.975,0.142439,0.148561
399.001,732.525,0.0904133,0.158125
399.501,732.981,0.07963715,0.219345
400.001,733.51,0.046361,0.215139
400.501,733.986,0.0395849,0.16892
401.001,734.457,0.0118088,0.0910392
401.501,734.976,-0.0322173,0.0612209
402.001,735.416,-0.0799934,0.0890467
402.501,735.987,-0.0780195,0.11805
403.001,736.434,-0.08854563,0.145384
403.501,736.952,-0.0560717,0.0854368
404.001,737.445,-0.113598,0.07719308
404.501,737.92,-0.121624,0.101378
405.001,738.434,-0.12515,0.110117
405.501,738.879,-0.172426,0.121464
406.001,739.424,-0.157202,0.144877
406.501,739.866,-0.202478,0.215236
407.001,740.379,-0.197505,0.1955811
407.501,740.86,-0.140779,0.22285
408.001,741.346,-0.132055,0.228075
408.501,741.874,-0.0720829,0.180763
409.001,742.319,-0.086859,0.178706
409.501,742.854,-0.0608851,0.185902
410.001,743.304,-0.0749112,0.212617
410.501,743.832,-0.115437,0.247269
411.001,744.32,-0.0652134,0.214473
411.501,744.784,-0.0927395,0.2566023
412.001,745.306,-0.0982656,0.235842
412.501,745.74,-0.0922917,0.30433
413.001,746.278,-0.0873158,0.296486
413.501,746.747,-0.060844,0.304682
414.001,747.261,-0.06512008,0.329561
414.501,747.729,-0.102646,0.280965
415.001,748.221,-0.0931723,0.265912
415.501,748.743,-0.121198,0.251521
416.001,749.186,-0.113475,0.291162
416.501,749.719,-0.141501,0.291102
417.001,750.17,-0.101527,0.296517
417.501,750.689,-0.111803,0.350207
418.001,751.185,-0.088329,0.321547
418.501,751.653,-0.0983551,0.361937
419.001,752.163,-0.136381,0.315002
419.501,752.608,-0.0789073,0.383387
420.001,753.148,-0.0599334,0.335261
420.501,753.605,-0.0854595,0.394808
421.001,754.125,-0.09498564,0.332602
421.501,754.617,-0.0795118,0.305498
422.001,755.099,-0.102788,0.353081
422.501,755.609,-0.102564,0.367619
423.001,756.053,-0.0518401,0.377316
423.501,756.587,-0.0483662,0.359061
424.001,757.047,-0.0776423,0.417014
424.501,757.547,-0.0764184,0.378465
425.001,758.03,-0.141695,0.394209
425.501,758.505,-0.162971,0.359966
426.001,759.036,-0.176997,0.390848
426.501,759.485,-0.185523,0.382462
427.001,760.031,-0.172049,0.367448
427.501,760.476,-0.147575,0.327518
428.001,761.009,-0.195349,0.341838
428.501,761.497,-0.175125,0.325269
429.001,761.975,-0.108653,0.327716
429.501,762.494,-0.13168,0.315429
430.001,762.943,-0.164956,0.272073
430.501,763.478,-0.143982,0.327686
431.001,763.937,-0.156008,0.2868781
431.501,764.452,-0.149784,0.322039
432.001,764.935,-0.10206,0.343565
432.501,765.426,-0.105836,0.301541
433.001,765.933,-0.0706123,0.303187
433.501,766.384,-0.0351384,0.329571
434.001,766.949,0.0148355,0.309615
434.501,767.374,-0.0199406,0.366392
435.001,767.908,-0.0137168,0.352307
435.501,768.386,0.00075713,0.357823
436.001,768.872,0.0202331,0.423153
436.501,769.396,-0.0145451,0.374853
437.001,769.85,-0.0198212,0.3518917
437.501,770.393,-0.0668473,0.384295
438.001,770.837,-0.0251234,0.327271
438.501,771.348,-0.00014745,0.359516
439.001,771.852,-0.0206736,0.3529953
439.501,772.338,-0.0587018,0.311904
440.001,772.851,-0.0399779,0.30851
440.501,773.303,-0.016754,0.339109
441.001,773.861,-0.009278006,0.310916
441.501,774.316,0.008699064,0.273475
442.001,774.827,0.0201677,0.250153
442.501,775.312,-0.0301084,0.274431
443.001,775.801,0.0338655,0.262203
443.501,776.338,-0.0369107,0.277532
444.001,776.782,0.0795653,0.238917
444.501,777.332,0.0732892,0.228375
445.001,777.779,0.091761,0.212986
445.501,778.311,0.115235,0.19874
446.001,778.806,0.154711,0.2106334
446.501,779.285,0.09618268,0.214813
447.001,779.803,0.124657,0.21749
447.501,780.253,0.0978805,0.173416
448.001,780.809,0.0796043,0.127175
448.501,781.269,0.0713282,0.0823647
449.001,781.801,0.117302,0.130543
449.501,782.274,0.090026,0.0914665
450.001,782.76,0.0542499,0.120136
450.501,783.278,0.0687238,0.245161
451.001,783.737,0.0906977,0.207543
451.501,784.299,0.103422,0.187746
452.001,784.76,0.0553955,0.267766
452.501,785.276,0.0728693,0.262308
453.001,785.772,0.0898432,0.270892
453.501,786.27,0.07856712,0.286127
454.001,786.786,0.070041,0.258282
454.501,787.23,0.0285149,0.238745
455.001,787.763,0.0349888,0.230881
455.501,788.208,0.111463,0.172473
456.001,788.74,0.105687,0.13673
456.501,789.25,0.0936605,0.150202
457.001,789.737,0.102634,0.130828
457.501,790.243,0.0453582,0.0419728
458.001,790.704,0.0845821,0.0574372
458.501,791.275,0.080056,0.0414476
459.001,791.725,0.0827799,0.038449
459.501,792.251,0.0802538,0.0740328
460.001,792.742,0.0502277,0.0583655