File: Non-charring/PMMA/UMD/UMD_CAPA_25kWm2_Temp.csv
Relative Time [s],"Temp_avg, all4 [K]",Error [K]
0,297.549,0.87668
1.197,297.374,0.892975
2.394,297.417,0.879037
3.591,297.473,0.901314
4.788,297.517,0.898853
5.985,297.49,0.908197
7.183,297.408,0.873097
8.38,297.413,0.8790726
9.577,297.528,0.919797
10.774,297.503,0.937587
11.971,297.547,0.937006
13.168,297.552,0.918758
14.365,297.627,0.899473
15.562,297.724,0.920828
16.759,297.842,0.906439
17.957,298.078,0.932748
19.154,298.271,0.951075
20.352,298.449,0.987126
21.549,298.822,0.979498
22.746,299.126,0.968095
23.943,299.409,0.972158
25.14,299.803,0.97983
26.337,300.297,1.02993
27.534,300.736,0.998424
28.731,301.328,1.03394
29.928,301.857,1.05542
31.126,302.506,1.04923
32.323,303.087,1.03281
33.52,303.833,1.04607
34.717,304.521,1.06139
35.914,305.301,1.0805
37.111,305.892,1.11477
38.307,306.635,1.11346
39.504,307.481,1.13036
40.701,308.326,1.13761
41.898,309.132,1.14173
43.096,309.983,1.16727
44.293,310.91,1.16457
45.49,311.806,1.18471
46.687,312.652,1.19345
47.884,313.671,1.2149
49.081,314.62,1.22627
50.278,315.461,1.24036
51.475,316.114,1.18091
52.672,317.195,1.28445
53.87,318.156,1.29495
55.067,319.18,1.30291
56.264,320.33,1.30903
57.461,321.353,1.32559
58.658,322.354,1.32746
59.855,323.442,1.31431
61.052,324.565,1.32531
62.249,325.65,1.35698
63.446,326.72,1.35312
64.643,327.757,1.33335
65.841,328.802,1.35474
67.038,329.877,1.37361
68.235,330.981,1.38132
69.432,332.042,1.37866
70.629,333.157,1.3782
71.826,334.256,1.40742
73.023,335.363,1.41092
74.22,336.312,1.44228
75.417,337.419,1.447866
76.615,338.552,1.4439
77.812,339.6,1.46857
79.009,340.62,1.45683
80.206,341.675,1.45495
81.403,342.779,1.47082
82.6,343.939,1.48794
83.797,344.994,1.49029
84.994,346.052,1.49193
86.191,347.101,1.50464
87.388,348.181,1.50111
88.586,349.333,1.50228
89.783,350.38,1.49348
90.98,351.437,1.50182
92.177,352.439,1.53202
93.374,353.532,1.5377
94.571,354.65,1.53117
95.768,355.608,1.53633
96.965,356.456,1.46051
98.162,357.645,1.51545
99.36,358.684,1.52213
100.557,359.752,1.51237
101.754,360.781,1.54187
102.951,361.788,1.54807
104.148,362.851,1.53269
105.345,363.863,1.52381
106.542,364.843,1.54608
107.738,365.864,1.56256
108.935,366.869,1.55165
110.132,367.852,1.53545
111.33,368.795,1.5481
112.527,369.761,1.55952
113.724,370.737,1.55458
114.921,371.707,1.53712
116.118,372.632,1.54779
117.316,373.564,1.5446
118.512,374.451,1.53621
119.711,375.36,1.52307
120.908,376.221,1.49341
122.106,377.097,1.48534
123.303,377.965,1.47955
124.5,378.783,1.44289
125.697,379.536,1.41317
126.894,380.184,1.43251
128.09,380.981,1.40221
129.287,381.697,1.37538
130.484,382.415,1.33539
131.681,383.137,1.30108
132.878,383.832,1.26115
134.076,384.506,1.21432
135.273,385.23,1.17625
136.47,385.859,1.14457
137.667,386.61,1.12872
138.864,387.371,1.12817
140.061,388.135,1.13557
141.258,388.845,1.12544
142.455,389.63,1.13369
143.653,390.33,1.12943
144.849,390.944,1.0985
146.047,391.782,1.15928
147.244,392.534,1.17988
148.441,393.315,1.18983
149.638,394.091,1.20808
150.835,394.842,1.21805
152.032,395.615,1.23739
153.229,396.333,1.23387
154.426,397.146,1.25775
155.623,397.939,1.26277
156.821,398.722,1.29411
158.018,399.518,1.3007
159.215,400.221,1.28797
160.412,400.912,1.28451
161.609,401.63,1.25744
162.807,402.31,1.24827
164.004,402.965,1.23906
165.201,403.624,1.24422
166.398,404.328,1.23618
167.595,404.948,1.2316
168.793,405.582,1.23416
169.99,406.309,1.23127
171.187,406.852,1.21971
172.384,407.507,1.2085
173.581,408.174,1.19472
174.778,408.831,1.19356
175.975,409.503,1.19125
177.171,410.172,1.18536
178.369,410.831,1.18224
179.565,411.541,1.19054
180.763,412.228,1.18843
181.96,412.913,1.18945
183.157,413.401,1.2502
184.355,414.145,1.21975
185.552,414.842,1.21483
186.749,415.451,1.21744
187.946,416.075,1.20167
189.143,416.725,1.20759
190.341,417.354,1.20549
191.538,418.031,1.21175
192.735,418.657,1.20574
193.932,419.209,1.20324
195.129,419.806,1.20788
196.326,420.407,1.20936
197.523,421.082,1.21405
198.72,421.714,1.21696
199.917,422.353,1.21773
201.114,422.894,1.21802
202.311,423.483,1.22245
203.509,424.032,1.21237
204.706,424.638,1.20579
205.903,425.22,1.21014
207.1,425.784,1.22388
208.296,426.343,1.20168
209.493,426.92,1.19639
210.69,427.45,1.19007
211.887,428.025,1.20261
213.084,428.603,1.19398
214.281,429.09,1.18873
215.479,429.681,1.18174
216.676,430.267,1.18087
217.873,430.76,1.19392
219.07,431.336,1.1949
220.267,431.865,1.18819
221.464,432.434,1.19456
222.661,432.971,1.20076
223.858,433.523,1.19455
225.055,433.983,1.20356
226.253,434.554,1.2136
227.45,435.071,1.22793
228.647,435.571,1.23271
229.844,436.084,1.23572
231.041,436.587,1.22947
232.238,437.034,1.22952
233.435,437.476,1.22545
234.632,437.969,1.22774
235.829,438.484,1.22963
237.026,438.911,1.23228
238.224,439.386,1.22681
239.421,439.757,1.2555
240.75,440.297,1.23393
241.949,440.743,1.21004
243.146,441.12,1.19183
244.342,441.451,1.17855
245.539,441.892,1.17254
246.737,442.306,1.17787
247.934,442.503,1.21529
249.131,442.659,1.27663
250.328,442.894,1.30035
251.525,443.232,1.31452
252.722,443.595,1.32871
253.919,443.985,1.37801
255.116,444.4,1.40842
256.313,444.826,1.42664
257.51,445.231,1.42024
258.707,445.679,1.42589
259.904,446.123,1.44134
261.102,446.513,1.44102
262.299,446.919,1.44117
263.497,447.348,1.44279
264.694,447.705,1.44353
265.891,448.164,1.4565
267.088,448.574,1.46326
268.285,448.975,1.45286
269.482,449.385,1.46367
270.679,449.718,1.45869
271.874,450.164,1.46012
273.074,450.56,1.46634
274.271,450.95,1.46506
275.468,451.33,1.45826
276.665,451.708,1.4683
277.862,452.117,1.47993
279.059,452.416,1.47287
280.256,452.813,1.48125
281.453,453.193,1.48772
282.65,453.591,1.46603
283.847,453.944,1.46536
285.045,454.327,1.46761
286.242,454.69,1.48272
287.439,455.018,1.47459
288.635,455.438,1.47443
289.832,455.805,1.48847
291.03,456.135,1.48887
292.227,456.527,1.49031
293.424,456.816,1.48313
294.621,457.122,1.48135
295.818,457.372,1.4731
297.015,457.841,1.48857
298.213,458.128,1.48631
299.41,458.512,1.48151
300.608,458.687,1.49428
301.804,459.113,1.46944
303.001,459.467,1.48011
304.198,459.842,1.50256
305.395,460.196,1.50021
306.592,460.493,1.48895
307.79,460.814,1.48423
308.987,461.229,1.48403
310.184,461.536,1.47042
311.381,461.938,1.47813
312.578,462.21,1.48051
313.775,462.533,1.49082
314.972,462.878,1.49571
316.169,463.197,1.50515
317.366,463.491,1.48018
318.562,463.823,1.47588
319.759,464.102,1.47032
320.957,464.448,1.47182
322.155,464.827,1.47536
323.352,465.045,1.46953
324.549,465.296,1.47537
325.746,465.621,1.48024
326.943,465.964,1.47464
328.14,466.321,1.47845
329.337,466.588,1.46168
330.534,466.847,1.47255
331.732,467.21,1.4955
332.929,467.533,1.51288
334.125,467.887,1.51098
335.322,468.108,1.5108
336.519,468.369,1.51428
337.716,468.685,1.53578
338.913,468.928,1.52491
340.11,469.189,1.53791
341.307,469.431,1.53104
342.505,469.729,1.52403
343.702,470.024,1.53033
344.899,470.268,1.50538
346.096,470.538,1.53031
347.293,470.813,1.52359
348.49,471.041,1.53478
349.687,471.248,1.52318
350.884,471.512,1.50723
352.081,471.781,1.50541
353.278,471.985,1.51433
354.475,472.285,1.51125
355.673,472.54,1.51005
356.87,472.811,1.49499
358.067,473.041,1.49928
359.264,473.266,1.5154
360.461,473.54,1.53462
361.791,473.821,1.53401
362.988,474.105,1.52432
364.185,474.367,1.52198
365.382,474.784,1.50511
366.579,474.905,1.49363
367.777,475.163,1.48297
368.974,475.388,1.46781
370.171,475.653,1.45427
371.368,475.965,1.4385
372.565,476.242,1.44074
373.762,476.455,1.41109
374.959,476.667,1.40991
376.156,476.945,1.42454
377.353,477.186,1.42074
378.551,477.362,1.46924
379.748,477.521,1.44385
380.945,477.771,1.42716
382.142,477.987,1.45375
383.339,478.244,1.4514
384.536,478.469,1.44636
385.733,478.662,1.44855
386.93,478.83,1.44522
388.127,478.959,1.44332
389.324,479.092,1.44121
390.522,479.35,1.40278
391.719,479.634,1.35483
392.916,479.952,1.34629
394.113,480.23,1.32845
395.31,480.513,1.35583
396.507,480.78,1.34423
397.704,480.943,1.35343
398.901,481.29,1.36091
400.098,481.442,1.35281
401.296,481.727,1.36035
402.493,481.872,1.35934
403.69,482.083,1.3452
404.887,482.414,1.35668
406.084,482.725,1.35149
407.281,482.996,1.34049
408.478,483.112,1.32777
409.675,483.37,1.34685
410.873,483.575,1.34662
412.069,483.728,1.33735
413.267,483.916,1.365
414.464,484.121,1.37051
415.661,484.359,1.32871
416.858,484.545,1.31934
418.055,484.703,1.30074
419.252,485.079,1.31722
420.449,485.269,1.31406
421.653,485.443,1.33934
422.977,485.618,1.33089
424.174,485.818,1.32566
425.371,486.007,1.32848
426.569,486.204,1.31693
427.766,486.337,1.31163
428.963,486.438,1.30602
430.16,486.608,1.2932
431.357,486.837,1.31204
432.554,486.829,1.31015
433.751,487.168,1.31791
434.948,487.227,1.32319
436.145,487.496,1.33457
437.342,487.792,1.32362
438.539,487.987,1.2972
439.736,488.091,1.29578
440.933,488.142,1.30034
442.13,488.397,1.30962
443.327,488.546,1.30683
444.524,488.71,1.30193
445.721,489.004,1.33253
446.918,489.331,1.35071
448.116,489.421,1.33825
449.313,489.506,1.32292
450.51,489.651,1.29876
451.707,489.808,1.29657
452.904,490.14,1.3266
454.101,490.264,1.33436
455.298,490.394,1.31802
456.496,490.622,1.32302
457.692,490.756,1.30803
458.89,490.862,1.32599
460.086,491.065,1.32468
461.284,491.201,1.31432
462.481,491.372,1.359
463.678,491.488,1.34305
464.875,491.572,1.36264
466.072,491.707,1.35361
467.269,491.896,1.35632
468.466,492.037,1.37317
469.663,492.214,1.38419
470.86,492.266,1.37139
472.058,492.391,1.36569
473.255,492.507,1.3557
474.452,492.729,1.3656
475.649,493.01,1.36077
476.846,493.068,1.35678
478.043,493.253,1.33307
479.24,493.517,1.31978
480.437,493.793,1.32856
481.634,493.695,1.32981
482.831,493.984,1.31235
484.029,494.163,1.32078
485.226,494.333,1.3308
486.556,494.478,1.32717
487.753,494.71,1.34489
488.95,494.948,1.33622
490.147,495.006,1.34597
491.344,495.155,1.37722
492.542,495.364,1.3683
493.738,495.526,1.34922
494.935,495.737,1.3692
496.133,495.863,1.3476
497.33,496.093,1.34049
498.527,496.242,1.33361
499.724,496.438,1.35549
500.921,496.549,1.31581
502.118,496.636,1.31055
503.315,496.883,1.31088
504.512,497.04,1.34412
505.709,497.057,1.31471
506.907,497.272,1.32642
508.104,497.456,1.3397
509.301,497.665,1.33676
510.498,497.778,1.32549
511.695,497.956,1.33753
512.892,498.127,1.34816
514.089,498.299,1.36454
515.286,498.432,1.35923
516.483,498.599,1.36016
517.68,498.763,1.37483
518.878,498.955,1.37876
520.075,499.189,1.3637
521.272,499.36,1.35711
522.469,499.58,1.3686
523.666,499.797,1.37387
524.863,499.966,1.37072
526.06,499.911,1.3515
527.257,500.172,1.37102
528.454,500.405,1.38264
529.651,500.477,1.33042
530.848,500.822,1.35597
532.046,501.051,1.35072
533.243,500.992,1.33587
534.44,501.097,1.3602
535.637,501.403,1.35482
536.834,501.645,1.38593
538.031,501.705,1.39422
539.228,501.884,1.40596
540.425,502.106,1.44787
541.622,502.016,1.42997
542.819,502.17,1.42447
544.017,502.359,1.42029
545.214,502.491,1.44602
546.411,502.66,1.42484
547.608,502.859,1.45097
548.805,503.033,1.41958
550.002,503.159,1.399
551.2,503.35,1.43003
552.396,503.59,1.43689
553.593,503.812,1.44335
554.791,504.12,1.47685
555.988,504.236,1.48681
557.185,504.271,1.4181
558.382,504.451,1.41982
559.579,504.659,1.47823
560.776,504.765,1.43856
561.973,504.942,1.43419
563.17,505.144,1.46093
564.367,505.398,1.46358
565.564,505.564,1.49304
566.762,505.86,1.51785
567.959,505.924,1.48861
569.156,506.159,1.47516
570.353,506.338,1.4874
571.55,506.484,1.4583
572.747,506.633,1.47663
573.944,506.792,1.46793
575.142,506.984,1.49316
576.339,507.187,1.51598
577.535,507.37,1.52909
578.733,507.62,1.53929
579.93,507.698,1.53733
581.127,507.904,1.52972
582.324,508.018,1.51649
583.521,508.301,1.5339
584.718,508.406,1.55857
585.915,508.697,1.60033
587.112,508.915,1.60032
588.309,509.048,1.62526
589.507,509.235,1.62132
590.704,509.503,1.6416
591.901,509.633,1.63363
593.098,509.81,1.63208
594.295,510.097,1.67982
595.492,510.157,1.66766
596.689,510.331,1.64203
597.886,510.638,1.6503
599.083,510.676,1.66056
600.28,510.832,1.62307
601.477,511.173,1.68045
602.675,511.354,1.68195
603.872,511.463,1.66508
605.069,511.559,1.66677
606.266,511.808,1.64462
607.463,511.899,1.70204
608.66,512.099,1.71691
609.857,512.177,1.7497
611.054,512.252,1.72427
612.251,512.493,1.77911
613.448,512.722,1.75689
614.646,512.778,1.7765
615.843,512.921,1.79129
617.175,513.313,1.80968
618.37,513.359,1.8047
619.567,513.556,1.80709
620.764,513.841,1.79276
621.961,513.986,1.8243
623.158,514.134,1.82278
624.355,514.439,1.84242
625.554,514.776,1.88108
626.752,514.906,1.88058
627.949,515.003,1.84644
629.146,515.053,1.81683
630.342,515.202,1.85128
631.539,515.481,1.81342
632.735,515.56,1.81253
633.932,515.927,1.84237
635.129,516.086,1.83514
636.327,516.16,1.79115
637.524,516.359,1.87667
638.721,516.539,1.84131
639.918,516.632,1.84421
641.115,516.868,1.85582
642.312,516.916,1.83569
643.509,517.119,1.80959
644.706,517.271,1.85587
645.903,517.487,1.84294
647.1,517.853,1.86533
648.297,518.03,1.84883
649.495,518.094,1.8422
650.692,518.128,1.84305
651.889,518.321,1.83493
653.086,518.33,1.86204
654.283,518.676,1.90933
655.48,518.891,1.88074
656.677,518.836,1.87088
657.874,519.2,1.91416
659.071,519.416,1.95079
660.268,519.325,1.9338
661.465,519.492,1.91757
662.663,519.831,1.93189
663.86,520.064,1.98877
665.057,520.189,2.01657
666.254,520.489,2.03758
667.451,520.684,2.01154
668.648,520.89,2.01026
669.845,521.115,2.06592
671.043,521.181,2.06336
672.24,521.299,2.01886
673.437,521.453,2.04207
674.634,521.746,2.06656
675.831,521.95,2.12927
677.028,522.108,2.08313
678.225,522.377,2.09179
679.422,522.323,2.08032
680.619,522.561,2.09495
681.816,522.847,2.13951
683.013,522.9,2.12406
684.211,523.138,2.13027
685.408,523.193,2.15694
686.605,523.451,2.14783
687.802,523.657,2.15719
688.999,523.712,2.1573
690.196,523.845,2.19429
691.393,523.971,2.14599
692.59,524.115,2.12136
693.787,524.49,2.19422
694.984,524.71,2.18274
696.182,524.753,2.21307
697.379,525.051,2.21653
698.576,525.124,2.22248
699.773,525.322,2.23855
700.97,525.515,2.19982
702.167,525.59,2.18607
703.364,525.936,2.19864
704.561,526.14,2.2444
705.758,526.008,2.18472
706.955,526.221,2.15681
708.154,526.375,2.17786
709.544,526.552,2.23557
710.682,526.73,2.26581
711.879,527.041,2.31123
713.076,527.228,2.35383
714.273,527.602,2.33882
715.47,527.695,2.33708
716.667,527.88,2.26354
717.864,528.071,2.31984
719.061,528.18,2.29468
720.258,528.32,2.29102
721.456,528.612,2.25063
722.653,528.746,2.28292
723.85,528.911,2.27689
725.047,529.123,2.28071
726.244,529.286,2.27635
727.441,529.287,2.22508
728.638,529.505,2.30661
729.835,529.534,2.27889
731.032,529.603,2.25291
732.23,529.83,2.23593
733.427,530.203,2.27838
734.624,530.414,2.34001
735.821,530.505,2.33886
737.018,530.807,2.36783
738.215,530.924,2.35025
739.412,531.009,2.35703
740.608,531.093,2.34223
741.805,531.347,2.37371
743.002,531.714,2.40384
744.199,531.709,2.35937
745.397,531.96,2.40117
746.593,532.09,2.37613
747.79,532.223,2.32371
748.987,532.532,2.37888
750.184,532.573,2.41343
751.381,532.768,2.34208
752.578,533,2.40879
753.775,532.973,2.36664
754.973,533.204,2.40823
756.17,533.471,2.40289
757.366,533.67,2.43319
758.564,533.804,2.4222
759.761,533.997,2.40626
760.958,534.087,2.4076
762.155,534.408,2.44072
763.352,534.546,2.47783
764.549,534.724,2.47584
765.746,534.769,2.41946
766.945,534.863,2.40654
768.14,535.035,2.50187
769.338,535.325,2.48072
770.535,535.581,2.51497
771.732,535.76,2.52334
772.929,535.754,2.47412
774.126,535.919,2.53952
775.323,536.225,2.55812
776.52,536.253,2.52824
777.717,536.31,2.50483
778.914,536.269,2.50006
780.111,536.4,2.51359
781.309,536.524,2.46172
782.506,536.817,2.54308
783.703,537.059,2.57736
784.9,537.21,2.54439
786.097,537.094,2.47467
787.294,537.457,2.5837
788.491,537.681,2.63938
789.688,537.831,2.61409
790.885,537.855,2.65702
792.082,537.941,2.57273
793.28,538.07,2.61778
794.477,538.336,2.68364
795.674,538.215,2.62592
796.873,538.413,2.64557
798.07,538.574,2.62504
799.267,538.923,2.70325
800.464,539.068,2.72644
801.661,539.101,2.69479
802.858,539.223,2.67268
804.055,539.353,2.72045
805.253,539.391,2.68718
806.45,539.586,2.68531
807.647,539.874,2.72798
808.844,540.259,2.79078
810.041,540.249,2.79384
811.238,540.287,2.72436
812.435,540.294,2.56221
813.632,540.48,2.63398
814.829,540.769,2.77772
816.026,540.822,2.765
817.224,540.989,2.77868
818.421,541.01,2.7651
819.618,540.863,2.68628
820.815,541.119,2.77459
822.012,541.29,2.81411
823.209,541.318,2.78779
824.406,541.361,2.71048
825.602,541.698,2.78417
826.8,541.923,2.7691
828.13,542.126,2.79343
829.327,542.373,2.85052
830.524,542.178,2.79572
831.721,542.386,2.8198
832.918,542.649,2.91047
834.115,542.569,2.90039
835.312,542.412,2.81086
836.509,542.569,2.82868
837.705,542.878,2.92016
838.902,542.99,2.91189
840.099,543.015,2.85789
841.297,543.263,2.89298
842.494,543.623,2.96915
843.691,543.634,2.93545
844.888,543.689,2.91866
846.085,543.914,2.96893
847.282,543.921,2.91392
848.479,543.988,2.89855
849.676,544.207,2.9564
850.873,544.265,2.91247
852.07,544.619,2.96432
853.267,544.667,2.95782
854.465,544.803,2.97302
855.662,544.756,2.96704
856.859,544.919,2.95909
858.056,545.078,3.0204
859.253,545.212,3.02218
860.45,545.13,3.06329
861.647,545.414,3.10607
862.844,545.428,3.12889
864.041,545.42,3.04838
865.239,545.549,3.12865
866.436,545.36,3.05432
867.633,545.717,3.10802
868.83,545.767,3.07185
870.027,545.735,3.0024
871.224,545.801,3.09495
872.421,545.859,3.11752
873.618,545.788,3.03556
874.815,546.006,3.15083
876.012,546.177,3.15358
877.21,546.24,3.1146
878.407,546.298,3.14679
879.604,546.439,3.10761
880.801,546.574,3.21269
881.998,546.499,3.18791
883.195,546.697,3.18505
884.392,546.704,3.21928
885.589,546.645,3.17019
886.786,546.669,3.09283
887.983,546.779,3.065
889.181,547.109,3.14142
890.378,547.225,3.12996
891.575,547.501,3.13334
892.772,547.566,3.0983
893.969,547.884,3.13944
895.166,548.348,3.04784
896.363,548.576,3.05183
897.56,548.931,3.05806
898.757,549.133,3.02744
899.954,548.923,2.93916
901.151,549.014,2.99449
902.349,549.363,2.98898
903.546,549.545,2.97106
904.876,549.761,2.95695
906.073,549.847,2.88816
907.27,550.105,2.94685
908.467,550.216,2.87279
909.664,550.383,2.84913
910.861,550.639,2.81241
912.058,550.82,2.77968
913.255,551.074,2.79948
914.453,551.066,2.75783
915.65,551.411,2.76359
916.847,551.924,2.74151
918.044,552.199,2.67653
919.241,552.594,2.61785
920.438,552.652,2.58307
921.635,552.923,2.61996
922.832,553.225,2.70363
924.03,553.268,2.64014
925.227,553.597,2.6135
926.424,553.855,2.5816
927.623,553.944,2.56168
928.82,553.921,2.49779
930.015,553.986,2.48174
931.212,553.933,2.43701
932.409,554.162,2.47677
933.606,554.118,2.37648
934.803,554.271,2.45781
936,554.787,2.56983
937.198,555.276,2.51433
938.395,555.3,2.51536
939.592,555.529,2.58368
940.789,555.958,2.62809
941.986,555.817,2.60343
943.183,556.03,2.63465
944.38,556.641,2.73659
945.577,556.735,2.6729
946.774,557.216,2.74561
947.971,557.119,2.72943
949.168,557.86,2.79523
950.366,558.147,2.80804
951.563,558.58,2.80747
952.76,558.521,2.77988
953.957,559.182,2.81884
955.154,559.524,2.81943
956.351,559.681,2.84981
957.548,560.09,2.82917
958.745,560.439,2.87847
959.942,560.643,2.85581
961.14,560.63,2.80977
962.337,561.024,2.81664
963.534,561.351,2.85166
964.731,561.529,2.82256
965.928,561.855,2.78849
967.125,562.042,2.79143
968.322,562.21,2.79381
969.519,562.534,2.82789
970.716,562.618,2.78323
971.913,562.899,2.85807
973.111,563.188,2.80004
974.308,563.438,2.87359
975.505,563.551,2.81549
976.702,563.893,2.85271
977.899,564.108,2.92677
979.096,564.417,2.95351
980.293,564.648,2.90611
981.49,564.728,2.87875
982.687,564.843,2.88961
984.15,565.389,2.91296
985.348,565.867,2.95623
986.545,566.927,3.15485
987.742,567.513,3.30985
988.939,568.237,3.38567
990.136,568.859,3.51561
991.333,569.263,3.55266
992.53,569.859,3.65492
993.727,570.051,3.72883
994.924,570.055,3.76808
996.121,570.497,3.87294
997.318,571.117,3.95449
998.516,571.089,4.02155
999.713,571.331,3.9731
1000.91,571.782,4.07078
1002.107,572.354,4.20296
1003.304,572.549,4.18646
1004.501,573.09,4.21674
1005.698,573.474,4.27728
1006.895,573.917,4.37608
1008.092,574.227,4.39021
1009.289,574.639,4.50584
1010.487,574.875,4.56483
1011.684,575.066,4.52278
1012.881,575.297,4.52148
1014.078,575.595,4.61509
1015.275,575.795,4.67083
1016.472,576.425,4.72015
1017.669,576.299,4.74552
1018.866,576.345,4.68687
1020.063,576.784,4.71003
1021.26,577.002,4.66978
1022.457,577.26,4.7924
1023.655,577.59,4.7997
1024.852,577.989,4.82922
1026.049,578.538,4.84842
1027.246,578.772,4.87827
1028.443,579.205,4.87984
1029.64,579.786,4.96298
1030.837,579.858,4.95731
1032.034,579.888,4.93202
1033.231,579.848,5.02815
1034.428,580.151,4.95193
1035.626,580.473,4.951
1036.823,580.874,5.01162
1038.02,580.663,4.90391
1039.217,580.99,4.90782
1040.415,581.434,4.96638
1041.611,581.723,5.04809
1042.808,582.063,5.08938
1044.005,582.18,5.08368
1045.202,582.292,5.06221
1046.4,582.639,5.09122
1047.597,582.987,5.09142
1048.794,583.331,5.08323
1049.991,584.008,5.20354
1051.188,584.116,5.25287
1052.385,584.127,5.09982
1053.582,584.731,5.15915
1054.779,585.092,5.21322
1055.976,585.584,5.32578
1057.173,586.156,5.46698
1058.37,586.268,5.43872
1059.568,586.573,5.41412
1060.765,587.326,5.62854
1061.962,587.587,5.62013
1063.159,587.784,5.67284
1064.356,588.103,5.66045
1065.553,588.341,5.7485
1067.016,588.573,5.73018
1068.213,588.816,5.7495
1069.41,589.075,5.79518
1070.608,589.283,5.73778
1071.805,589.507,5.72642
1073.002,590.103,5.83674
1074.199,590.362,5.81456
1075.396,590.934,5.91915
1076.593,590.925,5.86822
1077.79,590.793,5.79432
1078.987,591.103,5.96406
1080.184,591.628,6.01972
1081.382,591.737,6.02891
1082.579,592.052,6.05807
1083.776,592.39,6.10271
1084.973,592.897,6.21705
1086.17,592.805,6.16877
1087.367,593.499,6.11907
1088.564,593.889,6.13518
1089.761,594.189,6.17667
1090.958,594.793,6.1494
1092.155,595.48,6.15704
1093.352,595.937,6.18425
1094.55,596.165,6.06138
1095.747,596.722,6.01412
1096.944,597.244,6.03621
1098.141,597.64,6.04032
1099.338,597.938,6.13989
1100.535,598.611,6.09274
1101.732,598.876,6.01253
1102.93,599.402,6.09927
1104.126,600.162,6.01311
1105.324,600.076,5.89251
1106.52,600.63,6.04229
1107.718,601.114,6.09735
1108.915,601.18,6.0593
1110.112,601.693,6.08727
1111.309,602.001,6.09448
1112.506,602.538,6.10968
1113.705,602.322,6.10856
1114.902,602.795,6.18146
1116.099,602.754,6.12827
1117.296,603.176,6.1593
1118.494,603.346,6.11602
1119.69,603.249,5.97496
1120.888,603.548,5.9277
1122.085,604.49,6.08372
1123.282,604.85,6.16263
1124.479,605.047,6.22322
1125.676,605.476,6.20062
1126.873,606.124,6.30076
1128.07,606.524,6.36946
1129.267,606.638,6.24869
1130.464,606.972,6.26886
1131.661,607.164,6.24955
1132.859,607.682,6.33435
1134.056,607.64,6.29623
1135.253,607.91,6.25455
1136.45,608.222,6.28294
1137.647,608.468,6.18153
1138.843,608.972,6.12219
1140.04,609.421,6.14599
1141.237,609.598,6.18288
1142.434,609.544,6.04302
1143.631,610.109,6.14086
1144.829,610.638,6.05807
1146.026,610.814,6.10561
1147.223,611.193,6.12616
1148.42,611.644,6.30344
1149.617,611.74,6.18717
1150.814,612.629,6.2043
1152.011,612.593,6.17595
1153.208,612.906,6.26608
1154.405,613.504,6.18455
1155.602,614.037,6.1941
1156.8,614.259,6.19479
1157.997,614.278,6.19389
1159.194,614.238,6.15979
1160.391,614.766,6.2429
1161.588,614.828,6.16561
1162.785,615.217,6.20146
1163.982,615.723,6.17406
1165.179,615.824,6.12377
1166.376,616.414,6.20367
1167.573,616.767,6.39307
1168.77,616.7,6.33631
1169.968,617.078,6.31374
1171.165,617.751,6.29407
1172.362,617.955,6.23331
1173.558,618.201,6.05327
1174.756,618.533,5.91587
1175.952,618.962,5.93472
1177.149,619.028,5.90302
1178.346,619.241,5.99078
1179.543,619.742,5.83983
1180.741,620.695,5.89344
1181.938,620.691,5.83234
1183.135,621.179,5.73656
1184.332,621.07,5.64406
1185.529,621.256,5.57526
1186.726,621.916,5.583
1187.923,622.462,5.77676
1189.12,622.487,5.62623
1190.318,623.009,5.66348
1191.515,623.153,5.57067
1192.712,623.574,5.63164
1193.909,624.241,5.60063
1195.106,624.56,5.559
1196.303,625.158,5.51523
1197.5,625.088,5.46431
1198.697,625.44,5.46465
1199.894,625.639,5.43317
1201.091,625.73,5.35526
1202.288,626.512,5.4832
1203.485,626.495,5.54762
1204.683,627.368,5.57619
1205.88,627.244,5.44287
1207.077,627.462,5.59599
1208.274,627.664,5.5539
1209.471,627.936,5.35111
1210.668,628.188,5.32985
1211.865,628.893,5.35677
1213.062,629.479,5.45916
1214.259,629.895,5.34475
1215.456,629.996,5.28561
1216.653,630.011,5.29607
1217.851,629.954,5.20235
1219.048,630.362,5.23739
1220.245,630.628,5.25294
1221.442,631.261,5.28864
1222.639,631.472,5.23672
1223.836,631.566,5.2669
1225.035,631.497,5.06034
1226.232,631.899,5.12185
1227.429,632.544,5.19563
1228.626,632.701,5.21812
1229.823,633.382,5.24471
1231.021,633.852,5.32685
1232.218,634.133,5.21215
1233.416,634.217,5.10539
1234.612,634.171,5.03769
1235.809,634.72,5.06279
1237.006,634.908,4.91656
1238.203,635.225,5.03934
1239.4,635.233,5.02683
1240.597,635.771,5.05915
1241.794,635.697,5.03302
1242.995,636.562,5.00509
1244.455,637.093,5.00285
1245.652,637.02,4.93349
1246.849,637.148,5.02444
1248.046,637.011,4.77729
1249.243,637.407,4.80826
1250.44,637.869,4.73832
1251.637,638.326,4.85589
1252.834,638.362,4.73046
1254.031,638.883,4.92084
1255.229,638.848,4.92861
1256.426,639.484,4.75601
1257.623,639.411,4.64008
1258.82,639.69,4.68137
1260.017,640.035,4.6814
1261.214,640.472,4.5088
1262.411,640.633,4.36216
1263.608,640.417,4.38823
1264.806,640.896,4.45867
1266.003,641.379,4.51241
1267.2,642.177,4.48724
1268.397,641.929,4.28774
1269.594,642.144,4.22091
1270.791,642.449,4.00001
1271.988,642.877,4.03113
1273.185,642.959,3.91166
1274.382,643.015,3.8886
1275.579,643.159,3.96607
1276.776,643.757,3.94518
1277.973,644.317,3.94413
1279.171,644.511,3.59334
1280.368,644.593,3.81787
1281.565,645.049,3.75346
1282.762,645.707,3.87809
1283.958,646.38,3.90158
1285.155,646.251,3.90354
1286.352,646.346,3.8079
1287.549,646.985,3.92522
1288.746,647.509,3.92497
1289.943,647.669,3.85039
1291.141,647.484,3.67628
1292.338,647.899,3.78695
1293.535,647.989,3.74569
1294.731,648.168,3.67401
1295.928,648.687,3.69463
1297.125,648.764,3.70634
1298.322,649.078,3.74765
1299.519,649.779,3.79502
1300.716,650.098,3.80966
1301.913,650.011,3.72643
1303.11,649.825,3.57958
1304.308,650.348,3.55847
1305.505,650.705,3.57202
1306.702,650.823,3.48211
1307.899,651.451,3.56683
1309.096,651.847,3.5856
1310.293,651.555,3.40306
1311.49,651.492,3.35695
1312.687,652.021,3.41875
1313.884,652.085,3.36635
1315.081,652.052,3.31067
1316.279,652.185,3.25828
1317.478,652.624,3.3297
1318.675,652.994,3.40335
1319.872,653.235,3.4725
1321.069,652.914,3.22532
1322.266,653.123,3.30298
1323.463,653.466,3.34959
1324.658,653.945,3.27111
1325.855,654.145,3.29916
1327.053,654.118,3.14089
1328.25,654.539,3.30359
1329.447,654.216,3.18729
1330.644,654.527,3.12411
1331.841,653.949,2.9089
1333.038,654.376,2.96608
1334.235,654.546,2.99568
1335.432,654.535,3.01977
1336.629,655.192,3.02679
1337.826,654.938,2.87163
1339.023,655.381,2.90091
1340.22,655.397,2.90486
1341.418,655.683,2.87895
1342.615,655.669,2.85152
1343.812,656.339,2.89092
1345.009,656.62,2.86342
1346.206,656.657,2.90648
1347.403,657.008,2.83614
1348.6,656.981,2.79305
1349.797,657.302,2.80244
1350.994,657.601,2.84944
1352.192,657.31,2.87577
1353.389,657.015,2.76517
1354.586,656.947,2.65483
1355.783,657.079,2.64368
1356.98,657.409,2.73472
1358.177,657.703,2.68774
1359.376,657.805,2.6709
1360.573,658.055,2.74611
1361.77,657.758,2.64452
1362.967,658.404,2.72096
1364.164,658.538,2.76348
1365.361,658.531,2.6339
1366.558,658.64,2.638
1367.755,659.12,2.67183
1368.952,658.955,2.63691
1370.149,658.89,2.53136
1371.346,659.253,2.62454
1372.543,659.619,2.53723
1373.74,659.816,2.5868
1374.938,659.661,2.537
1376.134,659.75,2.52993
1377.331,660.341,2.68678
1378.529,660.008,2.61841
1379.726,660.009,2.49457
1380.923,659.925,2.56654
1382.121,660.616,2.57146
1383.318,660.969,2.59572
1384.515,660.723,2.44914
1385.712,661.013,2.5284
1386.909,660.812,2.44961
1388.106,660.564,2.43612
1389.304,659.958,2.28239
1390.5,660.817,2.42705
1391.697,660.687,2.41568
1392.894,661.479,2.48883
1394.091,661.429,2.53938
1395.288,661.197,2.45594
1396.485,661.254,2.3936
1397.682,661.541,2.32314
1398.879,661.24,2.27109
1400.076,661.612,2.42967
1401.273,661.716,2.34043
1402.47,661.828,2.37095
1403.668,662.175,2.30357
1404.864,662.37,2.39462
1406.061,663.08,2.46831
1407.258,662.856,2.46024
1408.455,662.618,2.35922
1409.652,662.94,2.45483
1410.849,663.017,2.47669
1412.046,663.151,2.35949
1413.243,662.925,2.19809
1414.441,662.464,2.21819
1415.64,662.705,2.23581
1416.837,663.194,2.39221
1418.034,663.137,2.38353
1419.231,663.361,2.4095
1420.428,662.547,2.26273
1421.625,662.178,2.15311
1422.82,663.059,2.3326
1424.017,662.753,2.26594
1425.214,663.063,2.28022
1426.412,663.282,2.19617
1427.609,663.2,2.27113
1428.806,663.138,2.30663
1430.003,662.804,2.1937
1431.202,662.871,2.19911
1432.399,662.815,2.21411
1433.596,662.87,2.14794
1434.793,662.917,2.16515
1435.99,663.207,2.22469
1437.188,662.916,2.16124
1438.385,663.339,2.16093
1439.581,663.785,2.27761
1440.779,663.447,2.17174
1441.976,663.863,2.21446
1443.173,663.987,2.30981
1444.37,663.979,2.30462
1445.567,663.544,2.21048
1446.764,663.832,2.21072
1447.961,663.609,2.16723
1449.158,663.764,2.22428
1450.356,663.596,2.16856
1451.552,663.721,2.19217
1452.75,663.768,2.21901
1453.947,664.221,2.24153
1455.144,663.895,2.18644
1456.341,663.767,2.16943
1457.538,664.136,2.25963
1458.735,664.046,2.21964
1459.932,664.23,2.31154
1461.129,664.285,2.27026
1462.327,664.678,2.13205
1463.523,664.209,2.03453
1464.721,664.135,2.0594
1465.918,664.925,2.23713
1467.115,665.238,2.29642
1468.312,665.688,2.40652
1469.509,665.883,2.37844
1470.706,665.492,2.40742
1471.903,664.591,2.32666
1473.1,665.292,2.35828
1474.297,665.431,2.30379
1475.494,664.793,2.13207
1476.692,664.694,2.13442
1477.888,664.969,2.12749
1479.085,665.543,2.22011
1480.282,665.548,2.28143
1481.479,665.067,2.25809
1482.677,664.971,2.2169
1483.874,665.572,2.42153
1485.071,665.428,2.39997
1486.268,665.641,2.23987
1487.465,666.138,2.28581
1488.662,665.632,2.12999
1489.859,666.126,2.24805
1491.055,666.253,2.26264
1492.252,665.89,2.16683
1493.449,665.553,2.03093
1494.646,665.473,2.10018
1495.843,665.475,2.01586
1497.04,665.63,2.11071
1498.237,665.48,2.14949
1499.435,665.116,2.00875
1500.631,665.235,2.09897
1501.829,665.713,2.20602
1503.026,665.567,2.31801
1504.225,667.029,2.37121
1505.422,667.232,2.42722
1506.619,667.153,2.23373
1507.816,667.048,2.24345
1509.013,666.678,2.25446
1510.209,666.502,2.22423
1511.406,666.658,2.21808
1512.603,666.231,2.20434
1513.8,666.871,2.24056
1514.998,666.865,2.27262
1516.195,667.058,2.3444
1517.392,666.906,2.30225
1518.59,666.617,2.31365
1519.787,666.714,2.52437
1520.984,667.505,2.40912
1522.181,667.197,2.29268
1523.378,667.601,2.38758
1524.575,666.912,2.22279
1525.773,666.98,2.2859
1526.97,667.253,2.27405
1528.167,666.939,2.08352
1529.364,666.676,2.05009
1530.561,666.838,2.11776
1531.758,667.014,2.21064
1532.955,666.638,2.08813
1534.152,666.341,2.0954
1535.349,666.424,2.14263
1536.546,666.606,2.30361
1537.743,665.933,2.18827
1538.94,666.127,2.30355
1540.138,666.313,2.3323
1541.335,666.086,2.33676
1542.532,665.89,2.34671
1543.728,665.425,2.12772
1544.925,666.347,2.24593
1546.122,666.542,2.37394
1547.319,666.404,2.36582
1548.516,666.502,2.29847
1549.713,666.515,2.23008
1550.91,666.922,2.24563
1552.108,667.406,2.25101
1553.304,667.359,2.23597
1554.501,667.528,2.14677
1555.831,667.251,2.23209
1557.028,666.891,2.18853
1558.225,666.726,2.15871
1559.422,666.933,2.31707
1560.619,667.45,2.41976
1561.816,667.181,2.25079
1563.013,666.831,2.17758
1564.211,667.028,2.23283
1565.408,666.762,2.18029
1566.605,666.853,2.24642
1567.802,666.748,2.18887
1568.999,666.891,2.11713
1570.196,666.519,2.12025
1571.393,666.713,2.10643
1572.59,667.24,2.07964
1573.789,666.464,2.14651
1574.985,666.982,2.17384
1576.183,667.464,2.27474
1577.38,667.288,2.27684
1578.576,667.957,2.41881
1579.773,667.038,2.30615
1580.97,666.917,2.26249
1582.167,666.632,2.15351
1583.364,666.585,2.15976
1584.561,666.94,2.35711
1585.758,666.067,2.15821
1586.956,666.419,2.11397
1588.153,666.894,2.24164
1589.351,666.974,2.32282
1590.549,666.745,2.25886
1591.746,667.278,2.29709
1592.943,667.111,2.34102
1594.138,667.503,2.3435
1595.337,667.549,2.34058
1596.534,666.957,2.46324
1597.731,667.733,2.2486
1598.928,667.106,2.10096
1600.125,667.378,2.30757
1601.323,667.255,2.37092
1602.518,668.226,2.45282
1603.715,667.342,2.4677
1604.912,666.899,2.23364
1606.109,666.553,2.38744
1607.306,667.294,2.3912
1608.505,666.814,2.36431
1609.857,666.4,2.37599
1611.035,667.33,2.27441
1612.232,667.55,2.42965
1613.429,667.649,2.2895
1614.76,667.493,2.31704
1615.957,667.209,2.31107
1617.154,667.536,2.24966
1618.347,667.491,2.32918
1619.544,667.808,2.30709
1620.741,667.353,2.36993
1621.938,668.12,2.39732
1623.135,667.652,2.31839
1624.332,667.77,2.37995
1625.53,668.058,2.38263
1626.727,667.411,2.26873
1627.925,667.426,2.31748
1629.122,666.272,2.33616
1630.319,666.824,2.38927
1631.516,666.926,2.14935
1632.711,666.199,2.28564
1633.908,666.01,2.31645
1635.105,666.648,2.38115
1636.302,666.35,2.25507
1637.499,666.877,2.31584
1638.697,667.059,2.3996
1639.896,667.264,2.35607
1641.093,667.633,2.38952
1642.29,668.006,2.21964
1643.487,666.812,2.18827
1644.684,667.069,2.22912
1645.881,667.824,2.35062
1647.078,667.155,2.20708
1648.275,666.534,2.01516
1649.472,667.159,2.35892
1650.67,666.975,2.20385
1651.865,666.236,2.10396
1653.063,666.628,2.23409
1654.26,665.887,2.15007
1655.457,667.437,2.48695
1656.654,667.641,2.2677
1657.85,667.715,2.0812
1659.047,667.246,2.30313
1660.244,667.409,2.39557
1661.441,667.827,2.40997
1662.64,666.355,2.44192
1663.837,667.578,2.30218
1665.034,667.581,2.40579
1666.231,667.9,2.5174
1667.428,668.599,2.38638
1668.758,667.568,2.2453
1669.956,667.278,2.39374
1671.152,667.353,2.34281
1672.349,666.98,2.37508
1673.546,667.062,2.56599
1674.743,666.742,2.43936
1675.941,666.225,2.22088
1677.138,666.616,2.29773
1678.335,666.231,2.2521
1679.532,666.492,2.28543
1680.729,666.634,2.52238
1681.926,666.642,2.46675
1682.857,666.614,2.32432