File: Non-charring/PMMA/UMD/UMD_DSC.csv
Time,Temp (K),DSC (mW/mg),Error (mW/mg)
0,313,0.0402,0.001958106
24.2118,314.002,0.0623,0.003017524
41.5014,315.004,0.0803,0.003883938
55.6026,316.006,0.0964,0.004893118
67.7796,317.008,0.111,0.005585987
78.6294,318.01,0.124,0.006084918
88.5384,319.012,0.136,0.006826567
97.7256,320.014,0.147,0.007364277
106.3272,321.016,0.158,0.007966211
114.4554,322.018,0.167,0.00834058
122.1888,323.02,0.177,0.008599254
129.5814,324.022,0.185,0.0094136
136.6968,325.024,0.194,0.009776172
143.5584,326.026,0.202,0.010401
150.2028,327.028,0.21,0.0111072
156.657,328.03,0.217,0.0114187
162.9426,329.032,0.224,0.0120025
169.0746,330.034,0.231,0.0126058
175.0638,331.036,0.238,0.0124611
180.927,332.038,0.245,0.0130611
186.6816,333.04,0.25,0.0133812
192.3294,334.042,0.256,0.0135033
197.8794,335.044,0.263,0.014084
203.3364,336.046,0.268,0.0142677
208.7088,337.048,0.273,0.0146155
214.0158,338.05,0.279,0.0151895
219.2574,339.052,0.284,0.0150184
224.4366,340.054,0.289,0.0157384
229.5492,341.056,0.293,0.0161946
234.6024,342.058,0.297,0.016567
239.6088,343.06,0.302,0.0164992
244.5798,344.062,0.306,0.0168826
249.5052,345.064,0.31,0.0171487
254.3862,346.066,0.313,0.0173449
259.2204,347.068,0.317,0.0174616
264.0252,348.07,0.32,0.0170316
268.8006,349.072,0.323,0.0171569
273.546,350.074,0.326,0.0176346
278.2542,351.076,0.329,0.0178659
282.9336,352.078,0.332,0.0182437
287.5884,353.08,0.335,0.0182541
292.2258,354.082,0.337,0.01855442
296.8458,355.084,0.34,0.01921838
301.4466,356.086,0.342,0.0193129
306.021,357.088,0.345,0.0196125
310.5804,358.09,0.346,0.0193335
315.123,359.092,0.349,0.0190903
319.6542,360.094,0.351,0.01968866
324.1722,361.096,0.354,0.019774
328.6764,362.098,0.355,0.0203567
333.171,363.1,0.358,0.0200827
337.6578,364.102,0.36,0.0204152
342.1386,365.104,0.361,0.0205112
346.614,366.106,0.363,0.0210311
351.0816,367.108,0.365,0.0211603
355.5426,368.11,0.367,0.0210861
359.9964,369.112,0.369,0.0214833
364.4502,370.114,0.371,0.0215344
368.8998,371.116,0.373,0.0218789
373.3476,372.118,0.374,0.0218288
377.7924,373.12,0.376,0.0216189
382.2378,374.122,0.377,0.02129952
386.6856,375.124,0.378,0.0214636
391.1394,376.126,0.38,0.02138
395.5932,377.128,0.382,0.0218026
400.0512,378.13,0.383,0.0219907
404.5074,379.132,0.384,0.0214039
408.9714,380.134,0.386,0.0217713
413.4414,381.136,0.388,0.021754
417.9186,382.138,0.389,0.0214193
422.4,383.14,0.39,0.0216175
426.8922,384.142,0.392,0.0216206
431.3934,385.144,0.393,0.0217752
435.9,386.146,0.395,0.0216098
440.4132,387.148,0.397,0.0216866
444.9354,388.15,0.399,0.0213396
449.4726,389.152,0.401,0.02134953
454.0182,390.154,0.402,0.0215298
458.5734,391.156,0.405,0.0216133
463.1388,392.158,0.408,0.0212712
467.7198,393.16,0.411,0.0213332
472.3116,394.162,0.414,0.021156
476.9202,395.164,0.417,0.0214755
481.5438,396.166,0.421,0.0215497
486.1818,397.168,0.424,0.02180231
490.836,398.17,0.427,0.0216821
495.507,399.172,0.429,0.0223136
500.1924,400.174,0.431,0.02172416
504.8928,401.176,0.432,0.0214917
509.6124,402.178,0.432,0.0212704
514.3518,403.18,0.432,0.0213023
519.1062,404.182,0.431,0.0209957
523.878,405.184,0.431,0.0214812
528.6702,406.186,0.431,0.0234974
533.4852,407.188,0.43,0.02356508
538.3212,408.19,0.428,0.0223667
543.1758,409.192,0.426,0.0208947
548.0538,410.194,0.423,0.0196373
552.9522,411.196,0.422,0.018834
557.8734,412.198,0.42,0.0182643
562.8174,413.2,0.418,0.0177787
567.7812,414.202,0.418,0.0175714
572.7702,415.204,0.418,0.0178584
577.7844,416.206,0.417,0.01835478
582.8208,417.208,0.416,0.0186034
587.8806,418.21,0.415,0.01855068
592.9626,419.212,0.414,0.0188994
598.0716,420.214,0.413,0.0189361
603.207,421.216,0.412,0.0192456
608.37,422.218,0.411,0.01880493
613.5594,423.22,0.41,0.018861
618.7716,424.222,0.409,0.0190306
624.0096,425.224,0.408,0.0194275
629.2692,426.226,0.407,0.0191282
634.5558,427.228,0.407,0.0196176
639.8736,428.23,0.406,0.0196909
645.2154,429.232,0.406,0.0198461
650.5854,430.234,0.406,0.0206443
655.9764,431.236,0.405,0.0206139
661.395,432.238,0.406,0.0222433
666.843,433.24,0.407,0.02316245
672.3216,434.242,0.406,0.0226011
677.8272,435.244,0.406,0.0216844
683.3544,436.246,0.407,0.0207294
688.9068,437.248,0.407,0.0199509
694.485,438.25,0.407,0.02009153
700.0884,439.252,0.408,0.02027831
705.72,440.254,0.409,0.0199731
711.3768,441.256,0.41,0.0199004
717.0552,442.258,0.412,0.0196737
722.7594,443.26,0.414,0.0198761
728.4858,444.262,0.416,0.0198369
734.2356,445.264,0.418,0.0199618
740.0142,446.266,0.42,0.0199136
745.8126,447.268,0.422,0.01987
751.6356,448.27,0.424,0.0199071
757.485,449.272,0.426,0.0199763
763.3542,450.274,0.428,0.0199459
769.2432,451.276,0.431,0.0198661
775.1532,452.278,0.433,0.020214
781.0836,453.28,0.435,0.0202444
787.032,454.282,0.437,0.0203516
792.9996,455.284,0.438,0.02038362
798.9888,456.286,0.439,0.0205054
804.9966,457.288,0.439,0.0206793
811.017,458.29,0.439,0.0208572
817.0512,459.292,0.438,0.0209918
823.1052,460.294,0.437,0.0211874
829.1718,461.296,0.435,0.021384
835.248,462.298,0.432,0.0214908
841.3362,463.3,0.428,0.0217249
847.4358,464.302,0.424,0.0217398
853.548,465.304,0.419,0.0217935
859.6698,466.306,0.414,0.0219825
865.7976,467.308,0.409,0.0219691
871.9386,468.31,0.403,0.0220306
878.0886,469.312,0.398,0.0217619
884.2452,470.314,0.394,0.0216226
890.4078,471.316,0.389,0.0215075
896.5782,472.318,0.386,0.0213752
902.7558,473.32,0.383,0.02101923
908.9322,474.322,0.38,0.0210076
915.1116,475.324,0.378,0.0205909
921.2964,476.326,0.377,0.020324
927.4836,477.328,0.376,0.0203125
933.6744,478.33,0.376,0.0199468
939.8652,479.332,0.376,0.0198594
946.053,480.334,0.376,0.0197047
952.2408,481.336,0.377,0.0195028
958.431,482.338,0.377,0.0194769
964.6164,483.34,0.378,0.0194633
970.797,484.342,0.379,0.0194404
976.9836,485.344,0.38,0.0193089
983.1606,486.346,0.381,0.0192408
989.334,487.348,0.383,0.01921893
995.5068,488.35,0.384,0.0192887
1001.67,489.352,0.385,0.0193515
1007.84,490.354,0.387,0.018955
1014,491.356,0.387,0.0186509
1020.15,492.358,0.388,0.0189149
1026.29,493.36,0.389,0.0188225
1032.429,494.362,0.39,0.0187654
1038.56,495.364,0.391,0.018702
1044.69,496.366,0.391,0.0186893
1050.81,497.368,0.392,0.0186018
1056.936,498.37,0.392,0.0186152
1063.05,499.372,0.393,0.0184978
1069.146,500.374,0.393,0.0185398
1075.24,501.376,0.394,0.0187124
1081.33,502.378,0.394,0.0186587
1087.41,503.38,0.395,0.0187187
1093.49,504.382,0.395,0.0187585
1099.56,505.384,0.395,0.0189135
1105.62,506.386,0.396,0.0190219
1111.67,507.388,0.396,0.0190888
1117.71,508.39,0.396,0.0192149
1123.74,509.392,0.397,0.0193411
1129.77,510.394,0.398,0.0193348
1135.794,511.396,0.399,0.019273
1141.81,512.398,0.399,0.01934073
1147.818,513.4,0.4,0.0194247
1153.82,514.402,0.401,0.0197291
1159.81,515.404,0.403,0.0196092
1165.79,516.406,0.404,0.0195486
1171.76,517.408,0.405,0.0196546
1177.74,518.41,0.406,0.0196348
1183.7,519.412,0.407,0.0195363
1189.65,520.414,0.409,0.0194061
1195.59,521.416,0.41,0.019466
1201.53,522.418,0.412,0.0195029
1207.47,523.42,0.413,0.0192989
1213.4,524.422,0.414,0.0191122
1219.32,525.424,0.416,0.0189899
1225.24,526.426,0.418,0.0188226
1231.146,527.428,0.42,0.0190268
1237.05,528.43,0.422,0.0186211
1242.95,529.432,0.424,0.0185103
1248.85,530.434,0.426,0.0187555
1254.74,531.436,0.428,0.0189183
1260.62,532.438,0.43,0.0192852
1266.49,533.44,0.431,0.019476
1272.366,534.442,0.433,0.01970759
1278.24,535.444,0.435,0.0196494
1284.1,536.446,0.437,0.0194187
1289.97,537.448,0.439,0.01957966
1295.82,538.45,0.441,0.0192915
1301.67,539.452,0.443,0.0191388
1307.52,540.454,0.445,0.0188847
1313.36,541.456,0.447,0.0186263
1319.2,542.458,0.449,0.0184455
1325.04,543.46,0.452,0.0185325
1330.88,544.462,0.455,0.0185494
1336.71,545.464,0.457,0.0184603
1342.54,546.466,0.46,0.0183088
1348.37,547.468,0.463,0.0179704
1354.2,548.47,0.466,0.0181379
1360.02,549.472,0.47,0.018171
1365.85,550.474,0.473,0.0178667
1371.66,551.476,0.477,0.0180164
1377.47,552.478,0.481,0.0178413
1383.276,553.48,0.485,0.0179438
1389.09,554.482,0.489,0.0179389
1394.9,555.484,0.493,0.0179441
1400.71,556.486,0.497,0.0174663
1406.526,557.488,0.502,0.0179121
1412.34,558.49,0.506,0.0178838
1418.14,559.492,0.511,0.0179096
1423.95,560.494,0.515,0.0180106
1429.758,561.496,0.52,0.018125
1435.57,562.498,0.525,0.0180457
1441.38,563.5,0.529,0.0183257
1447.19,564.502,0.534,0.0183785
1452.999,565.504,0.538,0.0185596
1458.81,566.506,0.543,0.0187158
1464.63,567.508,0.547,0.0186578
1470.456,568.51,0.551,0.0188422
1476.28,569.512,0.555,0.0192781
1482.093,570.514,0.558,0.0194615
1487.9,571.516,0.561,0.0196938
1493.71,572.518,0.565,0.0199277
1499.53,573.52,0.568,0.0201419
1505.352,574.522,0.571,0.0203302
1511.18,575.524,0.573,0.0200107
1517,576.526,0.576,0.02047471
1522.82,577.528,0.578,0.0205358
1528.64,578.53,0.581,0.0204079
1534.467,579.532,0.584,0.0206436
1540.29,580.534,0.587,0.0205489
1546.12,581.536,0.591,0.0202281
1551.951,582.538,0.595,0.02042219
1557.78,583.54,0.6,0.0201621
1563.612,584.542,0.606,0.020386
1569.43,585.544,0.613,0.0203933
1575.25,586.546,0.621,0.0206701
1581.087,587.548,0.63,0.0210902
1586.93,588.55,0.641,0.02134238
1592.77,589.552,0.653,0.0217436
1598.61,590.554,0.665,0.0220433
1604.45,591.556,0.68,0.0223518
1610.286,592.558,0.696,0.02297857
1616.12,593.56,0.714,0.0237312
1621.953,594.562,0.732,0.02421839
1627.78,595.564,0.753,0.0252505
1633.63,596.566,0.775,0.02594565
1639.48,597.568,0.799,0.0268947
1645.326,598.57,0.825,0.02790668
1651.17,599.572,0.853,0.0288575
1657.02,600.574,0.882,0.0300313
1662.87,601.576,0.914,0.0310824
1668.73,602.578,0.948,0.0324868
1674.58,603.58,0.984,0.033821
1680.44,604.582,1.02,0.0353323
1686.3,605.584,1.06,0.0366553
1692.156,606.586,1.11,0.0381065
1698.02,607.588,1.15,0.0398833
1703.89,608.59,1.2,0.041691
1709.754,609.592,1.25,0.0433609
1715.619,610.594,1.3,0.0449705
1721.49,611.596,1.35,0.0468359
1727.36,612.598,1.4,0.0484219
1733.226,613.6,1.46,0.0498555
1739.1,614.602,1.52,0.0514944
1744.97,615.604,1.58,0.0529964
1750.84,616.606,1.64,0.05484
1756.71,617.608,1.7,0.0559981
1762.599,618.61,1.76,0.0571345
1768.49,619.612,1.82,0.0582589
1774.37,620.614,1.88,0.0596184
1780.25,621.616,1.94,0.0607873
1786.134,622.618,2,0.0612503
1792.02,623.62,2.06,0.062496
1797.9,624.622,2.12,0.0633023
1803.79,625.624,2.17,0.064707
1809.68,626.626,2.23,0.0657371
1815.56,627.628,2.29,0.0662352
1821.45,628.63,2.34,0.0671165
1827.34,629.632,2.39,0.0688187
1833.23,630.634,2.45,0.0704615
1839.12,631.636,2.5,0.0708448
1845.02,632.638,2.55,0.0707648
1850.91,633.64,2.6,0.07203715
1856.8,634.642,2.65,0.0707777
1862.7,635.644,2.69,0.0676649
1868.59,636.646,2.72,0.0663956
1874.48,637.648,2.75,0.059337
1880.37,638.65,2.76,0.0609447
1886.26,639.652,2.77,0.050243
1892.16,640.654,2.75,0.0454851
1898.046,641.656,2.75,0.0278017
1903.94,642.658,2.73,0.0216348
1909.83,643.66,2.68,0.0441789
1915.71,644.662,2.63,0.0445035
1921.6,645.664,2.57,0.0632581
1927.485,646.666,2.52,0.0619783
1933.38,647.668,2.47,0.0761885
1939.26,648.67,2.44,0.0909772
1945.14,649.672,2.41,0.0934463
1951.01,650.674,2.39,0.0706263
1956.888,651.676,2.36,0.0748333
1962.76,652.678,2.31,0.03891308
1968.63,653.68,2.29,0.0323626
1974.49,654.682,2.23,0.0415127
1980.35,655.684,2.2,0.0576923
1986.21,656.686,2.16,0.122187
1992.06,657.688,2.06,0.10352
1997.91,658.69,1.95,0.121594
2003.75,659.692,1.87,0.14122
2009.59,660.694,1.78,0.155303
2015.427,661.696,1.68,0.142565
2021.26,662.698,1.59,0.157134
2027.09,663.7,1.49,0.146397
2032.92,664.702,1.39,0.155104
2038.752,665.704,1.28,0.149653
2044.59,666.706,1.18,0.152425
2050.42,667.708,1.08,0.149488
2056.25,668.71,0.985,0.14325
2062.08,669.712,0.903,0.128146
2067.92,670.714,0.822,0.113185
2073.756,671.716,0.747,0.1019
2079.59,672.718,0.678,0.0968455
2085.44,673.72,0.613,0.0911142
2091.29,674.722,0.55,0.08330531
2097.147,675.724,0.491,0.0772424
2103.02,676.726,0.435,0.0709108
2108.89,677.728,0.386,0.06399911
2114.77,678.73,0.339,0.0582006
2120.66,679.732,0.296,0.0521547
2126.57,680.734,0.257,0.0472036
2132.48,681.736,0.223,0.0423503
2138.39,682.738,0.192,0.03859994
2144.31,683.74,0.164,0.0350825
2150.25,684.742,0.139,0.0326754
2156.2,685.744,0.118,0.0304247
2162.151,686.746,0.0986,0.0285695
2168.12,687.748,0.081,0.0267104
2174.1,688.75,0.0665,0.0259197
2180.09,689.752,0.0533,0.0246106
2186.09,690.754,0.0421,0.0239872
2192.1,691.756,0.032,0.0237561
2198.11,692.758,0.0236,0.0229965
2204.14,693.76,0.0155,0.0223365
2210.18,694.762,0.00884,0.02217881
2216.22,695.764,0.0033,0.0219525
2222.28,696.766,-0.00156,0.02181311
2228.35,697.768,-0.00574,0.0216031
2234.424,698.77,-0.00991,0.02168656
2240.51,699.772,-0.0125,0.02140587
2246.59,700.774,-0.0155,0.02132382
2252.688,701.776,-0.017,0.0218122
2258.8,702.778,-0.0187,0.0217048
2264.91,703.78,-0.0192,0.02084979
2271.04,704.782,-0.0196,0.02109541
2277.17,705.784,-0.0179,0.0216039
2283.31,706.786,-0.0149,0.0221659
2289.45,707.788,-0.0122,0.0227085
2295.61,708.79,-0.0107,0.0242957
2301.78,709.792,-0.0114,0.0252266
2307.94,710.794,-0.0127,0.0241336
2314.11,711.796,-0.0179,0.0228787
2320.293,712.798,-0.0231,0.0223857
2326.47,713.8,-0.0297,0.0197022
2332.67,714.802,-0.0328,0.0169243
2338.88,715.804,-0.0348,0.0174208
2345.085,716.806,-0.0382,0.0171306
2351.29,717.808,-0.0398,0.0177865
2357.5,718.81,-0.042,0.0180222
2363.72,719.812,-0.0417,0.0182326
2369.95,720.814,-0.0423,0.0190121
2376.17,721.816,-0.0429,0.0199298
2382.41,722.818,-0.0438,0.020273
2388.65,723.82,-0.0445,0.0202727
2394.89,724.822,-0.0441,0.02032593
2401.15,725.824,-0.0445,0.0204905
2407.39,726.826,-0.0441,0.02088156
2413.64,727.828,-0.0445,0.0199238
2419.9,728.83,-0.045,0.0204931
2426.16,729.832,-0.0459,0.0197574
2432.44,730.834,-0.0451,0.0205005
2438.71,731.836,-0.0459,0.0200574
2444.98,732.838,-0.0451,0.0197552
2451.26,733.84,-0.0459,0.0202363
2457.55,734.842,-0.0464,0.0201545
2463.83,735.844,-0.0467,0.0199008
2470.12,736.846,-0.0472,0.0200778
2476.41,737.848,-0.0473,0.01978
2482.692,738.85,-0.0467,0.0198992
2488.968,739.852,-0.048,0.01904206
2495.259,740.854,-0.0471,0.0193727
2501.55,741.856,-0.0472,0.0193409
2507.84,742.858,-0.0475,0.0196548
2514.13,743.86,-0.0476,0.0202763
2520.42,744.862,-0.0482,0.020907
2526.71,745.864,-0.0485,0.02109689
2533.01,746.866,-0.0486,0.0213436
2539.296,747.868,-0.048,0.0210978
2545.58,748.87,-0.0481,0.0221017
2551.86,749.872,-0.0486,0.0210735
2558.15,750.874,-0.0491,0.0213133
2564.43,751.876,-0.0492,0.0212949
2570.72,752.878,-0.0493,0.0217754
2577.01,753.88,-0.0496,0.0206049
2583.3,754.882,-0.0498,0.0206968
2589.57,755.884,-0.0504,0.0200474
2595.86,756.886,-0.0496,0.020613
2602.13,757.888,-0.0502,0.0206016
2608.4,758.89,-0.0501,0.0211726
2614.68,759.892,-0.0505,0.0208918
2620.959,760.894,-0.0512,0.0210536
2627.22,761.896,-0.0508,0.0204376
2633.481,762.898,-0.0511,0.019473
2639.75,763.9,-0.0516,0.0202636
2646.02,764.902,-0.0528,0.01985293
2652.28,765.904,-0.0526,0.0204221
2658.54,766.906,-0.0527,0.0197855
2664.8,767.908,-0.0522,0.0200803
2671.05,768.91,-0.0536,0.0201175
2677.31,769.912,-0.0535,0.0197857
2683.554,770.914,-0.0535,0.0200158
2689.8,771.916,-0.0539,0.0204456
2696.05,772.918,-0.0532,0.02053582
2702.3,773.92,-0.054,0.0198801
2708.55,774.922,-0.055,0.0196954
2714.787,775.924,-0.0551,0.0197049
2721.03,776.926,-0.0549,0.0199927
2727.27,777.928,-0.0543,0.01946167
2733.504,778.93,-0.055,0.0195035
2739.74,779.932,-0.0554,0.0200952
2745.97,780.934,-0.0557,0.0200332
2752.19,781.936,-0.0561,0.0195175
2758.42,782.938,-0.0557,0.019737
2764.65,783.94,-0.0559,0.0194157
2770.86,784.942,-0.0562,0.0206879
2777.07,785.944,-0.0569,0.0200283
2783.292,786.946,-0.0557,0.0204889
2789.5,787.948,-0.0571,0.020161
2795.71,788.95,-0.0568,0.0204719
2801.92,789.952,-0.0578,0.0199251
2808.12,790.954,-0.0569,0.0201018
2814.321,791.956,-0.0584,0.0199893
2820.53,792.958,-0.0576,0.02064661
2826.73,793.96,-0.0579,0.0204943
2832.93,794.962,-0.0579,0.0201107
2839.12,795.964,-0.0579,0.0206703
2845.31,796.966,-0.0581,0.020699
2851.49,797.968,-0.0591,0.0205721
2857.68,798.97,-0.0591,0.0206735
2863.866,799.972,-0.0594,0.0205205
2870.05,800.974,-0.0594,0.021065
2876.232,801.976,-0.0599,0.0214252
2882.412,802.978,-0.0603,0.020422
2888.59,803.98,-0.0595,0.0213263
2894.77,804.982,-0.0607,0.0209316
2900.94,805.984,-0.0601,0.02149543
2907.12,806.986,-0.0605,0.0213382
2913.28,807.988,-0.0603,0.0216847
2919.45,808.99,-0.0604,0.0214767
2925.618,809.992,-0.0614,0.0211964
2931.786,810.994,-0.061,0.02163512
2937.95,811.996,-0.0611,0.02162403
2944.11,812.998,-0.0619,0.0213296
2950.27,814,-0.0611,0.0221199
2956.42,815.002,-0.0621,0.0217104
2962.57,816.004,-0.0618,0.0218896
2968.731,817.006,-0.0622,0.02211135
2974.88,818.008,-0.0621,0.0221645
2981.031,819.01,-0.0626,0.0220803
2987.18,820.012,-0.0632,0.0219132
2993.33,821.014,-0.0625,0.02256533
2999.48,822.016,-0.0628,0.0221423
3005.62,823.018,-0.0635,0.0223862
3011.763,824.02,-0.0635,0.0225577
3017.9,825.022,-0.0637,0.0228165
3024.042,826.024,-0.0638,0.02247228
3030.18,827.026,-0.0635,0.0231058
3036.32,828.028,-0.0637,0.023058
3042.45,829.03,-0.0641,0.0231
3048.585,830.032,-0.0643,0.02337
3054.72,831.034,-0.0649,0.0232245
3060.86,832.036,-0.0653,0.022949
3066.99,833.038,-0.0649,0.023671
3073.12,834.04,-0.0655,0.023607
3079.25,835.042,-0.0657,0.02294302
3085.38,836.044,-0.0661,0.02388066
3091.506,837.046,-0.0667,0.0233902
3097.64,838.048,-0.0662,0.02417564
3103.755,839.05,-0.0672,0.024685
3109.87,840.052,-0.0673,0.0243417
3115.992,841.054,-0.0671,0.0240123
3122.11,842.056,-0.0676,0.0250651
3128.23,843.058,-0.0677,0.0238401
3134.35,844.06,-0.0684,0.0242949
3140.48,845.062,-0.0682,0.0245522
3146.61,846.064,-0.0679,0.02518
3152.73,847.066,-0.069,0.0248306
3158.85,848.068,-0.0689,0.0249308
3164.97,849.07,-0.0694,0.0240607
3171.08,850.072,-0.0698,0.025156
3177.198,851.074,-0.0699,0.0255783
3183.32,852.076,-0.0701,0.0246906
3189.432,853.078,-0.0702,0.0252004
3195.54,854.08,-0.0711,0.0251317
3201.66,855.082,-0.0709,0.0255703
3207.77,856.084,-0.0709,0.02609527
3213.89,857.086,-0.0714,0.026087
3220.01,858.088,-0.072,0.0272369
3226.13,859.09,-0.0722,0.0256015
3232.24,860.092,-0.0721,0.0265825
3238.36,861.094,-0.0733,0.0265436
3244.48,862.096,-0.0731,0.0267973
3250.6,863.098,-0.0729,0.0278958
3256.72,864.1,-0.0733,0.0258761
3262.83,865.102,-0.0739,0.0274922
3268.95,866.104,-0.0738,0.02740066
3275.08,867.106,-0.0741,0.0274791
3281.2,868.108,-0.0742,0.0278053
3287.31,869.11,-0.0747,0.027643