File: Non-charring/PMMA/UMD/UMD_CAPA_25kW_Temp.csv
Relative Time [s],Mass,"Temp_avg, all4 [K]",Error
[s],[g],[K],[K]
0,0,297.549,0.87668
1.862,0,297.382,0.892541
3.724,0,297.487,0.90133
5.586,0,297.483,0.901752
7.449,0,297.407,0.873486
9.311,0,297.509,0.926198
11.173,0,297.457,0.939413
13.035,0,297.545,0.913942
14.897,0,297.666,0.910228
16.759,0,297.842,0.906439
18.623,0,298.195,0.950602
20.485,0,298.486,0.987086
22.347,0,298.997,0.970084
24.209,0,299.525,0.961246
26.071,0,300.236,1.01545
27.933,0,300.939,1.00677
29.795,0,301.805,1.05355
31.658,0,302.73,1.06976
33.52,0,303.833,1.04607
35.382,0,304.974,1.07934
37.244,0,305.943,1.10954
39.105,0,307.175,1.1197
40.968,0,308.502,1.1555
42.83,0,309.778,1.1583
44.692,0,311.246,1.17956
46.554,0,312.599,1.2089
48.416,0,314.125,1.20692
50.278,0,315.461,1.24036
52.14,0,316.785,1.27114
54.002,0,318.255,1.30335
55.865,0,319.983,1.29609
57.727,0,321.593,1.31995
59.589,0,323.148,1.31451
61.451,0,324.953,1.3257
63.313,0,326.606,1.36025
65.176,0,328.238,1.33665
67.038,0,329.877,1.37361
68.9,0,331.557,1.39044
70.762,0,333.297,1.38455
72.624,0,334.996,1.40165
74.486,0,336.539,1.43717
76.349,0,338.3,1.44772
78.211,0,339.958,1.46937
80.073,0,341.558,1.45378
81.935,0,343.329,1.48538
83.797,0,344.994,1.49029
85.659,0,346.693,1.49131
87.522,0,348.287,1.50457
89.384,0,350.021,1.48836
91.246,0,351.639,1.51054
93.108,0,353.258,1.53165
94.97,0,354.986,1.53135
96.832,0,356.381,1.47667
98.695,0,358.079,1.51904
100.557,0,359.752,1.51237
102.419,0,361.366,1.54543
104.281,0,362.959,1.53188
106.143,0,364.532,1.55259
108.004,0,366.113,1.55265
109.867,0,367.612,1.53177
111.729,0,369.114,1.55745
113.591,0,370.645,1.55532
115.453,0,372.091,1.53548
117.316,0,373.564,1.5446
119.177,0,374.959,1.53064
121.041,0,376.332,1.49866
122.903,0,377.676,1.48174
124.766,0,378.959,1.43907
126.628,0,380.075,1.41322
128.489,0,381.232,1.39225
130.351,0,382.379,1.34981
132.213,0,383.452,1.28777
134.076,0,384.506,1.21432
135.938,0,385.547,1.15571
137.8,0,386.688,1.13106
139.662,0,387.848,1.1259
141.524,0,389.03,1.12785
143.386,0,390.162,1.1262
145.249,0,391.265,1.13553
147.111,0,392.447,1.17381
148.973,0,393.67,1.18646
150.835,0,394.842,1.21805
152.697,0,395.981,1.23336
154.559,0,397.23,1.259
156.422,0,398.467,1.28553
158.284,0,399.675,1.30254
160.146,0,400.762,1.28019
162.008,0,401.811,1.24976
163.871,0,402.89,1.23955
165.733,0,403.964,1.24105
167.595,0,404.948,1.2316
169.458,0,406.008,1.23515
171.32,0,406.91,1.21691
173.182,0,407.988,1.20137
175.044,0,408.993,1.18728
176.905,0,410.027,1.18531
178.767,0,411.071,1.18632
180.63,0,412.145,1.18387
182.492,0,413.136,1.20969
184.355,0,414.145,1.21975
186.217,0,415.157,1.22369
188.079,0,416.145,1.19951
189.941,0,417.15,1.21002
191.804,0,418.157,1.21345
193.666,0,419.127,1.20846
195.528,0,419.997,1.20044
197.39,0,421.019,1.21222
199.252,0,421.983,1.21471
201.114,0,422.894,1.21802
202.977,0,423.772,1.21987
204.839,0,424.7021,1.20549
206.701,0,425.568,1.21697
208.562,0,426.479,1.202
210.424,0,427.348,1.19369
212.286,0,428.221,1.1983
214.148,0,429.033,1.1913
216.011,0,429.938,1.18577
217.873,0,430.76,1.19392
219.735,0,431.636,1.18857
221.597,0,432.488,1.19649
223.459,0,433.338,1.19882
225.321,0,434.116,1.20062
227.184,0,434.967,1.22289
229.046,0,435.722,1.23715
230.908,0,436.536,1.22604
232.77,0,437.222,1.22682
234.632,0,437.969,1.22774
236.494,0,438.727,1.22169
238.357,0,439.435,1.22673
240.351,0,440.164,1.23604
242.215,0,440.816,1.20247
244.076,0,441.346,1.18035
245.938,0,442.045,1.17371
247.8,0,442.493,1.21176
249.663,0,442.731,1.28984
251.525,0,443.232,1.31452
253.387,0,443.818,1.35353
255.249,0,444.441,1.40439
257.111,0,445.085,1.42262
258.973,0,445.784,1.43433
260.836,0,446.409,1.43246
262.699,0,447.077,1.45282
264.561,0,447.682,1.44828
266.423,0,448.301,1.45497
268.285,0,448.975,1.45286
270.147,0,449.604,1.46817
272.007,0,450.241,1.46452
273.872,0,450.807,1.46518
275.734,0,451.41,1.46591
277.596,0,452.02,1.48845
279.458,0,452.582,1.47365
281.32,0,453.145,1.48999
283.182,0,453.741,1.46431
285.045,0,454.327,1.46761
286.907,0,454.831,1.4755
288.768,0,455.488,1.47801
290.631,0,456.041,1.48912
292.493,0,456.63,1.48685
294.355,0,457.051,1.48351
296.217,0,457.606,1.48751
298.08,0,458.107,1.48876
299.942,0,458.633,1.4949
301.804,0,459.113,1.46944
303.666,0,459.66,1.48768
305.528,0,460.234,1.50251
307.39,0,460.713,1.48515
309.253,0,461.304,1.47599
311.115,0,461.859,1.47391
312.977,0,462.297,1.47824
314.839,0,462.855,1.50164
316.701,0,463.33,1.49602
318.562,0,463.823,1.47588
320.425,0,464.293,1.47185
322.288,0,464.849,1.4773
324.15,0,465.219,1.4693
326.012,0,465.712,1.47501
327.874,0,466.217,1.49006
329.736,0,466.693,1.45496
331.599,0,467.2,1.49431
333.461,0,467.668,1.50891
335.322,0,468.108,1.5108
337.184,0,468.554,1.52657
339.046,0,468.966,1.52347
340.908,0,469.324,1.53225
342.771,0,469.795,1.52091
344.633,0,470.179,1.5067
346.495,0,470.62,1.52777
348.357,0,471.029,1.53321
350.219,0,471.35,1.51325
352.081,0,471.781,1.50541
353.943,0,472.154,1.51976
355.806,0,472.563,1.51077
357.668,0,472.947,1.49408
359.53,0,473.35,1.52486
361.525,0,473.789,1.53217
363.387,0,474.212,1.52916
365.249,0,474.76,1.50581
367.112,0,475.006,1.49394
368.974,0,475.388,1.46781
370.836,0,475.864,1.45509
372.698,0,476.263,1.43568
374.56,0,476.625,1.41412
376.422,0,477.018,1.41349
378.285,0,477.301,1.45232
380.147,0,477.567,1.42859
382.009,0,477.978,1.45355
383.871,0,478.358,1.4415
385.733,0,478.662,1.44855
387.595,0,478.949,1.44091
389.458,0,479.101,1.44371
391.32,0,479.557,1.35974
393.182,0,480.043,1.34039
395.044,0,480.442,1.35136
396.906,0,480.801,1.3388
398.768,0,481.258,1.36972
400.63,0,481.65,1.37696
402.493,0,481.872,1.35934
404.355,0,482.238,1.351
406.217,0,482.76,1.34794
408.079,0,483.069,1.32547
409.941,0,483.407,1.34954
411.803,0,483.651,1.34067
413.666,0,483.947,1.36907
415.528,0,484.302,1.32525
417.39,0,484.652,1.3299
419.252,0,485.079,1.31722
421.114,0,485.42,1.32971
423.11,0,485.643,1.33394
424.972,0,485.965,1.32223
426.835,0,486.248,1.30945
428.697,0,486.406,1.31379
430.559,0,486.712,1.29584
432.421,0,486.802,1.3044
434.283,0,487.184,1.32679
436.145,0,487.496,1.33457
438.007,0,487.809,1.29692
439.869,0,488.049,1.28765
441.731,0,488.323,1.30412
443.593,0,488.605,1.31865
445.455,0,488.954,1.33061
447.317,0,489.345,1.34493
449.18,0,489.503,1.32312
451.042,0,489.746,1.30791
452.904,0,490.14,1.3266
454.766,0,490.29,1.31401
456.628,0,490.643,1.32589
458.49,0,490.845,1.31721
460.352,0,491.144,1.31293
462.215,0,491.309,1.3448
464.077,0,491.554,1.34701
465.939,0,491.666,1.35445
467.801,0,491.968,1.3576
469.663,0,492.214,1.38419
471.526,0,492.322,1.36514
473.388,0,492.525,1.35668
475.25,0,492.962,1.37104
477.112,0,493.099,1.35578
478.974,0,493.461,1.32389
480.836,0,493.762,1.33959
482.698,0,493.95,1.31201
484.56,0,494.228,1.32577
486.556,0,494.478,1.32717
488.418,0,494.821,1.32783
490.28,0,495.014,1.35313
492.142,0,495.337,1.37596
494.004,0,495.626,1.34828
495.867,0,495.837,1.34744
497.729,0,496.147,1.34778
499.591,0,496.401,1.35498
501.453,0,496.591,1.29568
503.315,0,496.883,1.31088
505.177,0,497.018,1.33015
507.04,0,497.288,1.32754
508.902,0,497.643,1.33867
510.764,0,497.825,1.33156
512.626,0,498.1,1.34824
514.488,0,498.364,1.37252
516.35,0,498.473,1.34329
518.212,0,498.937,1.37076
520.075,0,499.189,1.3637
521.937,0,499.491,1.38022
523.799,0,499.835,1.37634
525.661,0,499.972,1.36742
527.523,0,500.197,1.3706
529.385,0,500.477,1.34299
531.248,0,500.936,1.37384
533.11,0,500.987,1.34017
534.972,0,501.141,1.33176
536.834,0,501.645,1.38593
538.696,0,501.824,1.39134
540.558,0,502.082,1.44753
542.421,0,502.115,1.42094
544.283,0,502.369,1.42811
546.145,0,502.623,1.42367
548.007,0,502.833,1.4247
549.869,0,503.152,1.40436
551.731,0,503.444,1.45237
553.593,0,503.812,1.44335
555.456,0,504.054,1.43173
557.318,0,504.326,1.42213
559.18,0,504.527,1.43328
561.042,0,504.868,1.44135
562.904,0,505.098,1.46287
564.766,0,505.385,1.46086
566.629,0,505.829,1.51649
568.491,0,506.015,1.47978
570.353,0,506.338,1.4874
572.215,0,506.581,1.46335
574.077,0,506.827,1.47539
575.939,0,507.103,1.50967
577.802,0,507.394,1.52616
579.664,0,507.733,1.55492
581.526,0,507.993,1.52385
583.388,0,508.264,1.53538
585.25,0,508.448,1.56903
587.112,0,508.915,1.60032
588.974,0,509.203,1.61966
590.837,0,509.484,1.63774
592.699,0,509.818,1.63993
594.561,0,510.149,1.69693
596.423,0,510.293,1.63946
598.285,0,510.665,1.64293
600.147,0,510.818,1.62547
602.01,0,511.259,1.70163
603.872,0,511.463,1.66508
605.734,0,511.703,1.65365
607.596,0,511.912,1.70006
609.458,0,512.076,1.70609
611.32,0,512.282,1.70628
613.182,0,512.686,1.77808
615.045,0,512.768,1.79246
617.042,0,513.278,1.81124
618.902,0,513.498,1.83064
620.764,0,513.841,1.79276
622.626,0,514.022,1.8166
624.488,0,514.467,1.8394
626.353,0,514.869,1.88373
628.215,0,514.995,1.83559
630.076,0,515.194,1.84751
631.938,0,515.513,1.78234
633.799,0,515.877,1.8323
635.661,0,516.172,1.84332
637.524,0,516.359,1.87667
639.386,0,516.621,1.83763
641.248,0,516.91,1.85134
643.11,0,517.123,1.81966
644.972,0,517.331,1.837
646.834,0,517.778,1.84526
648.696,0,518.047,1.8485
650.559,0,518.162,1.85307
652.421,0,518.333,1.82506
654.283,0,518.676,1.90933
656.145,0,518.866,1.86899
658.007,0,519.232,1.91074
659.869,0,519.288,1.92595
661.732,0,519.524,1.91968
663.594,0,519.974,1.95717
665.456,0,520.267,2.02381
667.318,0,520.657,2.0156
669.18,0,520.951,1.99487
671.043,0,521.181,2.06336
672.905,0,521.39,2.03364
674.767,0,521.785,2.0683
676.629,0,522.013,2.09575
678.491,0,522.308,2.08002
680.353,0,522.492,2.0771
682.215,0,522.855,2.12266
684.078,0,523.138,2.12299
685.94,0,523.382,2.16822
687.802,0,523.657,2.15719
689.664,0,523.741,2.17181
691.526,0,523.991,2.13987
693.388,0,524.446,2.18951
695.25,0,524.773,2.2035
697.113,0,524.965,2.2113
698.975,0,525.128,2.23078
700.837,0,525.513,2.20105
702.699,0,525.789,2.20892
704.561,0,526.14,2.2444
706.423,0,526.124,2.20032
708.287,0,526.381,2.17836
710.283,0,526.588,2.25783
712.145,0,527.142,2.3329
714.007,0,527.47,2.34295
715.869,0,527.811,2.31401
717.731,0,528.049,2.30645
719.593,0,528.324,2.33883
721.456,0,528.612,2.25063
723.318,0,528.867,2.29773
725.18,0,529.124,2.27849
727.042,0,529.24,2.22349
728.904,0,529.558,2.30948
730.766,0,529.592,2.2585
732.629,0,529.951,2.25945
734.491,0,530.423,2.33555
736.353,0,530.683,2.37509
738.215,0,530.924,2.35025
740.076,0,531.049,2.34353
741.938,0,531.398,2.36992
743.801,0,531.743,2.36706
745.662,0,531.92,2.36233
747.524,0,532.228,2.33359
749.386,0,532.521,2.40386
751.248,0,532.776,2.34581
753.11,0,532.964,2.38508
754.973,0,533.204,2.40823
756.835,0,533.66,2.42644
758.697,0,533.843,2.42638
760.559,0,534,2.41753
762.421,0,534.461,2.45013
764.283,0,534.653,2.49062
766.145,0,534.762,2.41226
768.007,0,535.014,2.49349
769.87,0,535.403,2.47899
771.732,0,535.76,2.52334
773.594,0,535.976,2.51994
775.456,0,536.247,2.5682
777.318,0,536.361,2.53562
779.18,0,536.329,2.51417
781.043,0,536.496,2.46584
782.905,0,536.944,2.56903
784.767,0,537.179,2.54964
786.629,0,537.253,2.54569
788.491,0,537.681,2.63938
790.353,0,537.774,2.63061
792.215,0,537.951,2.57363
794.078,0,538.192,2.64258
795.94,0,538.226,2.64196
797.804,0,538.516,2.6105
799.666,0,538.9,2.71323
801.528,0,539.104,2.69787
803.391,0,539.306,2.70128
805.253,0,539.391,2.68718
807.115,0,539.784,2.72292
808.977,0,540.285,2.80399
810.839,0,540.263,2.75038
812.701,0,540.392,2.56888
814.563,0,540.778,2.79357
816.425,0,540.866,2.75187
818.288,0,540.981,2.75138
820.15,0,541.063,2.77179
822.012,0,541.29,2.81411
823.874,0,541.283,2.72702
825.735,0,541.748,2.7951
827.606,0,542.031,2.84044
829.593,0,542.342,2.83964
831.455,0,542.37,2.81173
833.317,0,542.593,2.90192
835.179,0,542.446,2.82748
837.04,0,542.704,2.91525
838.902,0,542.99,2.91189
840.765,0,543.206,2.87545
842.627,0,543.62,2.97294
844.489,0,543.594,2.87373
846.351,0,543.938,2.96516
848.213,0,543.898,2.85476
850.075,0,544.236,2.92429
851.937,0,544.639,2.96362
853.8,0,544.842,2.97344
855.662,0,544.756,2.96704
857.524,0,545.039,3.00735
859.386,0,545.235,3.0355
861.248,0,545.337,3.11394
863.11,0,545.38,3.13288
864.973,0,545.505,3.11302
866.835,0,545.456,3.0636
868.697,0,545.814,3.07381
870.559,0,545.584,3.05259
872.421,0,545.859,3.11752
874.283,0,545.984,3.12831
876.146,0,546.168,3.14463
878.008,0,546.142,3.09056
879.87,0,546.409,3.09054
881.732,0,546.518,3.19977
883.594,0,546.69,3.16329
885.456,0,546.674,3.17983
887.318,0,546.832,3.10246
889.181,0,547.109,3.14142
891.043,0,547.424,3.16529
892.905,0,547.615,3.09342
894.767,0,548.231,3.07009
896.629,0,548.681,3.04196
898.491,0,549.033,3.04184
900.353,0,548.94,2.99805
902.216,0,549.325,2.99472
904.078,0,549.657,2.97265
906.073,0,549.847,2.88816
907.935,0,550.248,2.93568
909.797,0,550.373,2.82732
911.659,0,550.755,2.80367
913.522,0,551.14,2.81614
915.384,0,551.366,2.7667
917.246,0,551.954,2.70928
919.108,0,552.564,2.62152
920.97,0,552.656,2.58191
922.832,0,553.225,2.70363
924.694,0,553.494,2.62232
926.557,0,553.817,2.574
928.421,0,553.958,2.526
930.281,0,554.145,2.51283
932.143,0,554.229,2.49208
934.005,0,554.134,2.42197
935.867,0,554.762,2.55616
937.73,0,555.367,2.5107
939.592,0,555.529,2.58368
941.454,0,556.036,2.6259
943.316,0,556.11,2.6294
945.178,0,556.692,2.68265
947.04,0,557.239,2.74298
948.903,0,557.694,2.78446
950.765,0,558.342,2.81829
952.627,0,558.514,2.78675
954.489,0,559.365,2.83833
956.351,0,559.681,2.84981
958.213,0,560.193,2.83943
960.075,0,560.709,2.84958
961.938,0,561.016,2.86329
963.8,0,561.396,2.83815
965.662,0,561.758,2.78191
967.524,0,562.041,2.77881
969.386,0,562.443,2.83119
971.248,0,562.653,2.74964
973.111,0,563.188,2.80004
974.973,0,563.452,2.81902
976.835,0,564.028,2.8701
978.697,0,564.295,2.93673
980.559,0,564.717,2.89135
982.421,0,564.736,2.90336
984.549,0,565.467,2.91222
986.412,0,566.829,3.13479
988.274,0,567.738,3.31813
990.136,0,568.859,3.51561
991.998,0,569.495,3.58807
993.86,0,570.05,3.72163
995.722,0,570.28,3.85833
997.585,0,571.243,3.95785
999.447,0,571.176,3.95571
1001.309,0,571.937,4.11526
1003.171,0,572.419,4.17877
1005.033,0,573.26,4.22013
1006.895,0,573.917,4.37608
1008.757,0,574.341,4.47654
1010.62,0,574.871,4.5492
1012.482,0,575.398,4.58857
1014.344,0,575.569,4.63192
1016.206,0,576.381,4.73197
1018.068,0,576.177,4.71557
1019.93,0,576.735,4.6896
1021.792,0,577.251,4.7157
1023.655,0,577.59,4.7997
1025.517,0,578.429,4.89533
1027.379,0,578.796,4.89344
1029.241,0,579.528,4.91488
1031.103,0,579.845,4.94527
1032.966,0,579.88,4.99299
1034.828,0,580.135,4.9616
1036.69,0,580.853,5.00636
1038.552,0,580.87,4.86477
1040.415,0,581.434,4.96638
1042.276,0,581.781,5.03221
1044.138,0,582.187,5.10287
1046,0,582.574,5.08937
1047.863,0,583.032,5.07581
1049.725,0,583.883,5.16246
1051.587,0,584.017,5.21853
1053.449,0,584.622,5.15543
1055.311,0,585.386,5.29837
1057.173,0,586.156,5.46698
1059.036,0,586.419,5.44091
1060.898,0,587.375,5.63023
1062.76,0,587.807,5.70684
1064.622,0,588.265,5.7292
1066.62,0,588.529,5.74455
1068.612,0,588.804,5.73821
1070.475,0,589.231,5.72746
1072.337,0,589.729,5.79615
1074.199,0,590.362,5.81456
1076.061,0,590.884,5.87289
1077.923,0,590.931,5.82916
1079.785,0,591.45,5.98312
1081.647,0,591.795,6.05501
1083.509,0,592.249,6.09388
1085.372,0,592.94,6.20656
1087.234,0,593.466,6.12593
1089.096,0,593.977,6.1276
1090.958,0,594.793,6.1494
1092.82,0,595.802,6.2046
1094.683,0,596.089,6.06104
1096.545,0,597.076,6.05861
1098.407,0,597.755,6.09183
1100.269,0,598.494,6.11974
1102.131,0,599.3,6.12024
1103.993,0,600.124,6.01647
1105.855,0,600.41,5.95513
1107.718,0,601.114,6.09735
1109.58,0,601.377,6.02824
1111.442,0,602.08,6.09918
1113.306,0,602.424,6.10197
1115.168,0,603.033,6.19654
1117.03,0,603.095,6.15585
1118.893,0,603.09,5.98058
1120.755,0,603.38,5.89892
1122.617,0,604.837,6.16907
1124.479,0,605.047,6.22322
1126.341,0,605.812,6.20757
1128.203,0,606.526,6.3706
1130.065,0,606.912,6.27987
1131.927,0,607.245,6.30575
1133.79,0,607.588,6.29213
1135.652,0,607.928,6.27462
1137.514,0,608.472,6.21402
1139.376,0,609.274,6.15708
1141.237,0,609.598,6.18288
1143.099,0,610.055,6.12663
1144.962,0,610.81,6.11396
1146.824,0,610.98,6.0998
1148.686,0,611.648,6.32628
1150.548,0,612.456,6.16328
1152.41,0,612.774,6.2496
1154.272,0,613.473,6.19141
1156.135,0,614.129,6.20824
1157.997,0,614.278,6.19389
1159.859,0,614.462,6.19018
1161.721,0,614.822,6.13521
1163.583,0,615.675,6.23207
1165.445,0,616.078,6.19697
1167.307,0,616.872,6.38061
1169.17,0,616.847,6.39387
1171.032,0,617.68,6.30835
1172.894,0,618.09,6.15465
1174.756,0,618.533,5.91587
1176.617,0,618.817,5.87212
1178.479,0,619.199,5.96851
1180.341,0,620.264,5.88612
1182.204,0,620.735,5.80774
1184.066,0,620.98,5.68266
1185.928,0,621.494,5.5541
1187.79,0,622.467,5.74598
1189.652,0,622.653,5.62235
1191.515,0,623.153,5.57067
1193.377,0,623.981,5.584
1195.239,0,624.617,5.56341
1197.101,0,625.306,5.52804
1198.963,0,625.629,5.47147
1200.825,0,625.642,5.33333
1202.687,0,626.603,5.48116
1204.55,0,627.256,5.56374
1206.412,0,627.296,5.57038
1208.274,0,627.664,5.5539
1210.136,0,628.098,5.40855
1211.998,0,628.972,5.36881
1213.86,0,629.831,5.42052
1215.722,0,629.971,5.29304
1217.585,0,629.954,5.23195
1219.447,0,630.569,5.27526
1221.309,0,631.206,5.29643
1223.171,0,631.509,5.2875
1225.035,0,631.497,5.06034
1226.897,0,632.366,5.18715
1228.759,0,632.753,5.20226
1230.621,0,633.686,5.23879
1232.484,0,634.135,5.14887
1234.346,0,634.41,5.15905
1236.208,0,634.946,5.03505
1238.07,0,635.135,5.00824
1239.932,0,635.684,4.96971
1241.794,0,635.697,5.03302
1243.79,0,637.005,5.09201
1245.785,0,637.051,4.93994
1247.647,0,636.874,4.86013
1249.509,0,637.714,4.83923
1251.371,0,638.197,4.83894
1253.233,0,638.732,4.88897
1255.096,0,638.813,4.94726
1256.958,0,639.471,4.72929
1258.82,0,639.69,4.68137
1260.682,0,640.028,4.56369
1262.544,0,640.672,4.38249
1264.406,0,640.872,4.41275
1266.268,0,641.541,4.49242
1268.131,0,642.023,4.3565
1269.993,0,642.096,4.09
1271.855,0,642.872,4.03241
1273.717,0,643.068,3.92725
1275.579,0,643.159,3.96607
1277.441,0,644.151,3.9689
1279.304,0,644.462,3.6081
1281.166,0,644.975,3.75902
1283.028,0,645.566,3.75063
1284.889,0,646.364,3.87184
1286.751,0,646.406,3.79065
1288.613,0,647.535,3.93612
1290.475,0,647.537,3.82719
1292.338,0,647.899,3.78695
1294.199,0,647.88,3.69399
1296.061,0,648.64,3.64891
1297.923,0,648.703,3.69421
1299.785,0,649.88,3.80322
1301.647,0,650.245,3.75933
1303.51,0,650.021,3.60227
1305.372,0,650.655,3.56976
1307.234,0,650.907,3.52103
1309.096,0,651.847,3.5856
1310.958,0,651.609,3.41985
1312.82,0,652.067,3.42176
1314.682,0,652.07,3.34483
1316.546,0,652.137,3.21088
1318.409,0,652.786,3.35978
1320.271,0,653.183,3.38595
1322.133,0,653.025,3.27026
1323.994,0,653.647,3.31302
1325.855,0,654.145,3.29916
1327.718,0,654.281,3.21738
1329.58,0,654.272,3.18613
1331.442,0,653.998,2.93758
1333.304,0,654.444,2.94528
1335.166,0,654.495,3.03631
1337.028,0,655.029,2.95343
1338.893,0,655.255,2.88359
1340.753,0,655.686,2.97777
1342.615,0,655.669,2.85152
1344.477,0,656.463,2.87927
1346.339,0,656.694,2.92308
1348.201,0,657.121,2.796
1350.063,0,657.14,2.76544
1351.925,0,657.292,2.88962
1353.788,0,657.1134,2.81768
1355.65,0,657.098,2.64988
1357.512,0,657.565,2.71716
1359.376,0,657.805,2.6709
1361.238,0,658.11,2.71273
1363.1,0,658.416,2.72157
1364.962,0,658.93,2.72023
1366.824,0,658.745,2.59767
1368.686,0,659.189,2.66825
1370.548,0,658.955,2.53532
1372.41,0,659.536,2.51873
1374.272,0,659.824,2.57055
1376.134,0,659.75,2.52993
1377.996,0,660.082,2.65132
1379.859,0,660.044,2.54085
1381.722,0,660.433,2.60709
1383.584,0,660.953,2.5533
1385.446,0,660.797,2.51297
1387.308,0,660.524,2.4156
1389.171,0,659.947,2.27304
1391.033,0,660.969,2.46239
1392.894,0,661.479,2.48883
1394.756,0,661.058,2.49287
1396.618,0,661.221,2.36169
1398.48,0,661.485,2.32591
1400.342,0,661.895,2.44859
1402.205,0,661.767,2.3727
1404.067,0,662.006,2.25093
1405.928,0,663.048,2.45505
1407.79,0,662.712,2.3948
1409.652,0,662.94,2.45483
1411.514,0,663.062,2.39829
1413.376,0,662.78,2.17886
1415.24,0,662.89,2.27854
1417.103,0,663.292,2.41349
1418.965,0,663.538,2.41358
1420.827,0,662.222,2.1828
1422.687,0,663.112,2.32269
1424.549,0,662.709,2.24305
1426.412,0,663.282,2.19617
1428.274,0,663.291,2.3005
1430.136,0,662.855,2.1833
1432,0,663.271,2.27153
1433.862,0,662.895,2.1333
1435.724,0,663.213,2.21582
1437.586,0,662.999,2.17206
1439.448,0,663.74,2.24051
1441.311,0,663.634,2.18575
1443.173,0,663.987,2.30981
1445.035,0,663.706,2.14428
1446.897,0,663.797,2.1622
1448.759,0,663.677,2.20232
1450.622,0,663.721,2.20364
1452.484,0,663.481,2.17637
1454.346,0,663.502,2.1546
1456.208,0,663.652,2.16284
1458.07,0,663.684,2.14335
1459.932,0,664.23,2.31154
1461.794,0,664.894,2.25089
1463.656,0,664.157,2.01594
1465.519,0,664.68,2.12705
1467.381,0,665.578,2.33833
1469.243,0,666.175,2.42183
1471.105,0,665.068,2.35266
1472.967,0,665.207,2.3296
1474.829,0,665.104,2.2299
1476.692,0,664.694,2.13442
1478.553,0,665.412,2.22559
1480.415,0,665.423,2.28544
1482.278,0,664.993,2.21614
1484.14,0,665.815,2.46473
1486.002,0,665.588,2.24298
1487.864,0,666.054,2.2679
1489.727,0,666.016,2.23478
1491.587,0,666.469,2.23366
1493.449,0,665.553,2.03093
1495.311,0,665.452,2.08616
1497.173,0,665.435,2.10762
1499.035,0,665.357,2.14782
1500.897,0,665.282,2.12611
1502.76,0,665.413,2.29278
1504.624,0,667.248,2.41773
1506.486,0,667.234,2.26187
1508.348,0,666.607,2.25166
1510.209,0,666.502,2.22423
1512.071,0,666.139,2.18734
1513.933,0,666.902,2.2536
1515.796,0,667.256,2.36658
1517.658,0,666.635,2.35277
1519.521,0,666.695,2.47099
1521.383,0,667.685,2.35784
1523.245,0,667.514,2.3715
1525.107,0,666.794,2.24848
1526.97,0,667.253,2.27405
1528.832,0,666.875,2.03304
1530.694,0,666.896,2.14353
1532.556,0,666.573,2.06519
1534.418,0,666.289,2.10185
1536.28,0,666.803,2.31125
1538.141,0,665.979,2.20995
1540.005,0,666.408,2.30293
1541.867,0,666.088,2.359
1543.728,0,665.425,2.12772
1545.59,0,666.385,2.27843
1547.452,0,666.562,2.33853
1549.314,0,666.667,2.233
1551.177,0,667.091,2.30243
1553.038,0,667.256,2.256
1555.033,0,667.517,2.14018
1556.895,0,666.86,2.20498
1558.757,0,666.983,2.2096
1560.619,0,667.45,2.41976
1562.481,0,667.192,2.22765
1564.344,0,667.087,2.23886
1566.206,0,666.807,2.1529
1568.068,0,666.971,2.16827
1569.93,0,666.501,2.12317
1571.792,0,667.056,2.13277
1573.656,0,666.485,2.14715
1575.518,0,667.491,2.23363
1577.38,0,667.288,2.27684
1579.241,0,667.236,2.29989
1581.103,0,667.102,2.23942
1582.965,0,666.56,2.15913
1584.827,0,666.62,2.33893
1586.689,0,665.972,2.11706
1588.554,0,667.164,2.32249
1590.416,0,666.761,2.26155
1592.278,0,666.602,2.25083
1594.138,0,667.503,2.3435
1596.002,0,667.428,2.49025
1597.864,0,668.017,2.25594
1599.726,0,667.215,2.22936
1601.587,0,667.277,2.41302
1603.449,0,667.381,2.47352
1605.311,0,666.852,2.161
1607.173,0,667.475,2.40981
1609.287,0,666.697,2.3172
1611.035,0,667.33,2.27441
1612.897,0,667.746,2.37033
1614.893,0,667.554,2.3722
1616.755,0,667.166,2.27704
1618.613,0,667.533,2.33655
1620.475,0,667.492,2.28313
1622.337,0,668.268,2.37524
1624.199,0,667.737,2.39692
1626.062,0,667.766,2.17408
1627.925,0,667.426,2.31748
1629.787,0,666.175,2.33336
1631.649,0,667.022,2.16001
1633.509,0,666.289,2.32615
1635.371,0,666.653,2.31621
1637.233,0,666.835,2.30094
1639.095,0,666.378,2.34575
1640.96,0,667.635,2.37149
1642.822,0,667.262,2.23396
1644.684,0,667.069,2.22912
1646.546,0,667.86,2.1916
1648.408,0,666.656,2.0491
1650.27,0,667.324,2.30545
1652.132,0,666.621,2.19108
1653.994,0,666.291,2.16636
1655.856,0,667.674,2.43296
1657.717,0,667.712,2.06558
1659.579,0,667.603,2.35463
1661.441,0,667.827,2.40997
1663.305,0,667.229,2.41126
1665.167,0,667.697,2.4107
1667.029,0,668.693,2.45904
1669.024,0,667.462,2.33469
1670.886,0,667.336,2.37408
1672.748,0,666.528,2.30887
1674.61,0,666.795,2.43802
1676.473,0,666.32,2.36567
1678.335,0,666.231,2.2521
1680.197,0,666.529,2.49196
1682.059,0,666.613,2.37677