File: Wood/Calibration_Data/UMET/UMET_TGA_N2_10K_R1.csv
Time (s),Temperature (K),Mass (mg)
0,313.134,4.0284
6,314.134,4.0268
12,315.134,4.0271
18,316.134,4.0291
24,317.134,4.0301
30,318.134,4.0304
36,319.134,4.0298
42,320.134,4.0292
48,321.134,4.0294
54,322.134,4.0294
60,323.134,4.0297
66,324.134,4.0297
72,325.134,4.0296
78,326.134,4.0296
84,327.134,4.0296
90,328.134,4.0295
96,329.134,4.0293
102,330.134,4.0292
108,331.134,4.0293
114,332.134,4.0293
120,333.134,4.0293
126,334.134,4.0294
132,335.134,4.0298
138,336.134,4.0303
144,337.134,4.0298
150,338.134,4.0294
156,339.134,4.0295
162,340.134,4.0297
168,341.134,4.0292
174,342.134,4.0291
180,343.134,4.0282
186,344.134,4.0276
192,345.134,4.0277
198,346.134,4.0277
204,347.134,4.027
210,348.134,4.0267
216,349.134,4.027
222,350.134,4.0273
228,351.134,4.0276
234,352.134,4.0278
240,353.134,4.0282
246,354.134,4.0283
252,355.134,4.0279
258,356.134,4.0276
264,357.134,4.0274
270,358.134,4.0274
276,359.134,4.0275
282,360.134,4.0273
288,361.134,4.0274
294,362.134,4.0276
300,363.134,4.027
306,364.134,4.0266
312,365.134,4.0262
318,366.134,4.0265
324,367.134,4.0267
330,368.134,4.0269
336,369.134,4.0276
342,370.134,4.0277
348,371.134,4.0276
354,372.134,4.0274
360,373.134,4.0277
366,374.134,4.0278
372,375.134,4.0274
378,376.134,4.0272
384,377.134,4.0275
390,378.134,4.0272
396,379.134,4.0268
402,380.134,4.0271
408,381.134,4.0269
414,382.134,4.0271
420,383.134,4.0269
426,384.134,4.0268
432,385.134,4.0267
438,386.134,4.0266
444,387.134,4.0266
450,388.134,4.0264
456,389.134,4.0263
462,390.134,4.0265
468,391.134,4.0263
474,392.134,4.0262
480,393.134,4.026
486,394.134,4.026
492,395.134,4.0258
498,396.134,4.0258
504,397.134,4.0257
510,398.134,4.0253
516,399.134,4.0251
522,400.134,4.0252
528,401.134,4.0254
534,402.134,4.025
540,403.134,4.0249
546,404.134,4.0249
552,405.134,4.0247
558,406.134,4.0243
564,407.134,4.0238
570,408.134,4.0236
576,409.134,4.0232
582,410.134,4.0228
588,411.134,4.0228
594,412.134,4.0231
600,413.134,4.0227
606,414.134,4.0216
612,415.134,4.0208
618,416.134,4.0205
624,417.134,4.0202
630,418.134,4.0203
636,419.134,4.0202
642,420.134,4.0197
648,421.134,4.0192
654,422.134,4.019
660,423.134,4.019
666,424.134,4.0187
672,425.134,4.0181
678,426.134,4.0169
684,427.134,4.0165
690,428.134,4.0166
696,429.134,4.0158
702,430.134,4.015
708,431.134,4.0142
714,432.134,4.0131
720,433.134,4.0121
726,434.134,4.0117
732,435.134,4.0114
738,436.134,4.0104
744,437.134,4.0096
750,438.134,4.0086
756,439.134,4.0075
762,440.134,4.0063
768,441.134,4.0051
774,442.134,4.0046
780,443.134,4.0035
786,444.134,4.0023
792,445.134,4.0007
798,446.134,3.9993
804,447.134,3.9977
810,448.134,3.9961
816,449.134,3.9949
822,450.134,3.9935
828,451.134,3.9914
834,452.134,3.9892
840,453.134,3.9874
846,454.134,3.9857
852,455.134,3.9838
858,456.134,3.9808
864,457.134,3.9784
870,458.134,3.9764
876,459.134,3.9742
882,460.134,3.9718
888,461.134,3.9702
894,462.134,3.9683
900,463.134,3.9663
906,464.134,3.9638
912,465.134,3.9614
918,466.134,3.9594
924,467.134,3.9572
930,468.134,3.9551
936,469.134,3.9528
942,470.134,3.9505
948,471.134,3.9476
954,472.134,3.9436
960,473.134,3.9406
966,474.134,3.9397
972,475.134,3.9367
978,476.134,3.9346
984,477.134,3.9331
990,478.134,3.931
996,479.134,3.9286
1002,480.134,3.9259
1008,481.134,3.9237
1014,482.134,3.9211
1020,483.134,3.9184
1026,484.134,3.9156
1032,485.134,3.9129
1038,486.134,3.9102
1044,487.134,3.9074
1050,488.134,3.9043
1056,489.134,3.9009
1062,490.134,3.8978
1068,491.134,3.8954
1074,492.134,3.8929
1080,493.134,3.8895
1086,494.134,3.8862
1092,495.134,3.8819
1098,496.134,3.8786
1104,497.134,3.8761
1110,498.134,3.8731
1116,499.134,3.8696
1122,500.134,3.8668
1128,501.134,3.8628
1134,502.134,3.8569
1140,503.134,3.8518
1146,504.134,3.848
1152,505.134,3.8432
1158,506.134,3.8393
1164,507.134,3.835
1170,508.134,3.8293
1176,509.134,3.8243
1182,510.134,3.8197
1188,511.134,3.8148
1194,512.134,3.8098
1200,513.134,3.8044
1206,514.134,3.7988
1212,515.134,3.7922
1218,516.134,3.7858
1224,517.134,3.7803
1230,518.134,3.7745
1236,519.134,3.7684
1242,520.134,3.7625
1248,521.134,3.7553
1254,522.134,3.7485
1260,523.134,3.7424
1266,524.134,3.7348
1272,525.134,3.7264
1278,526.134,3.7179
1284,527.134,3.7109
1290,528.134,3.7028
1296,529.134,3.6955
1302,530.134,3.6876
1308,531.134,3.6793
1314,532.134,3.671
1320,533.134,3.6621
1326,534.134,3.6533
1332,535.134,3.6445
1338,536.134,3.6361
1344,537.134,3.6277
1350,538.134,3.6176
1356,539.134,3.6083
1362,540.134,3.599
1368,541.134,3.5887
1374,542.134,3.5795
1380,543.134,3.5697
1386,544.134,3.5594
1392,545.134,3.5497
1398,546.134,3.5388
1404,547.134,3.5287
1410,548.134,3.5183
1416,549.134,3.5086
1422,550.134,3.4983
1428,551.134,3.4872
1434,552.134,3.4759
1440,553.134,3.4641
1446,554.134,3.4528
1452,555.134,3.4413
1458,556.134,3.4292
1464,557.134,3.4172
1470,558.134,3.4052
1476,559.134,3.3924
1482,560.134,3.38
1488,561.134,3.3681
1494,562.134,3.3551
1500,563.134,3.3404
1506,564.134,3.3267
1512,565.134,3.3135
1518,566.134,3.2997
1524,567.134,3.2855
1530,568.134,3.272
1536,569.134,3.2581
1542,570.134,3.2425
1548,571.134,3.2265
1554,572.134,3.2106
1560,573.134,3.1958
1566,574.134,3.1798
1572,575.134,3.1629
1578,576.134,3.1462
1584,577.134,3.1293
1590,578.134,3.1122
1596,579.134,3.0957
1602,580.134,3.0765
1608,581.134,3.0586
1614,582.134,3.041
1620,583.134,3.0227
1626,584.134,3.0028
1632,585.134,2.9824
1638,586.134,2.9619
1644,587.134,2.9427
1650,588.134,2.9234
1656,589.134,2.902
1662,590.134,2.88
1668,591.134,2.858
1674,592.134,2.8367
1680,593.134,2.814
1686,594.134,2.7915
1692,595.134,2.7686
1698,596.134,2.7455
1704,597.134,2.7216
1710,598.134,2.6972
1716,599.134,2.6727
1722,600.134,2.6483
1728,601.134,2.6241
1734,602.134,2.5999
1740,603.134,2.5757
1746,604.134,2.5376
1752,605.134,2.5169
1758,606.134,2.4929
1764,607.134,2.4602
1770,608.134,2.4383
1776,609.134,2.4049
1782,610.134,2.3838
1788,611.134,2.3445
1794,612.134,2.3234
1800,613.134,2.2963
1806,614.134,2.2671
1812,615.134,2.2414
1818,616.134,2.2082
1824,617.134,2.1759
1830,618.134,2.152
1836,619.134,2.1141
1842,620.134,2.0817
1848,621.134,2.0457
1854,622.134,2.0169
1860,623.134,1.9855
1866,624.134,1.9506
1872,625.134,1.9138
1878,626.134,1.88
1884,627.134,1.8549
1890,628.134,1.8117
1896,629.134,1.7748
1902,630.134,1.7373
1908,631.134,1.7009
1914,632.134,1.6634
1920,633.134,1.6243
1926,634.134,1.5841
1932,635.134,1.5458
1938,636.134,1.5061
1944,637.134,1.4662
1950,638.134,1.427
1956,639.134,1.386
1962,640.134,1.3442
1968,641.134,1.3032
1974,642.134,1.2641
1980,643.134,1.2251
1986,644.134,1.1856
1992,645.134,1.1467
1998,646.134,1.1095
2004,647.134,1.084
2010,648.134,1.0522
2016,649.134,1.0169
2022,650.134,0.9947
2028,651.134,0.9714
2034,652.134,0.948
2040,653.134,0.9273
2046,654.134,0.9076
2052,655.134,0.892
2058,656.134,0.8813
2064,657.134,0.8718
2070,658.134,0.8622
2076,659.134,0.8557
2082,660.134,0.8503
2088,661.134,0.8452
2094,662.134,0.8406
2100,663.134,0.8375
2106,664.134,0.8341
2112,665.134,0.8316
2118,666.134,0.8283
2124,667.134,0.8245
2130,668.134,0.8208
2136,669.134,0.819
2142,670.134,0.8176
2148,671.134,0.8159
2154,672.134,0.8138
2160,673.134,0.8116
2166,674.134,0.8093
2172,675.134,0.807
2178,676.134,0.8041
2184,677.134,0.8016
2190,678.134,0.7989
2196,679.134,0.7966
2202,680.134,0.7943
2208,681.134,0.7917
2214,682.134,0.7891
2220,683.134,0.7873
2226,684.134,0.7854
2232,685.134,0.7835
2238,686.134,0.7819
2244,687.134,0.7796
2250,688.134,0.7766
2256,689.134,0.7734
2262,690.134,0.7714
2268,691.134,0.77
2274,692.134,0.7684
2280,693.134,0.7664
2286,694.134,0.764
2292,695.134,0.7616
2298,696.134,0.759
2304,697.134,0.7558
2310,698.134,0.7537
2316,699.134,0.7524
2322,700.134,0.7507
2328,701.134,0.7488
2334,702.134,0.7472
2340,703.134,0.7457
2346,704.134,0.7435
2352,705.134,0.7409
2358,706.134,0.7385
2364,707.134,0.736
2370,708.134,0.7338
2376,709.134,0.7323
2382,710.134,0.7307
2388,711.134,0.7287
2394,712.134,0.7267
2400,713.134,0.7245
2406,714.134,0.7225
2412,715.134,0.7204
2418,716.134,0.7185
2424,717.134,0.7167
2430,718.134,0.7139
2436,719.134,0.7119
2442,720.134,0.7104
2448,721.134,0.7093
2454,722.134,0.7076
2460,723.134,0.7058
2466,724.134,0.7034
2472,725.134,0.7016
2478,726.134,0.7002
2484,727.134,0.6991
2490,728.134,0.6979
2496,729.134,0.6968
2502,730.134,0.6946
2508,731.134,0.6923
2514,732.134,0.6908
2520,733.134,0.6895
2526,734.134,0.6883
2532,735.134,0.6866
2538,736.134,0.6842
2544,737.134,0.6821
2550,738.134,0.6805
2556,739.134,0.6785
2562,740.134,0.6764
2568,741.134,0.6755
2574,742.134,0.6743
2580,743.134,0.6724
2586,744.134,0.6693
2592,745.134,0.6671
2598,746.134,0.6667
2604,747.134,0.6655
2610,748.134,0.6632
2616,749.134,0.6612
2622,750.134,0.6594
2628,751.134,0.6587
2634,752.134,0.6582
2640,753.134,0.6568
2646,754.134,0.6544
2652,755.134,0.6518
2658,756.134,0.6492
2664,757.134,0.647
2670,758.134,0.6457
2676,759.134,0.6441
2682,760.134,0.6431
2688,761.134,0.6416
2694,762.134,0.6395
2700,763.134,0.6374
2706,764.134,0.6361
2712,765.134,0.6349
2718,766.134,0.6339
2724,767.134,0.6328
2730,768.134,0.6306
2736,769.134,0.6285
2742,770.134,0.6258
2748,771.134,0.6234
2754,772.134,0.6225
2760,773.134,0.6219
2766,774.134,0.6203
2772,775.134,0.6185
2778,776.134,0.6166
2784,777.134,0.615
2790,778.134,0.6134
2796,779.134,0.6115
2802,780.134,0.6096
2808,781.134,0.6079
2814,782.134,0.6075
2820,783.134,0.6067
2826,784.134,0.604
2832,785.134,0.6017
2838,786.134,0.5989
2844,787.134,0.5973
2850,788.134,0.5966
2856,789.134,0.5959
2862,790.134,0.5943
2868,791.134,0.5928
2874,792.134,0.5909
2880,793.134,0.5887
2886,794.134,0.5868
2892,795.134,0.5859
2898,796.134,0.5843
2904,797.134,0.5823
2910,798.134,0.5808
2916,799.134,0.5795
2922,800.134,0.578
2928,801.134,0.5763
2934,802.134,0.5741
2940,803.134,0.5717
2946,804.134,0.5696
2952,805.134,0.5677
2958,806.134,0.5663
2964,807.134,0.5652
2970,808.134,0.5637
2976,809.134,0.5626
2982,810.134,0.5609
2988,811.134,0.5592
2994,812.134,0.5575
3000,813.134,0.5556
3006,814.134,0.5531
3012,815.134,0.5511
3018,816.134,0.5501
3024,817.134,0.5486
3030,818.134,0.5465
3036,819.134,0.5447
3042,820.134,0.5437
3048,821.134,0.5421
3054,822.134,0.5399
3060,823.134,0.5378
3066,824.134,0.5363
3072,825.134,0.5348
3078,826.134,0.5342
3084,827.134,0.533
3090,828.134,0.5314
3096,829.134,0.529
3102,830.134,0.5268
3108,831.134,0.5246
3114,832.134,0.5223
3120,833.134,0.5212
3126,834.134,0.5198
3132,835.134,0.5186
3138,836.134,0.5178
3144,837.134,0.5172
3150,838.134,0.5161
3156,839.134,0.5142
3162,840.134,0.512
3168,841.134,0.5104
3174,842.134,0.5094
3180,843.134,0.5074
3186,844.134,0.5047
3192,845.134,0.5018
3198,846.134,0.4997
3204,847.134,0.498
3210,848.134,0.4969
3216,849.134,0.4952
3222,850.134,0.4933
3228,851.134,0.4917
3234,852.134,0.4909
3240,853.134,0.489
3246,854.134,0.4864
3252,855.134,0.484
3258,856.134,0.4827
3264,857.134,0.4827
3270,858.134,0.4815
3276,859.134,0.4806
3282,860.134,0.4782
3288,861.134,0.4763
3294,862.134,0.4748
3300,863.134,0.4726
3306,864.134,0.4709
3312,865.134,0.4699
3318,866.134,0.4694
3324,867.134,0.4687
3330,868.134,0.4664
3336,869.134,0.4639
3342,870.134,0.462
3348,871.134,0.4607
3354,872.134,0.4599
3360,873.134,0.4583
3366,874.134,0.4562
3372,875.134,0.4542
3378,876.134,0.4528
3384,877.134,0.4511
3390,878.134,0.4487
3396,879.134,0.4475
3402,880.134,0.4463
3408,881.134,0.4457
3414,882.134,0.4441
3420,883.134,0.4421
3426,884.134,0.4407
3432,885.134,0.4394
3438,886.134,0.4378
3444,887.134,0.4356
3450,888.134,0.4342
3456,889.134,0.4324
3462,890.134,0.4309
3468,891.134,0.4297
3474,892.134,0.4279
3480,893.134,0.4261
3486,894.134,0.4246
3492,895.134,0.4232
3498,896.134,0.422
3504,897.134,0.4208
3510,898.134,0.419
3516,899.134,0.4176
3522,900.134,0.416
3528,901.134,0.4142
3534,902.134,0.4127
3540,903.134,0.4113
3546,904.134,0.4103
3552,905.134,0.409
3558,906.134,0.4075
3564,907.134,0.4059
3570,908.134,0.4032
3576,909.134,0.4009
3582,910.134,0.3988
3588,911.134,0.3976
3594,912.134,0.3965
3600,913.134,0.3958
3606,914.134,0.3951
3612,915.134,0.393
3618,916.134,0.3908
3624,917.134,0.3891
3630,918.134,0.3876
3636,919.134,0.3857
3642,920.134,0.3842
3648,921.134,0.3829
3654,922.134,0.3816
3660,923.134,0.3805
3666,924.134,0.3793
3672,925.134,0.3785
3678,926.134,0.3764
3684,927.134,0.3751
3690,928.134,0.3738
3696,929.134,0.373
3702,930.134,0.3717
3708,931.134,0.3695
3714,932.134,0.3668
3720,933.134,0.3651
3726,934.134,0.3635
3732,935.134,0.3627
3738,936.134,0.3626
3744,937.134,0.3623
3750,938.134,0.3607
3756,939.134,0.3584
3762,940.134,0.3571
3768,941.134,0.3559
3774,942.134,0.3543
3780,943.134,0.3527
3786,944.134,0.3512
3792,945.134,0.3504
3798,946.134,0.3496
3804,947.134,0.3476
3810,948.134,0.3454
3816,949.134,0.3444
3822,950.134,0.3439
3828,951.134,0.3432
3834,952.134,0.3424
3840,953.134,0.3411
3846,954.134,0.3397
3852,955.134,0.3383
3858,956.134,0.337
3864,957.134,0.3366
3870,958.134,0.3351
3876,959.134,0.333
3882,960.134,0.3312
3888,961.134,0.33
3894,962.134,0.329
3900,963.134,0.3275
3906,964.134,0.326
3912,965.134,0.3251
3918,966.134,0.3244
3924,967.134,0.323
3930,968.134,0.3206
3936,969.134,0.3192
3942,970.134,0.3183
3948,971.134,0.3175
3954,972.134,0.3166
3960,973.134,0.3146
3966,974.134,0.3128
3972,975.134,0.3122
3978,976.134,0.3113
3984,977.134,0.3105
3990,978.134,0.3096
3996,979.134,0.3082
4002,980.134,0.307
4008,981.134,0.3059
4014,982.134,0.3036
4020,983.134,0.3014
4026,984.134,0.3008
4032,985.134,0.2999
4038,986.134,0.2997
4044,987.134,0.2998
4050,988.134,0.2995
4056,989.134,0.2984
4062,990.134,0.2972
4068,991.134,0.2956
4074,992.134,0.2939
4080,993.134,0.2926
4086,994.134,0.2916
4092,995.134,0.2901
4098,996.134,0.2884
4104,997.134,0.2866
4110,998.134,0.285
4116,999.134,0.2837
4122,1000.134,0.2823
4128,1001.134,0.2816
4134,1002.134,0.2816
4140,1003.134,0.2805
4146,1004.134,0.2787
4152,1005.134,0.2773
4158,1006.134,0.2765
4164,1007.134,0.2765
4170,1008.134,0.2744
4176,1009.134,0.2727
4182,1010.134,0.271
4188,1011.134,0.2698
4194,1012.134,0.2691
4200,1013.134,0.2682
4206,1014.134,0.267
4212,1015.134,0.2652
4218,1016.134,0.2636
4224,1017.134,0.2638
4230,1018.134,0.2634
4236,1019.134,0.2618
4242,1020.134,0.2611
4248,1021.134,0.2601
4254,1022.134,0.2582
4260,1023.134,0.2575
4266,1024.134,0.2572
4272,1025.134,0.2566
4278,1026.134,0.2553
4284,1027.134,0.2536
4290,1028.134,0.2521
4296,1029.134,0.2514
4302,1030.134,0.251
4308,1031.134,0.2503
4314,1032.134,0.2495
4320,1033.134,0.2477
4326,1034.134,0.2462
4332,1035.134,0.2448
4338,1036.134,0.2441
4344,1037.134,0.2433
4350,1038.134,0.2423
4356,1039.134,0.2416
4362,1040.134,0.2403
4368,1041.134,0.2389
4374,1042.134,0.2377
4380,1043.134,0.2367
4386,1044.134,0.236
4392,1045.134,0.2359
4398,1046.134,0.2353
4404,1047.134,0.2342
4410,1048.134,0.2327
4416,1049.134,0.2317
4422,1050.134,0.2313
4428,1051.134,0.2314
4434,1052.134,0.2309
4440,1053.134,0.2298
4446,1054.134,0.2272
4452,1055.134,0.2254
4458,1056.134,0.2245
4464,1057.134,0.2239
4470,1058.134,0.2233
4476,1059.134,0.2227
4482,1060.134,0.221
4488,1061.134,0.219
4494,1062.134,0.2181
4500,1063.134,0.2178
4506,1064.134,0.2168
4512,1065.134,0.2161
4518,1066.134,0.2161
4524,1067.134,0.2147
4530,1068.134,0.2131
4536,1069.134,0.2122
4542,1070.134,0.2115
4548,1071.134,0.2103
4554,1072.134,0.2097
4557,1072.634,0.2092