File: Wood/Calibration_Data/UMET/UMET_Wood_Cone_60kW_hor_R1.csv
Time (s),Mass (g),HRR (kW/m2)
0,84.67,0
2,84.67,0
4,84.67,5.25
6,84.67,24.66
8,84.67,45.20
10,84.67,61.99
12,84.67,75.31
14,84.67,88.99
16,84.05,102.62
18,83.96,115.08
20,84.05,124.59
22,83.70,131.19
24,83.08,135.11
26,82.64,137.14
28,82.82,137.85
30,82.73,137.44
32,82.29,136.29
34,82.02,134.71
36,82.91,132.92
38,82.38,131.20
40,82.55,129.44
42,82.11,127.69
44,82.29,125.98
46,81.58,124.26
48,81.32,122.60
50,80.88,121.14
52,80.88,119.86
54,82.02,118.76
56,82.02,117.70
58,80.35,116.46
60,81.06,115.13
62,80.97,113.91
64,80.70,112.70
66,79.64,111.52
68,79.82,110.42
70,80.09,109.26
72,79.29,108.00
74,79.12,106.74
76,79.12,105.48
78,79.20,104.32
80,78.85,103.34
82,78.50,102.48
84,78.59,101.67
86,78.67,100.97
88,78.06,100.33
90,77.70,99.77
92,77.62,99.33
94,77.44,98.95
96,77.09,98.61
98,77.18,98.36
100,77.00,98.04
102,77.44,97.73
104,77.09,97.40
106,77.35,97.06
108,76.47,96.70
110,76.21,96.37
112,76.29,96.04
114,76.65,95.72
116,76.03,95.48
118,75.06,95.28
120,75.94,95.22
122,75.41,95.26
124,75.76,95.33
126,74.88,95.44
128,75.24,95.59
130,74.18,95.73
132,75.15,95.90
134,74.80,96.01
136,75.15,96.10
138,74.18,96.20
140,74.53,96.19
142,73.47,96.10
144,74.00,95.97
146,74.09,95.84
148,72.94,95.65
150,74.27,95.48
152,73.12,95.30
154,73.03,95.17
156,72.50,95.16
158,73.38,95.12
160,73.21,95.13
162,72.50,95.15
164,72.24,95.19
166,72.50,95.39
168,72.06,95.65
170,71.97,95.93
172,71.53,96.18
174,71.44,96.43
176,71.80,96.59
178,71.00,96.69
180,71.18,96.75
182,71.36,96.82
184,70.47,96.84
186,71.53,96.77
188,70.92,96.52
190,70.56,96.28
192,71.18,96.11
194,70.39,95.99
196,70.30,95.91
198,69.77,95.80
200,70.56,95.65
202,69.50,95.43
204,69.77,95.18
206,69.77,94.98
208,68.98,94.85
210,68.98,94.76
212,69.59,94.74
214,68.89,94.70
216,68.80,94.61
218,68.54,94.47
220,68.54,94.39
222,68.62,94.45
224,68.01,94.63
226,68.27,94.82
228,68.80,94.92
230,68.18,95.06
232,68.01,95.13
234,67.48,95.16
236,67.04,95.16
238,66.86,95.12
240,66.42,95.06
242,66.95,95.03
244,66.42,94.94
246,66.42,94.83
248,66.68,94.73
250,65.98,94.55
252,65.89,94.35
254,66.15,94.08
256,65.80,93.89
258,65.54,93.81
260,65.63,93.86
262,65.54,93.92
264,65.27,93.93
266,64.92,93.93
268,64.57,93.87
270,64.57,93.76
272,64.66,93.74
274,63.60,93.68
276,64.13,93.59
278,63.51,93.34
280,63.95,93.09
282,63.51,92.79
284,63.42,92.39
286,63.69,91.94
288,63.16,91.50
290,63.24,91.12
292,63.77,90.78
294,63.16,90.53
296,63.16,90.38
298,62.45,90.28
300,62.63,90.19
302,61.66,90.10
304,62.63,90.09
306,62.63,90.19
308,62.01,90.32
310,62.45,90.40
312,62.01,90.45
314,61.57,90.49
316,62.01,90.41
318,61.31,90.34
320,61.66,90.35
322,60.86,90.37
324,61.39,90.37
326,60.78,90.36
328,60.78,90.43
330,60.60,90.55
332,60.78,90.72
334,60.34,90.84
336,60.34,90.87
338,60.25,90.89
340,60.95,90.83
342,60.34,90.62
344,60.16,90.38
346,59.63,90.09
348,60.25,89.74
350,59.37,89.37
352,59.63,89.07
354,58.84,88.82
356,59.01,88.56
358,58.84,88.38
360,59.01,88.22
362,58.75,88.11
364,58.13,88.05
366,59.01,88.04
368,57.87,88.10
370,58.22,88.19
372,57.51,88.36
374,58.48,88.45
376,57.95,88.52
378,58.48,88.61
380,57.25,88.65
382,57.51,88.61
384,56.54,88.60
386,57.60,88.55
388,56.63,88.53
390,57.07,88.45
392,57.07,88.30
394,56.90,88.04
396,56.46,87.81
398,55.93,87.70
400,56.02,87.53
402,55.49,87.47
404,55.49,87.48
406,55.49,87.48
408,55.49,87.48
410,55.05,87.45
412,55.05,87.38
414,55.13,87.32
416,55.05,87.25
418,54.87,87.08
420,54.87,86.87
422,54.87,86.68
424,54.78,86.46
426,54.43,86.32
428,54.08,86.21
430,54.25,86.09
432,53.81,86.06
434,53.72,86.08
436,54.34,86.07
438,53.81,86.14
440,53.46,86.22
442,53.28,86.35
444,52.75,86.49
446,53.46,86.56
448,52.84,86.65
450,52.84,86.73
452,52.31,86.71
454,52.31,86.54
456,52.49,86.41
458,52.14,86.34
460,51.69,86.26
462,52.31,86.25
464,52.05,86.14
466,51.96,86.08
468,51.87,86.04
470,51.52,85.99
472,51.43,85.89
474,50.81,85.97
476,51.08,86.07
478,51.43,86.10
480,50.64,86.08
482,50.46,85.96
484,50.72,85.76
486,51.08,85.60
488,50.81,85.29
490,50.46,84.97
492,50.46,84.69
494,50.28,84.35
496,49.76,83.97
498,50.20,83.67
500,49.84,83.34
502,50.02,83.03
504,49.67,82.83
506,49.67,82.60
508,49.40,82.34
510,49.49,82.03
512,49.14,81.75
514,49.67,81.49
516,48.61,81.30
518,48.52,81.13
520,49.05,81.01
522,48.70,80.95
524,48.34,81.00
526,48.61,81.11
528,47.99,81.38
530,48.52,81.71
532,47.90,82.06
534,47.99,82.39
536,47.90,82.73
538,47.99,83.07
540,47.20,83.25
542,47.11,83.33
544,47.02,83.35
546,46.67,83.33
548,47.55,83.21
550,47.29,83.08
552,46.32,82.93
554,46.93,82.78
556,46.32,82.56
558,47.37,82.25
560,46.76,81.92
562,46.32,81.65
564,45.96,81.45
566,46.40,81.21
568,45.52,80.92
570,45.96,80.62
572,45.96,80.30
574,45.96,80.01
576,45.43,79.77
578,44.82,79.57
580,45.08,79.43
582,44.55,79.40
584,45.17,79.33
586,45.08,79.35
588,44.99,79.53
590,44.99,79.85
592,43.76,80.23
594,44.29,80.62
596,44.46,80.99
598,44.29,81.34
600,44.11,81.80
602,44.11,82.20
604,43.32,82.60
606,44.29,82.90
608,43.94,83.16
610,42.88,83.42
612,43.76,83.50
614,43.32,83.50
616,43.05,83.43
618,42.88,83.33
620,43.14,83.15
622,43.14,82.92
624,42.70,82.66
626,42.70,82.42
628,42.79,82.15
630,42.79,81.68
632,42.00,81.26
634,42.35,80.92
636,41.91,80.61
638,41.73,80.29
640,41.56,80.05
642,41.73,79.73
644,42.00,79.36
646,41.82,78.95
648,41.38,78.47
650,41.38,78.05
652,41.11,77.61
654,41.20,77.11
656,41.64,76.77
658,41.11,76.63
660,40.06,76.55
662,40.67,76.50
664,40.59,76.56
666,39.88,76.71
668,40.94,77.01
670,40.23,77.39
672,40.50,77.78
674,39.97,78.16
676,40.32,78.55
678,39.70,78.82
680,39.09,78.95
682,39.44,79.07
684,39.09,79.13
686,39.35,79.15
688,39.09,79.09
690,38.91,78.90
692,39.26,78.68
694,38.47,78.50
696,38.38,78.27
698,38.47,77.99
700,38.65,77.64
702,38.38,77.34
704,38.65,76.95
706,37.41,76.58
708,37.85,76.24
710,38.20,76.09
712,37.32,75.94
714,37.41,75.92
716,36.97,75.83
718,37.85,75.87
720,37.68,75.95
722,37.85,75.97
724,36.88,75.95
726,37.41,76.02
728,37.50,76.09
730,37.32,76.09
732,36.88,76.03
734,36.79,75.89
736,36.35,75.67
738,36.79,75.37
740,36.18,74.98
742,36.35,74.56
744,36.27,74.22
746,35.65,73.94
748,35.56,73.66
750,36.27,73.44
752,35.56,73.23
754,35.38,72.97
756,35.74,72.73
758,34.77,72.56
760,35.30,72.45
762,35.21,72.44
764,35.38,72.39
766,35.74,72.33
768,35.47,72.23
770,34.41,72.11
772,34.41,72.00
774,34.94,71.93
776,34.33,71.92
778,34.59,71.94
780,34.68,71.95
782,34.24,71.91
784,33.88,71.88
786,34.06,71.90
788,33.71,71.94
790,33.88,71.94
792,33.36,71.91
794,33.80,71.87
796,33.36,71.76
798,33.18,71.62
800,33.18,71.42
802,33.44,71.29
804,32.47,71.10
806,32.91,70.95
808,32.30,70.93
810,32.30,71.04
812,32.74,71.22
814,33.00,71.55
816,32.21,71.85
818,32.12,72.19
820,31.94,72.54
822,32.21,72.85
824,32.12,73.10
826,32.12,73.30
828,31.59,73.34
830,32.47,73.23
832,31.86,72.94
834,31.42,72.52
836,31.24,71.88
838,31.15,71.25
840,31.59,70.57
842,31.15,69.87
844,30.89,69.31
846,31.50,68.96
848,30.97,68.71
850,30.36,68.49
852,31.15,68.32
854,31.33,68.21
856,30.89,68.09
858,30.71,68.10
860,29.56,68.22
862,29.83,68.40
864,30.27,68.53
866,29.56,68.46
868,30.36,68.28
870,30.18,68.15
872,29.12,67.96
874,29.39,67.79
876,29.12,67.64
878,28.95,67.58
880,29.48,67.45
882,29.74,67.22
884,28.95,66.90
886,28.68,66.58
888,28.77,66.30
890,28.86,66.00
892,28.77,65.72
894,28.77,65.40
896,28.07,65.05
898,28.68,64.66
900,28.59,64.32
902,28.24,64.09
904,28.42,64.00
906,27.89,64.05
908,27.89,64.12
910,27.36,64.17
912,27.89,64.18
914,28.24,64.20
916,27.36,64.36
918,27.27,64.54
920,26.83,64.63
922,27.18,64.64
924,27.98,64.57
926,27.01,64.39
928,27.45,64.17
930,27.01,64.00
932,26.83,63.85
934,27.01,63.63
936,26.04,63.32
938,27.01,62.98
940,26.74,62.66
942,26.39,62.38
944,27.18,62.17
946,26.39,61.92
948,25.86,61.64
950,26.39,61.34
952,25.68,60.95
954,26.39,60.60
956,25.77,60.29
958,25.51,60.06
960,25.77,59.87
962,26.39,59.65
964,26.13,59.32
966,25.51,59.06
968,25.16,59.03
970,24.80,59.08
972,25.51,59.10
974,25.51,59.09
976,24.71,59.14
978,25.24,59.18
980,25.24,59.13
982,25.51,59.05
984,24.63,58.99
986,24.80,58.98
988,24.36,58.83
990,24.80,58.54
992,24.01,58.23
994,24.80,58.04
996,24.19,57.91
998,23.92,57.74
1000,24.19,57.54
1002,24.10,57.31
1004,23.75,57.09
1006,23.48,56.87
1008,23.57,56.54
1010,23.75,56.28
1012,23.66,56.09
1014,24.45,55.89
1016,23.13,55.60
1018,23.57,55.43
1020,23.57,55.28
1022,23.22,55.10
1024,23.13,54.97
1026,22.60,54.88
1028,23.04,54.86
1030,21.89,54.92
1032,22.86,54.93
1034,22.86,54.90
1036,23.13,54.93
1038,22.51,54.94
1040,22.86,54.89
1042,22.51,54.85
1044,22.60,54.86
1046,22.16,54.79
1048,21.54,54.70
1050,21.72,54.63
1052,21.89,54.53
1054,22.33,54.47
1056,22.33,54.38
1058,22.33,54.23
1060,21.45,54.04
1062,21.28,53.89
1064,21.89,53.84
1066,20.75,53.72
1068,21.36,53.62
1070,21.36,53.57
1072,21.45,53.52
1074,20.84,53.49
1076,20.84,53.49
1078,21.19,53.53
1080,20.84,53.56
1082,20.84,53.57
1084,20.22,53.51
1086,20.31,53.51
1088,19.87,53.54
1090,20.57,53.48
1092,20.31,53.30
1094,20.31,53.08
1096,20.48,52.88
1098,19.95,52.60
1100,19.69,52.36
1102,20.22,52.10
1104,19.69,51.81
1106,20.39,51.46
1108,19.42,51.07
1110,19.95,50.79
1112,20.31,50.57
1114,19.78,50.38
1116,19.60,50.17
1118,19.87,49.94
1120,20.31,49.68
1122,20.04,49.41
1124,19.51,49.12
1126,18.81,48.92
1128,19.34,48.71
1130,19.34,48.49
1132,17.84,48.21
1134,19.16,47.97
1136,19.34,47.81
1138,18.81,47.75
1140,18.81,47.72
1142,18.28,47.66
1144,18.45,47.62
1146,17.84,47.63
1148,18.45,47.69
1150,18.72,47.82
1152,18.54,48.00
1154,17.66,48.12
1156,17.84,48.22
1158,18.01,48.21
1160,18.98,48.11
1162,18.01,48.06
1164,17.31,47.99
1166,17.49,47.93
1168,17.31,47.80
1170,17.84,47.69
1172,17.49,47.59
1174,17.22,47.45
1176,17.31,47.36
1178,17.31,47.23
1180,17.93,47.09
1182,17.04,46.90
1184,17.31,46.71
1186,17.13,46.46
1188,16.96,46.24
1190,18.19,45.98
1192,17.13,45.61
1194,16.87,45.09
1196,16.87,44.62
1198,16.96,44.15
1200,16.96,43.68
1202,15.99,43.31
1204,16.96,42.92
1206,16.16,42.59
1208,17.04,42.28
1210,16.25,41.95
1212,15.72,41.68
1214,15.90,41.44
1216,16.16,41.11
1218,16.34,40.76
1220,15.37,40.47
1222,16.43,40.25
1224,15.55,40.16
1226,15.46,40.09
1228,15.28,39.97
1230,15.46,39.90
1232,15.02,39.71
1234,15.55,39.52
1236,15.37,39.37
1238,16.07,39.35
1240,14.84,39.28
1242,15.55,39.19
1244,14.84,38.98
1246,15.10,38.70
1248,15.72,38.49
1250,14.93,38.44
1252,14.84,38.40
1254,15.10,38.46
1256,14.40,38.60
1258,14.13,38.65
1260,14.31,38.54
1262,14.84,38.41
1264,14.75,38.20
1266,15.10,37.99
1268,14.31,37.76
1270,14.31,37.32
1272,13.78,36.70
1274,14.05,36.11
1276,14.40,35.45
1278,14.31,34.79
1280,13.52,34.23
1282,13.16,33.84
1284,14.40,33.48
1286,14.66,33.19
1288,13.61,32.91
1290,13.78,32.73
1292,14.05,32.73
1294,13.87,32.83
1296,13.52,32.90
1298,13.16,32.98
1300,13.43,33.05
1302,13.25,33.08
1304,13.52,33.05
1306,13.34,33.00
1308,13.43,32.89
1310,13.43,32.70
1312,14.13,32.45
1314,12.81,32.11
1316,12.81,31.77
1318,12.90,31.39
1320,12.28,31.04
1322,13.16,30.66
1324,12.28,30.20
1326,12.28,29.77
1328,12.90,29.37
1330,11.84,29.03
1332,12.64,28.70
1334,12.72,28.40
1336,12.02,28.10
1338,12.46,27.82
1340,12.28,27.61
1342,12.28,27.46
1344,12.11,27.34
1346,11.84,27.31
1348,11.49,27.25
1350,12.28,27.21
1352,12.46,27.17
1354,12.19,27.13
1356,12.46,27.04
1358,12.02,26.98
1360,12.28,26.89
1362,11.84,26.69
1364,11.40,26.39
1366,11.84,26.02
1368,11.40,25.64
1370,11.58,25.39
1372,11.49,25.21
1374,11.67,25.04
1376,11.31,24.93
1378,11.31,24.80
1380,10.96,24.69
1382,10.70,24.75
1384,11.14,24.85
1386,10.78,25.05
1388,10.87,25.31
1390,10.87,25.43
1392,11.58,25.37
1394,10.96,25.23
1396,11.05,24.98
1398,11.23,24.71
1400,10.78,24.37
1402,11.49,23.83
1404,10.61,23.23
1406,11.40,22.61
1408,10.43,21.98
1410,10.61,21.45
1412,10.70,21.16
1414,10.26,21.06
1416,10.70,21.03
1418,10.52,21.04
1420,10.34,21.06
1422,9.81,21.17
1424,9.73,21.29
1426,9.64,21.44
1428,9.99,21.54
1430,9.73,21.56
1432,10.34,21.52
1434,9.29,21.33
1436,9.81,21.06
1438,10.43,20.83
1440,9.02,20.66
1442,9.29,20.52
1444,9.81,20.42
1446,9.99,20.28
1448,9.37,20.10
1450,9.29,19.83
1452,9.55,19.49
1454,10.43,19.00
1456,9.55,18.58
1458,9.02,18.25
1460,10.17,17.89
1462,8.67,17.62
1464,8.84,17.37
1466,8.93,17.11
1468,8.84,16.97
1470,9.11,16.97
1472,9.55,17.05
1474,9.20,17.21
1476,9.37,17.34
1478,9.29,17.34
1480,9.46,17.30
1482,9.11,17.23
1484,8.84,17.04
1486,8.40,16.82
1488,9.29,16.60
1490,9.02,16.34
1492,8.23,16.13
1494,8.40,15.95
1496,8.49,15.79
1498,8.76,15.69
1500,8.49,15.61
1502,8.32,15.56
1504,8.23,15.51
1506,8.40,15.58
1508,8.67,15.71
1510,8.14,15.79
1512,8.67,15.93
1514,8.32,16.03
1516,8.14,16.10
1518,8.40,16.13
1520,7.61,16.14
1522,7.96,16.01
1524,8.49,15.82
1526,7.26,15.55
1528,7.79,15.12
1530,7.96,14.81
1532,8.05,14.50
1534,8.23,14.17
1536,8.32,13.77
1538,7.52,13.31
1540,7.79,12.90
1542,7.43,12.55
1544,7.70,12.32
1546,7.35,12.06
1548,7.17,11.89
1550,6.82,11.73
1552,7.35,11.60
1554,6.73,11.44
1556,6.90,11.34
1558,7.26,11.38
1560,6.90,11.45
1562,6.82,11.54
1564,7.08,11.63
1566,7.26,11.90
1568,6.46,12.20
1570,7.08,12.56
1572,6.99,12.91
1574,7.17,13.23
1576,6.82,13.52
1578,7.08,13.78
1580,7.08,13.93
1582,6.64,14.09
1584,6.29,14.31
1586,6.90,14.46
1588,6.55,14.52
1590,6.64,14.57
1592,7.35,14.44
1594,6.29,14.15
1596,6.20,13.91
1598,6.46,13.59
1600,6.29,13.26
1602,5.85,12.86
1604,6.29,12.29
1606,6.02,11.67
1608,5.85,10.99
1610,7.35,10.24
1612,6.29,9.60
1614,7.17,9.11
1616,5.93,8.62
1618,6.02,8.12
1620,6.29,7.59
1622,6.38,7.08
1624,5.76,6.67
1626,5.76,6.33
1628,5.67,6.06
1630,6.11,5.86
1632,6.29,5.65
1634,5.76,5.37
1636,5.76,5.01
1638,5.76,4.66
1640,6.11,4.36
1642,4.97,4.11
1644,5.85,3.89
1646,6.29,3.73
1648,5.32,3.52
1650,6.38,3.25
1652,5.76,3.05
1654,6.02,2.95
1656,5.76,2.94
1658,5.58,2.97
1660,5.93,3.01
1662,5.32,3.05
1664,5.32,3.09
1666,5.32,3.03
1668,5.58,2.98
1670,5.76,2.98
1672,5.58,3.00
1674,5.49,3.05
1676,5.23,3.15
1678,5.93,3.22
1680,5.23,3.30
1682,4.26,3.38
1684,4.79,3.43
1686,4.79,3.55
1688,4.70,3.67
1690,5.49,3.80
1692,5.23,3.82
1694,4.79,3.79
1696,5.41,3.78
1698,4.70,3.76
1700,4.26,3.78
1702,4.35,3.79
1704,4.79,3.94
1706,4.08,4.13
1708,4.61,4.27
1710,4.79,4.43
1712,4.35,4.72
1714,4.08,5.02
1716,5.05,5.19
1718,4.61,5.26
1720,4.52,5.21
1722,4.35,5.04
1724,4.88,4.78
1726,4.52,4.40
1728,4.17,4.03
1730,4.26,3.61
1732,4.00,2.98
1734,3.73,2.31
1736,3.82,1.73
1738,4.00,1.29
1740,3.82,0.97
1742,3.64,0.76
1744,4.17,0.64
1746,4.00,0.58
1748,3.91,0.64
1750,4.26,0.77
1752,4.70,1.05
1754,3.91,1.44
1756,3.29,1.75
1758,3.82,1.99
1760,4.08,2.18
1762,3.64,2.42
1764,4.26,2.69
1766,4.35,2.94
1768,3.73,3.06
1770,3.82,3.08
1772,4.08,3.02
1774,3.91,2.86
1776,4.00,2.66
1778,3.91,2.56
1780,4.08,2.37
1782,3.82,2.09
1784,2.94,1.68
1786,3.29,1.23
1788,3.82,0.79
1790,3.20,0.45
1792,2.58,0.19
1794,4.00,0.02
1796,3.11,-0.11
1798,4.08,-0.36
1800,2.94,-0.65
1802,3.47,-0.93
1804,3.64,-1.16
1806,3.55,-1.37
1808,2.76,-1.49
1810,3.73,-1.53
1812,3.82,-1.57
1814,3.20,-1.65
1816,2.41,-1.80
1818,3.11,-1.91
1820,3.11,-1.85
1822,3.03,-1.77
1824,3.03,-1.60
1826,2.76,-1.32
1828,3.47,-0.93
1830,3.29,-0.63
1832,2.32,-0.61
1834,3.03,-0.56
1836,2.41,-0.44
1838,2.94,-0.23
1840,2.85,0.00
1842,20.51,22.80
1844,20.06,22.62
1846,20.42,22.50
1848,20.60,22.54
1850,20.78,22.65
1852,20.69,22.65
1854,20.24,22.52
1856,19.97,22.30
1858,20.06,22.01
1860,19.88,21.71
1862,19.62,21.48
1864,20.24,21.39
1866,19.80,21.23
1868,20.15,21.09
1870,20.15,20.99
1872,19.97,20.92
1874,20.15,20.88
1876,18.99,20.81
1878,19.26,20.75
1880,19.53,20.70
1882,19.17,20.66
1884,20.15,20.59
1886,19.17,20.55
1888,18.81,20.46
1890,19.44,20.27
1892,19.44,20.08
1894,19.88,19.97
1896,19.62,19.95
1898,18.99,19.90
1900,19.17,19.81
1902,18.90,19.71
1904,18.81,19.51
1906,18.55,19.23
1908,18.90,19.07
1910,18.46,18.92
1912,18.99,18.79
1914,18.63,18.65
1916,18.46,18.50
1918,18.72,18.29
1920,18.72,18.02
1922,18.37,17.76
1924,18.99,17.59
1926,18.37,17.58
1928,18.63,17.51
1930,18.46,17.31
1932,17.92,17.16
1934,18.28,17.06
1936,17.74,16.83
1938,18.55,16.50
1940,18.10,16.23
1942,18.37,16.10
1944,18.19,16.05
1946,17.92,16.03
1948,18.28,16.01
1950,17.56,16.10
1952,18.19,16.18
1954,18.01,16.12
1956,17.74,15.95
1958,18.19,15.93
1960,17.83,15.99
1962,18.10,16.01
1964,17.38,15.96
1966,18.01,15.79
1968,17.83,15.53
1970,17.65,15.18
1972,17.92,14.89
1974,17.47,14.59
1976,17.21,14.37
1978,17.92,14.14
1980,17.92,13.92
1982,17.92,13.74
1984,17.56,13.57
1986,17.38,13.33
1988,17.38,13.09
1990,16.85,12.85
1992,17.21,12.52
1994,17.12,12.18
1996,16.94,11.96
1998,17.65,11.78
2000,17.12,11.63
2002,16.76,11.40
2004,17.38,11.24
2006,16.94,11.11
2008,17.38,11.02
2010,17.74,11.02
2012,16.76,11.15
2014,16.85,11.34
2016,16.67,11.46
2018,16.94,11.41
2020,16.58,11.31
2022,16.76,11.22
2024,16.76,11.09
2026,16.76,10.91
2028,17.03,10.80
2030,16.49,10.70
2032,16.76,10.56
2034,16.31,10.35
2036,16.05,10.17
2038,16.31,10.10
2040,16.22,10.14
2042,16.22,10.24
2044,16.31,10.32
2046,16.67,10.44
2048,16.40,10.48
2050,16.22,10.39
2052,16.58,10.30
2054,16.40,10.16
2056,15.78,9.99
2058,16.05,9.79
2060,16.31,9.59
2062,15.78,9.41
2064,15.87,9.36
2066,15.78,9.37
2068,15.96,9.37
2070,15.78,9.37
2072,14.88,9.29
2074,15.87,9.12
2076,15.69,8.94
2078,15.60,8.77
2080,15.60,8.61
2082,15.96,8.53
2084,14.88,8.31
2086,16.13,7.98
2088,15.42,7.56
2090,15.69,7.10
2092,15.69,6.64
2094,15.33,6.33
2096,15.24,6.05
2098,15.33,5.71
2100,15.24,5.45
2102,15.15,5.20
2104,14.71,4.92
2106,14.71,4.67
2108,15.42,4.52
2110,14.97,4.35
2112,15.15,4.20
2114,15.06,4.07
2116,15.06,3.96
2118,14.88,3.89
2120,14.97,3.80
2122,14.35,3.58
2124,14.71,3.47
2126,15.24,3.44
2128,14.26,3.41
2130,14.97,3.49
2132,14.35,3.74
2134,14.62,3.95
2136,14.80,4.10
2138,14.88,4.19
2140,14.80,4.21
2142,14.26,4.33
2144,14.53,4.38
2146,14.62,4.12
2148,14.08,3.73
2150,13.90,3.33
2152,14.08,2.86
2154,14.35,2.41
2156,14.17,2.14
2158,14.17,1.89
2160,14.53,1.71
2162,14.44,1.44
2164,14.88,1.27
2166,14.44,1.22
2168,13.72,1.19
2170,14.26,1.20
2172,14.17,1.29
2174,14.26,1.47
2176,13.63,1.68
2178,13.81,1.88
2180,13.46,2.09
2182,13.55,2.34
2184,13.90,2.61
2186,13.72,2.82
2188,14.26,3.20
2190,14.08,3.59
2192,13.10,3.87
2194,13.46,4.00
2196,13.19,3.96
2198,13.28,3.75
2200,13.72,3.52
2202,13.19,3.31
2204,13.63,3.10
2206,13.37,2.90
2208,13.55,2.64
2210,13.81,2.35
2212,14.26,2.11
2214,13.19,1.87
2216,13.37,1.67
2218,13.10,1.52
2220,12.74,1.39
2222,13.37,1.31
2224,13.55,1.28
2226,12.83,1.24
2228,13.19,1.14
2230,13.28,1.07
2232,12.65,1.06
2234,13.10,1.08
2236,12.83,1.15
2238,12.03,1.24
2240,12.56,1.24
2242,12.74,1.16
2244,12.83,1.02
2246,12.83,0.88
2248,12.30,0.82
2250,12.83,0.79
2252,12.56,0.77
2254,12.12,0.72
2256,12.30,0.65
2258,12.21,0.53
2260,12.12,0.51
2262,11.94,0.62
2264,12.12,0.86
2266,12.38,1.16
2268,11.85,1.48
2270,11.94,1.76
2272,11.85,1.98
2274,11.85,2.11
2276,12.38,2.25
2278,12.30,2.50
2280,11.94,2.69
2282,11.31,2.82
2284,11.49,2.82
2286,11.40,2.68
2288,12.65,2.40
2290,11.31,2.12
2292,11.58,1.84
2294,11.49,1.62
2296,11.31,1.46
2298,12.21,1.29
2300,11.40,1.13
2302,10.78,0.98
2304,11.05,0.90
2306,11.40,0.89
2308,11.31,0.89
2310,11.22,0.89
2312,11.31,0.88
2314,11.14,0.84
2316,11.58,0.77
2318,11.31,0.69
2320,11.05,0.54
2322,11.14,0.43
2324,11.22,0.33
2326,10.87,0.25
2328,11.58,0.23
2330,11.14,0.20
2332,12.03,0.13
2334,11.22,0.08
2336,10.51,0.05
2338,11.31,0.02
2340,11.05,0.00
2342,10.87,0.00