File: Wood/Calibration_Data/UMET/UMET_Wood_Cone_30kW_hor_R3.csv
Time (s),Mass (g),HRR (kW/m2)
0,110.935,0.07
2,110.928,0.45
4,110.922,0.94
6,110.915,1.41
8,110.540,1.86
10,110.534,2.34
12,110.251,2.80
14,110.244,3.25
16,109.134,3.68
18,110.323,4.12
20,108.569,4.57
22,109.390,5.06
24,109.567,5.53
26,108.917,5.99
28,108.358,6.44
30,108.351,6.83
32,108.161,7.29
34,106.958,9.30
36,107.320,13.86
38,107.221,20.70
40,107.674,29.56
42,105.920,39.93
44,106.189,51.25
46,107.010,63.23
48,106.452,75.61
50,105.893,88.31
52,106.714,101.20
54,105.788,113.77
56,105.873,124.05
58,105.223,131.76
60,105.308,137.25
62,105.025,140.71
64,105.295,142.81
66,106.116,144.01
68,105.557,144.52
70,105.183,144.48
72,104.532,144.05
74,104.434,143.21
76,104.611,141.96
78,104.604,140.67
80,103.402,139.38
82,104.407,138.05
84,103.940,136.70
86,103.658,135.36
88,103.835,134.05
90,102.817,132.82
92,103.270,131.64
94,102.895,130.46
96,102.521,129.37
98,104.630,128.29
100,103.243,127.16
102,103.237,125.96
104,101.942,124.80
106,101.844,123.67
108,101.193,122.48
110,101.186,121.25
112,101.640,119.99
114,100.805,118.74
116,100.246,117.54
118,101.896,116.37
120,101.061,115.21
122,100.870,114.05
124,99.760,113.01
126,100.213,112.03
128,99.563,111.15
130,99.372,110.39
132,99.181,109.71
134,98.163,109.13
136,98.248,108.64
138,98.886,108.19
140,99.063,107.86
142,98.872,107.59
144,98.406,107.35
146,98.767,107.07
148,99.220,106.87
150,97.834,106.66
152,98.011,106.40
154,99.016,106.12
156,98.274,105.83
158,99.095,105.59
160,97.525,105.30
162,97.518,104.99
164,97.787,104.72
166,97.689,104.46
168,96.578,104.17
170,97.123,103.83
172,96.197,103.44
174,95.362,103.11
176,94.344,102.77
178,95.349,102.46
180,95.802,102.23
182,95.428,102.11
184,94.133,102.01
186,94.310,101.94
188,95.592,101.94
190,94.941,101.90
192,95.118,101.87
194,94.376,101.80
196,94.553,101.67
198,95.099,101.55
200,94.448,101.37
202,94.073,101.09
204,94.067,100.77
206,93.692,100.47
208,93.501,100.14
210,93.679,99.82
212,94.960,99.62
214,94.677,99.52
216,94.487,99.47
218,93.652,99.48
220,94.197,99.51
222,93.639,99.57
224,92.896,99.58
226,93.074,99.58
228,92.423,99.52
230,92.232,99.43
232,91.490,99.26
234,91.023,99.08
236,89.913,98.92
238,91.470,98.74
240,91.095,98.53
242,91.089,98.32
244,90.990,98.19
246,91.443,98.14
248,91.437,98.11
250,91.246,98.14
252,91.147,98.17
254,91.233,98.17
256,90.398,98.13
258,89.656,98.03
260,90.477,97.98
262,89.550,97.89
264,90.280,97.76
266,90.089,97.51
268,89.714,97.23
270,89.708,96.93
272,89.333,96.65
274,89.327,96.44
276,89.504,96.19
278,89.037,96.01
280,88.571,95.88
282,89.116,95.74
284,88.373,95.55
286,88.643,95.41
288,87.532,95.33
290,87.342,95.21
292,87.519,95.12
294,87.512,94.99
296,86.678,94.92
298,87.131,94.84
300,87.124,94.80
302,87.578,94.75
304,87.295,94.78
306,87.380,94.86
308,87.190,94.96
310,87.367,95.09
312,87.268,95.18
314,87.078,95.33
316,86.519,95.49
318,86.881,95.66
320,86.598,95.84
322,86.039,96.03
324,86.309,96.21
326,86.026,96.38
328,86.295,96.48
330,85.093,96.59
332,85.730,96.66
334,84.896,96.73
336,84.705,96.74
338,84.330,96.71
340,84.324,96.65
342,84.685,96.49
344,84.310,96.26
346,83.844,96.02
348,84.573,95.71
350,83.831,95.38
352,83.548,95.00
354,84.185,94.59
356,84.087,94.12
358,83.712,93.63
360,83.705,93.08
362,83.331,92.53
364,84.060,92.05
366,83.225,91.56
368,83.219,91.09
370,83.764,90.64
372,83.114,90.26
374,83.015,89.95
376,82.824,89.70
378,83.002,89.54
380,82.351,89.44
382,82.804,89.39
384,82.798,89.36
386,82.975,89.23
388,82.416,89.14
390,82.226,89.10
392,82.495,89.05
394,82.029,88.90
396,81.746,88.60
398,81.647,88.23
400,81.641,87.81
402,81.174,87.33
404,80.983,86.82
406,80.885,86.34
408,80.510,85.91
410,80.136,85.48
412,80.221,85.01
414,79.846,84.62
416,80.208,84.32
418,79.925,84.07
420,79.274,83.85
422,78.808,83.68
424,78.617,83.50
426,79.530,83.32
428,78.604,83.17
430,78.597,83.04
432,78.315,82.91
434,78.768,82.70
436,78.209,82.49
438,78.663,82.27
440,77.828,82.04
442,77.913,81.76
444,78.275,81.49
446,78.268,81.25
448,78.077,80.92
450,77.703,80.58
452,76.960,80.28
454,78.058,80.07
456,76.763,79.87
458,77.032,79.73
460,77.118,79.68
462,77.111,79.62
464,77.656,79.63
466,77.558,79.63
468,77.275,79.69
470,77.084,79.78
472,76.526,79.82
474,76.611,79.79
476,76.697,79.75
478,76.046,79.73
480,75.763,79.65
482,76.125,79.52
484,75.474,79.40
486,75.743,79.26
488,76.013,79.14
490,75.178,79.04
492,74.804,78.93
494,74.705,78.85
496,74.790,78.81
498,74.140,78.80
500,74.317,78.76
502,73.942,78.79
504,73.476,78.85
506,74.389,78.86
508,74.107,78.83
510,73.732,78.74
512,74.369,78.71
514,73.627,78.66
516,73.804,78.56
518,73.705,78.49
520,73.515,78.33
522,74.060,78.19
524,73.685,77.97
526,73.679,77.84
528,72.936,77.74
530,73.849,77.63
532,73.383,77.46
534,71.536,77.33
536,71.990,77.18
538,71.891,77.06
540,72.436,77.02
542,70.958,76.93
544,71.135,76.81
546,71.313,76.61
548,72.042,76.32
550,71.575,76.06
552,71.477,75.84
554,70.734,75.50
556,71.003,75.12
558,70.537,74.70
560,70.990,74.13
562,70.983,73.47
564,70.701,72.85
566,70.878,72.21
568,70.320,71.67
570,70.313,71.14
572,69.938,70.55
574,69.932,70.04
576,70.017,69.56
578,69.458,69.14
580,68.992,68.82
582,68.893,68.59
584,68.978,68.44
586,68.972,68.24
588,68.965,67.98
590,68.591,67.71
592,68.860,67.48
594,68.853,67.22
596,68.847,66.92
598,68.012,66.70
600,68.649,66.42
602,68.551,66.15
604,67.716,65.86
606,68.261,65.66
608,67.151,65.65
610,67.236,65.76
612,67.138,65.79
614,67.223,65.89
616,67.216,66.00
618,66.658,66.12
620,67.111,66.24
622,66.828,66.38
624,66.914,66.52
626,66.631,66.62
628,66.441,66.58
630,66.618,66.44
632,66.059,66.22
634,65.777,66.04
636,65.862,65.89
638,65.395,65.76
640,65.297,65.54
642,65.382,65.30
644,65.467,65.11
646,65.461,64.95
648,65.546,64.78
650,62.472,64.69
652,63.186,64.61
654,63.454,64.65
656,62.293,64.69
658,63.186,64.68
660,62.650,64.65
662,62.650,64.68
664,62.204,64.70
666,61.936,64.66
668,62.025,64.67
670,61.668,64.73
672,61.936,64.75
674,61.400,64.79
676,60.954,64.83
678,61.222,64.85
680,60.954,65.00
682,61.400,65.15
684,61.133,65.30
686,60.418,65.41
688,61.133,65.56
690,60.508,65.67
692,61.133,65.80
694,60.597,65.96
696,60.597,66.06
698,59.615,66.12
700,59.883,66.19
702,60.329,66.17
704,60.061,66.08
706,60.061,65.98
708,60.418,65.93
710,60.061,65.79
712,59.526,65.64
714,59.258,65.46
716,59.436,65.22
718,58.901,64.93
720,59.079,64.65
722,58.722,64.39
724,58.543,64.19
726,58.722,64.07
728,58.543,63.94
730,59.079,63.92
732,58.365,64.00
734,58.454,64.09
736,58.276,64.20
738,58.454,64.44
740,58.365,64.65
742,58.008,64.78
744,57.740,64.86
746,58.276,64.84
748,57.561,64.87
750,57.026,64.80
752,57.740,64.60
754,57.026,64.40
756,57.918,64.19
758,57.740,63.88
760,57.293,63.58
762,56.758,63.28
764,57.293,63.08
766,57.204,62.88
768,56.936,62.65
770,56.847,62.52
772,57.026,62.49
774,56.847,62.49
776,56.579,62.49
778,55.954,62.51
780,57.026,62.61
782,56.044,62.83
784,56.401,63.11
786,56.133,63.39
788,56.311,63.73
790,56.222,64.06
792,55.686,64.21
794,56.311,64.35
796,56.044,64.41
798,55.508,64.35
800,55.329,64.22
802,55.776,63.98
804,55.954,63.69
806,55.776,63.27
808,55.329,62.67
810,54.972,61.95
812,55.240,61.08
814,54.883,60.11
816,55.329,59.03
818,55.240,58.08
820,54.794,57.26
822,54.526,56.45
824,55.061,55.71
826,55.061,55.07
828,54.436,54.69
830,54.704,54.46
832,53.990,54.37
834,53.990,54.37
836,53.722,54.48
838,54.258,54.66
840,53.722,54.69
842,53.544,54.71
844,53.990,54.75
846,53.722,54.71
848,53.722,54.58
850,53.901,54.42
852,53.722,54.31
854,53.097,54.18
856,53.276,54.15
858,53.722,54.11
860,53.454,54.14
862,53.276,54.23
864,53.454,54.32
866,53.097,54.37
868,53.187,54.40
870,53.008,54.29
872,53.008,54.00
874,52.651,53.57
876,52.651,53.08
878,52.472,52.68
880,52.115,52.33
882,52.204,52.00
884,52.472,51.65
886,52.204,51.35
888,51.937,51.01
890,52.204,50.71
892,51.579,50.46
894,51.937,50.31
896,51.669,50.30
898,51.490,50.26
900,51.222,50.13
902,52.829,50.00
904,49.972,49.89
906,51.401,49.82
908,47.115,49.70
910,51.669,49.65
912,51.490,49.76
914,50.687,49.89
916,51.044,49.98
918,51.222,50.04
920,48.722,50.10
922,50.955,50.20
924,50.419,50.30
926,50.776,50.33
928,50.597,50.30
930,49.705,50.36
932,50.419,50.34
934,50.330,50.32
936,50.240,50.39
938,50.062,50.50
940,50.330,50.59
942,50.151,50.65
944,50.419,50.63
946,49.526,50.49
948,49.258,50.25
950,50.419,49.92
952,49.615,49.45
954,48.901,48.94
956,49.705,48.46
958,49.080,47.97
960,49.437,47.45
962,49.526,46.96
964,49.615,46.45
966,49.347,45.98
968,48.812,45.50
970,48.633,45.05
972,49.258,44.74
974,48.455,44.57
976,48.455,44.32
978,48.365,43.98
980,49.169,43.63
982,48.276,43.31
984,48.544,43.06
986,48.901,42.88
988,48.544,42.82
990,47.651,42.95
992,48.365,43.15
994,47.919,43.27
996,47.473,43.29
998,47.830,43.32
1000,47.830,43.34
1002,47.740,43.31
1004,47.562,43.21
1006,48.365,43.04
1008,47.562,42.88
1010,47.562,42.59
1012,47.205,42.15
1014,46.758,41.65
1016,46.848,41.12
1018,46.848,40.73
1020,47.205,40.45
1022,46.758,40.21
1024,47.383,40.03
1026,46.758,39.91
1028,47.026,39.75
1030,46.401,39.61
1032,46.669,39.53
1034,46.848,39.59
1036,46.133,39.82
1038,46.848,40.17
1040,46.312,40.49
1042,46.401,40.79
1044,46.758,40.98
1046,46.669,40.96
1048,46.848,40.92
1050,46.401,40.90
1052,45.955,40.90
1054,45.865,41.02
1056,45.955,40.98
1058,45.865,40.76
1060,45.508,40.47
1062,45.598,40.08
1064,45.865,39.69
1066,45.419,39.45
1068,45.330,39.28
1070,46.133,39.07
1072,46.133,38.85
1074,45.151,38.51
1076,45.508,38.15
1078,44.437,38.00
1080,45.151,37.83
1082,45.062,37.56
1084,44.348,37.30
1086,45.419,36.96
1088,44.616,36.63
1090,44.794,36.32
1092,44.883,36.04
1094,44.883,35.81
1096,44.705,35.66
1098,44.794,35.54
1100,44.348,35.45
1102,44.348,35.48
1104,44.348,35.63
1106,44.080,35.93
1108,43.901,36.33
1110,43.187,36.83
1112,43.633,37.34
1114,43.991,37.76
1116,43.544,38.06
1118,43.544,38.24
1120,43.455,38.32
1122,43.723,38.38
1124,43.723,38.48
1126,43.276,38.58
1128,43.276,38.63
1130,43.098,38.71
1132,42.473,38.71
1134,42.919,38.82
1136,42.919,38.98
1138,42.830,39.27
1140,43.098,39.52
1142,42.473,39.67
1144,42.651,39.82
1146,42.741,39.98
1148,42.741,40.21
1150,41.848,40.49
1152,42.383,40.69
1154,41.312,40.80
1156,42.383,40.86
1158,42.026,40.82
1160,42.294,40.71
1162,41.669,40.66
1164,42.205,40.72
1166,41.848,40.82
1168,41.669,40.90
1170,41.134,40.96
1172,41.848,40.97
1174,41.491,41.02
1176,41.223,41.24
1178,41.223,41.59
1180,40.955,41.97
1182,41.312,42.37
1184,40.687,42.72
1186,41.312,42.91
1188,40.509,43.06
1190,40.598,43.18
1192,40.866,43.32
1194,39.973,43.62
1196,40.330,43.95
1198,40.241,44.12
1200,40.062,44.11
1202,40.509,43.98
1204,39.884,43.74
1206,40.776,43.61
1208,40.419,43.51
1210,39.794,43.28
1212,40.151,42.95
1214,39.794,42.67
1216,39.794,42.33
1218,40.241,41.96
1220,39.884,41.74
1222,40.241,41.72
1224,39.794,41.90
1226,39.348,42.09
1228,39.169,42.11
1230,39.616,42.10
1232,39.794,42.17
1234,39.169,42.12
1236,39.259,41.97
1238,39.259,41.91
1240,39.348,41.88
1242,39.259,41.81
1244,38.991,41.74
1246,38.812,41.69
1248,38.812,41.70
1250,37.830,41.84
1252,38.455,42.08
1254,38.544,42.32
1256,38.902,42.55
1258,38.277,42.77
1260,38.455,42.88
1262,37.830,42.99
1264,38.009,43.10
1266,37.741,43.12
1268,38.277,43.14
1270,37.741,43.20
1272,38.009,43.28
1274,38.277,43.32
1276,37.830,43.36
1278,38.009,43.30
1280,37.741,43.14
1282,37.562,43.04
1284,37.741,42.85
1286,37.116,42.70
1288,37.562,42.62
1290,37.473,42.49
1292,37.205,42.30
1294,37.294,42.07
1296,37.205,41.82
1298,37.116,41.65
1300,37.205,41.49
1302,36.848,41.31
1304,36.759,41.12
1306,36.312,40.92
1308,36.402,40.61
1310,36.491,40.19
1312,36.312,39.74
1314,36.312,39.27
1316,36.312,38.73
1318,36.491,38.13
1320,36.580,37.62
1322,36.491,37.30
1324,35.955,36.97
1326,35.687,36.72
1328,36.045,36.55
1330,35.687,36.55
1332,35.687,36.72
1334,35.687,37.02
1336,35.598,37.44
1338,35.955,37.87
1340,35.330,38.24
1342,35.420,38.45
1344,35.330,38.57
1346,35.509,38.71
1348,35.062,38.88
1350,35.420,38.97
1352,35.420,38.95
1354,35.152,39.04
1356,34.527,39.09
1358,35.062,39.20
1360,35.062,39.44
1362,34.795,39.79
1364,34.259,40.11
1366,34.884,40.36
1368,34.616,40.47
1370,34.437,40.57
1372,34.170,40.73
1374,33.902,40.80
1376,34.705,40.86
1378,34.705,40.95
1380,33.991,41.01
1382,34.616,41.01
1384,34.348,41.10
1386,34.437,41.24
1388,33.902,41.42
1390,33.723,41.60
1392,33.366,41.70
1394,33.455,41.83
1396,33.723,41.95
1398,34.437,41.92
1400,33.634,41.88
1402,33.188,41.74
1404,33.098,41.60
1406,33.188,41.41
1408,33.098,41.29
1410,33.188,41.21
1412,33.188,41.21
1414,33.277,41.04
1416,32.920,40.84
1418,32.830,40.69
1420,32.830,40.63
1422,32.384,40.65
1424,32.384,40.67
1426,32.652,40.73
1428,32.563,40.87
1430,32.205,41.05
1432,32.473,41.21
1434,32.652,41.51
1436,32.384,41.87
1438,31.670,42.15
1440,32.116,42.26
1442,32.205,42.27
1444,32.027,42.22
1446,31.938,42.15
1448,31.580,42.06
1450,31.134,41.92
1452,31.402,41.86
1454,31.670,41.75
1456,31.045,41.62
1458,31.491,41.53
1460,31.402,41.54
1462,30.955,41.60
1464,31.402,41.59
1466,31.313,41.59
1468,30.866,41.47
1470,31.045,41.25
1472,30.866,40.92
1474,30.688,40.57
1476,30.866,40.24
1478,30.598,40.01
1480,31.134,39.72
1482,30.598,39.41
1484,30.420,39.23
1486,30.866,39.13
1488,31.134,39.10
1490,30.152,39.03
1492,30.241,38.98
1494,30.063,39.03
1496,30.241,38.98
1498,30.063,38.83
1500,30.598,38.70
1502,30.063,38.64
1504,29.884,38.63
1506,29.795,38.59
1508,29.706,38.49
1510,29.438,38.45
1512,29.884,38.50
1514,29.884,38.47
1516,29.616,38.41
1518,29.259,38.42
1520,29.259,38.35
1522,29.616,38.22
1524,29.706,37.98
1526,29.081,37.69
1528,29.616,37.38
1530,28.634,37.19
1532,29.259,37.06
1534,28.723,36.99
1536,28.902,37.04
1538,28.634,37.06
1540,28.634,37.08
1542,28.545,37.09
1544,28.634,37.13
1546,28.634,37.08
1548,27.920,36.93
1550,28.188,36.75
1552,28.723,36.56
1554,28.634,36.32
1556,28.098,36.03
1558,28.366,35.76
1560,27.652,35.49
1562,27.741,35.34
1564,28.277,35.18
1566,27.563,35.09
1568,27.831,35.03
1570,28.009,35.00
1572,27.206,34.91
1574,27.652,34.76
1576,27.741,34.63
1578,27.652,34.43
1580,27.920,34.22
1582,27.474,33.99
1584,27.474,33.79
1586,26.849,33.61
1588,27.116,33.48
1590,27.474,33.41
1592,27.474,33.38
1594,27.295,33.34
1596,26.849,33.26
1598,27.206,33.09
1600,27.027,32.88
1602,27.116,32.64
1604,26.849,32.33
1606,26.849,31.97
1608,27.027,31.56
1610,26.491,31.10
1612,26.581,30.71
1614,26.581,30.31
1616,25.866,29.99
1618,26.581,29.65
1620,26.581,29.42
1622,26.491,29.24
1624,26.134,29.09
1626,26.045,28.87
1628,26.402,28.71
1630,26.759,28.62
1632,25.688,28.58
1634,25.866,28.58
1636,25.866,28.54
1638,25.152,28.53
1640,26.224,28.47
1642,24.795,28.38
1644,25.599,28.40
1646,25.241,28.54
1648,25.420,28.77
1650,25.688,28.97
1652,25.241,29.26
1654,25.509,29.60
1656,25.866,29.96
1658,25.241,30.38
1660,24.884,30.87
1662,25.241,31.40
1664,24.706,31.78
1666,24.795,32.06
1668,24.795,32.31
1670,25.063,32.50
1672,24.706,32.48
1674,25.063,32.29
1676,24.617,31.93
1678,24.527,31.48
1680,24.795,30.90
1682,24.617,30.26
1684,24.349,29.63
1686,24.259,29.04
1688,24.349,28.36
1690,23.902,27.71
1692,23.902,27.10
1694,23.456,26.44
1696,24.438,25.80
1698,23.813,25.26
1700,24.259,24.92
1702,23.813,24.71
1704,23.813,24.46
1706,23.634,24.32
1708,24.081,24.32
1710,23.456,24.32
1712,23.634,24.31
1714,23.634,24.34
1716,23.367,24.40
1718,23.456,24.39
1720,23.545,24.31
1722,23.545,24.06
1724,23.009,23.81
1726,23.099,23.57
1728,23.277,23.24
1730,23.277,22.82
1732,23.099,22.52
1734,23.367,22.26
1736,23.009,22.00
1738,23.367,21.86
1740,23.099,21.67
1742,23.634,21.44
1744,22.652,21.23
1746,22.384,21.00
1748,22.652,20.83
1750,22.384,20.86
1752,22.742,20.92
1754,22.742,20.93
1756,22.652,21.03
1758,23.277,21.20
1760,22.742,21.47
1762,22.563,21.86
1764,22.384,22.28
1766,22.474,22.66
1768,22.474,22.97
1770,22.474,23.21
1772,22.295,23.32
1774,22.027,23.40
1776,22.027,23.50
1778,22.117,23.59
1780,22.206,23.52
1782,22.117,23.49
1784,21.938,23.48
1786,21.849,23.54
1788,22.027,23.67
1790,22.474,23.78
1792,21.938,23.86
1794,21.224,23.97
1796,21.670,24.11
1798,21.849,24.12
1800,21.313,24.12
1802,21.581,24.07
1804,21.313,23.84
1806,21.224,23.70
1808,21.760,23.60
1810,21.402,23.55
1812,21.045,23.52
1814,21.492,23.43
1816,20.956,23.30
1818,21.135,23.25
1820,21.045,23.33
1822,20.777,23.37
1824,20.510,23.52
1826,20.956,23.63
1828,20.063,23.55
1830,20.956,23.35
1832,20.599,23.16
1834,20.331,23.08
1836,20.956,23.11
1838,20.242,23.11
1840,20.510,22.98
1842,20.510,22.80
1844,20.063,22.62
1846,20.420,22.50
1848,20.599,22.54
1850,20.777,22.65
1852,20.688,22.65
1854,20.242,22.52
1856,19.974,22.30
1858,20.063,22.01
1860,19.885,21.71
1862,19.617,21.48
1864,20.242,21.39
1866,19.795,21.23
1868,20.152,21.09
1870,20.152,20.99
1872,19.974,20.92
1874,20.152,20.88
1876,18.992,20.81
1878,19.260,20.75
1880,19.527,20.70
1882,19.170,20.66
1884,20.152,20.59
1886,19.170,20.55
1888,18.813,20.46
1890,19.438,20.27
1892,19.438,20.08
1894,19.885,19.97
1896,19.617,19.95
1898,18.992,19.90
1900,19.170,19.81
1902,18.902,19.71
1904,18.813,19.51
1906,18.545,19.23
1908,18.902,19.07
1910,18.456,18.92
1912,18.992,18.79
1914,18.635,18.65
1916,18.456,18.50
1918,18.724,18.29
1920,18.724,18.02
1922,18.367,17.76
1924,18.992,17.59
1926,18.367,17.58
1928,18.635,17.51
1930,18.456,17.31
1932,17.920,17.16
1934,18.278,17.06
1936,17.742,16.83
1938,18.545,16.50
1940,18.099,16.23
1942,18.367,16.10
1944,18.188,16.05
1946,17.920,16.03
1948,18.278,16.01
1950,17.563,16.10
1952,18.188,16.18
1954,18.010,16.12
1956,17.742,15.95
1958,18.188,15.93
1960,17.831,15.99
1962,18.099,16.01
1964,17.385,15.96
1966,18.010,15.79
1968,17.831,15.53
1970,17.653,15.18
1972,17.920,14.89
1974,17.474,14.59
1976,17.206,14.37
1978,17.920,14.14
1980,17.920,13.92
1982,17.920,13.74
1984,17.563,13.57
1986,17.385,13.33
1988,17.385,13.09
1990,16.849,12.85
1992,17.206,12.52
1994,17.117,12.18
1996,16.938,11.96
1998,17.653,11.78
2000,17.117,11.63
2002,16.760,11.40
2004,17.385,11.24
2006,16.938,11.11
2008,17.385,11.02
2010,17.742,11.02
2012,16.760,11.15
2014,16.849,11.34
2016,16.670,11.46
2018,16.938,11.41
2020,16.581,11.31
2022,16.760,11.22
2024,16.760,11.09
2026,16.760,10.91
2028,17.028,10.80
2030,16.492,10.70
2032,16.760,10.56
2034,16.313,10.35
2036,16.045,10.17
2038,16.313,10.10
2040,16.224,10.14
2042,16.224,10.24
2044,16.313,10.32
2046,16.670,10.44
2048,16.403,10.48
2050,16.224,10.39
2052,16.581,10.30
2054,16.403,10.16
2056,15.778,9.99
2058,16.045,9.79
2060,16.313,9.59
2062,15.778,9.41
2064,15.867,9.36
2066,15.778,9.37
2068,15.956,9.37
2070,15.778,9.37
2072,14.885,9.29
2074,15.867,9.12
2076,15.688,8.94
2078,15.599,8.77
2080,15.599,8.61
2082,15.956,8.53
2084,14.885,8.31
2086,16.135,7.98
2088,15.421,7.56
2090,15.688,7.10
2092,15.688,6.64
2094,15.331,6.33
2096,15.242,6.05
2098,15.331,5.71
2100,15.242,5.45
2102,15.153,5.20
2104,14.706,4.92
2106,14.706,4.67
2108,15.421,4.52
2110,14.974,4.35
2112,15.153,4.20
2114,15.063,4.07
2116,15.063,3.96
2118,14.885,3.89
2120,14.974,3.80
2122,14.349,3.58
2124,14.706,3.47
2126,15.242,3.44
2128,14.260,3.41
2130,14.974,3.49
2132,14.349,3.74
2134,14.617,3.95
2136,14.796,4.10
2138,14.885,4.19
2140,14.796,4.21
2142,14.260,4.33
2144,14.528,4.38
2146,14.617,4.12
2148,14.081,3.73
2150,13.903,3.33
2152,14.081,2.86
2154,14.349,2.41
2156,14.171,2.14
2158,14.171,1.89
2160,14.528,1.71
2162,14.438,1.44
2164,14.885,1.27
2166,14.438,1.22
2168,13.724,1.19
2170,14.260,1.20
2172,14.171,1.29
2174,14.260,1.47
2176,13.635,1.68
2178,13.813,1.88
2180,13.456,2.09
2182,13.546,2.34
2184,13.903,2.61
2186,13.724,2.82
2188,14.260,3.20
2190,14.081,3.59
2192,13.099,3.87
2194,13.456,4.00
2196,13.188,3.96
2198,13.278,3.75
2200,13.724,3.52
2202,13.188,3.31
2204,13.635,3.10
2206,13.367,2.90
2208,13.546,2.64
2210,13.813,2.35
2212,14.260,2.11
2214,13.188,1.87
2216,13.367,1.67
2218,13.099,1.52
2220,12.742,1.39
2222,13.367,1.31
2224,13.546,1.28
2226,12.831,1.24
2228,13.188,1.14
2230,13.278,1.07
2232,12.653,1.06
2234,13.099,1.08
2236,12.831,1.15
2238,12.028,1.24
2240,12.564,1.24
2242,12.742,1.16
2244,12.831,1.02
2246,12.831,0.88
2248,12.296,0.82
2250,12.831,0.79
2252,12.564,0.77
2254,12.117,0.72
2256,12.296,0.65
2258,12.206,0.53
2260,12.117,0.51
2262,11.939,0.62
2264,12.117,0.86
2266,12.385,1.16
2268,11.849,1.48
2270,11.939,1.76
2272,11.849,1.98
2274,11.849,2.11
2276,12.385,2.25
2278,12.296,2.50
2280,11.939,2.69
2282,11.314,2.82
2284,11.492,2.82
2286,11.403,2.68
2288,12.653,2.40
2290,11.314,2.12
2292,11.581,1.84
2294,11.492,1.62
2296,11.314,1.46
2298,12.206,1.29
2300,11.403,1.13
2302,10.778,0.98
2304,11.046,0.90
2306,11.403,0.89
2308,11.314,0.89
2310,11.224,0.89
2312,11.314,0.88
2314,11.135,0.84
2316,11.581,0.77
2318,11.314,0.69
2320,11.046,0.54
2322,11.135,0.43
2324,11.224,0.33
2326,10.867,0.25
2328,11.581,0.23
2330,11.135,0.20
2332,12.028,0.13
2334,11.224,0.08
2336,10.510,0.05
2338,11.314,0.02
2340,11.046,0.00
2342,10.867,0.00