File: Wood/Calibration_Data/UMET/UMET_Cone_30KW_hor_R1.csv
Time (s),Mass (g),HRR (kW/m2)
0,101.3,0
2,101.3,0
4,101.3,0
6,101.3,0
8,101.3,0
10,101.3,0
12,101.3,0
14,101.3,0
16,101.3,0
18,101.3,0
20,101.3,0
22,101.3,0
24,101.3,0
26,100.648,3.18
28,101.020,9.30
30,100.648,16.85
32,100.648,25.49
34,100.648,35.06
36,100.089,45.29
38,101.766,56.02
40,100.089,67.01
42,100.089,78.16
44,99.529,88.64
46,99.343,97.22
48,98.970,103.79
50,98.411,108.78
52,97.759,112.53
54,97.852,115.10
56,97.666,116.83
58,96.734,117.93
60,97.200,118.63
62,97.200,118.97
64,97.666,119.00
66,96.734,118.79
68,96.454,118.35
70,96.454,117.70
72,97.107,116.87
74,96.734,115.97
76,95.895,115.00
78,96.548,114.04
80,95.709,113.01
82,96.361,111.95
84,96.548,110.90
86,95.988,109.89
88,94.870,108.97
90,95.150,108.05
92,95.057,107.16
94,94.591,106.32
96,95.150,105.49
98,94.963,104.69
100,94.684,103.86
102,94.404,103.06
104,94.497,102.20
106,94.031,101.30
108,94.404,100.40
110,93.379,99.54
112,93.286,98.72
114,93.566,97.94
116,93.752,97.21
118,93.938,96.49
120,93.752,95.75
122,93.100,95.03
124,92.075,94.39
126,92.727,93.87
128,91.888,93.38
130,93.379,92.90
132,91.888,92.42
134,92.541,92.03
136,91.981,91.69
138,91.981,91.40
140,90.863,91.14
142,90.490,90.99
144,90.863,90.89
146,90.118,90.85
148,89.652,90.81
150,90.024,90.76
152,89.279,90.71
154,89.093,90.67
156,89.745,90.62
158,89.745,90.58
160,90.118,90.56
162,89.372,90.55
164,89.652,90.48
166,89.093,90.35
168,90.211,90.20
170,89.279,90.11
172,89.745,90.06
174,88.720,90.09
176,88.813,90.13
178,88.254,90.11
180,88.440,90.09
182,89.745,90.02
184,87.602,89.95
186,87.695,89.93
188,88.161,89.94
190,87.695,89.83
192,86.670,89.70
194,86.763,89.59
196,86.670,89.41
198,85.645,89.26
200,84.620,89.09
202,84.154,88.89
204,85.179,88.71
206,84.340,88.51
208,86.111,88.23
210,84.806,88.00
212,85.179,87.76
214,85.086,87.48
216,84.713,87.19
218,85.645,86.94
220,85.086,86.70
222,85.272,86.47
224,84.620,86.28
226,84.899,86.07
228,84.713,85.85
230,85.272,85.65
232,83.967,85.45
234,84.247,85.24
236,85.458,84.97
238,85.086,84.72
240,84.992,84.49
242,84.247,84.34
244,85.552,84.24
246,83.222,84.12
248,83.222,83.98
250,82.849,83.75
252,82.942,83.63
254,82.942,83.55
256,81.917,83.54
258,81.824,83.60
260,81.638,83.61
262,82.290,83.58
264,82.383,83.51
266,82.104,83.47
268,82.010,83.38
270,82.197,83.34
272,81.172,83.28
274,81.824,83.13
276,82.290,82.93
278,80.892,82.63
280,81.358,82.22
282,82.197,81.80
284,80.799,81.42
286,81.079,81.03
288,81.172,80.67
290,80.240,80.37
292,80.520,80.14
294,80.613,80.00
296,80.147,79.89
298,80.426,79.82
300,79.588,79.91
302,79.122,80.09
304,79.494,80.28
306,79.029,80.39
308,78.935,80.45
310,77.817,80.53
312,78.190,80.65
314,78.097,80.68
316,78.190,80.62
318,78.656,80.52
320,78.097,80.43
322,78.283,80.33
324,78.097,80.19
326,77.631,80.10
328,79.122,80.06
330,77.817,80.07
332,78.376,80.01
334,77.072,79.92
336,78.190,79.92
338,77.817,79.97
340,77.351,80.05
342,77.258,80.12
344,77.072,80.19
346,76.513,80.24
348,76.513,80.21
350,76.606,80.14
352,76.326,80.05
354,76.792,79.98
356,75.394,79.89
358,75.208,79.73
360,75.581,79.52
362,75.115,79.28
364,75.581,78.96
366,75.208,78.63
368,74.835,78.29
370,75.394,78.02
372,74.928,77.79
374,74.742,77.70
376,75.487,77.66
378,75.022,77.65
380,74.928,77.77
382,74.649,77.95
384,74.649,78.22
386,75.581,78.51
388,74.090,78.89
390,74.928,79.29
392,75.022,79.69
394,73.903,80.02
396,73.996,80.27
398,73.996,80.41
400,73.810,80.56
402,73.903,80.68
404,73.437,80.77
406,73.437,80.87
408,73.437,80.90
410,73.437,80.89
412,73.437,80.82
414,73.251,80.73
416,73.065,80.68
418,72.692,80.64
420,72.878,80.57
422,72.599,80.47
424,72.971,80.30
426,72.412,80.15
428,71.760,79.98
430,72.040,79.81
432,71.667,79.71
434,70.828,79.67
436,71.015,79.58
438,71.294,79.51
440,70.176,79.48
442,70.083,79.49
444,70.083,79.52
446,69.524,79.49
448,70.176,79.39
450,70.176,79.31
452,70.362,79.25
454,70.362,79.13
456,70.176,78.98
458,69.710,78.81
460,69.989,78.60
462,69.430,78.37
464,69.337,78.10
466,68.871,77.95
468,69.430,77.87
470,68.964,77.87
472,69.337,77.86
474,69.430,77.84
476,68.592,77.79
478,69.151,77.76
480,68.778,77.71
482,68.592,77.65
484,68.405,77.54
486,68.499,77.37
488,68.499,77.11
490,68.219,76.81
492,68.219,76.53
494,67.567,76.28
496,68.126,76.10
498,67.846,75.90
500,67.473,75.69
502,68.126,75.48
504,67.008,75.27
506,67.660,75.12
508,67.194,74.96
510,67.101,74.75
512,66.355,74.56
514,67.194,74.31
516,66.448,73.95
518,65.796,73.55
520,65.610,73.23
522,65.982,72.94
524,65.889,72.69
526,65.982,72.47
528,65.796,72.35
530,66.076,72.36
532,66.262,72.33
534,65.423,72.28
536,64.957,72.30
538,65.051,72.46
540,64.957,72.65
542,65.517,72.85
544,64.492,73.07
546,64.492,73.38
548,64.957,73.72
550,64.957,74.04
552,64.398,74.43
554,64.119,74.98
556,64.212,75.62
558,63.560,76.24
560,63.653,76.81
562,63.280,77.42
564,63.466,78.12
566,62.721,78.84
568,63.094,79.51
570,63.094,80.10
572,63.094,80.58
574,62.814,80.91
576,63.094,81.08
578,62.348,81.16
580,62.907,81.17
582,62.348,81.05
584,62.535,80.92
586,62.255,80.87
588,61.789,80.83
590,61.510,80.82
592,61.323,80.84
594,61.789,80.93
596,60.391,81.00
598,60.205,81.03
600,60.764,81.13
602,60.764,81.33
604,60.764,81.52
606,60.112,81.54
608,59.925,81.46
610,60.391,81.37
612,60.671,81.14
614,60.485,80.80
616,60.391,80.47
618,60.298,80.28
620,59.739,80.10
622,59.459,79.94
624,60.019,79.78
626,60.112,79.75
628,58.994,79.78
630,59.459,79.80
632,59.180,79.95
634,58.621,80.28
636,59.180,80.75
638,59.553,81.22
640,58.528,81.64
642,58.900,82.09
644,58.434,82.56
646,58.528,83.02
648,58.528,83.47
650,58.434,83.83
652,58.062,84.14
654,57.503,84.31
656,57.875,84.34
658,57.316,84.29
660,57.130,84.12
662,57.409,83.82
664,57.130,83.46
666,57.130,83.03
668,57.503,82.61
670,57.037,82.16
672,56.850,81.68
674,56.850,81.17
676,56.012,80.74
678,56.664,80.34
680,56.943,79.90
682,55.452,79.54
684,56.291,79.18
686,56.478,78.74
688,55.359,78.25
690,55.732,77.64
692,55.546,77.01
694,55.359,76.44
696,55.359,75.84
698,55.452,75.23
700,55.452,74.65
702,54.334,74.07
704,54.427,73.56
706,54.800,73.16
708,54.707,72.81
710,54.707,72.44
712,54.241,72.03
714,54.521,71.56
716,54.893,71.03
718,54.148,70.48
720,53.868,69.95
722,53.868,69.46
724,53.962,68.98
726,54.334,68.44
728,53.775,67.90
730,53.402,67.48
732,53.962,67.26
734,54.334,67.10
736,53.216,67.05
738,53.589,67.05
740,53.682,67.06
742,53.682,67.12
744,53.216,67.28
746,53.402,67.39
748,52.377,67.46
750,52.936,67.40
752,52.377,67.14
754,51.818,66.88
756,52.936,66.61
758,51.818,66.31
760,52.005,66.08
762,51.911,65.89
764,51.632,65.70
766,52.191,65.50
768,51.725,65.46
770,51.632,65.53
772,51.818,65.75
774,51.539,66.04
776,51.539,66.27
778,50.793,66.54
780,50.327,66.83
782,50.886,67.05
784,50.607,67.12
786,50.700,67.15
788,50.700,67.10
790,50.700,66.94
792,50.700,66.78
794,50.514,66.61
796,50.886,66.43
798,50.327,66.26
800,50.141,66.08
802,49.768,65.88
804,50.048,65.70
806,50.420,65.51
808,49.582,65.32
810,49.955,65.26
812,49.582,65.20
814,48.836,65.08
816,49.302,64.85
818,49.302,64.62
820,49.209,64.39
822,49.675,64.12
824,48.929,63.92
826,48.743,63.77
828,49.209,63.63
830,48.464,63.49
832,48.836,63.29
834,47.904,63.05
836,47.811,62.92
838,47.904,62.81
840,48.184,62.66
842,47.904,62.51
844,48.091,62.36
846,48.464,62.23
848,48.184,62.12
850,47.811,62.02
852,47.066,61.98
854,47.252,61.91
856,47.066,61.88
858,46.600,61.89
860,47.438,61.95
862,47.438,61.98
864,48.184,62.05
866,47.252,62.19
868,46.693,62.27
870,46.507,62.38
872,46.320,62.49
874,45.388,62.62
876,46.413,62.72
878,46.413,62.87
880,46.413,63.01
882,47.345,63.17
884,46.973,63.35
886,46.041,63.45
888,45.948,63.54
890,45.668,63.73
892,45.388,63.89
894,45.016,64.00
896,45.295,64.17
898,45.109,64.30
900,45.295,64.31
902,44.270,64.21
904,44.643,63.99
906,44.736,63.75
908,45.575,63.45
910,45.016,63.04
912,44.736,62.59
914,44.829,62.21
916,45.109,61.84
918,44.177,61.46
920,44.270,61.12
922,44.363,60.83
924,43.152,60.70
926,43.152,60.62
928,42.872,60.57
930,43.618,60.51
932,44.084,60.45
934,43.152,60.36
936,43.152,60.15
938,43.804,59.92
940,43.991,59.69
942,43.245,59.52
944,43.525,59.24
946,43.152,58.88
948,43.059,58.55
950,42.779,58.25
952,43.152,57.95
954,42.872,57.65
956,42.686,57.34
958,42.779,57.11
960,43.152,56.84
962,42.500,56.58
964,42.686,56.31
966,42.034,56.13
968,41.009,55.97
970,42.127,55.77
972,40.822,55.58
974,41.009,55.36
976,40.915,55.10
978,41.102,54.79
980,40.729,54.48
982,41.475,54.17
984,40.636,53.93
986,41.754,53.70
988,41.288,53.49
990,40.729,53.34
992,41.288,53.38
994,40.729,53.47
996,41.475,53.65
998,41.009,53.90
1000,41.102,54.16
1002,40.915,54.47
1004,40.915,54.77
1006,40.263,55.03
1008,39.890,55.26
1010,39.984,55.47
1012,39.611,55.51
1014,39.984,55.50
1016,39.704,55.45
1018,39.890,55.36
1020,39.984,55.35
1022,39.797,55.39
1024,39.797,55.40
1026,39.797,55.39
1028,39.797,55.37
1030,39.424,55.37
1032,39.611,55.43
1034,39.518,55.47
1036,38.493,55.49
1038,38.959,55.54
1040,38.772,55.61
1042,38.399,55.64
1044,38.399,55.67
1046,37.468,55.63
1048,37.840,55.62
1050,37.374,55.60
1052,38.306,55.49
1054,38.027,55.37
1056,37.840,55.22
1058,38.399,55.05
1060,38.027,54.87
1062,38.213,54.69
1064,38.120,54.38
1066,37.747,53.98
1068,37.561,53.67
1070,37.654,53.43
1072,37.840,53.26
1074,38.213,53.11
1076,38.120,53.03
1078,37.934,52.99
1080,36.070,53.05
1082,37.374,53.05
1084,37.840,53.08
1086,36.815,53.34
1088,37.281,53.62
1090,36.908,53.86
1092,36.443,53.99
1094,35.977,54.13
1096,35.790,54.24
1098,36.070,54.32
1100,35.790,54.32
1102,35.883,54.29
1104,35.977,54.28
1106,36.256,54.20
1108,35.977,54.10
1110,35.883,53.97
1112,35.883,53.89
1114,35.417,53.89
1116,36.629,53.96
1118,36.443,54.00
1120,37.281,53.98
1122,35.417,53.92
1124,35.790,53.80
1126,35.231,53.65
1128,35.697,53.51
1130,35.697,53.37
1132,35.045,53.23
1134,34.765,53.09
1136,35.045,52.98
1138,34.486,52.92
1140,35.604,52.96
1142,35.417,53.09
1144,36.163,53.26
1146,36.070,53.49
1148,35.790,53.75
1150,35.883,54.07
1152,35.697,54.41
1154,35.417,54.73
1156,35.883,54.95
1158,35.417,55.07
1160,35.417,55.14
1162,35.790,55.23
1164,35.045,55.35
1166,35.511,55.44
1168,34.858,55.50
1170,35.604,55.45
1172,35.604,55.35
1174,35.417,55.16
1176,34.765,54.96
1178,35.045,54.80
1180,34.486,54.65
1182,34.299,54.50
1184,35.045,54.31
1186,34.299,54.07
1188,34.113,53.81
1190,34.672,53.57
1192,34.486,53.38
1194,34.486,53.30
1196,34.952,53.40
1198,34.206,53.53
1200,34.206,53.67
1202,33.367,53.77
1204,34.206,53.83
1206,33.647,53.88
1208,33.274,53.91
1210,33.740,54.02
1212,33.367,54.15
1214,33.088,54.23
1216,33.554,54.30
1218,33.274,54.30
1220,33.461,54.22
1222,33.088,54.08
1224,32.808,53.93
1226,33.181,53.80
1228,33.740,53.68
1230,33.274,53.53
1232,33.181,53.41
1234,32.715,53.21
1236,32.715,52.93
1238,32.156,52.58
1240,32.342,52.27
1242,33.554,52.04
1244,32.715,51.84
1246,33.088,51.71
1248,32.156,51.60
1250,32.529,51.59
1252,32.342,51.50
1254,31.597,51.37
1256,31.690,51.36
1258,31.317,51.40
1260,32.342,51.45
1262,31.876,51.65
1264,31.597,51.88
1266,32.249,52.16
1268,32.156,52.41
1270,31.224,52.60
1272,32.156,52.78
1274,31.038,53.00
1276,31.597,53.21
1278,31.597,53.40
1280,30.851,53.56
1282,31.317,53.59
1284,30.385,53.50
1286,30.758,53.34
1288,30.851,53.16
1290,30.665,52.98
1292,30.665,52.81
1294,30.385,52.68
1296,30.665,52.66
1298,30.572,52.58
1300,30.013,52.53
1302,30.106,52.54
1304,30.013,52.56
1306,29.733,52.57
1308,30.385,52.54
1310,30.106,52.51
1312,30.013,52.53
1314,30.479,52.46
1316,30.572,52.36
1318,29.920,52.18
1320,29.826,52.03
1322,30.106,51.91
1324,29.547,51.75
1326,29.640,51.62
1328,29.547,51.57
1330,29.547,51.52
1332,29.547,51.46
1334,29.920,51.46
1336,29.547,51.49
1338,29.360,51.49
1340,29.547,51.56
1342,28.988,51.52
1344,29.454,51.44
1346,28.988,51.29
1348,28.894,51.09
1350,29.360,50.95
1352,28.801,50.82
1354,29.267,50.68
1356,28.988,50.47
1358,28.988,50.22
1360,28.708,50.03
1362,28.615,49.94
1364,28.335,49.91
1366,28.988,49.89
1368,28.615,49.88
1370,28.335,49.80
1372,28.429,49.72
1374,28.429,49.70
1376,28.056,49.71
1378,28.429,49.80
1380,28.335,49.94
1382,28.149,49.97
1384,27.403,49.94
1386,28.429,49.83
1388,28.242,49.71
1390,27.963,49.64
1392,27.869,49.58
1394,27.590,49.40
1396,27.963,49.21
1398,28.149,48.96
1400,27.776,48.67
1402,27.310,48.38
1404,27.963,48.10
1406,27.776,47.95
1408,27.590,47.91
1410,27.031,47.90
1412,27.403,47.99
1414,27.310,48.11
1416,27.031,48.18
1418,27.403,48.23
1420,26.844,48.27
1422,27.031,48.30
1424,26.938,48.28
1426,27.403,48.22
1428,26.658,48.09
1430,26.938,48.02
1432,26.751,47.81
1434,26.472,47.54
1436,27.124,47.23
1438,26.658,46.98
1440,26.565,46.77
1442,26.565,46.55
1444,26.378,46.29
1446,26.285,46.04
1448,26.378,45.84
1450,25.819,45.59
1452,26.658,45.30
1454,25.913,45.09
1456,25.353,45.00
1458,25.819,44.97
1460,25.913,44.95
1462,25.353,44.97
1464,25.633,45.04
1466,25.633,45.19
1468,25.447,45.28
1470,25.447,45.30
1472,25.260,45.34
1474,25.074,45.35
1476,25.353,45.32
1478,24.701,45.22
1480,25.260,45.08
1482,24.608,44.93
1484,25.260,44.83
1486,24.887,44.73
1488,24.981,44.64
1490,24.981,44.52
1492,24.794,44.37
1494,24.328,44.34
1496,25.819,44.37
1498,24.515,44.44
1500,25.074,44.50
1502,24.701,44.56
1504,24.701,44.52
1506,24.422,44.34
1508,23.769,44.15
1510,24.422,44.06
1512,23.862,44.01
1514,23.676,43.99
1516,24.049,43.90
1518,23.956,43.72
1520,23.583,43.54
1522,23.676,43.36
1524,23.396,43.18
1526,24.049,43.17
1528,23.583,43.26
1530,23.583,43.33
1532,23.303,43.34
1534,23.490,43.32
1536,23.117,43.27
1538,22.651,43.21
1540,23.676,43.20
1542,23.024,43.17
1544,23.490,43.17
1546,23.117,43.05
1548,23.024,42.83
1550,23.303,42.60
1552,22.651,42.44
1554,22.931,42.21
1556,22.651,41.85
1558,22.837,41.50
1560,22.744,41.12
1562,22.558,40.82
1564,22.744,40.55
1566,22.465,40.32
1568,22.651,40.18
1570,22.465,40.11
1572,22.092,40.01
1574,21.906,39.95
1576,21.812,39.97
1578,22.558,40.09
1580,22.651,40.25
1582,22.465,40.29
1584,22.371,40.19
1586,22.278,40.16
1588,21.906,40.14
1590,22.278,40.11
1592,21.533,40.02
1594,21.719,39.85
1596,22.092,39.68
1598,21.533,39.53
1600,21.440,39.37
1602,21.533,39.23
1604,21.626,39.24
1606,21.533,39.26
1608,21.999,39.31
1610,21.626,39.36
1612,21.999,39.38
1614,21.626,39.44
1616,21.160,39.44
1618,21.253,39.39
1620,20.601,39.30
1622,20.787,39.20
1624,20.880,39.01
1626,21.067,38.87
1628,21.346,38.81
1630,20.787,38.69
1632,20.508,38.56
1634,20.974,38.41
1636,20.508,38.30
1638,20.880,38.34
1640,20.321,38.43
1642,20.508,38.56
1644,20.321,38.57
1646,20.415,38.50
1648,20.880,38.30
1650,20.415,38.03
1652,20.135,37.78
1654,20.508,37.49
1656,20.508,37.19
1658,20.321,36.88
1660,20.601,36.55
1662,20.042,36.20
1664,20.135,35.91
1666,19.949,35.61
1668,19.949,35.19
1670,20.135,34.78
1672,20.508,34.33
1674,18.924,33.93
1676,19.762,33.68
1678,19.762,33.46
1680,19.762,33.27
1682,19.949,33.10
1684,19.576,33.00
1686,20.042,32.92
1688,19.483,33.00
1690,19.762,33.26
1692,19.483,33.46
1694,19.855,33.67
1696,19.296,33.72
1698,19.855,33.74
1700,19.389,33.69
1702,19.203,33.65
1704,19.576,33.55
1706,19.483,33.44
1708,19.017,33.28
1710,19.017,33.04
1712,18.644,32.84
1714,18.830,32.67
1716,18.924,32.60
1718,18.551,32.58
1720,18.551,32.62
1722,19.296,32.61
1724,18.924,32.61
1726,19.203,32.58
1728,18.551,32.54
1730,18.924,32.56
1732,19.017,32.60
1734,18.551,32.53
1736,18.737,32.45
1738,18.924,32.30
1740,18.458,32.11
1742,18.551,31.87
1744,18.551,31.51
1746,18.737,31.06
1748,18.178,30.54
1750,17.712,30.03
1752,18.178,29.54
1754,18.178,29.01
1756,17.712,28.54
1758,17.899,28.02
1760,18.085,27.53
1762,18.271,27.01
1764,18.178,26.61
1766,17.899,26.36
1768,17.992,26.18
1770,17.805,26.04
1772,18.085,25.92
1774,17.433,25.86
1776,18.271,25.78
1778,17.805,25.68
1780,17.899,25.51
1782,17.619,25.46
1784,17.433,25.47
1786,17.805,25.48
1788,17.619,25.36
1790,17.899,25.27
1792,17.526,25.19
1794,17.060,25.00
1796,16.780,24.83
1798,17.060,24.71
1800,17.339,24.69
1802,17.153,24.66
1804,17.339,24.54
1806,17.246,24.40
1808,17.060,24.32
1810,17.619,24.33
1812,17.246,24.29
1814,17.619,24.25
1816,16.687,24.21
1818,17.246,24.12
1820,17.060,23.98
1822,16.780,23.92
1824,16.873,23.76
1826,16.221,23.59
1828,16.687,23.35
1830,16.408,23.06
1832,16.687,22.82
1834,16.687,22.57
1836,16.780,22.39
1838,15.382,22.20
1840,16.594,21.97
1842,16.314,21.70
1844,16.128,21.34
1846,16.314,21.07
1848,16.221,20.87
1850,15.662,20.79
1852,14.171,20.75
1854,16.967,20.65
1856,15.848,20.58
1858,15.848,20.50
1860,16.035,20.43
1862,16.128,20.46
1864,15.755,20.39
1866,15.662,20.30
1868,15.755,20.20
1870,15.476,20.03
1872,16.128,19.85
1874,15.848,19.70
1876,15.196,19.59
1878,15.942,19.50
1880,15.942,19.50
1882,15.662,19.45
1884,15.755,19.44
1886,15.196,19.54
1888,15.755,19.69
1890,15.382,19.73
1892,15.382,19.72
1894,15.662,19.65
1896,15.755,19.63
1898,15.196,19.69
1900,15.289,19.71
1902,15.103,19.69
1904,15.010,19.61
1906,15.010,19.43
1908,14.917,19.10
1910,15.010,18.73
1912,14.357,18.39
1914,15.569,18.04
1916,15.196,17.62
1918,15.382,17.07
1920,15.755,16.44
1922,15.289,15.83
1924,14.357,15.23
1926,14.730,14.64
1928,15.196,14.11
1930,14.637,13.72
1932,14.637,13.47
1934,14.730,13.31
1936,13.798,13.23
1938,14.730,13.18
1940,14.357,13.12
1942,14.917,13.05
1944,14.730,12.91
1946,15.196,12.78
1948,14.637,12.73
1950,14.823,12.64
1952,14.544,12.48
1954,14.544,12.25
1956,14.264,12.00
1958,14.637,11.79
1960,14.451,11.60
1962,15.382,11.43
1964,14.451,11.25
1966,15.103,11.09
1968,14.730,10.96
1970,14.544,10.82
1972,14.357,10.76
1974,14.171,10.69
1976,14.544,10.53
1978,14.264,10.33
1980,13.985,10.17
1982,14.264,10.12
1984,14.451,10.12
1986,14.171,10.13
1988,14.730,10.20
1990,14.264,10.33
1992,14.171,10.38
1994,13.985,10.31
1996,13.985,10.29
1998,14.078,10.31
2000,13.985,10.30
2002,13.612,10.19
2004,14.637,9.99
2006,13.892,9.79
2008,13.705,9.60
2010,14.544,9.44
2012,13.892,9.29
2014,13.612,9.17
2016,13.892,9.05
2018,13.332,8.93
2020,13.612,8.85
2022,13.892,8.76
2024,13.519,8.67
2026,13.612,8.53
2028,13.612,8.37
2030,13.705,8.16
2032,13.892,7.97
2034,12.960,7.82
2036,13.426,7.74
2038,13.892,7.68
2040,13.426,7.61
2042,13.612,7.52
2044,13.705,7.43
2046,12.866,7.31
2048,13.612,7.28
2050,13.519,7.30
2052,13.146,7.30
2054,13.053,7.18
2056,13.053,7.08
2058,13.053,6.98
2060,13.798,6.81
2062,12.680,6.58
2064,13.239,6.34
2066,12.866,6.17
2068,13.426,6.08
2070,12.866,5.99
2072,12.680,5.88
2074,12.773,5.78
2076,12.960,5.71
2078,12.587,5.60
2080,13.146,5.51
2082,12.494,5.40
2084,13.053,5.31
2086,12.680,5.29
2088,12.680,5.22
2090,12.494,5.05
2092,12.587,4.87
2094,12.587,4.72
2096,12.773,4.56
2098,12.307,4.39
2100,12.307,4.19
2102,12.680,4.03
2104,12.587,3.91
2106,12.401,3.76
2108,12.587,3.60
2110,12.307,3.49
2112,12.587,3.51
2114,12.960,3.52
2116,12.214,3.57
2118,12.680,3.63
2120,12.494,3.67
2122,11.655,3.79
2124,12.494,3.97
2126,11.935,4.13
2128,12.307,4.26
2130,12.587,4.38
2132,12.214,4.34
2134,11.841,4.18
2136,12.028,3.92
2138,12.401,3.52
2140,12.121,3.15
2142,11.469,2.84
2144,12.028,2.40
2146,12.121,2.04
2148,12.214,1.72
2150,12.028,1.47
2152,12.587,1.33
2154,11.375,1.28
2156,11.748,1.26
2158,11.748,1.32
2160,11.189,1.49
2162,12.028,1.60
2164,11.562,1.79
2166,12.307,2.01
2168,10.630,2.19
2170,11.375,2.38
2172,11.282,2.54
2174,11.543,2.67
2176,11.485,2.83
2178,11.428,3.02
2180,11.370,3.20
2182,11.312,3.42
2184,11.255,3.64
2186,11.197,3.77
2188,11.139,3.87
2190,11.082,3.96
2192,11.024,3.94
2194,10.966,3.89
2196,10.908,3.86
2198,10.851,3.87
2200,10.793,3.90
2202,10.735,3.89
2204,10.678,3.87
2206,10.620,3.83