File: Wood/Calibration_Data/UMET/UMET_TGA_O2-21_10K_R3.csv
Time (s),Temperature (K),Mass (mg)
0,313.14,4.7632
6,314.14,4.7628
12,315.14,4.7623
18,316.14,4.7624
24,317.14,4.7625
30,318.14,4.7625
36,319.14,4.7623
42,320.14,4.7622
48,321.14,4.7623
54,322.14,4.7621
60,323.14,4.7618
66,324.14,4.7615
72,325.14,4.7611
78,326.14,4.761
84,327.14,4.7609
90,328.14,4.761
96,329.14,4.7611
102,330.14,4.7609
108,331.14,4.7606
114,332.14,4.7604
120,333.14,4.7599
126,334.14,4.7598
132,335.14,4.7597
138,336.14,4.7594
144,337.14,4.7591
150,338.14,4.7589
156,339.14,4.7589
162,340.14,4.759
168,341.14,4.7588
174,342.14,4.7586
180,343.14,4.7584
186,344.14,4.7582
192,345.14,4.758
198,346.14,4.7577
204,347.14,4.7574
210,348.14,4.7572
216,349.14,4.7572
222,350.14,4.7571
228,351.14,4.7569
234,352.14,4.7566
240,353.14,4.7563
246,354.14,4.7562
252,355.14,4.7557
258,356.14,4.7556
264,357.14,4.7555
270,358.14,4.7552
276,359.14,4.755
282,360.14,4.7547
288,361.14,4.7546
294,362.14,4.7545
300,363.14,4.7541
306,364.14,4.754
312,365.14,4.7528
318,366.14,4.7526
324,367.14,4.7526
330,368.14,4.7526
336,369.14,4.7525
342,370.14,4.7526
348,371.14,4.7529
354,372.14,4.7529
360,373.14,4.7525
366,374.14,4.7522
372,375.14,4.7519
378,376.14,4.7516
384,377.14,4.7516
390,378.14,4.7516
396,379.14,4.7518
402,380.14,4.7516
408,381.14,4.7516
414,382.14,4.7515
420,383.14,4.7515
426,384.14,4.7515
432,385.14,4.7513
438,386.14,4.7511
444,387.14,4.7508
450,388.14,4.7507
456,389.14,4.7505
462,390.14,4.7503
468,391.14,4.7501
474,392.14,4.7498
480,393.14,4.7496
486,394.14,4.7493
492,395.14,4.749
498,396.14,4.7489
504,397.14,4.749
510,398.14,4.7489
516,399.14,4.7487
522,400.14,4.7488
528,401.14,4.7487
534,402.14,4.7484
540,403.14,4.7481
546,404.14,4.7474
552,405.14,4.7472
558,406.14,4.747
564,407.14,4.7468
570,408.14,4.7469
576,409.14,4.7465
582,410.14,4.7461
588,411.14,4.7455
594,412.14,4.7448
600,413.14,4.7444
606,414.14,4.7444
612,415.14,4.744
618,416.14,4.7434
624,417.14,4.7432
630,418.14,4.7431
636,419.14,4.7425
642,420.14,4.7419
648,421.14,4.7411
654,422.14,4.7404
660,423.14,4.7395
666,424.14,4.7389
672,425.14,4.7384
678,426.14,4.7377
684,427.14,4.7371
690,428.14,4.7362
696,429.14,4.7354
702,430.14,4.7347
708,431.14,4.734
714,432.14,4.7331
720,433.14,4.7322
726,434.14,4.7313
732,435.14,4.7303
738,436.14,4.7293
744,437.14,4.7283
750,438.14,4.7273
756,439.14,4.7263
762,440.14,4.7248
768,441.14,4.7234
774,442.14,4.7219
780,443.14,4.7203
786,444.14,4.7188
792,445.14,4.717
798,446.14,4.7149
804,447.14,4.7136
810,448.14,4.7121
816,449.14,4.7105
822,450.14,4.7089
828,451.14,4.7074
834,452.14,4.7051
840,453.14,4.7031
846,454.14,4.7013
852,455.14,4.6993
858,456.14,4.6973
864,457.14,4.6954
870,458.14,4.693
876,459.14,4.6906
882,460.14,4.6883
888,461.14,4.6861
894,462.14,4.6838
900,463.14,4.6816
906,464.14,4.6793
912,465.14,4.6771
918,466.14,4.6747
924,467.14,4.6722
930,468.14,4.6698
936,469.14,4.6671
942,470.14,4.6648
948,471.14,4.6624
954,472.14,4.6601
960,473.14,4.6571
966,474.14,4.6537
972,475.14,4.6511
978,476.14,4.6486
984,477.14,4.6461
990,478.14,4.6435
996,479.14,4.6407
1002,480.14,4.6377
1008,481.14,4.6349
1014,482.14,4.632
1020,483.14,4.628
1026,484.14,4.6242
1032,485.14,4.6216
1038,486.14,4.6188
1044,487.14,4.6157
1050,488.14,4.612
1056,489.14,4.6076
1062,490.14,4.6044
1068,491.14,4.6012
1074,492.14,4.5971
1080,493.14,4.5928
1086,494.14,4.5884
1092,495.14,4.5841
1098,496.14,4.5799
1104,497.14,4.5757
1110,498.14,4.5714
1116,499.14,4.5676
1122,500.14,4.5623
1128,501.14,4.5568
1134,502.14,4.5516
1140,503.14,4.5466
1146,504.14,4.5414
1152,505.14,4.5359
1158,506.14,4.5304
1164,507.14,4.5246
1170,508.14,4.5183
1176,509.14,4.5122
1182,510.14,4.5056
1188,511.14,4.4986
1194,512.14,4.4921
1200,513.14,4.4851
1206,514.14,4.4782
1212,515.14,4.4712
1218,516.14,4.4637
1224,517.14,4.4557
1230,518.14,4.4475
1236,519.14,4.4394
1242,520.14,4.4306
1248,521.14,4.4217
1254,522.14,4.4131
1260,523.14,4.4041
1266,524.14,4.3943
1272,525.14,4.3847
1278,526.14,4.3747
1284,527.14,4.3642
1290,528.14,4.353
1296,529.14,4.3426
1302,530.14,4.3318
1308,531.14,4.3212
1314,532.14,4.3102
1320,533.14,4.2994
1326,534.14,4.2871
1332,535.14,4.2756
1338,536.14,4.2632
1344,537.14,4.2507
1350,538.14,4.238
1356,539.14,4.2252
1362,540.14,4.212
1368,541.14,4.1988
1374,542.14,4.1849
1380,543.14,4.171
1386,544.14,4.1565
1392,545.14,4.1428
1398,546.14,4.1284
1404,547.14,4.113
1410,548.14,4.0974
1416,549.14,4.0814
1422,550.14,4.0655
1428,551.14,4.0485
1434,552.14,4.0313
1440,553.14,4.0141
1446,554.14,3.9959
1452,555.14,3.9781
1458,556.14,3.9598
1464,557.14,3.941
1470,558.14,3.9218
1476,559.14,3.9024
1482,560.14,3.8823
1488,561.14,3.8608
1494,562.14,3.8397
1500,563.14,3.8181
1506,564.14,3.7963
1512,565.14,3.7735
1518,566.14,3.7506
1524,567.14,3.7264
1530,568.14,3.7023
1536,569.14,3.677
1542,570.14,3.648
1548,571.14,3.6172
1554,572.14,3.595
1560,573.14,3.5615
1566,574.14,3.538
1572,575.14,3.5046
1578,576.14,3.4694
1584,577.14,3.4374
1590,578.14,3.4104
1596,579.14,3.37
1602,580.14,3.3341
1608,581.14,3.2991
1614,582.14,3.2628
1620,583.14,3.2253
1626,584.14,3.1876
1632,585.14,3.1483
1638,586.14,3.1067
1644,587.14,3.065
1650,588.14,3.02
1656,589.14,2.9746
1662,590.14,2.9259
1668,591.14,2.8746
1674,592.14,2.8199
1680,593.14,2.7595
1686,594.14,2.6976
1692,595.14,2.6313
1698,596.14,2.5599
1704,597.14,2.4832
1710,598.14,2.4022
1716,599.14,2.3141
1722,600.14,2.2252
1728,601.14,2.1351
1734,602.14,2.047
1740,603.14,1.9629
1746,604.14,1.8856
1752,605.14,1.818
1758,606.14,1.7591
1764,607.14,1.712
1770,608.14,1.6733
1776,609.14,1.6458
1782,610.14,1.6244
1788,611.14,1.6024
1794,612.14,1.5818
1800,613.14,1.5627
1806,614.14,1.5461
1812,615.14,1.5306
1818,616.14,1.5165
1824,617.14,1.5031
1830,618.14,1.4912
1836,619.14,1.4789
1842,620.14,1.4682
1848,621.14,1.4576
1854,622.14,1.447
1860,623.14,1.4369
1866,624.14,1.4273
1872,625.14,1.418
1878,626.14,1.4093
1884,627.14,1.4002
1890,628.14,1.3916
1896,629.14,1.3829
1902,630.14,1.3739
1908,631.14,1.3654
1914,632.14,1.3556
1920,633.14,1.3468
1926,634.14,1.3389
1932,635.14,1.3308
1938,636.14,1.3232
1944,637.14,1.3154
1950,638.14,1.3075
1956,639.14,1.2993
1962,640.14,1.2911
1968,641.14,1.2834
1974,642.14,1.2757
1980,643.14,1.268
1986,644.14,1.2603
1992,645.14,1.2517
1998,646.14,1.2437
2004,647.14,1.2362
2010,648.14,1.2284
2016,649.14,1.2205
2022,650.14,1.213
2028,651.14,1.205
2034,652.14,1.1968
2040,653.14,1.1892
2046,654.14,1.1817
2052,655.14,1.174
2058,656.14,1.166
2064,657.14,1.158
2070,658.14,1.15
2076,659.14,1.1419
2082,660.14,1.1345
2088,661.14,1.1262
2094,662.14,1.118
2100,663.14,1.1101
2106,664.14,1.1017
2112,665.14,1.0932
2118,666.14,1.0852
2124,667.14,1.0771
2130,668.14,1.0693
2136,669.14,1.0611
2142,670.14,1.053
2148,671.14,1.0446
2154,672.14,1.0363
2160,673.14,1.0281
2166,674.14,1.0195
2172,675.14,1.0109
2178,676.14,1.0019
2184,677.14,0.9933
2190,678.14,0.9846
2196,679.14,0.9754
2202,680.14,0.9667
2208,681.14,0.9578
2214,682.14,0.9485
2220,683.14,0.9396
2226,684.14,0.9303
2232,685.14,0.9214
2238,686.14,0.9115
2244,687.14,0.9019
2250,688.14,0.892
2256,689.14,0.8824
2262,690.14,0.8726
2268,691.14,0.8624
2274,692.14,0.8518
2280,693.14,0.8411
2286,694.14,0.8305
2292,695.14,0.8204
2298,696.14,0.8095
2304,697.14,0.7979
2310,698.14,0.7865
2316,699.14,0.775
2322,700.14,0.7632
2328,701.14,0.7511
2334,702.14,0.7395
2340,703.14,0.727
2346,704.14,0.7143
2352,705.14,0.702
2358,706.14,0.6901
2364,707.14,0.6777
2370,708.14,0.6649
2376,709.14,0.6524
2382,710.14,0.6392
2388,711.14,0.627
2394,712.14,0.6137
2400,713.14,0.6011
2406,714.14,0.5885
2412,715.14,0.5758
2418,716.14,0.5628
2424,717.14,0.5496
2430,718.14,0.5368
2436,719.14,0.5239
2442,720.14,0.5099
2448,721.14,0.4964
2454,722.14,0.4825
2460,723.14,0.4678
2466,724.14,0.4537
2472,725.14,0.4386
2478,726.14,0.4235
2484,727.14,0.408
2490,728.14,0.3921
2496,729.14,0.3762
2502,730.14,0.3586
2508,731.14,0.3413
2514,732.14,0.3228
2520,733.14,0.3048
2526,734.14,0.2865
2532,735.14,0.2672
2538,736.14,0.2465
2544,737.14,0.2345
2550,738.14,0.1158
2556,739.14,0.0622
2562,740.14,0.0163
2568,741.14,0.0159
2574,742.14,0.0158
2580,743.14,0.0156
2586,744.14,0.0155
2592,745.14,0.0155
2598,746.14,0.0154
2604,747.14,0.0153
2610,748.14,0.0151
2616,749.14,0.0147
2622,750.14,0.0144
2628,751.14,0.0144
2634,752.14,0.0142
2640,753.14,0.0141
2646,754.14,0.0139
2652,755.14,0.0137
2658,756.14,0.0136
2664,757.14,0.0137
2670,758.14,0.0133
2676,759.14,0.0132
2682,760.14,0.0133
2688,761.14,0.0135
2694,762.14,0.0137
2700,763.14,0.014
2706,764.14,0.014
2712,765.14,0.014
2718,766.14,0.0139
2724,767.14,0.0142
2730,768.14,0.0142
2736,769.14,0.0141
2742,770.14,0.014
2748,771.14,0.0138
2754,772.14,0.0135
2760,773.14,0.0134
2766,774.14,0.0131
2772,775.14,0.0131
2778,776.14,0.0131
2784,777.14,0.0131
2790,778.14,0.0133
2796,779.14,0.0134
2802,780.14,0.0136
2808,781.14,0.0135
2814,782.14,0.0132
2820,783.14,0.013
2826,784.14,0.013
2832,785.14,0.0131
2838,786.14,0.0132
2844,787.14,0.0134
2850,788.14,0.0132
2856,789.14,0.0133
2862,790.14,0.0133
2868,791.14,0.0132
2874,792.14,0.013
2880,793.14,0.0129
2886,794.14,0.0129
2892,795.14,0.0129
2898,796.14,0.013
2904,797.14,0.0126
2910,798.14,0.0124
2916,799.14,0.0123
2922,800.14,0.0123
2928,801.14,0.0123
2934,802.14,0.0123
2940,803.14,0.0121
2946,804.14,0.012
2952,805.14,0.0123
2958,806.14,0.0123
2964,807.14,0.0122
2970,808.14,0.0123
2976,809.14,0.0122
2982,810.14,0.0122
2988,811.14,0.0121
2994,812.14,0.0119
3000,813.14,0.0114
3006,814.14,0.0113
3012,815.14,0.011
3018,816.14,0.0111
3024,817.14,0.011
3030,818.14,0.0108
3036,819.14,0.0107
3042,820.14,0.0107
3048,821.14,0.0108
3054,822.14,0.011
3060,823.14,0.0109
3066,824.14,0.0106
3072,825.14,0.0104
3078,826.14,0.0104
3084,827.14,0.0105
3090,828.14,0.0105
3096,829.14,0.0105
3102,830.14,0.0101
3108,831.14,0.0099
3114,832.14,0.0098
3120,833.14,0.0096
3126,834.14,0.0095
3132,835.14,0.0096
3138,836.14,0.0095
3144,837.14,0.0091
3150,838.14,0.0089
3156,839.14,0.0088
3162,840.14,0.0084
3168,841.14,0.0081
3174,842.14,0.008
3180,843.14,0.0078
3186,844.14,0.0083
3192,845.14,0.0081
3198,846.14,0.0078
3204,847.14,0.0076
3210,848.14,0.0077
3216,849.14,0.0077
3222,850.14,0.0078
3228,851.14,0.0077
3234,852.14,0.0076
3240,853.14,0.0074
3246,854.14,0.0075
3252,855.14,0.0075
3258,856.14,0.0076
3264,857.14,0.0075
3270,858.14,0.0072
3276,859.14,0.0069
3282,860.14,0.0067
3288,861.14,0.0065
3294,862.14,0.0064
3300,863.14,0.0066
3306,864.14,0.0065
3312,865.14,0.0064
3318,866.14,0.0064
3324,867.14,0.0063
3330,868.14,0.0061
3336,869.14,0.006
3342,870.14,0.006
3348,871.14,0.0063
3354,872.14,0.0064
3360,873.14,0.0062
3366,874.14,0.0061
3372,875.14,0.0056
3378,876.14,0.0055
3384,877.14,0.0054
3390,878.14,0.0056
3396,879.14,0.0055
3402,880.14,0.0052
3408,881.14,0.0051
3414,882.14,0.0049
3420,883.14,0.0048
3426,884.14,0.005
3432,885.14,0.0047
3438,886.14,0.0049
3444,887.14,0.0047
3450,888.14,0.0046
3456,889.14,0.0045
3462,890.14,0.0045
3468,891.14,0.0047
3474,892.14,0.0048
3480,893.14,0.0049
3486,894.14,0.0047
3492,895.14,0.0047
3498,896.14,0.005
3504,897.14,0.005
3510,898.14,0.0048
3516,899.14,0.0049
3522,900.14,0.0047
3528,901.14,0.0047
3534,902.14,0.0047
3540,903.14,0.0046
3546,904.14,0.0045
3552,905.14,0.0046
3558,906.14,0.005
3564,907.14,0.0051
3570,908.14,0.005
3576,909.14,0.005
3582,910.14,0.0052
3588,911.14,0.0052
3594,912.14,0.005
3600,913.14,0.0051
3606,914.14,0.0049
3612,915.14,0.0046
3618,916.14,0.0047
3624,917.14,0.0051
3630,918.14,0.0052
3636,919.14,0.0053
3642,920.14,0.0053
3648,921.14,0.0051
3654,922.14,0.0047
3660,923.14,0.0048
3666,924.14,0.005
3672,925.14,0.005
3678,926.14,0.005
3684,927.14,0.0048
3690,928.14,0.0047
3696,929.14,0.0047
3702,930.14,0.0046
3708,931.14,0.0045
3714,932.14,0.0046
3720,933.14,0.0044
3726,934.14,0.0043
3732,935.14,0.0042
3738,936.14,0.004
3744,937.14,0.004
3750,938.14,0.0042
3756,939.14,0.0044
3762,940.14,0.0044
3768,941.14,0.0045
3774,942.14,0.0046
3780,943.14,0.0046
3786,944.14,0.0046
3792,945.14,0.0045
3798,946.14,0.0044
3804,947.14,0.0043
3810,948.14,0.004
3816,949.14,0.0036
3822,950.14,0.0035
3828,951.14,0.0031
3834,952.14,0.003
3840,953.14,0.0029
3846,954.14,0.0023
3852,955.14,0.0023
3858,956.14,0.0023
3864,957.14,0.0021
3870,958.14,0.0022
3876,959.14,0.0022
3882,960.14,0.0023
3888,961.14,0.0019
3894,962.14,0.0014
3900,963.14,0.0012
3906,964.14,0.0011
3912,965.14,0.0014
3918,966.14,0.0016
3924,967.14,0.0017
3930,968.14,0.0016
3936,969.14,0.0016
3942,970.14,0.0018
3948,971.14,0.0025
3954,972.14,0.003
3960,973.14,0.0028
3966,974.14,0.0027
3972,975.14,0.0023
3978,976.14,0.0023
3984,977.14,0.0024
3990,978.14,0.0028
3996,979.14,0.0028
4002,980.14,0.003
4008,981.14,0.0029
4014,982.14,0.0026
4020,983.14,0.0026
4026,984.14,0.0031
4032,985.14,0.0033
4038,986.14,0.0033
4044,987.14,0.0038
4050,988.14,0.0041
4056,989.14,0.0037
4062,990.14,0.0037
4068,991.14,0.0034
4074,992.14,0.0031
4080,993.14,0.0028
4086,994.14,0.0028
4092,995.14,0.0025
4098,996.14,0.0029
4104,997.14,0.0032
4110,998.14,0.0032
4116,999.14,0.003
4122,1000.14,0.0031
4128,1001.14,0.0034
4134,1002.14,0.0035
4140,1003.14,0.0034
4146,1004.14,0.0036
4152,1005.14,0.004
4158,1006.14,0.0042
4164,1007.14,0.0042
4170,1008.14,0.0039
4176,1009.14,0.004
4182,1010.14,0.0039
4188,1011.14,0.0039
4194,1012.14,0.0037
4200,1013.14,0.0037
4206,1014.14,0.0039
4212,1015.14,0.0038
4218,1016.14,0.0037
4224,1017.14,0.0034
4230,1018.14,0.0033
4236,1019.14,0.0035
4242,1020.14,0.0033
4248,1021.14,0.0033
4254,1022.14,0.0035
4260,1023.14,0.0034
4266,1024.14,0.003
4272,1025.14,0.0027
4278,1026.14,0.0027
4284,1027.14,0.003
4290,1028.14,0.0031
4296,1029.14,0.0031
4302,1030.14,0.0034
4308,1031.14,0.0036
4314,1032.14,0.0032
4320,1033.14,0.0031
4326,1034.14,0.0033
4332,1035.14,0.003
4338,1036.14,0.0032
4344,1037.14,0.0028
4350,1038.14,0.0028
4356,1039.14,0.0026
4362,1040.14,0.0028
4368,1041.14,0.0028
4374,1042.14,0.0028
4380,1043.14,0.003
4386,1044.14,0.0031
4392,1045.14,0.0032
4398,1046.14,0.0031
4404,1047.14,0.0032
4410,1048.14,0.0031
4416,1049.14,0.0033
4422,1050.14,0.0031
4428,1051.14,0.0031
4434,1052.14,0.0028
4440,1053.14,0.0027
4446,1054.14,0.0024
4452,1055.14,0.0023
4458,1056.14,0.0023
4464,1057.14,0.0021
4470,1058.14,0.002
4476,1059.14,0.0017
4482,1060.14,0.0018
4488,1061.14,0.002
4494,1062.14,0.0015
4500,1063.14,0.001
4506,1064.14,0.0007
4512,1065.14,0.0006
4518,1066.14,0.0007
4524,1067.14,0.0012
4530,1068.14,0.0012
4536,1069.14,0.001
4542,1070.14,0.0007
4548,1071.14,0.0003
4554,1072.14,0.0001
4557,1072.64,0