File: Wood/Calibration_Data/UMET/UMET_Cone_30KW_hor_R2.csv
Time (s),Mass (g),HRR (kW/m2)
0,83.61,0
2,83.61,0
4,83.61,0
6,83.61,0
8,83.61,0
10,83.61,0
12,83.61,0
14,83.61,0
16,83.55,0
18,83.52,0
20,83.53,0
22,83.52,4.220
24,83.50,11.667
26,83.50,21.152
28,83.48,31.814
30,83.46,43.077
32,83.43,54.561
34,83.39,66.072
36,83.35,77.396
38,83.31,88.440
40,83.25,98.712
42,83.20,106.443
44,83.13,111.129
46,83.07,113.130
48,83.01,113.311
50,82.93,112.317
52,82.82,110.723
54,82.74,108.712
56,82.63,106.477
58,82.53,104.158
60,82.42,101.885
62,82.31,99.611
64,82.20,97.380
66,82.09,95.268
68,81.98,93.285
70,81.87,91.502
72,81.76,89.895
74,81.65,88.426
76,81.54,87.058
78,81.43,85.890
80,81.32,84.952
82,81.22,84.197
84,81.11,83.659
86,81.00,83.266
88,80.89,82.926
90,80.78,82.580
92,80.67,82.182
94,80.56,81.825
96,80.45,81.601
98,80.34,81.378
100,80.23,81.170
102,80.12,80.944
104,80.02,80.705
106,79.91,80.359
108,79.80,79.966
110,79.69,79.624
112,79.58,79.303
114,79.47,79.071
116,79.36,78.893
118,79.25,78.803
120,79.14,78.818
122,79.03,78.734
124,78.92,78.599
126,78.81,78.401
128,78.71,78.212
130,78.60,78.014
132,78.49,77.838
134,78.38,77.679
136,78.27,77.305
138,78.16,76.747
140,78.05,76.059
142,77.94,75.362
144,77.83,74.676
146,77.72,74.029
148,77.61,73.435
150,77.50,72.812
152,77.40,72.246
154,77.29,71.685
156,77.18,71.227
158,77.07,70.954
160,76.96,70.726
162,76.85,70.457
164,76.74,70.223
166,76.63,69.974
168,76.52,69.761
170,76.41,69.602
172,76.30,69.468
174,76.20,69.299
176,76.09,69.107
178,75.98,68.869
180,75.87,68.628
182,75.76,68.533
184,75.65,68.503
186,75.54,68.536
188,75.43,68.562
190,75.32,68.566
192,75.21,68.624
194,75.10,68.659
196,74.99,68.758
198,74.89,68.771
200,74.78,68.750
202,74.67,68.670
204,74.56,68.550
206,74.45,68.385
208,74.34,68.124
210,74.23,67.903
212,74.12,67.594
214,74.01,67.323
216,73.90,67.049
218,73.79,66.742
220,73.68,66.458
222,73.58,66.218
224,73.47,66.007
226,73.36,65.749
228,73.25,65.540
230,73.14,65.381
232,73.03,65.218
234,72.92,65.076
236,72.81,64.863
238,72.70,64.691
240,72.59,64.573
242,72.48,64.470
244,72.37,64.387
246,72.27,64.324
248,72.16,64.279
250,72.05,64.243
252,71.94,64.262
254,71.83,64.346
256,71.72,64.374
258,71.61,64.396
260,71.50,64.392
262,71.39,64.397
264,71.28,64.394
266,71.17,64.416
268,71.07,64.505
270,70.96,64.675
272,70.85,64.890
274,70.74,65.139
276,70.63,65.415
278,70.52,65.852
280,70.41,66.364
282,70.30,66.973
284,70.19,67.647
286,70.08,68.324
288,69.97,69.060
290,69.86,69.802
292,69.76,70.441
294,69.65,70.979
296,69.54,71.408
298,69.43,71.767
300,69.32,72.045
302,69.21,72.215
304,69.10,72.265
306,68.99,72.191
308,68.88,71.921
310,68.77,71.426
312,68.66,70.854
314,68.55,70.245
316,68.45,69.658
318,68.34,69.054
320,68.23,68.456
322,68.12,67.854
324,68.01,67.269
326,67.90,66.781
328,67.79,66.359
330,67.68,66.063
332,67.57,65.860
334,67.46,65.783
336,67.35,65.762
338,67.24,65.792
340,67.14,65.831
342,67.03,65.893
344,66.92,65.995
346,66.81,66.100
348,66.70,66.221
350,66.59,66.385
352,66.48,66.527
354,66.37,66.630
356,66.26,66.714
358,66.15,66.831
360,66.04,67.029
362,65.94,67.330
364,65.83,67.707
366,65.72,68.158
368,65.61,68.714
370,65.50,69.219
372,65.37,69.695
374,65.27,70.257
376,65.16,70.782
378,65.06,71.388
380,64.96,71.976
382,64.85,72.483
384,64.75,72.882
386,64.61,73.131
388,64.50,73.246
390,64.37,73.250
392,64.26,73.248
394,64.17,73.205
396,64.09,73.100
398,64.00,72.934
400,63.89,72.607
402,63.79,72.255
404,63.67,71.844
406,63.55,71.414
408,63.42,70.958
410,63.22,70.543
412,63.00,70.113
414,62.79,69.647
416,62.60,69.184
418,62.40,68.756
420,62.21,68.404
422,62.03,68.176
424,61.82,67.918
426,61.60,67.681
428,61.39,67.527
430,61.17,67.329
432,61.01,67.066
434,60.81,66.809
436,60.65,66.596
438,60.49,66.391
440,60.36,66.106
442,60.29,65.749
444,60.21,65.387
446,60.14,65.093
448,60.07,64.886
450,59.99,64.650
452,59.92,64.441
454,59.85,64.261
456,59.77,64.044
458,59.70,63.812
460,59.63,63.558
462,59.55,63.356
464,59.48,63.210
466,59.41,62.995
468,59.33,62.747
470,59.26,62.492
472,59.18,62.268
474,59.11,62.070
476,59.04,61.907
478,58.96,61.791
480,58.89,61.798
482,58.82,61.901
484,58.74,61.946
486,58.67,61.951
488,58.60,61.953
490,58.52,61.895
492,58.45,61.848
494,58.38,61.827
496,58.30,61.807
498,58.23,61.754
500,58.16,61.623
502,58.08,61.386
504,58.01,61.094
506,57.94,60.771
508,57.86,60.496
510,57.79,60.234
512,57.71,59.944
514,57.64,59.733
516,57.57,59.524
518,57.49,59.387
520,57.42,59.277
522,57.35,59.252
524,57.27,59.291
526,57.20,59.364
528,57.13,59.470
530,57.05,59.597
532,56.98,59.754
534,56.91,59.862
536,56.83,59.898
538,56.76,59.950
540,56.69,60.036
542,56.61,60.127
544,56.54,60.170
546,56.46,60.226
548,56.39,60.218
550,56.32,60.237
552,56.24,60.330
554,56.17,60.396
556,56.10,60.502
558,56.02,60.586
560,55.95,60.619
562,55.88,60.546
564,55.80,60.492
566,55.73,60.402
568,55.66,60.284
570,55.58,60.163
572,55.51,59.892
574,55.44,59.581
576,55.36,59.198
578,55.29,58.858
580,55.22,58.499
582,55.14,58.179
584,55.07,57.897
586,54.99,57.618
588,54.92,57.400
590,54.85,57.235
592,54.77,57.183
594,54.70,57.194
596,54.63,57.330
598,54.55,57.526
600,54.48,57.692
602,54.41,57.864
604,54.33,57.952
606,54.26,58.008
608,54.19,57.992
610,54.11,57.970
612,54.04,57.895
614,53.97,57.796
616,53.89,57.605
618,53.84,57.375
620,53.78,57.166
622,53.71,56.958
624,53.65,56.803
626,53.59,56.713
628,53.53,56.676
630,53.48,56.662
632,53.42,56.587
634,53.36,56.511
636,53.22,56.425
638,53.09,56.382
640,52.93,56.312
642,52.83,56.243
644,52.75,56.088
646,52.68,55.910
648,52.62,55.744
650,52.54,55.523
652,52.47,55.291
654,52.38,55.115
656,52.30,54.956
658,52.22,54.855
660,52.13,54.739
662,52.04,54.547
664,51.95,54.350
666,51.91,54.208
668,51.89,54.010
670,51.87,53.782
672,51.89,53.615
674,51.87,53.438
676,51.77,53.232
678,51.72,52.985
680,51.63,52.692
682,51.55,52.408
684,51.46,52.176
686,51.38,51.953
688,51.28,51.766
690,51.23,51.632
692,51.16,51.456
694,51.08,51.336
696,51.02,51.231
698,50.97,51.125
700,50.91,51.031
702,50.85,50.958
704,50.70,50.904
706,50.62,50.868
708,50.54,50.799
710,50.43,50.713
712,50.38,50.651
714,50.32,50.531
716,50.23,50.385
718,50.17,50.271
720,50.10,50.174
722,50.03,50.022
724,49.95,49.850
726,49.88,49.663
728,49.78,49.514
730,49.71,49.353
732,49.62,49.175
734,49.56,49.050
736,49.51,48.863
738,49.40,48.637
740,49.33,48.395
742,49.29,48.238
744,49.18,48.158
746,49.10,48.081
748,48.98,47.969
750,48.90,47.851
752,48.80,47.765
754,48.72,47.598
756,48.67,47.439
758,48.63,47.378
760,48.58,47.286
762,48.46,47.213
764,48.45,47.086
766,48.38,46.987
768,48.30,46.891
770,48.24,46.773
772,48.15,46.612
774,48.06,46.446
776,48.02,46.339
778,47.95,46.206
780,47.90,46.064
782,47.87,45.943
784,47.84,45.780
786,47.78,45.584
788,47.68,45.361
790,47.59,45.230
792,47.55,45.112
794,47.46,45.011
796,47.35,44.936
798,47.27,44.912
800,47.21,44.951
802,47.15,44.951
804,47.11,44.934
806,47.07,44.947
808,46.97,44.982
810,46.90,44.995
812,46.81,45.014
814,46.75,45.111
816,46.70,45.243
818,46.63,45.340
820,46.54,45.357
822,46.45,45.381
824,46.37,45.409
826,46.33,45.433
828,46.26,45.370
830,46.20,45.300
832,46.17,45.205
834,46.12,45.031
836,46.03,44.829
838,45.98,44.633
840,45.94,44.392
842,45.87,44.210
844,45.79,44.066
846,45.69,43.961
848,45.62,43.842
850,45.51,43.795
852,45.44,43.686
854,45.36,43.647
856,45.27,43.609
858,45.21,43.544
860,45.15,43.488
862,45.08,43.390
864,44.97,43.267
866,44.85,43.170
868,44.77,43.087
870,44.66,43.018
872,44.61,42.986
874,44.52,42.982
876,44.45,43.004
878,44.37,42.991
880,44.31,42.984
882,44.25,43.010
884,44.22,42.981
886,44.18,42.886
888,44.14,42.751
890,44.05,42.607
892,43.99,42.473
894,43.92,42.295
896,43.87,42.086
898,43.83,41.889
900,43.79,41.740
902,43.76,41.571
904,43.69,41.437
906,43.62,41.479
908,43.54,41.642
910,43.50,41.918
912,43.46,42.374
914,43.38,43.002
916,43.30,43.777
918,43.26,44.752
920,43.21,45.875
922,43.14,47.129
924,43.06,48.594
926,43.02,50.117
928,42.95,51.571
930,42.88,52.972
932,42.79,54.293
934,42.69,55.496
936,42.62,56.619
938,42.55,57.523
940,42.49,58.174
942,42.41,58.622
944,42.32,58.859
946,42.25,58.872
948,42.16,58.646
950,42.03,58.298
952,41.93,57.859
954,41.92,57.289
956,41.83,56.569
958,41.74,55.812
960,41.66,55.091
962,41.56,54.420
964,41.43,53.809
966,41.36,53.242
968,41.27,52.760
970,41.18,52.465
972,41.11,52.237
974,41.05,52.036
976,40.98,51.784
978,40.90,51.481
980,40.83,51.173
982,40.73,50.833
984,40.59,50.470
986,40.48,50.124
988,40.40,49.819
990,40.34,49.479
992,40.29,49.122
994,40.24,48.767
996,40.20,48.537
998,40.16,48.464
1000,40.09,48.396
1002,40.00,48.357
1004,39.92,48.348
1006,39.79,48.387
1008,39.71,48.493
1010,39.64,48.629
1012,39.57,48.838
1014,39.52,49.042
1016,39.47,49.274
1018,39.38,49.488
1020,39.32,49.769
1022,39.21,50.110
1024,39.12,50.430
1026,39.04,50.702
1028,38.94,50.904
1030,38.87,51.052
1032,38.76,51.165
1034,38.69,51.156
1036,38.60,51.135
1038,38.55,51.044
1040,38.47,50.931
1042,38.39,50.787
1044,38.29,50.640
1046,38.21,50.557
1048,38.13,50.507
1050,38.04,50.407
1052,37.94,50.275
1054,37.86,50.129
1056,37.78,49.968
1058,37.73,49.824
1060,37.66,49.685
1062,37.62,49.549
1064,37.59,49.487
1066,37.54,49.382
1068,37.47,49.205
1070,37.41,49.033
1072,37.35,48.842
1074,37.28,48.640
1076,37.24,48.434
1078,37.14,48.225
1080,37.10,47.943
1082,37.05,47.621
1084,37.00,47.178
1086,36.92,46.737
1088,36.83,46.363
1090,36.76,46.013
1092,36.69,45.712
1094,36.60,45.479
1096,36.55,45.337
1098,36.46,45.185
1100,36.37,45.091
1102,36.31,45.078
1104,36.21,45.102
1106,36.17,45.132
1108,36.09,45.091
1110,36.00,45.063
1112,35.93,44.977
1114,35.84,44.958
1116,35.76,44.892
1118,35.69,44.782
1120,35.58,44.670
1122,35.50,44.488
1124,35.42,44.241
1126,35.32,43.939
1128,35.24,43.666
1130,35.20,43.357
1132,35.11,43.058
1134,35.02,42.703
1136,34.93,42.310
1138,34.83,42.011
1140,34.77,41.761
1142,34.74,41.568
1144,34.65,41.424
1146,34.60,41.263
1148,34.51,40.985
1150,34.48,40.508
1152,34.44,39.874
1154,34.37,39.069
1156,34.32,38.220
1158,34.27,37.262
1160,34.17,36.295
1162,34.06,35.243
1164,34.00,34.172
1166,33.94,33.049
1168,33.88,32.045
1170,33.84,31.232
1172,33.79,30.582
1174,33.71,30.141
1176,33.68,29.780
1178,33.60,29.460
1180,33.55,29.128
1182,33.49,28.793
1184,33.41,28.509
1186,33.36,28.202
1188,33.26,27.916
1190,33.20,27.615
1192,33.16,27.335
1194,33.10,27.123
1196,33.07,26.888
1198,33.04,26.699
1200,32.98,26.562
1202,32.93,26.387
1204,32.86,26.218
1206,32.79,26.069
1208,32.75,25.940
1210,32.74,25.825
1212,32.66,25.689
1214,32.61,25.489
1216,32.56,25.300
1218,32.51,25.176
1220,32.49,25.042
1222,32.41,24.941
1224,32.38,24.879
1226,32.30,24.856
1228,32.27,24.849
1230,32.21,24.916
1232,32.13,25.026
1234,32.08,25.104
1236,32.02,25.183
1238,31.94,25.190
1240,31.87,25.147
1242,31.85,25.096
1244,31.80,25.050
1246,31.76,24.991
1248,31.70,24.946
1250,31.60,24.993
1252,31.54,24.956
1254,31.46,24.851
1256,31.38,24.729
1258,31.38,24.604
1260,31.30,24.482
1262,31.25,24.372
1264,31.20,24.258
1266,31.16,24.067
1268,31.14,23.831
1270,31.10,23.532
1272,31.03,23.188
1274,30.90,22.928
1276,30.84,22.698
1278,30.77,22.429
1280,30.79,22.201
1282,30.77,21.990
1284,30.72,21.795
1286,30.69,21.625
1288,30.64,21.504
1290,30.61,21.356
1292,30.57,21.195
1294,30.47,20.963
1296,30.41,20.752
1298,30.32,20.555
1300,30.25,20.355
1302,30.20,20.168
1304,30.16,19.993
1306,30.13,19.813
1308,30.10,19.753
1310,30.04,19.706
1312,29.95,19.697
1314,29.89,19.740
1316,29.85,19.809
1318,29.82,19.943
1320,29.72,20.162
1322,29.64,20.417
1324,29.59,20.630
1326,29.54,20.843
1328,29.48,20.946
1330,29.46,20.983
1332,29.42,21.000
1334,29.35,21.015
1336,29.29,21.029
1338,29.23,21.037
1340,29.16,20.964
1342,29.13,20.810
1344,29.06,20.623
1346,29.01,20.384
1348,28.97,20.119
1350,28.92,19.894
1352,28.87,19.660
1354,28.82,19.358
1356,28.78,19.083
1358,28.73,18.785
1360,28.69,18.468
1362,28.62,18.195
1364,28.54,17.963
1366,28.51,17.813
1368,28.46,17.680
1370,28.39,17.518
1372,28.31,17.355
1374,28.24,17.288
1376,28.17,17.241
1378,28.09,17.222
1380,28.03,17.240
1382,27.96,17.343
1384,27.88,17.464
1386,27.83,17.532
1388,27.79,17.632
1390,27.80,17.789
1392,27.77,17.974
1394,27.72,18.159
1396,27.66,18.241
1398,27.62,18.245
1400,27.59,18.244
1402,27.58,18.196
1404,27.60,18.145
1406,27.58,18.109
1408,27.54,18.022
1410,27.49,17.859
1412,27.50,17.702
1414,27.46,17.571
1416,27.49,17.479
1418,27.45,17.470
1420,27.42,17.473
1422,27.34,17.499
1424,27.29,17.518
1426,27.28,17.491
1428,27.23,17.506
1430,27.21,17.532
1432,27.15,17.614
1434,27.05,17.713
1436,26.97,17.780
1438,26.95,17.842
1440,26.90,17.905
1442,26.84,17.909
1444,26.77,17.879
1446,26.70,17.828
1448,26.65,17.755
1450,26.56,17.634
1452,26.51,17.512
1454,26.47,17.364
1456,26.42,17.164
1458,26.35,16.962
1460,26.24,16.691
1462,26.19,16.319
1464,26.13,15.964
1466,26.08,15.684
1468,26.03,15.454
1470,25.99,15.306
1472,25.95,15.207
1474,25.90,15.115
1476,25.86,15.012
1478,25.80,14.920
1480,25.76,14.892
1482,25.72,14.976
1484,25.67,15.099
1486,25.62,15.155
1488,25.59,15.230
1490,25.58,15.293
1492,25.51,15.346
1494,25.46,15.407
1496,25.44,15.502
1498,25.40,15.650
1500,25.34,15.805
1502,25.28,15.922
1504,25.24,16.087
1506,25.19,16.307
1508,25.16,16.441
1510,25.13,16.507
1512,25.04,16.493
1514,25.01,16.364
1516,24.95,16.118
1518,24.90,15.826
1520,24.84,15.573
1522,24.79,15.355
1524,24.75,15.136
1526,24.72,14.867
1528,24.67,14.554
1530,24.61,14.304
1532,24.56,14.100
1534,24.56,13.937
1536,24.51,13.915
1538,24.49,13.911
1540,24.48,13.885
1542,24.44,13.836
1544,24.39,13.763
1546,24.27,13.701
1548,24.21,13.703
1550,24.14,13.675
1552,24.11,13.626
1554,24.07,13.583
1556,24.01,13.557
1558,23.99,13.540
1560,23.93,13.594
1562,23.93,13.642
1564,23.85,13.612
1566,23.75,13.578
1568,23.72,13.543
1570,23.64,13.513
1572,23.56,13.529
1574,23.50,13.565
1576,23.44,13.574
1578,23.40,13.551
1580,23.37,13.439
1582,23.33,13.252
1584,23.29,13.002
1586,23.26,12.760
1588,23.22,12.545
1590,23.19,12.334
1592,23.13,12.097
1594,23.10,11.867
1596,23.08,11.638
1598,22.95,11.438
1600,22.90,11.261
1602,22.87,11.184
1604,22.86,11.203
1606,22.84,11.279
1608,22.84,11.346
1610,22.82,11.391
1612,22.75,11.465
1614,22.72,11.570
1616,22.67,11.669
1618,22.62,11.801
1620,22.57,11.936
1622,22.55,12.061
1624,22.47,12.141
1626,22.41,12.167
1628,22.47,12.171
1630,22.45,12.154
1632,22.39,12.161
1634,22.31,12.189
1636,22.29,12.180
1638,22.22,12.179
1640,22.15,12.157
1642,22.12,12.121
1644,22.10,12.061
1646,22.07,12.042
1648,22.05,12.067
1650,22.02,12.154
1652,21.99,12.261
1654,21.97,12.304
1656,21.99,12.322
1658,21.95,12.318
1660,21.91,12.212
1662,21.86,12.153
1664,21.84,12.094
1666,21.83,12.017
1668,21.79,11.938
1670,21.80,11.875
1672,21.79,11.757
1674,21.75,11.674
1676,21.73,11.618
1678,21.72,11.504
1680,21.69,11.457
1682,21.64,11.453
1684,21.55,11.496
1686,21.48,11.571
1688,21.40,11.610
1690,21.40,11.647
1692,21.38,11.639
1694,21.35,11.692
1696,21.33,11.712
1698,21.35,11.712
1700,21.34,11.712
1702,21.36,11.613
1704,21.38,11.454
1706,21.38,11.263
1708,21.39,11.139
1710,21.39,11.023
1712,21.39,10.956
1714,21.43,10.883
1716,21.47,10.743
1718,21.50,10.658
1720,21.53,10.593
1722,21.52,10.597
1724,21.53,10.652
1726,21.53,10.718
1728,21.51,10.744
1730,21.47,10.714
1732,21.43,10.665
1734,21.39,10.581
1736,21.35,10.487
1738,21.31,10.386
1740,21.27,10.274
1742,21.23,10.180
1744,21.19,10.070
1746,21.15,9.976
1748,21.11,9.860
1750,21.07,9.786
1752,21.03,9.720
1754,20.99,9.686
1756,20.95,9.703
1758,20.91,9.796
1760,20.87,9.908
1762,20.83,10.031
1764,20.79,10.166
1766,20.75,10.240
1768,20.71,10.278
1770,20.68,10.235
1772,20.64,10.227
1774,20.60,10.158
1776,20.56,10.047
1778,20.52,9.914
1780,20.48,9.783
1782,20.44,9.722
1784,20.40,9.624
1786,20.36,9.555
1788,20.32,9.536
1790,20.28,9.542
1792,20.24,9.590
1794,20.20,9.607
1796,20.16,9.586
1798,20.12,9.547
1800,20.08,9.431
1802,20.04,9.283
1804,20.00,9.148
1806,19.96,9.045
1808,19.92,8.941
1810,19.88,8.894
1812,19.84,8.897
1814,19.80,8.886
1816,19.76,8.869
1818,19.72,8.841
1820,19.68,8.820
1822,19.64,8.826
1824,19.60,8.818
1826,19.56,8.818
1828,19.52,8.833
1830,19.48,8.820
1832,19.44,8.756
1834,19.40,8.694
1836,19.36,8.696
1838,19.32,8.793
1840,19.28,8.864
1842,19.24,8.937
1844,19.20,8.994
1846,19.16,9.002
1848,19.12,8.944
1850,19.08,8.904
1852,19.04,8.887
1854,19.00,8.822
1856,18.96,8.717
1858,18.92,8.567
1860,18.88,8.494
1862,18.84,8.481
1864,18.80,8.475
1866,18.76,8.492
1868,18.72,8.526
1870,18.68,8.516
1872,18.64,8.445
1874,18.60,8.336
1876,18.56,8.237
1878,18.52,8.145
1880,18.48,8.087
1882,18.44,8.035
1884,18.40,7.971
1886,18.35,7.895
1888,18.31,7.805
1890,18.28,7.760
1892,18.25,7.784
1894,18.18,7.819
1896,18.15,7.942
1898,18.09,8.099
1900,18.06,8.099
1902,18.02,7.951
1904,17.99,7.733
1906,17.96,7.460
1908,17.95,7.161
1910,17.93,6.916
1912,17.87,6.725
1914,17.80,6.570
1916,17.73,6.405
1918,17.74,6.229
1920,17.68,6.175
1922,17.65,6.207
1924,17.66,6.287
1926,17.62,6.399
1928,17.59,6.606
1930,17.59,6.767
1932,17.51,6.866
1934,17.49,6.951
1936,17.42,7.009
1938,17.36,7.071
1940,17.29,7.138
1942,17.22,7.190
1944,17.18,7.171
1946,17.20,7.143
1948,17.18,7.081
1950,17.13,7.079
1952,17.10,7.115
1954,17.03,7.047
1956,16.96,6.901
1958,16.92,6.701
1960,16.88,6.436
1962,16.83,6.137
1964,16.77,5.946
1966,16.73,5.858
1968,16.70,5.740
1970,16.70,5.631
1972,16.69,5.489
1974,16.66,5.327
1976,16.62,5.213
1978,16.62,5.110
1980,16.54,5.003
1982,16.55,4.814
1984,16.51,4.590
1986,16.51,4.291
1988,16.50,4.098
1990,16.47,3.960
1992,16.46,3.761
1994,16.48,3.580
1996,16.47,3.436
1998,16.44,3.316
2000,16.42,3.337
2002,16.42,3.415
2004,16.40,3.514
2006,16.40,3.557
2008,16.37,3.543
2010,16.36,3.467
2012,16.33,3.409
2014,16.30,3.334
2016,16.30,3.322
2018,16.26,3.419
2020,16.20,3.554
2022,16.19,3.671
2024,16.12,3.868
2026,16.05,4.140
2028,16.00,4.493
2030,15.94,4.880
2032,15.89,5.252
2034,15.83,5.571
2036,15.81,5.859
2038,15.78,6.027
2040,15.74,6.163
2042,15.67,6.238
2044,15.65,6.267
2046,15.62,6.237
2048,15.58,6.112
2050,15.56,5.893
2052,15.51,5.607
2054,15.47,5.374
2056,15.49,5.211
2058,15.46,5.080
2060,15.51,4.968
2062,15.47,4.850
2064,15.47,4.726
2066,15.44,4.681
2068,15.38,4.739
2070,15.36,4.916
2072,15.35,5.199
2074,15.32,5.499
2076,15.25,5.774
2078,15.20,6.043
2080,15.19,6.265
2082,15.18,6.420
2084,15.17,6.515
2086,15.15,6.550
2088,15.11,6.534
2090,15.07,6.541
2092,15.03,6.494
2094,14.99,6.380
2096,14.95,6.185
2098,14.91,5.937
2100,14.89,5.688
2102,14.83,5.501
2104,14.79,5.346
2106,14.77,5.280
2108,14.76,5.239
2110,14.74,5.127
2112,14.69,4.977
2114,14.64,4.753
2116,14.60,4.564
2118,14.54,4.446
2120,14.51,4.375
2122,14.46,4.339
2124,14.44,4.386
2126,14.44,4.384
2128,14.39,4.391
2130,14.35,4.314
2132,14.31,4.230
2134,14.31,4.204
2136,14.29,4.230
2138,14.26,4.243
2140,14.21,4.246
2142,14.20,4.228
2144,14.21,4.164
2146,14.18,4.050
2148,14.18,3.969
2150,14.17,3.848
2152,14.17,3.713
2154,14.20,3.590
2156,14.15,3.453
2158,14.14,3.232
2160,14.16,3.036
2162,14.13,2.892
2164,14.04,2.643
2166,14.00,2.311
2168,14.00,1.983
2170,14.02,1.664
2172,14.02,1.505
2174,13.99,1.449
2176,13.96,1.424
2178,13.90,1.473
2180,13.83,1.585
2182,13.84,1.659
2184,13.75,1.758
2186,13.75,1.919
2188,13.72,2.148
2190,13.69,2.401
2192,13.66,2.627
2194,13.72,2.731
2196,13.71,2.718
2198,13.70,2.578
2200,13.63,2.435
2202,13.60,2.331
2204,13.53,2.185
2206,13.49,2.072
2208,13.49,2.007
2210,13.49,1.919
2212,13.48,1.829
2214,13.43,1.741
2216,13.41,1.707
2218,13.39,1.735
2220,13.34,1.801
2222,13.30,1.821
2224,13.28,1.840
2226,13.23,1.856
2228,13.19,1.880
2230,13.16,1.895
2232,13.13,1.921
2234,13.13,1.945
2236,13.12,1.953
2238,13.09,1.921
2240,13.08,1.977
2242,13.02,2.061
2244,13.00,2.163
2246,12.99,2.279
2248,12.93,2.307
2250,12.92,2.247
2252,12.87,2.198
2254,12.86,2.142
2256,12.80,2.065
2258,12.76,2.030
2260,12.78,1.944
2262,12.76,1.794
2264,12.74,1.665
2266,12.73,1.500
2268,12.69,1.409
2270,12.69,1.395
2272,12.66,1.388
2274,12.66,1.345
2276,12.63,1.322
2278,12.62,1.301
2280,12.58,1.370
2282,12.57,1.496
2284,12.56,1.585
2286,12.51,1.630
2288,12.51,1.603
2290,12.47,1.575
2292,12.41,1.545
2294,12.38,1.483
2296,12.34,1.467
2298,12.33,1.416
2300,12.32,1.332
2302,12.29,1.229
2304,12.28,1.100
2306,12.25,0.987
2308,12.24,0.823
2310,12.24,0.632
2312,12.25,0.454
2314,12.23,0.307
2316,12.22,0.140
2318,12.17,0.000
2320,12.14,0.000
2322,12.10,0.000
2324,12.12,0.000
2326,12.12,0.000
2328,12.10,0.000
2330,12.05,0.000
2332,12.03,0.000
2334,11.99,0.000
2336,11.97,0.000
2338,11.97,0.000
2340,11.92,0.000
2342,11.92,0.000
2344,11.86,0.000
2346,11.86,0.000
2347,11.84,0.000