File: Wood/Calibration_Data/UMET/UMET_TGA_N2_10K_R3.csv
Time (s),Temperature (K),Mass (mg)
0,313.134,4.2207
6,314.134,4.1884
12,315.134,4.2171
18,316.134,4.2201
24,317.134,4.2215
30,318.134,4.222
36,319.134,4.2216
42,320.134,4.2213
48,321.134,4.2214
54,322.134,4.221
60,323.134,4.2211
66,324.134,4.2211
72,325.134,4.221
78,326.134,4.221
84,327.134,4.2211
90,328.134,4.2207
96,329.134,4.2209
102,330.134,4.2209
108,331.134,4.2215
114,332.134,4.2217
120,333.134,4.222
126,334.134,4.2212
132,335.134,4.2208
138,336.134,4.2207
144,337.134,4.2211
150,338.134,4.2211
156,339.134,4.2201
162,340.134,4.2194
168,341.134,4.2192
174,342.134,4.2196
180,343.134,4.2195
186,344.134,4.2193
192,345.134,4.219
198,346.134,4.2188
204,347.134,4.2189
210,348.134,4.2185
216,349.134,4.2187
222,350.134,4.2187
228,351.134,4.2187
234,352.134,4.2186
240,353.134,4.2184
246,354.134,4.2182
252,355.134,4.2183
258,356.134,4.2183
264,357.134,4.2182
270,358.134,4.2179
276,359.134,4.2178
282,360.134,4.2179
288,361.134,4.2186
294,362.134,4.219
300,363.134,4.2189
306,364.134,4.2191
312,365.134,4.2189
318,366.134,4.2188
324,367.134,4.219
330,368.134,4.2192
336,369.134,4.2197
342,370.134,4.22
348,371.134,4.2204
354,372.134,4.22
360,373.134,4.22
366,374.134,4.2199
372,375.134,4.2197
378,376.134,4.2193
384,377.134,4.2192
390,378.134,4.2192
396,379.134,4.2188
402,380.134,4.219
408,381.134,4.219
414,382.134,4.2193
420,383.134,4.2196
426,384.134,4.2192
432,385.134,4.2187
438,386.134,4.2187
444,387.134,4.2187
450,388.134,4.2185
456,389.134,4.2191
462,390.134,4.2187
468,391.134,4.2186
474,392.134,4.2185
480,393.134,4.2185
486,394.134,4.219
492,395.134,4.2188
498,396.134,4.2184
504,397.134,4.2177
510,398.134,4.2173
516,399.134,4.2174
522,400.134,4.217
528,401.134,4.2164
534,402.134,4.2162
540,403.134,4.2162
546,404.134,4.2163
552,405.134,4.2159
558,406.134,4.2153
564,407.134,4.2148
570,408.134,4.2152
576,409.134,4.2153
582,410.134,4.2148
588,411.134,4.2148
594,412.134,4.2147
600,413.134,4.2142
606,414.134,4.2134
612,415.134,4.2132
618,416.134,4.2137
624,417.134,4.214
630,418.134,4.2139
636,419.134,4.2133
642,420.134,4.2128
648,421.134,4.2125
654,422.134,4.2119
660,423.134,4.2118
666,424.134,4.212
672,425.134,4.2116
678,426.134,4.2104
684,427.134,4.2095
690,428.134,4.2097
696,429.134,4.2089
702,430.134,4.2079
708,431.134,4.2065
714,432.134,4.2062
720,433.134,4.2058
726,434.134,4.2049
732,435.134,4.2044
738,436.134,4.2037
744,437.134,4.2029
750,438.134,4.2017
756,439.134,4.2006
762,440.134,4.1988
768,441.134,4.1975
774,442.134,4.1962
780,443.134,4.1948
786,444.134,4.1934
792,445.134,4.1914
798,446.134,4.1897
804,447.134,4.1877
810,448.134,4.1854
816,449.134,4.1843
822,450.134,4.183
828,451.134,4.1813
834,452.134,4.179
840,453.134,4.1768
846,454.134,4.1748
852,455.134,4.1724
858,456.134,4.1704
864,457.134,4.1692
870,458.134,4.1671
876,459.134,4.1646
882,460.134,4.1622
888,461.134,4.1596
894,462.134,4.1573
900,463.134,4.1548
906,464.134,4.1521
912,465.134,4.1503
918,466.134,4.1487
924,467.134,4.1467
930,468.134,4.1438
936,469.134,4.1401
942,470.134,4.1365
948,471.134,4.1344
954,472.134,4.1322
960,473.134,4.1296
966,474.134,4.1269
972,475.134,4.1242
978,476.134,4.1216
984,477.134,4.1201
990,478.134,4.1177
996,479.134,4.1147
1002,480.134,4.1121
1008,481.134,4.1102
1014,482.134,4.1071
1020,483.134,4.1039
1026,484.134,4.1012
1032,485.134,4.0985
1038,486.134,4.0955
1044,487.134,4.0915
1050,488.134,4.0883
1056,489.134,4.0862
1062,490.134,4.0841
1068,491.134,4.0812
1074,492.134,4.078
1080,493.134,4.0736
1086,494.134,4.0689
1092,495.134,4.0661
1098,496.134,4.0634
1104,497.134,4.0606
1110,498.134,4.0557
1116,499.134,4.0514
1122,500.134,4.0472
1128,501.134,4.0429
1134,502.134,4.0396
1140,503.134,4.0368
1146,504.134,4.034
1152,505.134,4.0291
1158,506.134,4.0242
1164,507.134,4.0191
1170,508.134,4.0132
1176,509.134,4.0082
1182,510.134,4.0039
1188,511.134,3.9987
1194,512.134,3.9927
1200,513.134,3.9868
1206,514.134,3.9812
1212,515.134,3.9763
1218,516.134,3.9707
1224,517.134,3.9645
1230,518.134,3.9576
1236,519.134,3.9499
1242,520.134,3.9429
1248,521.134,3.9362
1254,522.134,3.9289
1260,523.134,3.9219
1266,524.134,3.9141
1272,525.134,3.9062
1278,526.134,3.8984
1284,527.134,3.8914
1290,528.134,3.8822
1296,529.134,3.8734
1302,530.134,3.8657
1308,531.134,3.8574
1314,532.134,3.8481
1320,533.134,3.8402
1326,534.134,3.8313
1332,535.134,3.822
1338,536.134,3.8133
1344,537.134,3.8037
1350,538.134,3.7943
1356,539.134,3.7848
1362,540.134,3.7745
1368,541.134,3.7646
1374,542.134,3.756
1380,543.134,3.7453
1386,544.134,3.7338
1392,545.134,3.7232
1398,546.134,3.7132
1404,547.134,3.7024
1410,548.134,3.6907
1416,549.134,3.6799
1422,550.134,3.6695
1428,551.134,3.6591
1434,552.134,3.6481
1440,553.134,3.6358
1446,554.134,3.6248
1452,555.134,3.6127
1458,556.134,3.6003
1464,557.134,3.587
1470,558.134,3.575
1476,559.134,3.5621
1482,560.134,3.548
1488,561.134,3.5353
1494,562.134,3.5206
1500,563.134,3.5068
1506,564.134,3.4939
1512,565.134,3.4801
1518,566.134,3.4649
1524,567.134,3.4504
1530,568.134,3.4363
1536,569.134,3.4216
1542,570.134,3.4053
1548,571.134,3.3891
1554,572.134,3.3735
1560,573.134,3.3582
1566,574.134,3.3419
1572,575.134,3.3252
1578,576.134,3.3077
1584,577.134,3.2889
1590,578.134,3.2713
1596,579.134,3.2533
1602,580.134,3.2355
1608,581.134,3.217
1614,582.134,3.1969
1620,583.134,3.1771
1626,584.134,3.1582
1632,585.134,3.138
1638,586.134,3.1168
1644,587.134,3.0961
1650,588.134,3.076
1656,589.134,3.0529
1662,590.134,3.0305
1668,591.134,3.0087
1674,592.134,2.986
1680,593.134,2.9629
1686,594.134,2.94
1692,595.134,2.9164
1698,596.134,2.8909
1704,597.134,2.8666
1710,598.134,2.8427
1716,599.134,2.8181
1722,600.134,2.794
1728,601.134,2.7653
1734,602.134,2.7292
1740,603.134,2.707
1746,604.134,2.6716
1752,605.134,2.6543
1758,606.134,2.619
1764,607.134,2.5976
1770,608.134,2.5631
1776,609.134,2.5421
1782,610.134,2.5052
1788,611.134,2.4833
1794,612.134,2.4486
1800,613.134,2.4263
1806,614.134,2.3913
1812,615.134,2.3677
1818,616.134,2.3328
1824,617.134,2.3025
1830,618.134,2.263
1836,619.134,2.2417
1842,620.134,2.2086
1848,621.134,2.167
1854,622.134,2.1333
1860,623.134,2.0991
1866,624.134,2.0655
1872,625.134,2.0347
1878,626.134,1.9964
1884,627.134,1.9586
1890,628.134,1.9205
1896,629.134,1.8851
1902,630.134,1.8472
1908,631.134,1.8102
1914,632.134,1.7698
1920,633.134,1.7314
1926,634.134,1.6897
1932,635.134,1.6465
1938,636.134,1.6057
1944,637.134,1.5665
1950,638.134,1.5257
1956,639.134,1.4836
1962,640.134,1.4408
1968,641.134,1.3982
1974,642.134,1.3547
1980,643.134,1.3156
1986,644.134,1.2752
1992,645.134,1.2357
1998,646.134,1.1949
2004,647.134,1.16
2010,648.134,1.1269
2016,649.134,1.1051
2022,650.134,1.0691
2028,651.134,1.0471
2034,652.134,1.0235
2040,653.134,1.0018
2046,654.134,0.9826
2052,655.134,0.9652
2058,656.134,0.9518
2064,657.134,0.9406
2070,658.134,0.9316
2076,659.134,0.924
2082,660.134,0.9182
2088,661.134,0.9125
2094,662.134,0.9061
2100,663.134,0.9038
2106,664.134,0.9013
2112,665.134,0.8971
2118,666.134,0.8933
2124,667.134,0.8905
2130,668.134,0.8876
2136,669.134,0.8854
2142,670.134,0.8834
2148,671.134,0.8811
2154,672.134,0.8787
2160,673.134,0.8746
2166,674.134,0.8713
2172,675.134,0.87
2178,676.134,0.8684
2184,677.134,0.8669
2190,678.134,0.8644
2196,679.134,0.8616
2202,680.134,0.8589
2208,681.134,0.8563
2214,682.134,0.8538
2220,683.134,0.8517
2226,684.134,0.8494
2232,685.134,0.8473
2238,686.134,0.8448
2244,687.134,0.8416
2250,688.134,0.8398
2256,689.134,0.8382
2262,690.134,0.8358
2268,691.134,0.8332
2274,692.134,0.8312
2280,693.134,0.8289
2286,694.134,0.8267
2292,695.134,0.8246
2298,696.134,0.8223
2304,697.134,0.8202
2310,698.134,0.8177
2316,699.134,0.8165
2322,700.134,0.8155
2328,701.134,0.8131
2334,702.134,0.8101
2340,703.134,0.8079
2346,704.134,0.8057
2352,705.134,0.8034
2358,706.134,0.801
2364,707.134,0.7995
2370,708.134,0.7975
2376,709.134,0.7953
2382,710.134,0.793
2388,711.134,0.7917
2394,712.134,0.7901
2400,713.134,0.7873
2406,714.134,0.7847
2412,715.134,0.7826
2418,716.134,0.7811
2424,717.134,0.7805
2430,718.134,0.7787
2436,719.134,0.7768
2442,720.134,0.7754
2448,721.134,0.7733
2454,722.134,0.7695
2460,723.134,0.7676
2466,724.134,0.7656
2472,725.134,0.7643
2478,726.134,0.7631
2484,727.134,0.7612
2490,728.134,0.7589
2496,729.134,0.7566
2502,730.134,0.755
2508,731.134,0.7536
2514,732.134,0.7519
2520,733.134,0.7505
2526,734.134,0.7489
2532,735.134,0.7471
2538,736.134,0.745
2544,737.134,0.7438
2550,738.134,0.7427
2556,739.134,0.7413
2562,740.134,0.7393
2568,741.134,0.7376
2574,742.134,0.7368
2580,743.134,0.7356
2586,744.134,0.7331
2592,745.134,0.7309
2598,746.134,0.7299
2604,747.134,0.7286
2610,748.134,0.727
2616,749.134,0.7251
2622,750.134,0.7239
2628,751.134,0.7226
2634,752.134,0.7212
2640,753.134,0.7193
2646,754.134,0.7174
2652,755.134,0.7146
2658,756.134,0.7118
2664,757.134,0.7092
2670,758.134,0.707
2676,759.134,0.7057
2682,760.134,0.7047
2688,761.134,0.7035
2694,762.134,0.7024
2700,763.134,0.701
2706,764.134,0.6994
2712,765.134,0.698
2718,766.134,0.6971
2724,767.134,0.696
2730,768.134,0.6939
2736,769.134,0.6917
2742,770.134,0.6899
2748,771.134,0.6884
2754,772.134,0.6864
2760,773.134,0.6843
2766,774.134,0.6825
2772,775.134,0.6816
2778,776.134,0.6805
2784,777.134,0.6797
2790,778.134,0.678
2796,779.134,0.6759
2802,780.134,0.6735
2808,781.134,0.6727
2814,782.134,0.6708
2820,783.134,0.6697
2826,784.134,0.6689
2832,785.134,0.6679
2838,786.134,0.6663
2844,787.134,0.6647
2850,788.134,0.6631
2856,789.134,0.6619
2862,790.134,0.6608
2868,791.134,0.6588
2874,792.134,0.6558
2880,793.134,0.6537
2886,794.134,0.6523
2892,795.134,0.6519
2898,796.134,0.6512
2904,797.134,0.65
2910,798.134,0.6468
2916,799.134,0.6441
2922,800.134,0.6431
2928,801.134,0.6421
2934,802.134,0.6406
2940,803.134,0.6389
2946,804.134,0.6375
2952,805.134,0.6353
2958,806.134,0.6339
2964,807.134,0.6327
2970,808.134,0.6309
2976,809.134,0.6296
2982,810.134,0.6281
2988,811.134,0.6271
2994,812.134,0.6253
3000,813.134,0.623
3006,814.134,0.6208
3012,815.134,0.6197
3018,816.134,0.6184
3024,817.134,0.6158
3030,818.134,0.6136
3036,819.134,0.6133
3042,820.134,0.6128
3048,821.134,0.6101
3054,822.134,0.6067
3060,823.134,0.6043
3066,824.134,0.6028
3072,825.134,0.6007
3078,826.134,0.5994
3084,827.134,0.5982
3090,828.134,0.5971
3096,829.134,0.5953
3102,830.134,0.5936
3108,831.134,0.5921
3114,832.134,0.591
3120,833.134,0.5897
3126,834.134,0.5883
3132,835.134,0.5864
3138,836.134,0.5842
3144,837.134,0.5822
3150,838.134,0.5808
3156,839.134,0.5797
3162,840.134,0.5781
3168,841.134,0.5766
3174,842.134,0.5754
3180,843.134,0.5728
3186,844.134,0.5703
3192,845.134,0.5684
3198,846.134,0.5677
3204,847.134,0.5674
3210,848.134,0.5657
3216,849.134,0.5629
3222,850.134,0.5612
3228,851.134,0.5602
3234,852.134,0.5592
3240,853.134,0.558
3246,854.134,0.5566
3252,855.134,0.5551
3258,856.134,0.5523
3264,857.134,0.5503
3270,858.134,0.549
3276,859.134,0.5476
3282,860.134,0.5466
3288,861.134,0.545
3294,862.134,0.5435
3300,863.134,0.5411
3306,864.134,0.5398
3312,865.134,0.5392
3318,866.134,0.5384
3324,867.134,0.5364
3330,868.134,0.5348
3336,869.134,0.5337
3342,870.134,0.5317
3348,871.134,0.5296
3354,872.134,0.5277
3360,873.134,0.526
3366,874.134,0.5244
3372,875.134,0.5231
3378,876.134,0.5218
3384,877.134,0.5207
3390,878.134,0.5194
3396,879.134,0.5177
3402,880.134,0.5155
3408,881.134,0.5149
3414,882.134,0.5134
3420,883.134,0.5121
3426,884.134,0.5107
3432,885.134,0.5089
3438,886.134,0.507
3444,887.134,0.5058
3450,888.134,0.5043
3456,889.134,0.5024
3462,890.134,0.5013
3468,891.134,0.5
3474,892.134,0.4988
3480,893.134,0.4968
3486,894.134,0.4951
3492,895.134,0.4935
3498,896.134,0.4923
3504,897.134,0.4908
3510,898.134,0.4898
3516,899.134,0.489
3522,900.134,0.4879
3528,901.134,0.4862
3534,902.134,0.4846
3540,903.134,0.4834
3546,904.134,0.4823
3552,905.134,0.4801
3558,906.134,0.4786
3564,907.134,0.4776
3570,908.134,0.4763
3576,909.134,0.4746
3582,910.134,0.473
3588,911.134,0.4716
3594,912.134,0.4707
3600,913.134,0.4699
3606,914.134,0.4688
3612,915.134,0.4669
3618,916.134,0.4635
3624,917.134,0.4618
3630,918.134,0.4621
3636,919.134,0.4611
3642,920.134,0.4599
3648,921.134,0.4588
3654,922.134,0.4568
3660,923.134,0.4556
3666,924.134,0.455
3672,925.134,0.4537
3678,926.134,0.4522
3684,927.134,0.4508
3690,928.134,0.449
3696,929.134,0.447
3702,930.134,0.4458
3708,931.134,0.4449
3714,932.134,0.4437
3720,933.134,0.4422
3726,934.134,0.4411
3732,935.134,0.44
3738,936.134,0.4386
3744,937.134,0.4373
3750,938.134,0.4357
3756,939.134,0.4338
3762,940.134,0.4323
3768,941.134,0.431
3774,942.134,0.43
3780,943.134,0.4295
3786,944.134,0.4293
3792,945.134,0.4288
3798,946.134,0.428
3804,947.134,0.4268
3810,948.134,0.4249
3816,949.134,0.4237
3822,950.134,0.423
3828,951.134,0.4208
3834,952.134,0.4189
3840,953.134,0.4179
3846,954.134,0.4173
3852,955.134,0.4161
3858,956.134,0.4152
3864,957.134,0.4151
3870,958.134,0.4138
3876,959.134,0.4125
3882,960.134,0.4112
3888,961.134,0.409
3894,962.134,0.4082
3900,963.134,0.4072
3906,964.134,0.4064
3912,965.134,0.4055
3918,966.134,0.4039
3924,967.134,0.401
3930,968.134,0.4002
3936,969.134,0.4004
3942,970.134,0.4002
3948,971.134,0.3987
3954,972.134,0.3958
3960,973.134,0.3937
3966,974.134,0.3938
3972,975.134,0.393
3978,976.134,0.3919
3984,977.134,0.3916
3990,978.134,0.3908
3996,979.134,0.3894
4002,980.134,0.3885
4008,981.134,0.3874
4014,982.134,0.3857
4020,983.134,0.3841
4026,984.134,0.3829
4032,985.134,0.3819
4038,986.134,0.3812
4044,987.134,0.3794
4050,988.134,0.3782
4056,989.134,0.3775
4062,990.134,0.3761
4068,991.134,0.3747
4074,992.134,0.3736
4080,993.134,0.3723
4086,994.134,0.3711
4092,995.134,0.3688
4098,996.134,0.3674
4104,997.134,0.3667
4110,998.134,0.3663
4116,999.134,0.3656
4122,1000.134,0.3657
4128,1001.134,0.3654
4134,1002.134,0.3654
4140,1003.134,0.3646
4146,1004.134,0.3632
4152,1005.134,0.3622
4158,1006.134,0.3619
4164,1007.134,0.3602
4170,1008.134,0.3573
4176,1009.134,0.356
4182,1010.134,0.3555
4188,1011.134,0.3544
4194,1012.134,0.3521
4200,1013.134,0.3512
4206,1014.134,0.3515
4212,1015.134,0.3508
4218,1016.134,0.3502
4224,1017.134,0.3497
4230,1018.134,0.3488
4236,1019.134,0.3479
4242,1020.134,0.3475
4248,1021.134,0.3458
4254,1022.134,0.3438
4260,1023.134,0.3432
4266,1024.134,0.3428
4272,1025.134,0.3418
4278,1026.134,0.3408
4284,1027.134,0.3401
4290,1028.134,0.3382
4296,1029.134,0.3374
4302,1030.134,0.3364
4308,1031.134,0.3348
4314,1032.134,0.3338
4320,1033.134,0.333
4326,1034.134,0.3322
4332,1035.134,0.3326
4338,1036.134,0.332
4344,1037.134,0.3303
4350,1038.134,0.3269
4356,1039.134,0.3263
4362,1040.134,0.3263
4368,1041.134,0.3259
4374,1042.134,0.3256
4380,1043.134,0.3243
4386,1044.134,0.323
4392,1045.134,0.3218
4398,1046.134,0.3191
4404,1047.134,0.3179
4410,1048.134,0.3177
4416,1049.134,0.3174
4422,1050.134,0.3169
4428,1051.134,0.3156
4434,1052.134,0.3142
4440,1053.134,0.3146
4446,1054.134,0.3142
4452,1055.134,0.3125
4458,1056.134,0.3106
4464,1057.134,0.3099
4470,1058.134,0.3095
4476,1059.134,0.309
4482,1060.134,0.3084
4488,1061.134,0.3081
4494,1062.134,0.3069
4500,1063.134,0.3052
4506,1064.134,0.3048
4512,1065.134,0.3031
4518,1066.134,0.3003
4524,1067.134,0.3
4530,1068.134,0.3001
4536,1069.134,0.2997
4542,1070.134,0.2991
4548,1071.134,0.2987
4554,1072.134,0.2975
4557,1072.634,0.2977