File: Wood/Calibration_Data/UMET/UMET_Wood_TGA_O2-21_10K_R2.csv
Time (s),Temperature (K),Mass (mg)
0,313.14,4.0253
6,314.14,4.025
12,315.14,4.0247
18,316.14,4.0249
24,317.14,4.0249
30,318.14,4.0249
36,319.14,4.0249
42,320.14,4.0249
48,321.14,4.025
54,322.14,4.025
60,323.14,4.0248
66,324.14,4.0245
72,325.14,4.0241
78,326.14,4.0239
84,327.14,4.0236
90,328.14,4.0237
96,329.14,4.0238
102,330.14,4.0237
108,331.14,4.0235
114,332.14,4.0235
120,333.14,4.0231
126,334.14,4.0231
132,335.14,4.0228
138,336.14,4.0226
144,337.14,4.0223
150,338.14,4.0221
156,339.14,4.022
162,340.14,4.0218
168,341.14,4.0214
174,342.14,4.0214
180,343.14,4.0214
186,344.14,4.0211
192,345.14,4.0209
198,346.14,4.0208
204,347.14,4.0206
210,348.14,4.0204
216,349.14,4.0204
222,350.14,4.0203
228,351.14,4.0204
234,352.14,4.0209
240,353.14,4.0211
246,354.14,4.0211
252,355.14,4.021
258,356.14,4.0208
264,357.14,4.0207
270,358.14,4.0204
276,359.14,4.0203
282,360.14,4.0198
288,361.14,4.0195
294,362.14,4.0194
300,363.14,4.019
306,364.14,4.0189
312,365.14,4.018
318,366.14,4.0176
324,367.14,4.0177
330,368.14,4.0176
336,369.14,4.0173
342,370.14,4.0173
348,371.14,4.0172
354,372.14,4.017
360,373.14,4.017
366,374.14,4.0168
372,375.14,4.0164
378,376.14,4.0163
384,377.14,4.0164
390,378.14,4.0161
396,379.14,4.0161
402,380.14,4.0152
408,381.14,4.0151
414,382.14,4.0151
420,383.14,4.015
426,384.14,4.0148
432,385.14,4.0147
438,386.14,4.0144
444,387.14,4.0141
450,388.14,4.014
456,389.14,4.0138
462,390.14,4.0138
468,391.14,4.0136
474,392.14,4.0135
480,393.14,4.0134
486,394.14,4.0133
492,395.14,4.0129
498,396.14,4.0125
504,397.14,4.0125
510,398.14,4.012
516,399.14,4.0116
522,400.14,4.0117
528,401.14,4.0114
534,402.14,4.0112
540,403.14,4.0108
546,404.14,4.0104
552,405.14,4.0101
558,406.14,4.0099
564,407.14,4.01
570,408.14,4.0098
576,409.14,4.0094
582,410.14,4.0091
588,411.14,4.0088
594,412.14,4.0084
600,413.14,4.0084
606,414.14,4.0083
612,415.14,4.0079
618,416.14,4.0071
624,417.14,4.0067
630,418.14,4.0068
636,419.14,4.0064
642,420.14,4.006
648,421.14,4.0056
654,422.14,4.0053
660,423.14,4.0049
666,424.14,4.0043
672,425.14,4.0038
678,426.14,4.0032
684,427.14,4.0027
690,428.14,4.002
696,429.14,4.0012
702,430.14,4.0008
708,431.14,4.0001
714,432.14,3.9994
720,433.14,3.9984
726,434.14,3.9977
732,435.14,3.9968
738,436.14,3.9957
744,437.14,3.995
750,438.14,3.9941
756,439.14,3.993
762,440.14,3.9919
768,441.14,3.9912
774,442.14,3.99
780,443.14,3.989
786,444.14,3.9879
792,445.14,3.9865
798,446.14,3.9849
804,447.14,3.9836
810,448.14,3.9822
816,449.14,3.9808
822,450.14,3.9792
828,451.14,3.9777
834,452.14,3.9756
840,453.14,3.9741
846,454.14,3.9721
852,455.14,3.9701
858,456.14,3.9681
864,457.14,3.9667
870,458.14,3.9651
876,459.14,3.9631
882,460.14,3.961
888,461.14,3.9593
894,462.14,3.9575
900,463.14,3.9553
906,464.14,3.9533
912,465.14,3.9514
918,466.14,3.9492
924,467.14,3.9468
930,468.14,3.9447
936,469.14,3.9418
942,470.14,3.9387
948,471.14,3.9362
954,472.14,3.9339
960,473.14,3.9319
966,474.14,3.9299
972,475.14,3.9273
978,476.14,3.9251
984,477.14,3.9228
990,478.14,3.9208
996,479.14,3.9183
1002,480.14,3.9156
1008,481.14,3.9131
1014,482.14,3.9109
1020,483.14,3.9084
1026,484.14,3.9059
1032,485.14,3.9032
1038,486.14,3.9005
1044,487.14,3.8972
1050,488.14,3.8939
1056,489.14,3.8911
1062,490.14,3.8883
1068,491.14,3.8852
1074,492.14,3.8812
1080,493.14,3.8789
1086,494.14,3.8762
1092,495.14,3.8725
1098,496.14,3.8678
1104,497.14,3.8639
1110,498.14,3.8604
1116,499.14,3.8564
1122,500.14,3.8516
1128,501.14,3.8472
1134,502.14,3.8425
1140,503.14,3.838
1146,504.14,3.8332
1152,505.14,3.8286
1158,506.14,3.8234
1164,507.14,3.8188
1170,508.14,3.8136
1176,509.14,3.8083
1182,510.14,3.8028
1188,511.14,3.797
1194,512.14,3.7909
1200,513.14,3.7848
1206,514.14,3.7785
1212,515.14,3.773
1218,516.14,3.7673
1224,517.14,3.7604
1230,518.14,3.7536
1236,519.14,3.7466
1242,520.14,3.7395
1248,521.14,3.7324
1254,522.14,3.7251
1260,523.14,3.7172
1266,524.14,3.7088
1272,525.14,3.7004
1278,526.14,3.691
1284,527.14,3.6826
1290,528.14,3.6739
1296,529.14,3.6652
1302,530.14,3.6561
1308,531.14,3.6471
1314,532.14,3.6372
1320,533.14,3.628
1326,534.14,3.6183
1332,535.14,3.6087
1338,536.14,3.5993
1344,537.14,3.5893
1350,538.14,3.5789
1356,539.14,3.5683
1362,540.14,3.557
1368,541.14,3.5457
1374,542.14,3.5341
1380,543.14,3.5228
1386,544.14,3.5106
1392,545.14,3.497
1398,546.14,3.4844
1404,547.14,3.4719
1410,548.14,3.4591
1416,549.14,3.4465
1422,550.14,3.4332
1428,551.14,3.4194
1434,552.14,3.4059
1440,553.14,3.3924
1446,554.14,3.3778
1452,555.14,3.3626
1458,556.14,3.3476
1464,557.14,3.3315
1470,558.14,3.3148
1476,559.14,3.2985
1482,560.14,3.2824
1488,561.14,3.2656
1494,562.14,3.2483
1500,563.14,3.2308
1506,564.14,3.2126
1512,565.14,3.1937
1518,566.14,3.175
1524,567.14,3.1556
1530,568.14,3.1358
1536,569.14,3.1151
1542,570.14,3.0941
1548,571.14,3.0721
1554,572.14,3.0502
1560,573.14,3.0273
1566,574.14,3.0038
1572,575.14,2.9793
1578,576.14,2.9549
1584,577.14,2.9302
1590,578.14,2.8904
1596,579.14,2.8706
1602,580.14,2.8356
1608,581.14,2.8148
1614,582.14,2.7791
1620,583.14,2.7569
1626,584.14,2.7195
1632,585.14,2.6835
1638,586.14,2.6498
1644,587.14,2.6155
1650,588.14,2.58
1656,589.14,2.5432
1662,590.14,2.5049
1668,591.14,2.4627
1674,592.14,2.4201
1680,593.14,2.3747
1686,594.14,2.3259
1692,595.14,2.2743
1698,596.14,2.2195
1704,597.14,2.1608
1710,598.14,2.098
1716,599.14,2.0303
1722,600.14,1.9589
1728,601.14,1.8843
1734,602.14,1.8086
1740,603.14,1.7327
1746,604.14,1.6597
1752,605.14,1.5928
1758,606.14,1.5324
1764,607.14,1.4816
1770,608.14,1.4389
1776,609.14,1.4076
1782,610.14,1.3861
1788,611.14,1.3634
1794,612.14,1.3426
1800,613.14,1.3244
1806,614.14,1.3086
1812,615.14,1.2938
1818,616.14,1.2811
1824,617.14,1.2691
1830,618.14,1.2576
1836,619.14,1.247
1842,620.14,1.2368
1848,621.14,1.2273
1854,622.14,1.2182
1860,623.14,1.2093
1866,624.14,1.201
1872,625.14,1.1933
1878,626.14,1.1856
1884,627.14,1.178
1890,628.14,1.1701
1896,629.14,1.1627
1902,630.14,1.1545
1908,631.14,1.1473
1914,632.14,1.14
1920,633.14,1.1331
1926,634.14,1.127
1932,635.14,1.121
1938,636.14,1.1143
1944,637.14,1.1075
1950,638.14,1.1004
1956,639.14,1.0937
1962,640.14,1.0871
1968,641.14,1.0806
1974,642.14,1.0742
1980,643.14,1.067
1986,644.14,1.0605
1992,645.14,1.0537
1998,646.14,1.0473
2004,647.14,1.0409
2010,648.14,1.0344
2016,649.14,1.0282
2022,650.14,1.0216
2028,651.14,1.0145
2034,652.14,1.0082
2040,653.14,1.0013
2046,654.14,0.9942
2052,655.14,0.9878
2058,656.14,0.9815
2064,657.14,0.9751
2070,658.14,0.9684
2076,659.14,0.9616
2082,660.14,0.9549
2088,661.14,0.9482
2094,662.14,0.941
2100,663.14,0.9342
2106,664.14,0.9276
2112,665.14,0.9206
2118,666.14,0.914
2124,667.14,0.9074
2130,668.14,0.9007
2136,669.14,0.8943
2142,670.14,0.8878
2148,671.14,0.8809
2154,672.14,0.8737
2160,673.14,0.867
2166,674.14,0.8602
2172,675.14,0.8528
2178,676.14,0.8455
2184,677.14,0.8382
2190,678.14,0.8309
2196,679.14,0.8237
2202,680.14,0.8166
2208,681.14,0.8091
2214,682.14,0.8017
2220,683.14,0.7946
2226,684.14,0.7875
2232,685.14,0.7799
2238,686.14,0.7724
2244,687.14,0.7648
2250,688.14,0.7563
2256,689.14,0.7485
2262,690.14,0.7404
2268,691.14,0.7319
2274,692.14,0.7234
2280,693.14,0.7152
2286,694.14,0.7072
2292,695.14,0.6985
2298,696.14,0.6898
2304,697.14,0.682
2310,698.14,0.6731
2316,699.14,0.6645
2322,700.14,0.6552
2328,701.14,0.6458
2334,702.14,0.6362
2340,703.14,0.6264
2346,704.14,0.6167
2352,705.14,0.6071
2358,706.14,0.5973
2364,707.14,0.5871
2370,708.14,0.5775
2376,709.14,0.5671
2382,710.14,0.557
2388,711.14,0.5473
2394,712.14,0.5372
2400,713.14,0.5268
2406,714.14,0.5166
2412,715.14,0.5053
2418,716.14,0.4946
2424,717.14,0.4841
2430,718.14,0.4736
2436,719.14,0.4628
2442,720.14,0.4522
2448,721.14,0.4417
2454,722.14,0.4307
2460,723.14,0.4196
2466,724.14,0.4084
2472,725.14,0.397
2478,726.14,0.3856
2484,727.14,0.3736
2490,728.14,0.3611
2496,729.14,0.3487
2502,730.14,0.336
2508,731.14,0.3229
2514,732.14,0.3098
2520,733.14,0.2963
2526,734.14,0.2827
2532,735.14,0.2692
2538,736.14,0.2553
2544,737.14,0.2406
2550,738.14,0.2256
2556,739.14,0.2105
2562,740.14,0.1946
2568,741.14,0.1783
2574,742.14,0.1603
2580,743.14,0.1421
2586,744.14,0.1332
2592,745.14,0.0307
2598,746.14,0.0173
2604,747.14,0.0164
2610,748.14,0.0155
2616,749.14,0.0145
2622,750.14,0.0138
2628,751.14,0.0134
2634,752.14,0.0129
2640,753.14,0.0124
2646,754.14,0.0121
2652,755.14,0.012
2658,756.14,0.0118
2664,757.14,0.0118
2670,758.14,0.0117
2676,759.14,0.0115
2682,760.14,0.0115
2688,761.14,0.0116
2694,762.14,0.0115
2700,763.14,0.0115
2706,764.14,0.0114
2712,765.14,0.0113
2718,766.14,0.0112
2724,767.14,0.0115
2730,768.14,0.0113
2736,769.14,0.0109
2742,770.14,0.0107
2748,771.14,0.0108
2754,772.14,0.0106
2760,773.14,0.0107
2766,774.14,0.0104
2772,775.14,0.0104
2778,776.14,0.0104
2784,777.14,0.0101
2790,778.14,0.0103
2796,779.14,0.0102
2802,780.14,0.0103
2808,781.14,0.0103
2814,782.14,0.0101
2820,783.14,0.0099
2826,784.14,0.0101
2832,785.14,0.01
2838,786.14,0.0099
2844,787.14,0.0099
2850,788.14,0.0097
2856,789.14,0.0097
2862,790.14,0.0096
2868,791.14,0.0095
2874,792.14,0.0096
2880,793.14,0.0095
2886,794.14,0.0092
2892,795.14,0.0091
2898,796.14,0.0092
2904,797.14,0.0089
2910,798.14,0.0091
2916,799.14,0.0092
2922,800.14,0.009
2928,801.14,0.0089
2934,802.14,0.0091
2940,803.14,0.009
2946,804.14,0.0086
2952,805.14,0.0087
2958,806.14,0.009
2964,807.14,0.0088
2970,808.14,0.0086
2976,809.14,0.0083
2982,810.14,0.0084
2988,811.14,0.0085
2994,812.14,0.0083
3000,813.14,0.0081
3006,814.14,0.0081
3012,815.14,0.008
3018,816.14,0.008
3024,817.14,0.0079
3030,818.14,0.0075
3036,819.14,0.0074
3042,820.14,0.0073
3048,821.14,0.0074
3054,822.14,0.0073
3060,823.14,0.0071
3066,824.14,0.0067
3072,825.14,0.0065
3078,826.14,0.0063
3084,827.14,0.0062
3090,828.14,0.0063
3096,829.14,0.0065
3102,830.14,0.0067
3108,831.14,0.0065
3114,832.14,0.0061
3120,833.14,0.0059
3126,834.14,0.0058
3132,835.14,0.0059
3138,836.14,0.0055
3144,837.14,0.0051
3150,838.14,0.0051
3156,839.14,0.0052
3162,840.14,0.0051
3168,841.14,0.0053
3174,842.14,0.0053
3180,843.14,0.0054
3186,844.14,0.0054
3192,845.14,0.0052
3198,846.14,0.0053
3204,847.14,0.0054
3210,848.14,0.0051
3216,849.14,0.0055
3222,850.14,0.006
3228,851.14,0.0057
3234,852.14,0.0054
3240,853.14,0.005
3246,854.14,0.0048
3252,855.14,0.0048
3258,856.14,0.0048
3264,857.14,0.0051
3270,858.14,0.005
3276,859.14,0.0056
3282,860.14,0.006
3288,861.14,0.0059
3294,862.14,0.006
3300,863.14,0.0064
3306,864.14,0.0063
3312,865.14,0.0059
3318,866.14,0.0059
3324,867.14,0.0059
3330,868.14,0.0058
3336,869.14,0.0057
3342,870.14,0.0056
3348,871.14,0.0056
3354,872.14,0.0055
3360,873.14,0.0058
3366,874.14,0.0061
3372,875.14,0.0063
3378,876.14,0.0061
3384,877.14,0.0059
3390,878.14,0.0059
3396,879.14,0.0056
3402,880.14,0.0054
3408,881.14,0.0052
3414,882.14,0.0052
3420,883.14,0.005
3426,884.14,0.0052
3432,885.14,0.005
3438,886.14,0.0048
3444,887.14,0.0045
3450,888.14,0.0045
3456,889.14,0.0046
3462,890.14,0.0047
3468,891.14,0.0048
3474,892.14,0.0046
3480,893.14,0.0046
3486,894.14,0.0044
3492,895.14,0.0045
3498,896.14,0.0049
3504,897.14,0.0052
3510,898.14,0.005
3516,899.14,0.005
3522,900.14,0.0048
3528,901.14,0.0048
3534,902.14,0.0049
3540,903.14,0.0049
3546,904.14,0.0048
3552,905.14,0.0049
3558,906.14,0.0049
3564,907.14,0.0052
3570,908.14,0.0049
3576,909.14,0.0048
3582,910.14,0.0051
3588,911.14,0.0052
3594,912.14,0.0051
3600,913.14,0.0054
3606,914.14,0.0055
3612,915.14,0.0054
3618,916.14,0.0055
3624,917.14,0.0055
3630,918.14,0.0053
3636,919.14,0.0053
3642,920.14,0.0051
3648,921.14,0.0047
3654,922.14,0.0046
3660,923.14,0.0046
3666,924.14,0.0046
3672,925.14,0.0045
3678,926.14,0.0046
3684,927.14,0.0047
3690,928.14,0.0045
3696,929.14,0.0042
3702,930.14,0.0042
3708,931.14,0.0042
3714,932.14,0.0045
3720,933.14,0.0044
3726,934.14,0.0043
3732,935.14,0.0039
3738,936.14,0.0037
3744,937.14,0.0038
3750,938.14,0.0039
3756,939.14,0.0042
3762,940.14,0.0043
3768,941.14,0.0042
3774,942.14,0.0043
3780,943.14,0.0044
3786,944.14,0.0043
3792,945.14,0.0037
3798,946.14,0.0031
3804,947.14,0.003
3810,948.14,0.0025
3816,949.14,0.0023
3822,950.14,0.0023
3828,951.14,0.0018
3834,952.14,0.0018
3840,953.14,0.0013
3846,954.14,0.0009
3852,955.14,0.0007
3858,956.14,0.0009
3864,957.14,0.0012
3870,958.14,0.0014
3876,959.14,0.0014
3882,960.14,0.0014
3888,961.14,0.0015
3894,962.14,0.0015
3900,963.14,0.0012
3906,964.14,0.0008
3912,965.14,0.0009
3918,966.14,0.0008
3924,967.14,0.0009
3930,968.14,0.0008
3936,969.14,0.0008
3942,970.14,0.0006
3948,971.14,0.0014
3954,972.14,0.0018
3960,973.14,0.0019
3966,974.14,0.0021
3972,975.14,0.0019
3978,976.14,0.002
3984,977.14,0.0021
3990,978.14,0.0022
3996,979.14,0.0023
4002,980.14,0.0024
4008,981.14,0.0024
4014,982.14,0.0022
4020,983.14,0.002
4026,984.14,0.0016
4032,985.14,0.0014
4038,986.14,0.0011
4044,987.14,0.0016
4050,988.14,0.0018
4056,989.14,0.0017
4062,990.14,0.0017
4068,991.14,0.0018
4074,992.14,0.0018
4080,993.14,0.0014
4086,994.14,0.0011
4092,995.14,0.0007
4098,996.14,0.0009
4104,997.14,0.0013
4110,998.14,0.0013
4116,999.14,0.0013
4122,1000.14,0.0013
4128,1001.14,0.0014
4134,1002.14,0.0011
4140,1003.14,0.001
4146,1004.14,0.0012
4152,1005.14,0.0011
4158,1006.14,0.0013
4164,1007.14,0.0014
4170,1008.14,0.0012
4176,1009.14,0.0012
4182,1010.14,0.001
4188,1011.14,0.0008
4194,1012.14,0.0007
4200,1013.14,0.0006
4206,1014.14,0.0008
4212,1015.14,0.0006
4218,1016.14,0.0006
4224,1017.14,0.0005
4230,1018.14,0.0006
4236,1019.14,0.0009
4242,1020.14,0.0011
4248,1021.14,0.001
4254,1022.14,0.0011
4260,1023.14,0.001
4266,1024.14,0.0009
4272,1025.14,0.0008
4278,1026.14,0.0007
4284,1027.14,0.0009
4290,1028.14,0.0009
4296,1029.14,0.0008
4302,1030.14,0.0007
4308,1031.14,0.0009
4314,1032.14,0.0009
4320,1033.14,0.0008
4326,1034.14,0.0011
4332,1035.14,0.0008
4338,1036.14,0.0011
4344,1037.14,0.0011
4350,1038.14,0.001
4356,1039.14,0.0013
4362,1040.14,0.0014
4368,1041.14,0.0012
4374,1042.14,0.0014
4380,1043.14,0.0014
4386,1044.14,0.0013
4392,1045.14,0.0012
4398,1046.14,0.0012
4404,1047.14,0.0013
4410,1048.14,0.0011
4416,1049.14,0.0012
4422,1050.14,0.0009
4428,1051.14,0.001
4434,1052.14,0.0011
4440,1053.14,0.001
4446,1054.14,0.0008
4452,1055.14,0.0004
4458,1056.14,0.0004
4464,1057.14,0.0004
4470,1058.14,0.0004
4476,1059.14,0.0005
4482,1060.14,0.0006
4488,1061.14,0.0007
4494,1062.14,0.0008
4500,1063.14,0.0006
4506,1064.14,0.0006
4512,1065.14,0.0007
4518,1066.14,0.0007
4524,1067.14,0.0009
4530,1068.14,0.0007
4536,1069.14,0.0004
4542,1070.14,0.0002
4548,1071.14,0.0001
4554,1072.14,0.0002
4557,1072.64,0.0002