File: Wood/Calibration_Data/UMET/UMET_Wood_TGA_O2-21_10K_R1.csv
Time (s),Temperature (K),Mass (mg)
0,313.14,2.3484
6,314.14,2.3483
12,315.14,2.3481
18,316.14,2.3481
24,317.14,2.348
30,318.14,2.3478
36,319.14,2.3476
42,320.14,2.3474
48,321.14,2.3474
54,322.14,2.3473
60,323.14,2.3473
66,324.14,2.347
72,325.14,2.3467
78,326.14,2.3468
84,327.14,2.3468
90,328.14,2.3467
96,329.14,2.3468
102,330.14,2.3465
108,331.14,2.3463
114,332.14,2.3462
120,333.14,2.3457
126,334.14,2.3456
132,335.14,2.3452
138,336.14,2.3448
144,337.14,2.3445
150,338.14,2.3441
156,339.14,2.3442
162,340.14,2.3442
168,341.14,2.3439
174,342.14,2.3437
180,343.14,2.3437
186,344.14,2.3436
192,345.14,2.3434
198,346.14,2.3434
204,347.14,2.3434
210,348.14,2.3432
216,349.14,2.3434
222,350.14,2.3432
228,351.14,2.3429
234,352.14,2.3426
240,353.14,2.3424
246,354.14,2.3423
252,355.14,2.3422
258,356.14,2.3422
264,357.14,2.342
270,358.14,2.3418
276,359.14,2.3417
282,360.14,2.3414
288,361.14,2.3414
294,362.14,2.3413
300,363.14,2.3412
306,364.14,2.3409
312,365.14,2.34
318,366.14,2.3398
324,367.14,2.3399
330,368.14,2.3399
336,369.14,2.3398
342,370.14,2.3398
348,371.14,2.3397
354,372.14,2.3395
360,373.14,2.3396
366,374.14,2.3395
372,375.14,2.3395
378,376.14,2.3394
384,377.14,2.3393
390,378.14,2.3392
396,379.14,2.3394
402,380.14,2.339
408,381.14,2.3391
414,382.14,2.3389
420,383.14,2.3389
426,384.14,2.3388
432,385.14,2.3387
438,386.14,2.3384
444,387.14,2.3383
450,388.14,2.3384
456,389.14,2.3383
462,390.14,2.3383
468,391.14,2.3383
474,392.14,2.3381
480,393.14,2.338
486,394.14,2.338
492,395.14,2.3378
498,396.14,2.3378
504,397.14,2.3376
510,398.14,2.3373
516,399.14,2.3369
522,400.14,2.3368
528,401.14,2.3368
534,402.14,2.3365
540,403.14,2.3363
546,404.14,2.3359
552,405.14,2.3356
558,406.14,2.3353
564,407.14,2.335
570,408.14,2.3348
576,409.14,2.3346
582,410.14,2.3343
588,411.14,2.3341
594,412.14,2.3336
600,413.14,2.3332
606,414.14,2.3332
612,415.14,2.3329
618,416.14,2.3325
624,417.14,2.3322
630,418.14,2.3323
636,419.14,2.3319
642,420.14,2.3315
648,421.14,2.3311
654,422.14,2.3307
660,423.14,2.3303
666,424.14,2.3298
672,425.14,2.3292
678,426.14,2.3287
684,427.14,2.3283
690,428.14,2.3277
696,429.14,2.3271
702,430.14,2.3268
708,431.14,2.3264
714,432.14,2.3259
720,433.14,2.3253
726,434.14,2.3248
732,435.14,2.324
738,436.14,2.3235
744,437.14,2.3226
750,438.14,2.3216
756,439.14,2.3207
762,440.14,2.3198
768,441.14,2.3187
774,442.14,2.3174
780,443.14,2.3163
786,444.14,2.3153
792,445.14,2.314
798,446.14,2.3125
804,447.14,2.3119
810,448.14,2.311
816,449.14,2.3098
822,450.14,2.3088
828,451.14,2.3079
834,452.14,2.3066
840,453.14,2.3056
846,454.14,2.3046
852,455.14,2.3034
858,456.14,2.302
864,457.14,2.3009
870,458.14,2.2998
876,459.14,2.2984
882,460.14,2.2971
888,461.14,2.296
894,462.14,2.2947
900,463.14,2.2936
906,464.14,2.2926
912,465.14,2.2917
918,466.14,2.2907
924,467.14,2.2895
930,468.14,2.2882
936,469.14,2.287
942,470.14,2.2855
948,471.14,2.2843
954,472.14,2.283
960,473.14,2.2819
966,474.14,2.2806
972,475.14,2.2792
978,476.14,2.2778
984,477.14,2.2763
990,478.14,2.2748
996,479.14,2.2731
1002,480.14,2.2718
1008,481.14,2.2702
1014,482.14,2.2688
1020,483.14,2.267
1026,484.14,2.2654
1032,485.14,2.2637
1038,486.14,2.262
1044,487.14,2.2601
1050,488.14,2.2586
1056,489.14,2.2567
1062,490.14,2.2548
1068,491.14,2.2528
1074,492.14,2.2507
1080,493.14,2.2485
1086,494.14,2.2458
1092,495.14,2.2433
1098,496.14,2.2412
1104,497.14,2.2389
1110,498.14,2.2366
1116,499.14,2.234
1122,500.14,2.2308
1128,501.14,2.2276
1134,502.14,2.2246
1140,503.14,2.2217
1146,504.14,2.2176
1152,505.14,2.2142
1158,506.14,2.2112
1164,507.14,2.2084
1170,508.14,2.2059
1176,509.14,2.2028
1182,510.14,2.1985
1188,511.14,2.1941
1194,512.14,2.19
1200,513.14,2.1859
1206,514.14,2.1824
1212,515.14,2.1791
1218,516.14,2.1758
1224,517.14,2.1718
1230,518.14,2.1673
1236,519.14,2.1631
1242,520.14,2.1586
1248,521.14,2.1542
1254,522.14,2.1499
1260,523.14,2.1449
1266,524.14,2.1398
1272,525.14,2.1352
1278,526.14,2.1304
1284,527.14,2.1253
1290,528.14,2.1197
1296,529.14,2.1146
1302,530.14,2.1092
1308,531.14,2.1037
1314,532.14,2.0979
1320,533.14,2.0925
1326,534.14,2.0865
1332,535.14,2.0807
1338,536.14,2.0748
1344,537.14,2.0687
1350,538.14,2.0621
1356,539.14,2.0563
1362,540.14,2.0498
1368,541.14,2.043
1374,542.14,2.0363
1380,543.14,2.0294
1386,544.14,2.0224
1392,545.14,2.0153
1398,546.14,2.0079
1404,547.14,2.0007
1410,548.14,1.993
1416,549.14,1.9857
1422,550.14,1.9779
1428,551.14,1.97
1434,552.14,1.9612
1440,553.14,1.9526
1446,554.14,1.9441
1452,555.14,1.9358
1458,556.14,1.9268
1464,557.14,1.9172
1470,558.14,1.908
1476,559.14,1.8984
1482,560.14,1.8889
1488,561.14,1.8792
1494,562.14,1.8688
1500,563.14,1.8584
1506,564.14,1.8478
1512,565.14,1.8369
1518,566.14,1.8259
1524,567.14,1.8143
1530,568.14,1.8027
1536,569.14,1.7902
1542,570.14,1.7773
1548,571.14,1.764
1554,572.14,1.7508
1560,573.14,1.7377
1566,574.14,1.7247
1572,575.14,1.7102
1578,576.14,1.6961
1584,577.14,1.6811
1590,578.14,1.6656
1596,579.14,1.65
1602,580.14,1.6339
1608,581.14,1.6177
1614,582.14,1.6002
1620,583.14,1.5827
1626,584.14,1.5653
1632,585.14,1.547
1638,586.14,1.5284
1644,587.14,1.5089
1650,588.14,1.4889
1656,589.14,1.468
1662,590.14,1.4456
1668,591.14,1.4225
1674,592.14,1.3984
1680,593.14,1.3733
1686,594.14,1.3347
1692,595.14,1.313
1698,596.14,1.2717
1704,597.14,1.2386
1710,598.14,1.203
1716,599.14,1.165
1722,600.14,1.1249
1728,601.14,1.0829
1734,602.14,1.0398
1740,603.14,0.9945
1746,604.14,0.952
1752,605.14,0.9121
1758,606.14,0.876
1764,607.14,0.8513
1770,608.14,0.8284
1776,609.14,0.8053
1782,610.14,0.7862
1788,611.14,0.7707
1794,612.14,0.7577
1800,613.14,0.7471
1806,614.14,0.7374
1812,615.14,0.729
1818,616.14,0.7219
1824,617.14,0.7147
1830,618.14,0.7084
1836,619.14,0.7023
1842,620.14,0.6965
1848,621.14,0.6912
1854,622.14,0.6858
1860,623.14,0.6808
1866,624.14,0.6764
1872,625.14,0.6722
1878,626.14,0.6681
1884,627.14,0.6635
1890,628.14,0.659
1896,629.14,0.6548
1902,630.14,0.6505
1908,631.14,0.6466
1914,632.14,0.6426
1920,633.14,0.6388
1926,634.14,0.6351
1932,635.14,0.631
1938,636.14,0.627
1944,637.14,0.6234
1950,638.14,0.6193
1956,639.14,0.6155
1962,640.14,0.6121
1968,641.14,0.608
1974,642.14,0.6046
1980,643.14,0.6012
1986,644.14,0.5971
1992,645.14,0.5932
1998,646.14,0.59
2004,647.14,0.586
2010,648.14,0.5821
2016,649.14,0.5784
2022,650.14,0.5748
2028,651.14,0.5712
2034,652.14,0.5676
2040,653.14,0.5634
2046,654.14,0.5595
2052,655.14,0.5566
2058,656.14,0.5536
2064,657.14,0.5498
2070,658.14,0.5455
2076,659.14,0.542
2082,660.14,0.5382
2088,661.14,0.5339
2094,662.14,0.5296
2100,663.14,0.5259
2106,664.14,0.522
2112,665.14,0.518
2118,666.14,0.5142
2124,667.14,0.5105
2130,668.14,0.507
2136,669.14,0.5032
2142,670.14,0.4992
2148,671.14,0.4954
2154,672.14,0.4914
2160,673.14,0.4876
2166,674.14,0.4832
2172,675.14,0.479
2178,676.14,0.475
2184,677.14,0.4705
2190,678.14,0.4665
2196,679.14,0.4622
2202,680.14,0.4582
2208,681.14,0.4535
2214,682.14,0.4491
2220,683.14,0.4448
2226,684.14,0.4402
2232,685.14,0.4359
2238,686.14,0.4315
2244,687.14,0.4273
2250,688.14,0.4224
2256,689.14,0.4177
2262,690.14,0.4125
2268,691.14,0.4076
2274,692.14,0.4027
2280,693.14,0.3975
2286,694.14,0.3928
2292,695.14,0.3878
2298,696.14,0.3827
2304,697.14,0.3775
2310,698.14,0.3721
2316,699.14,0.367
2322,700.14,0.3614
2328,701.14,0.3559
2334,702.14,0.35
2340,703.14,0.3443
2346,704.14,0.3389
2352,705.14,0.3329
2358,706.14,0.3276
2364,707.14,0.3219
2370,708.14,0.3165
2376,709.14,0.3107
2382,710.14,0.3052
2388,711.14,0.2997
2394,712.14,0.2941
2400,713.14,0.2881
2406,714.14,0.2821
2412,715.14,0.2762
2418,716.14,0.2704
2424,717.14,0.2644
2430,718.14,0.2581
2436,719.14,0.2514
2442,720.14,0.2452
2448,721.14,0.2386
2454,722.14,0.2325
2460,723.14,0.2255
2466,724.14,0.2188
2472,725.14,0.2124
2478,726.14,0.2052
2484,727.14,0.1982
2490,728.14,0.191
2496,729.14,0.1838
2502,730.14,0.1763
2508,731.14,0.1686
2514,732.14,0.1604
2520,733.14,0.1519
2526,734.14,0.144
2532,735.14,0.136
2538,736.14,0.1278
2544,737.14,0.119
2550,738.14,0.1104
2556,739.14,0.1014
2562,740.14,0.0921
2568,741.14,0.0826
2574,742.14,0.0723
2580,743.14,0.062
2586,744.14,0.0514
2592,745.14,0.0419
2598,746.14,0.0333
2604,747.14,0.0261
2610,748.14,0.0217
2616,749.14,0.019
2622,750.14,0.0167
2628,751.14,0.0151
2634,752.14,0.014
2640,753.14,0.0134
2646,754.14,0.0126
2652,755.14,0.012
2658,756.14,0.0117
2664,757.14,0.0117
2670,758.14,0.0114
2676,759.14,0.0115
2682,760.14,0.0115
2688,761.14,0.0115
2694,762.14,0.0116
2700,763.14,0.0115
2706,764.14,0.0114
2712,765.14,0.0113
2718,766.14,0.0112
2724,767.14,0.0113
2730,768.14,0.0111
2736,769.14,0.0112
2742,770.14,0.011
2748,771.14,0.0109
2754,772.14,0.0106
2760,773.14,0.0108
2766,774.14,0.0106
2772,775.14,0.0109
2778,776.14,0.011
2784,777.14,0.0109
2790,778.14,0.011
2796,779.14,0.0109
2802,780.14,0.0109
2808,781.14,0.0109
2814,782.14,0.0109
2820,783.14,0.0109
2826,784.14,0.0108
2832,785.14,0.0108
2838,786.14,0.0107
2844,787.14,0.0102
2850,788.14,0.0099
2856,789.14,0.0101
2862,790.14,0.01
2868,791.14,0.01
2874,792.14,0.0099
2880,793.14,0.0096
2886,794.14,0.0098
2892,795.14,0.0097
2898,796.14,0.0097
2904,797.14,0.0095
2910,798.14,0.0095
2916,799.14,0.0095
2922,800.14,0.0096
2928,801.14,0.0097
2934,802.14,0.0098
2940,803.14,0.0097
2946,804.14,0.0095
2952,805.14,0.0097
2958,806.14,0.0095
2964,807.14,0.009
2970,808.14,0.0092
2976,809.14,0.0089
2982,810.14,0.0089
2988,811.14,0.0089
2994,812.14,0.0088
3000,813.14,0.0085
3006,814.14,0.0086
3012,815.14,0.0084
3018,816.14,0.0084
3024,817.14,0.0084
3030,818.14,0.0081
3036,819.14,0.0081
3042,820.14,0.0081
3048,821.14,0.0081
3054,822.14,0.0078
3060,823.14,0.0077
3066,824.14,0.0075
3072,825.14,0.0076
3078,826.14,0.0075
3084,827.14,0.0078
3090,828.14,0.0079
3096,829.14,0.0079
3102,830.14,0.0077
3108,831.14,0.0076
3114,832.14,0.0075
3120,833.14,0.0077
3126,834.14,0.0078
3132,835.14,0.008
3138,836.14,0.0078
3144,837.14,0.0071
3150,838.14,0.0069
3156,839.14,0.0068
3162,840.14,0.0067
3168,841.14,0.007
3174,842.14,0.0069
3180,843.14,0.0066
3186,844.14,0.0066
3192,845.14,0.0064
3198,846.14,0.0063
3204,847.14,0.0061
3210,848.14,0.0064
3216,849.14,0.0064
3222,850.14,0.0064
3228,851.14,0.0065
3234,852.14,0.0067
3240,853.14,0.0065
3246,854.14,0.0066
3252,855.14,0.0066
3258,856.14,0.0064
3264,857.14,0.0066
3270,858.14,0.0064
3276,859.14,0.0062
3282,860.14,0.0064
3288,861.14,0.0064
3294,862.14,0.0063
3300,863.14,0.0066
3306,864.14,0.0065
3312,865.14,0.0063
3318,866.14,0.0063
3324,867.14,0.0062
3330,868.14,0.0061
3336,869.14,0.0062
3342,870.14,0.0064
3348,871.14,0.0066
3354,872.14,0.0068
3360,873.14,0.0068
3366,874.14,0.0069
3372,875.14,0.0069
3378,876.14,0.0066
3384,877.14,0.0062
3390,878.14,0.0061
3396,879.14,0.006
3402,880.14,0.0059
3408,881.14,0.006
3414,882.14,0.0059
3420,883.14,0.0059
3426,884.14,0.0061
3432,885.14,0.0056
3438,886.14,0.0054
3444,887.14,0.0053
3450,888.14,0.0052
3456,889.14,0.0053
3462,890.14,0.0053
3468,891.14,0.0053
3474,892.14,0.005
3480,893.14,0.0051
3486,894.14,0.005
3492,895.14,0.0049
3498,896.14,0.0052
3504,897.14,0.0053
3510,898.14,0.0051
3516,899.14,0.0052
3522,900.14,0.0051
3528,901.14,0.0053
3534,902.14,0.0051
3540,903.14,0.0052
3546,904.14,0.0053
3552,905.14,0.0052
3558,906.14,0.0053
3564,907.14,0.0054
3570,908.14,0.0053
3576,909.14,0.0055
3582,910.14,0.0056
3588,911.14,0.0056
3594,912.14,0.0054
3600,913.14,0.0054
3606,914.14,0.0054
3612,915.14,0.0053
3618,916.14,0.0053
3624,917.14,0.0054
3630,918.14,0.0053
3636,919.14,0.0052
3642,920.14,0.005
3648,921.14,0.0049
3654,922.14,0.0046
3660,923.14,0.0043
3666,924.14,0.0041
3672,925.14,0.0043
3678,926.14,0.0044
3684,927.14,0.0044
3690,928.14,0.0041
3696,929.14,0.0039
3702,930.14,0.0037
3708,931.14,0.0035
3714,932.14,0.0036
3720,933.14,0.0034
3726,934.14,0.0033
3732,935.14,0.0033
3738,936.14,0.0032
3744,937.14,0.0033
3750,938.14,0.0032
3756,939.14,0.0033
3762,940.14,0.0035
3768,941.14,0.0038
3774,942.14,0.0039
3780,943.14,0.0039
3786,944.14,0.004
3792,945.14,0.0042
3798,946.14,0.004
3804,947.14,0.0041
3810,948.14,0.0038
3816,949.14,0.0036
3822,950.14,0.0034
3828,951.14,0.0029
3834,952.14,0.0024
3840,953.14,0.0023
3846,954.14,0.0019
3852,955.14,0.002
3858,956.14,0.002
3864,957.14,0.0023
3870,958.14,0.0023
3876,959.14,0.0024
3882,960.14,0.0021
3888,961.14,0.0024
3894,962.14,0.0023
3900,963.14,0.0021
3906,964.14,0.0018
3912,965.14,0.0016
3918,966.14,0.0015
3924,967.14,0.0016
3930,968.14,0.0016
3936,969.14,0.0016
3942,970.14,0.0017
3948,971.14,0.0025
3954,972.14,0.0027
3960,973.14,0.0028
3966,974.14,0.0028
3972,975.14,0.0026
3978,976.14,0.0025
3984,977.14,0.0026
3990,978.14,0.0028
3996,979.14,0.0029
4002,980.14,0.003
4008,981.14,0.0029
4014,982.14,0.0027
4020,983.14,0.0025
4026,984.14,0.0025
4032,985.14,0.0024
4038,986.14,0.0021
4044,987.14,0.0022
4050,988.14,0.0023
4056,989.14,0.0023
4062,990.14,0.0023
4068,991.14,0.0023
4074,992.14,0.0024
4080,993.14,0.0025
4086,994.14,0.0024
4092,995.14,0.0025
4098,996.14,0.0031
4104,997.14,0.0033
4110,998.14,0.0034
4116,999.14,0.0033
4122,1000.14,0.0035
4128,1001.14,0.0037
4134,1002.14,0.0037
4140,1003.14,0.0037
4146,1004.14,0.0039
4152,1005.14,0.0038
4158,1006.14,0.0038
4164,1007.14,0.0036
4170,1008.14,0.0035
4176,1009.14,0.0037
4182,1010.14,0.0035
4188,1011.14,0.0034
4194,1012.14,0.003
4200,1013.14,0.0026
4206,1014.14,0.0024
4212,1015.14,0.0024
4218,1016.14,0.0025
4224,1017.14,0.0026
4230,1018.14,0.0027
4236,1019.14,0.002
4242,1020.14,0.0015
4248,1021.14,0.0011
4254,1022.14,0.0011
4260,1023.14,0.0013
4266,1024.14,0.0012
4272,1025.14,0.0013
4278,1026.14,0.001
4284,1027.14,0.0011
4290,1028.14,0.0012
4296,1029.14,0.001
4302,1030.14,0.0008
4308,1031.14,0.0009
4314,1032.14,0.0009
4320,1033.14,0.0008
4326,1034.14,0.0008
4332,1035.14,0.0008
4338,1036.14,0.0008
4344,1037.14,0.0005
4350,1038.14,0.0005
4356,1039.14,0.0008
4362,1040.14,0.0009
4368,1041.14,0.0009
4374,1042.14,0.0008
4380,1043.14,0.0007
4386,1044.14,0.0005
4392,1045.14,0.0005
4398,1046.14,0.0004
4404,1047.14,0.0007
4410,1048.14,0.0006
4416,1049.14,0.0006
4422,1050.14,0.0003
4428,1051.14,0.0001
4434,1052.14,0.0001
4440,1053.14,0.0003
4446,1054.14,0.0004
4452,1055.14,0.0001
4458,1056.14,0.0001
4464,1057.14,0
4470,1058.14,0.0001
4476,1059.14,0.0003
4482,1060.14,0.0005
4488,1061.14,0.0008
4494,1062.14,0.0009
4500,1063.14,0.0009
4506,1064.14,0.0007
4512,1065.14,0.0006
4518,1066.14,0.0009
4524,1067.14,0.001
4530,1068.14,0.0011
4536,1069.14,0.0012
4542,1070.14,0.0012
4548,1071.14,0.0011
4554,1072.14,0.0009
4557,1072.64,0.0009