File: Wood/Calibration_Data/UMET/UMET_Wood_Cone_60kW_hor_R3.csv
Time (s),Mass (g),HRR (kW/m2)
0,85.16,0.00
2,85.16,-1.16
4,85.16,-1.87
6,85.16,3.53
8,85.16,25.94
10,85.16,55.14
12,85.16,81.70
14,85.16,103.66
16,85.16,120.39
18,85.16,132.83
20,85.16,141.48
22,85.16,148.16
24,85.16,152.75
26,84.865,155.08
28,84.865,157.40
30,84.373,158.50
32,83.684,158.05
34,83.684,157.72
36,83.881,157.60
38,84.077,157.03
40,83.782,156.31
42,82.306,154.90
44,82.896,152.34
46,82.109,149.60
48,82.798,146.93
50,81.814,145.13
52,81.912,144.70
54,81.617,144.18
56,81.715,142.87
58,82.208,141.40
60,80.338,139.88
62,81.027,138.05
64,80.042,136.36
66,80.830,134.25
68,80.436,133.21
70,80.042,132.26
72,79.255,131.58
74,79.846,130.85
76,79.944,130.11
78,79.944,129.27
80,79.846,128.34
82,78.960,127.60
84,78.468,126.88
86,78.566,126.30
88,78.566,125.31
90,78.665,125.08
92,78.566,125.36
94,78.763,124.93
96,78.172,124.61
98,78.172,124.83
100,77.385,125.08
102,76.991,124.89
104,77.877,124.67
106,77.385,124.42
108,76.007,123.73
110,76.991,123.50
112,76.204,123.67
114,76.204,123.31
116,75.220,122.57
118,76.007,121.47
120,75.909,120.04
122,75.023,119.15
124,75.614,118.29
126,74.433,117.52
128,74.728,116.63
130,74.137,115.77
132,74.236,114.81
134,74.236,114.02
136,73.449,113.26
138,74.925,112.69
140,73.744,111.99
142,73.842,111.41
144,73.547,110.84
146,73.153,109.96
148,73.055,108.41
150,73.350,107.30
152,72.760,106.65
154,72.858,106.17
156,73.055,106.09
158,72.563,105.63
160,72.071,104.57
162,72.268,103.91
164,71.677,103.20
166,72.071,102.76
168,71.775,102.33
170,70.890,102.15
172,71.775,101.86
174,70.890,102.01
176,70.004,102.33
178,71.185,102.92
180,70.594,103.55
182,70.890,104.28
184,71.087,104.78
186,69.610,105.30
188,70.299,105.78
190,69.906,106.14
192,69.709,105.97
194,69.217,104.91
196,69.610,104.34
198,69.807,104.04
200,69.413,104.00
202,69.315,103.17
204,69.217,101.83
206,68.232,101.80
208,68.921,101.84
210,67.445,101.73
212,67.740,101.86
214,68.036,101.48
216,67.937,101.13
218,67.445,100.45
220,67.248,100.23
222,67.544,99.34
224,67.150,98.79
226,66.953,98.76
228,66.264,98.68
230,66.953,98.77
232,66.166,98.58
234,66.067,98.51
236,66.166,99.05
238,65.969,98.97
240,65.378,98.96
242,66.559,99.07
244,65.575,98.78
246,65.575,98.66
248,65.575,99.12
250,64.788,99.60
252,65.477,100.25
254,64.788,100.88
256,64.197,100.95
258,64.886,100.87
260,64.690,100.91
262,64.394,101.28
264,64.591,101.37
266,64.690,100.58
268,64.591,100.22
270,64.197,99.52
272,64.001,99.28
274,63.213,99.06
276,63.607,98.49
278,63.312,98.02
280,63.410,97.46
282,63.705,96.79
284,63.410,96.62
286,63.607,96.61
288,62.721,96.48
290,63.016,96.66
292,62.524,96.86
294,61.934,96.79
296,61.835,96.59
298,61.934,96.38
300,61.934,96.15
302,61.934,95.51
304,61.835,95.10
306,61.737,95.10
308,60.753,95.27
310,60.654,95.61
312,60.654,95.76
314,60.261,95.71
316,60.162,95.52
318,61.048,95.20
320,60.162,95.35
322,61.048,95.81
324,59.277,95.59
326,59.966,95.36
328,59.966,95.74
330,58.981,95.73
332,59.473,95.38
334,60.162,95.19
336,59.178,94.79
338,59.178,94.60
340,59.080,94.80
342,58.588,94.66
344,58.883,94.27
346,58.292,93.58
348,59.080,93.10
350,59.080,93.09
352,57.800,92.71
354,58.588,92.59
356,59.080,92.33
358,57.899,91.45
360,57.800,90.96
362,58.096,90.47
364,57.407,90.15
366,57.210,89.88
368,57.997,89.35
370,57.308,88.97
372,57.111,89.07
374,56.915,88.93
376,56.619,88.66
378,56.915,88.69
380,57.111,88.72
382,56.127,88.18
384,56.324,87.81
386,56.816,87.95
388,55.537,88.09
390,56.127,88.10
392,55.438,88.17
394,54.553,87.80
396,55.242,87.19
398,55.242,86.98
400,55.635,86.44
402,54.651,86.04
404,55.734,86.04
406,55.045,85.94
408,54.750,85.99
410,54.750,85.97
412,54.454,85.90
414,54.651,86.31
416,54.553,86.59
418,54.651,86.56
420,54.257,86.55
422,54.454,86.38
424,54.750,85.94
426,53.962,85.75
428,53.569,85.69
430,53.372,85.81
432,53.273,85.24
434,52.978,85.13
436,52.486,85.01
438,53.076,84.63
440,52.880,84.87
442,52.978,84.91
444,52.683,85.05
446,52.683,85.11
448,52.289,84.80
450,53.076,84.44
452,51.797,83.84
454,51.994,83.40
456,51.502,83.00
458,51.699,82.58
460,52.092,82.61
462,51.797,82.97
464,51.010,82.76
466,51.895,82.29
468,51.108,82.38
470,50.714,82.23
472,51.600,82.37
474,51.010,82.29
476,51.305,82.59
478,51.699,82.52
480,49.829,82.33
482,50.518,82.08
484,50.714,81.64
486,50.714,81.39
488,49.730,81.23
490,49.730,81.16
492,49.337,81.26
494,49.730,81.18
496,49.927,81.19
498,49.632,81.40
500,49.533,81.51
502,49.730,81.35
504,49.730,80.57
506,48.549,80.12
508,48.549,79.69
510,49.238,79.01
512,49.238,78.93
514,48.549,79.03
516,48.648,79.03
518,48.451,78.14
520,48.746,77.42
522,47.860,77.05
524,48.549,76.26
526,47.762,75.71
528,47.959,75.61
530,47.860,75.55
532,47.270,75.52
534,47.762,75.54
536,47.664,75.56
538,47.270,75.70
540,47.664,75.42
542,47.073,75.27
544,46.975,74.98
546,47.073,74.69
548,46.876,74.43
550,47.073,74.33
552,46.778,73.66
554,46.483,72.84
556,46.089,72.97
558,46.089,73.06
560,46.286,72.81
562,46.089,72.10
564,45.400,71.59
566,45.400,71.51
568,46.286,71.89
570,45.892,72.37
572,45.892,72.66
574,44.613,72.28
576,45.203,72.24
578,45.597,72.20
580,45.400,71.95
582,45.105,71.16
584,44.613,71.03
586,45.105,71.52
588,45.203,71.55
590,44.416,71.30
592,44.810,71.15
594,44.317,71.18
596,44.711,71.28
598,44.022,71.45
600,44.514,71.17
602,43.530,70.54
604,44.219,70.18
606,44.022,70.40
608,43.235,70.71
610,43.825,71.03
612,43.727,71.48
614,43.333,71.57
616,43.825,71.22
618,43.235,70.89
620,42.940,70.63
622,42.546,70.33
624,42.152,69.73
626,43.136,69.54
628,42.448,69.40
630,43.136,69.21
632,42.349,69.12
634,42.152,68.66
636,41.955,68.45
638,41.759,68.23
640,42.152,68.41
642,41.365,68.67
644,42.152,68.76
646,41.759,69.28
648,41.759,69.28
650,41.660,69.55
652,41.267,69.64
654,41.365,69.45
656,41.267,69.35
658,40.971,69.06
660,41.660,68.62
662,41.070,68.18
664,41.070,68.07
666,40.676,68.30
668,41.070,68.22
670,40.086,67.77
672,41.070,67.49
674,39.692,67.15
676,40.282,66.60
678,40.578,66.40
680,39.889,66.38
682,39.593,66.23
684,40.479,65.74
686,39.692,65.13
688,40.479,65.05
690,39.200,65.05
692,38.708,64.97
694,39.200,64.61
696,39.692,64.17
698,39.692,64.16
700,39.200,64.18
702,39.298,63.76
704,38.511,62.96
706,39.200,62.74
708,38.609,62.81
710,38.019,62.48
712,38.609,62.23
714,38.609,62.32
716,38.314,62.28
718,38.708,61.92
720,38.412,61.51
722,38.511,61.25
724,38.019,61.00
726,37.822,61.22
728,37.527,61.56
730,38.019,61.36
732,37.428,60.87
734,37.527,60.67
736,36.838,60.85
738,38.019,60.66
740,36.838,60.40
742,37.231,60.00
744,37.231,59.96
746,36.936,59.99
748,37.133,59.90
750,36.543,59.68
752,35.952,59.44
754,36.936,59.06
756,37.035,59.07
758,36.543,59.09
760,36.050,58.59
762,36.543,58.51
764,35.657,58.68
766,36.543,58.86
768,35.952,58.75
770,36.543,58.53
772,35.165,58.24
774,36.050,57.95
776,36.247,57.55
778,35.755,57.58
780,35.657,57.61
782,35.657,57.75
784,35.558,58.06
786,35.066,58.22
788,35.854,58.25
790,35.657,58.06
792,34.574,57.41
794,35.558,56.80
796,35.066,56.57
798,34.574,56.47
800,35.165,56.56
802,34.574,56.76
804,34.181,56.69
806,35.558,56.85
808,33.787,56.38
810,34.181,56.35
812,34.082,56.55
814,33.098,56.35
816,33.984,56.67
818,33.787,56.92
820,33.590,56.86
822,33.787,56.78
824,33.984,56.63
826,33.393,56.84
828,33.098,56.97
830,33.196,56.78
832,33.000,56.92
834,34.082,57.09
836,33.196,57.18
838,31.622,57.07
840,31.425,56.63
842,32.803,56.92
844,32.606,56.93
846,32.409,56.40
848,32.803,55.99
850,32.409,56.02
852,31.031,55.95
854,32.901,56.44
856,32.114,56.61
858,31.720,56.41
860,31.228,56.19
862,32.409,56.10
864,31.819,56.02
866,31.917,55.78
868,31.720,55.53
870,32.114,55.09
872,30.638,54.79
874,31.917,54.60
876,31.425,54.45
878,30.834,54.62
880,31.228,54.69
882,31.031,54.04
884,31.031,53.49
886,30.736,53.31
888,31.130,53.38
890,30.539,53.84
892,31.425,53.92
894,30.834,53.75
896,30.834,53.35
898,29.752,52.74
900,31.130,52.48
902,30.146,52.90
904,30.047,53.28
906,29.850,53.29
908,30.047,53.30
910,30.342,53.53
912,30.342,53.44
914,29.161,53.43
916,29.653,53.32
918,28.866,53.34
920,29.358,53.31
922,29.555,52.98
924,29.161,52.77
926,29.555,52.81
928,29.457,52.50
930,29.358,52.35
932,28.374,52.48
934,28.472,52.28
936,28.571,51.74
938,28.768,51.53
940,28.374,51.14
942,29.457,50.97
944,28.866,50.23
946,28.866,49.94
948,27.980,50.45
950,29.260,50.76
952,27.882,51.07
954,28.472,51.71
956,28.079,52.12
958,27.587,52.05
960,28.177,51.88
962,28.374,51.66
964,27.784,51.49
966,28.079,50.97
968,28.276,51.03
970,27.488,50.64
972,27.882,50.25
974,27.784,49.96
976,27.193,49.77
978,27.095,49.98
980,26.701,49.58
982,27.095,49.03
984,27.685,48.47
986,27.980,48.10
988,26.012,48.19
990,27.390,48.05
992,26.406,48.11
994,26.701,48.05
996,27.193,47.85
998,26.012,47.98
1000,26.307,48.89
1002,26.996,48.95
1004,26.603,48.51
1006,25.815,48.16
1008,25.914,47.83
1010,25.717,48.14
1012,26.110,48.34
1014,25.914,48.19
1016,26.504,47.90
1018,26.110,47.50
1020,25.520,47.27
1022,25.028,46.80
1024,25.717,46.82
1026,25.815,46.65
1028,25.618,46.07
1030,25.323,45.53
1032,25.323,45.34
1034,24.437,45.43
1036,24.339,45.50
1038,25.028,46.02
1040,25.323,46.40
1042,25.323,47.03
1044,24.831,47.59
1046,25.520,47.55
1048,24.437,47.22
1050,24.339,47.34
1052,24.241,47.38
1054,24.930,46.98
1056,24.634,46.33
1058,23.847,45.73
1060,24.733,45.65
1062,25.126,45.73
1064,24.339,45.53
1066,24.437,45.55
1068,24.536,45.55
1070,23.945,45.43
1072,22.568,45.73
1074,24.339,45.79
1076,24.044,45.68
1078,23.355,45.93
1080,23.453,46.05
1082,23.256,46.33
1084,24.437,46.40
1086,23.650,46.24
1088,23.060,45.44
1090,23.945,44.80
1092,23.552,44.48
1094,23.749,44.69
1096,23.158,44.70
1098,23.060,44.37
1100,23.158,43.98
1102,22.568,43.91
1104,22.174,43.79
1106,22.764,43.86
1108,23.158,43.73
1110,21.780,43.54
1112,22.174,43.76
1114,22.666,43.86
1116,22.568,43.56
1118,22.174,43.51
1120,21.780,43.35
1122,22.174,43.15
1124,21.879,42.73
1126,21.485,42.09
1128,21.780,41.74
1130,21.190,41.44
1132,21.288,41.42
1134,21.682,41.10
1136,21.977,40.96
1138,21.485,40.74
1140,21.485,40.51
1142,20.698,39.97
1144,21.583,39.55
1146,21.288,39.25
1148,21.583,39.05
1150,21.485,39.12
1152,22.174,39.18
1154,20.993,38.82
1156,20.501,38.43
1158,20.599,38.35
1160,20.206,38.50
1162,20.304,38.16
1164,21.485,37.33
1166,20.993,36.57
1168,20.402,36.38
1170,21.387,36.52
1172,20.009,36.68
1174,20.206,36.88
1176,19.713,37.30
1178,20.796,38.30
1180,20.304,38.50
1182,20.402,38.13
1184,20.009,37.88
1186,19.517,37.70
1188,20.304,37.36
1190,19.812,37.42
1192,20.009,37.62
1194,19.615,38.16
1196,19.812,38.47
1198,19.910,38.00
1200,19.418,37.46
1202,19.418,36.97
1204,19.910,36.36
1206,19.418,35.86
1208,19.123,35.74
1210,18.729,35.20
1212,18.631,34.78
1214,19.025,34.42
1216,18.828,34.24
1218,18.926,34.08
1220,18.336,33.60
1222,18.237,33.17
1224,18.434,32.99
1226,19.025,32.80
1228,18.434,33.18
1230,18.631,33.11
1232,19.123,33.56
1234,18.336,33.61
1236,18.237,33.19
1238,18.139,32.88
1240,18.434,32.93
1242,17.548,33.20
1244,17.942,33.16
1246,18.336,33.17
1248,18.434,32.98
1250,17.745,32.92
1252,18.040,33.46
1254,17.745,34.06
1256,17.450,34.30
1258,17.745,34.15
1260,17.450,33.75
1262,17.351,33.73
1264,17.548,33.81
1266,16.958,33.91
1268,17.351,33.54
1270,17.450,32.60
1272,16.859,32.15
1274,17.745,32.20
1276,17.253,32.33
1278,17.450,32.72
1280,17.155,32.80
1282,17.450,32.53
1284,16.663,31.81
1286,16.859,31.08
1288,16.564,30.34
1290,16.466,30.05
1292,16.761,29.94
1294,16.761,29.81
1296,16.269,29.76
1298,16.761,29.76
1300,16.170,29.81
1302,16.761,30.06
1304,15.974,30.23
1306,16.072,30.21
1308,15.580,30.03
1310,16.564,30.21
1312,16.170,30.31
1314,16.663,29.86
1316,16.269,29.51
1318,16.072,29.07
1320,16.466,28.91
1322,15.285,29.09
1324,16.564,28.94
1326,15.285,28.48
1328,16.269,27.97
1330,15.974,27.93
1332,15.974,27.98
1334,15.678,28.03
1336,14.990,28.01
1338,15.482,27.71
1340,15.186,27.91
1342,15.186,28.47
1344,15.482,28.53
1346,14.497,28.21
1348,14.990,27.77
1350,15.482,27.41
1352,15.186,27.50
1354,15.383,27.66
1356,14.497,27.56
1358,15.186,27.51
1360,15.088,27.18
1362,14.301,26.28
1364,14.596,26.00
1366,13.710,25.78
1368,13.809,25.80
1370,15.482,25.48
1372,13.907,25.29
1374,14.202,25.29
1376,13.612,25.09
1378,15.186,24.62
1380,13.907,24.45
1382,14.793,24.09
1384,14.399,23.39
1386,13.316,23.10
1388,14.399,22.73
1390,13.809,22.09
1392,13.415,22.54
1394,14.891,22.47
1396,13.710,21.99
1398,13.513,21.21
1400,14.005,20.52
1402,13.316,20.53
1404,13.612,20.59
1406,13.710,20.37
1408,13.218,20.28
1410,12.726,19.93
1412,13.218,19.69
1414,13.710,19.68
1416,13.218,19.81
1418,12.628,19.46
1420,13.415,19.09
1422,13.120,18.91
1424,13.415,18.86
1426,13.218,18.76
1428,13.021,18.78
1430,12.234,19.61
1432,13.218,20.38
1434,12.923,20.95
1436,13.218,20.69
1438,12.923,20.21
1440,12.332,19.90
1442,12.628,19.61
1444,12.431,18.98
1446,13.218,18.23
1448,12.628,17.73
1450,12.332,17.43
1452,13.021,16.96
1454,12.431,17.21
1456,12.234,17.59
1458,12.628,17.04
1460,12.529,16.75
1462,12.037,16.72
1464,12.431,16.34
1466,12.135,15.77
1468,12.431,14.82
1470,12.135,13.93
1472,12.923,13.38
1474,11.840,13.72
1476,12.234,13.83
1478,11.348,13.22
1480,12.529,12.85
1482,12.628,12.59
1484,11.643,12.29
1486,11.939,12.23
1488,11.742,12.25
1490,11.447,12.07
1492,11.742,12.19
1494,11.742,11.89
1496,12.135,11.44
1498,12.332,11.13
1500,10.954,10.80
1502,11.742,10.88
1504,11.151,11.03
1506,11.545,11.38
1508,11.348,11.52
1510,11.447,11.45
1512,11.545,11.43
1514,11.348,11.06
1516,11.643,11.03
1518,11.447,10.97
1520,11.151,10.89
1522,10.954,11.03
1524,11.348,11.06
1526,11.151,10.85
1528,11.348,10.91
1530,11.840,11.08
1532,10.954,11.45
1534,10.266,11.55
1536,10.659,11.19
1538,10.758,10.94
1540,10.856,10.57
1542,11.151,10.83
1544,10.659,10.82
1546,11.053,10.86
1548,10.069,11.03
1550,10.659,10.03
1552,10.954,9.71
1554,10.659,10.00
1556,11.151,10.25
1558,10.364,11.16
1560,10.954,11.71
1562,10.167,12.13
1564,10.462,11.73
1566,10.364,11.08
1568,10.462,10.89
1570,10.462,10.89
1572,10.167,10.11
1574,9.872,9.27
1576,9.577,9.00
1578,10.266,8.83
1580,10.266,8.45
1582,9.380,8.67
1584,9.872,8.60
1586,9.577,8.48
1588,9.478,8.24
1590,10.069,8.39
1592,10.462,8.96
1594,9.281,9.56
1596,9.577,9.82
1598,9.085,10.09
1600,9.675,10.12
1602,9.872,9.87
1604,9.085,9.26
1606,9.380,9.01
1608,8.396,8.67
1610,9.281,8.41
1612,9.577,7.98
1614,9.970,7.94
1616,8.691,8.36
1618,8.789,8.56
1620,9.478,8.80
1622,9.085,8.64
1624,9.085,8.42
1626,9.478,8.20
1628,8.592,8.08
1630,8.592,7.80
1632,9.183,7.50
1634,8.986,6.68
1636,8.888,6.31
1638,9.380,6.55
1640,8.888,6.30
1642,8.789,5.73
1644,8.199,5.62
1646,9.675,6.00
1648,8.691,6.38
1650,9.380,6.62
1652,8.297,6.35
1654,8.100,6.10
1656,8.888,5.80
1658,8.789,5.47
1660,8.396,5.68
1662,8.691,5.95
1664,8.396,6.26
1666,8.494,6.07
1668,7.805,5.60
1670,8.396,5.38
1672,8.199,5.34
1674,8.691,5.24
1676,8.691,4.89
1678,8.396,4.61
1680,8.592,4.64
1682,8.199,4.02
1684,8.199,3.81
1686,8.199,4.33
1688,7.707,4.60
1690,8.297,4.58
1692,7.608,4.59
1694,8.100,4.18
1696,7.904,3.71
1698,7.215,3.28
1700,8.199,2.81
1702,8.199,3.31
1704,8.199,3.89
1706,8.199,3.99
1708,7.215,4.09
1710,7.707,4.04
1712,7.707,3.39
1714,7.608,3.15
1716,7.904,2.89
1718,8.297,2.58
1720,7.805,2.52
1722,7.608,2.32
1724,7.707,2.14
1726,7.805,2.20
1728,7.904,2.05
1730,7.510,1.84
1732,7.116,1.89
1734,6.919,1.68
1736,6.624,1.49
1738,7.707,1.12
1740,7.608,0.75
1742,8.100,0.48
1744,7.313,0.47
1746,8.002,0.49
1748,7.411,0.70
1750,7.215,0.39
1752,7.608,0.22
1754,7.707,0.05
1756,7.805,0.10
1758,7.608,0.53
1760,6.526,0.60
1762,7.116,0.42
1764,6.919,0.15
1766,6.821,0.72
1768,7.116,2.12
1770,6.821,3.18
1772,6.624,3.41
1774,7.411,3.66
1776,7.608,4.61
1778,6.919,4.97
1780,7.608,4.44
1782,6.821,3.82
1784,6.526,3.21
1786,7.018,2.76
1788,7.116,2.88
1790,6.919,3.24
1792,6.821,3.50
1794,6.624,3.17
1796,6.526,2.95
1798,7.018,2.85
1800,6.034,2.48
1802,6.919,2.09
1804,7.018,1.94
1806,6.919,1.32
1808,7.116,1.06
1810,5.738,1.31
1812,6.526,1.23
1814,6.526,1.28
1816,5.935,1.23
1818,6.526,0.76
1820,6.132,0.17
1822,6.526,0.00
1824,6.427,0.00
1826,6.624,0.00
1828,6.723,0.00
1830,6.723,0.00
1832,6.526,0.00
1834,7.018,0.00
1836,5.640,0.00
1838,7.313,0.00
1840,6.723,0.00