File: Wood/Calibration_Data/UMET/UMET_Wood_TGA_N2_10K_R2.csv
Time (s),Temperature (K),Mass (mg)
0,313.134,3.4047
6,314.134,3.399
12,315.134,3.4009
18,316.134,3.4041
24,317.134,3.4057
30,318.134,3.4065
36,319.134,3.4064
42,320.134,3.4068
48,321.134,3.4066
54,322.134,3.406
60,323.134,3.4054
66,324.134,3.4052
72,325.134,3.4052
78,326.134,3.4058
84,327.134,3.4064
90,328.134,3.4061
96,329.134,3.406
102,330.134,3.4056
108,331.134,3.4059
114,332.134,3.4058
120,333.134,3.4061
126,334.134,3.4055
132,335.134,3.4056
138,336.134,3.4056
144,337.134,3.4053
150,338.134,3.4047
156,339.134,3.4048
162,340.134,3.4046
168,341.134,3.4043
174,342.134,3.4046
180,343.134,3.4044
186,344.134,3.404
192,345.134,3.4039
198,346.134,3.404
204,347.134,3.4037
210,348.134,3.4034
216,349.134,3.4036
222,350.134,3.4036
228,351.134,3.4038
234,352.134,3.4037
240,353.134,3.4037
246,354.134,3.4034
252,355.134,3.4026
258,356.134,3.4026
264,357.134,3.4032
270,358.134,3.4035
276,359.134,3.4034
282,360.134,3.4033
288,361.134,3.4037
294,362.134,3.4037
300,363.134,3.4032
306,364.134,3.4029
312,365.134,3.4029
318,366.134,3.4029
324,367.134,3.4033
330,368.134,3.4034
336,369.134,3.4041
342,370.134,3.404
348,371.134,3.4039
354,372.134,3.4039
360,373.134,3.404
366,374.134,3.4039
372,375.134,3.4038
378,376.134,3.4035
384,377.134,3.4034
390,378.134,3.4032
396,379.134,3.403
402,380.134,3.4026
408,381.134,3.4028
414,382.134,3.4033
420,383.134,3.4035
426,384.134,3.4035
432,385.134,3.4029
438,386.134,3.4027
444,387.134,3.4025
450,388.134,3.4022
456,389.134,3.402
462,390.134,3.402
468,391.134,3.402
474,392.134,3.402
480,393.134,3.4019
486,394.134,3.4022
492,395.134,3.4022
498,396.134,3.402
504,397.134,3.402
510,398.134,3.4022
516,399.134,3.4023
522,400.134,3.4017
528,401.134,3.4013
534,402.134,3.4011
540,403.134,3.4008
546,404.134,3.4006
552,405.134,3.4005
558,406.134,3.4004
564,407.134,3.4002
570,408.134,3.4004
576,409.134,3.3999
582,410.134,3.3997
588,411.134,3.3998
594,412.134,3.3996
600,413.134,3.3992
606,414.134,3.3983
612,415.134,3.398
618,416.134,3.3981
624,417.134,3.397
630,418.134,3.3967
636,419.134,3.3969
642,420.134,3.3967
648,421.134,3.3964
654,422.134,3.3959
660,423.134,3.3953
666,424.134,3.3951
672,425.134,3.3952
678,426.134,3.3948
684,427.134,3.3939
690,428.134,3.3933
696,429.134,3.3929
702,430.134,3.3927
708,431.134,3.3916
714,432.134,3.3904
720,433.134,3.3906
726,434.134,3.3902
732,435.134,3.3891
738,436.134,3.3878
744,437.134,3.3871
750,438.134,3.3861
756,439.134,3.3855
762,440.134,3.3852
768,441.134,3.3842
774,442.134,3.3826
780,443.134,3.3807
786,444.134,3.3796
792,445.134,3.3782
798,446.134,3.3769
804,447.134,3.3748
810,448.134,3.3727
816,449.134,3.3716
822,450.134,3.3704
828,451.134,3.3692
834,452.134,3.3673
840,453.134,3.3658
846,454.134,3.3643
852,455.134,3.3626
858,456.134,3.3606
864,457.134,3.3584
870,458.134,3.3565
876,459.134,3.3549
882,460.134,3.3532
888,461.134,3.351
894,462.134,3.3493
900,463.134,3.3479
906,464.134,3.3462
912,465.134,3.3442
918,466.134,3.3419
924,467.134,3.3401
930,468.134,3.3381
936,469.134,3.3362
942,470.134,3.3341
948,471.134,3.332
954,472.134,3.3301
960,473.134,3.3285
966,474.134,3.3266
972,475.134,3.3244
978,476.134,3.3218
984,477.134,3.32
990,478.134,3.3187
996,479.134,3.3173
1002,480.134,3.3148
1008,481.134,3.3127
1014,482.134,3.3106
1020,483.134,3.3083
1026,484.134,3.306
1032,485.134,3.3037
1038,486.134,3.3007
1044,487.134,3.2979
1050,488.134,3.2956
1056,489.134,3.2936
1062,490.134,3.2914
1068,491.134,3.2891
1074,492.134,3.2868
1080,493.134,3.284
1086,494.134,3.2798
1092,495.134,3.2754
1098,496.134,3.2726
1104,497.134,3.2702
1110,498.134,3.2676
1116,499.134,3.2648
1122,500.134,3.2621
1128,501.134,3.2596
1134,502.134,3.2567
1140,503.134,3.2532
1146,504.134,3.2481
1152,505.134,3.2429
1158,506.134,3.2384
1164,507.134,3.2336
1170,508.134,3.2298
1176,509.134,3.2272
1182,510.134,3.2243
1188,511.134,3.2202
1194,512.134,3.2147
1200,513.134,3.2097
1206,514.134,3.2048
1212,515.134,3.1996
1218,516.134,3.194
1224,517.134,3.1884
1230,518.134,3.1826
1236,519.134,3.1772
1242,520.134,3.1716
1248,521.134,3.1664
1254,522.134,3.1605
1260,523.134,3.1541
1266,524.134,3.1477
1272,525.134,3.1417
1278,526.134,3.1344
1284,527.134,3.1267
1290,528.134,3.1201
1296,529.134,3.1141
1302,530.134,3.1071
1308,531.134,3.1002
1314,532.134,3.0932
1320,533.134,3.0855
1326,534.134,3.0783
1332,535.134,3.0707
1338,536.134,3.063
1344,537.134,3.0553
1350,538.134,3.0474
1356,539.134,3.0399
1362,540.134,3.0326
1368,541.134,3.0253
1374,542.134,3.0172
1380,543.134,3.0081
1386,544.134,2.9989
1392,545.134,2.9908
1398,546.134,2.9823
1404,547.134,2.9737
1410,548.134,2.9651
1416,549.134,2.9567
1422,550.134,2.9471
1428,551.134,2.9377
1434,552.134,2.9283
1440,553.134,2.9185
1446,554.134,2.9101
1452,555.134,2.9001
1458,556.134,2.889
1464,557.134,2.8782
1470,558.134,2.8678
1476,559.134,2.8571
1482,560.134,2.847
1488,561.134,2.8367
1494,562.134,2.8257
1500,563.134,2.8143
1506,564.134,2.8033
1512,565.134,2.791
1518,566.134,2.7791
1524,567.134,2.7669
1530,568.134,2.754
1536,569.134,2.7422
1542,570.134,2.7306
1548,571.134,2.717
1554,572.134,2.703
1560,573.134,2.6915
1566,574.134,2.6778
1572,575.134,2.6647
1578,576.134,2.6506
1584,577.134,2.636
1590,578.134,2.6209
1596,579.134,2.6056
1602,580.134,2.5913
1608,581.134,2.5768
1614,582.134,2.5603
1620,583.134,2.5432
1626,584.134,2.5273
1632,585.134,2.5108
1638,586.134,2.4942
1644,587.134,2.4769
1650,588.134,2.459
1656,589.134,2.4402
1662,590.134,2.4226
1668,591.134,2.4053
1674,592.134,2.3863
1680,593.134,2.3667
1686,594.134,2.3478
1692,595.134,2.3283
1698,596.134,2.3073
1704,597.134,2.2865
1710,598.134,2.2646
1716,599.134,2.2444
1722,600.134,2.2237
1728,601.134,2.202
1734,602.134,2.1809
1740,603.134,2.1589
1746,604.134,2.1373
1752,605.134,2.1153
1758,606.134,2.0931
1764,607.134,2.0707
1770,608.134,2.048
1776,609.134,2.0244
1782,610.134,2.0004
1788,611.134,1.9775
1794,612.134,1.9537
1800,613.134,1.9291
1806,614.134,1.9035
1812,615.134,1.8787
1818,616.134,1.8546
1824,617.134,1.8294
1830,618.134,1.8008
1836,619.134,1.7698
1842,620.134,1.7484
1848,621.134,1.7154
1854,622.134,1.6934
1860,623.134,1.6615
1866,624.134,1.6384
1872,625.134,1.604
1878,626.134,1.5796
1884,627.134,1.5463
1890,628.134,1.5186
1896,629.134,1.4873
1902,630.134,1.4542
1908,631.134,1.4222
1914,632.134,1.3866
1920,633.134,1.3616
1926,634.134,1.3253
1932,635.134,1.2846
1938,636.134,1.2552
1944,637.134,1.2172
1950,638.134,1.1815
1956,639.134,1.1461
1962,640.134,1.1185
1968,641.134,1.0778
1974,642.134,1.0533
1980,643.134,1.0148
1986,644.134,0.9792
1992,645.134,0.9569
1998,646.134,0.9256
2004,647.134,0.9031
2010,648.134,0.8702
2016,649.134,0.8503
2022,650.134,0.8287
2028,651.134,0.8089
2034,652.134,0.7898
2040,653.134,0.7731
2046,654.134,0.7594
2052,655.134,0.7486
2058,656.134,0.7403
2064,657.134,0.7326
2070,658.134,0.7261
2076,659.134,0.7218
2082,660.134,0.7178
2088,661.134,0.7144
2094,662.134,0.7121
2100,663.134,0.7104
2106,664.134,0.7077
2112,665.134,0.7051
2118,666.134,0.7023
2124,667.134,0.6997
2130,668.134,0.6975
2136,669.134,0.6945
2142,670.134,0.6911
2148,671.134,0.6895
2154,672.134,0.6887
2160,673.134,0.6875
2166,674.134,0.6855
2172,675.134,0.6838
2178,676.134,0.6813
2184,677.134,0.6791
2190,678.134,0.6771
2196,679.134,0.6751
2202,680.134,0.6739
2208,681.134,0.6717
2214,682.134,0.6693
2220,683.134,0.6673
2226,684.134,0.665
2232,685.134,0.6627
2238,686.134,0.6612
2244,687.134,0.6595
2250,688.134,0.6574
2256,689.134,0.6554
2262,690.134,0.6537
2268,691.134,0.6521
2274,692.134,0.6498
2280,693.134,0.6476
2286,694.134,0.6462
2292,695.134,0.6451
2298,696.134,0.6435
2304,697.134,0.6416
2310,698.134,0.6396
2316,699.134,0.6375
2322,700.134,0.6352
2328,701.134,0.633
2334,702.134,0.631
2340,703.134,0.6291
2346,704.134,0.628
2352,705.134,0.6258
2358,706.134,0.6237
2364,707.134,0.6217
2370,708.134,0.62
2376,709.134,0.6187
2382,710.134,0.6177
2388,711.134,0.6162
2394,712.134,0.6142
2400,713.134,0.6117
2406,714.134,0.6094
2412,715.134,0.6079
2418,716.134,0.6073
2424,717.134,0.6059
2430,718.134,0.6038
2436,719.134,0.6016
2442,720.134,0.5991
2448,721.134,0.5965
2454,722.134,0.5951
2460,723.134,0.5946
2466,724.134,0.5936
2472,725.134,0.5928
2478,726.134,0.5916
2484,727.134,0.5888
2490,728.134,0.5868
2496,729.134,0.5861
2502,730.134,0.5844
2508,731.134,0.5818
2514,732.134,0.5807
2520,733.134,0.5796
2526,734.134,0.5778
2532,735.134,0.5764
2538,736.134,0.5746
2544,737.134,0.5732
2550,738.134,0.5708
2556,739.134,0.5677
2562,740.134,0.5657
2568,741.134,0.5652
2574,742.134,0.5641
2580,743.134,0.562
2586,744.134,0.5598
2592,745.134,0.5581
2598,746.134,0.5565
2604,747.134,0.5547
2610,748.134,0.5534
2616,749.134,0.5526
2622,750.134,0.5512
2628,751.134,0.549
2634,752.134,0.5467
2640,753.134,0.5444
2646,754.134,0.5431
2652,755.134,0.5412
2658,756.134,0.5385
2664,757.134,0.5368
2670,758.134,0.5352
2676,759.134,0.5334
2682,760.134,0.5325
2688,761.134,0.5315
2694,762.134,0.5301
2700,763.134,0.5286
2706,764.134,0.5269
2712,765.134,0.5254
2718,766.134,0.5243
2724,767.134,0.5217
2730,768.134,0.5191
2736,769.134,0.5176
2742,770.134,0.5158
2748,771.134,0.5139
2754,772.134,0.5123
2760,773.134,0.5109
2766,774.134,0.5094
2772,775.134,0.5076
2778,776.134,0.5044
2784,777.134,0.5029
2790,778.134,0.5023
2796,779.134,0.5012
2802,780.134,0.4997
2808,781.134,0.4966
2814,782.134,0.4943
2820,783.134,0.4932
2826,784.134,0.4925
2832,785.134,0.4913
2838,786.134,0.4892
2844,787.134,0.4875
2850,788.134,0.4857
2856,789.134,0.4837
2862,790.134,0.4821
2868,791.134,0.4808
2874,792.134,0.479
2880,793.134,0.4777
2886,794.134,0.4762
2892,795.134,0.4738
2898,796.134,0.4702
2904,797.134,0.4674
2910,798.134,0.4676
2916,799.134,0.4678
2922,800.134,0.4664
2928,801.134,0.4653
2934,802.134,0.4638
2940,803.134,0.4613
2946,804.134,0.4588
2952,805.134,0.4566
2958,806.134,0.4542
2964,807.134,0.4533
2970,808.134,0.4518
2976,809.134,0.45
2982,810.134,0.4477
2988,811.134,0.4462
2994,812.134,0.4446
3000,813.134,0.4431
3006,814.134,0.4416
3012,815.134,0.4405
3018,816.134,0.4388
3024,817.134,0.4365
3030,818.134,0.4349
3036,819.134,0.4331
3042,820.134,0.4304
3048,821.134,0.428
3054,822.134,0.4264
3060,823.134,0.4247
3066,824.134,0.4233
3072,825.134,0.4221
3078,826.134,0.4213
3084,827.134,0.4193
3090,828.134,0.4173
3096,829.134,0.4149
3102,830.134,0.4129
3108,831.134,0.4112
3114,832.134,0.4097
3120,833.134,0.4082
3126,834.134,0.4067
3132,835.134,0.406
3138,836.134,0.4047
3144,837.134,0.4029
3150,838.134,0.4002
3156,839.134,0.3967
3162,840.134,0.396
3168,841.134,0.3939
3174,842.134,0.3917
3180,843.134,0.3905
3186,844.134,0.3896
3192,845.134,0.3876
3198,846.134,0.3863
3204,847.134,0.3851
3210,848.134,0.3825
3216,849.134,0.38
3222,850.134,0.3785
3228,851.134,0.3766
3234,852.134,0.3759
3240,853.134,0.375
3246,854.134,0.3734
3252,855.134,0.3711
3258,856.134,0.3699
3264,857.134,0.3677
3270,858.134,0.3655
3276,859.134,0.364
3282,860.134,0.3628
3288,861.134,0.3613
3294,862.134,0.3595
3300,863.134,0.357
3306,864.134,0.3553
3312,865.134,0.3542
3318,866.134,0.3523
3324,867.134,0.3496
3330,868.134,0.3473
3336,869.134,0.3464
3342,870.134,0.3461
3348,871.134,0.3453
3354,872.134,0.3428
3360,873.134,0.3408
3366,874.134,0.3393
3372,875.134,0.3375
3378,876.134,0.3361
3384,877.134,0.3349
3390,878.134,0.3327
3396,879.134,0.3314
3402,880.134,0.3288
3408,881.134,0.3268
3414,882.134,0.3248
3420,883.134,0.3238
3426,884.134,0.3239
3432,885.134,0.3214
3438,886.134,0.3179
3444,887.134,0.3166
3450,888.134,0.316
3456,889.134,0.3134
3462,890.134,0.3112
3468,891.134,0.31
3474,892.134,0.3095
3480,893.134,0.3089
3486,894.134,0.307
3492,895.134,0.305
3498,896.134,0.3034
3504,897.134,0.3017
3510,898.134,0.2982
3516,899.134,0.296
3522,900.134,0.2951
3528,901.134,0.2943
3534,902.134,0.292
3540,903.134,0.2906
3546,904.134,0.2902
3552,905.134,0.2895
3558,906.134,0.2882
3564,907.134,0.2866
3570,908.134,0.2839
3576,909.134,0.2817
3582,910.134,0.2805
3588,911.134,0.2787
3594,912.134,0.2776
3600,913.134,0.2763
3606,914.134,0.2751
3612,915.134,0.2731
3618,916.134,0.2716
3624,917.134,0.2699
3630,918.134,0.2688
3636,919.134,0.2673
3642,920.134,0.2653
3648,921.134,0.2622
3654,922.134,0.2614
3660,923.134,0.2611
3666,924.134,0.2598
3672,925.134,0.256
3678,926.134,0.2539
3684,927.134,0.2545
3690,928.134,0.2521
3696,929.134,0.2503
3702,930.134,0.249
3708,931.134,0.2487
3714,932.134,0.2467
3720,933.134,0.2447
3726,934.134,0.2448
3732,935.134,0.2445
3738,936.134,0.2432
3744,937.134,0.2411
3750,938.134,0.2402
3756,939.134,0.2382
3762,940.134,0.2361
3768,941.134,0.2346
3774,942.134,0.2326
3780,943.134,0.232
3786,944.134,0.2309
3792,945.134,0.2294
3798,946.134,0.2282
3804,947.134,0.227
3810,948.134,0.2253
3816,949.134,0.2244
3822,950.134,0.2205
3828,951.134,0.2195
3834,952.134,0.2186
3840,953.134,0.2172
3846,954.134,0.2157
3852,955.134,0.2147
3858,956.134,0.2136
3864,957.134,0.2125
3870,958.134,0.2107
3876,959.134,0.2096
3882,960.134,0.2088
3888,961.134,0.2065
3894,962.134,0.2056
3900,963.134,0.205
3906,964.134,0.2029
3912,965.134,0.199
3918,966.134,0.1983
3924,967.134,0.1979
3930,968.134,0.1956
3936,969.134,0.1935
3942,970.134,0.1954
3948,971.134,0.1935
3954,972.134,0.1921
3960,973.134,0.1905
3966,974.134,0.1887
3972,975.134,0.1886
3978,976.134,0.1886
3984,977.134,0.1864
3990,978.134,0.1847
3996,979.134,0.1834
4002,980.134,0.1814
4008,981.134,0.1795
4014,982.134,0.1791
4020,983.134,0.1768
4026,984.134,0.1758
4032,985.134,0.1748
4038,986.134,0.1745
4044,987.134,0.1734
4050,988.134,0.171
4056,989.134,0.1695
4062,990.134,0.17
4068,991.134,0.1685
4074,992.134,0.1632
4080,993.134,0.1632
4086,994.134,0.1623
4092,995.134,0.1615
4098,996.134,0.1616
4104,997.134,0.1612
4110,998.134,0.1601
4116,999.134,0.1571
4122,1000.134,0.1552
4128,1001.134,0.1553
4134,1002.134,0.1546
4140,1003.134,0.1531
4146,1004.134,0.1519
4152,1005.134,0.1507
4158,1006.134,0.149
4164,1007.134,0.1456
4170,1008.134,0.1444
4176,1009.134,0.1429
4182,1010.134,0.1421
4188,1011.134,0.1422
4194,1012.134,0.142
4200,1013.134,0.1405
4206,1014.134,0.139
4212,1015.134,0.1378
4218,1016.134,0.1367
4224,1017.134,0.1357
4230,1018.134,0.1349
4236,1019.134,0.1336
4242,1020.134,0.1334
4248,1021.134,0.133
4254,1022.134,0.1306
4260,1023.134,0.1299
4266,1024.134,0.1295
4272,1025.134,0.1279
4278,1026.134,0.1267
4284,1027.134,0.1257
4290,1028.134,0.1248
4296,1029.134,0.123
4302,1030.134,0.1221
4308,1031.134,0.1213
4314,1032.134,0.1205
4320,1033.134,0.1206
4326,1034.134,0.1191
4332,1035.134,0.1148
4338,1036.134,0.1141
4344,1037.134,0.1131
4350,1038.134,0.1121
4356,1039.134,0.1117
4362,1040.134,0.1111
4368,1041.134,0.1104
4374,1042.134,0.1095
4380,1043.134,0.1085
4386,1044.134,0.108
4392,1045.134,0.1076
4398,1046.134,0.107
4404,1047.134,0.1061
4410,1048.134,0.1041
4416,1049.134,0.1021
4422,1050.134,0.1008
4428,1051.134,0.1005
4434,1052.134,0.1007
4440,1053.134,0.1011
4446,1054.134,0.0998
4452,1055.134,0.0954
4458,1056.134,0.0945
4464,1057.134,0.0932
4470,1058.134,0.0933
4476,1059.134,0.0936
4482,1060.134,0.0927
4488,1061.134,0.0912
4494,1062.134,0.09
4500,1063.134,0.0888
4506,1064.134,0.0867
4512,1065.134,0.0856
4518,1066.134,0.0846
4524,1067.134,0.0835
4530,1068.134,0.0826
4536,1069.134,0.0829
4542,1070.134,0.0827
4548,1071.134,0.0808
4554,1072.134,0.0799
4557,1072.634,0.0799