File: Wood/Calibration_Data/UMET/UMET_Cone_60KW_hor_R2.csv
Time (s),Mass (g),HRR (kW/m2)
0,96.64,0
2,96.64,0
4,96.64,5.49
6,96.64,24.60
8,96.64,46.58
10,96.64,66.20
12,96.64,81.84
14,96.64,97.99
16,96.64,114.45
18,96.64,129.88
20,96.64,142.95
22,96.64,153.21
24,95.405,160.83
26,95.500,166.19
28,95.880,169.75
30,96.165,171.85
32,95.405,172.81
34,94.361,173.03
36,94.931,172.85
38,94.931,172.28
40,94.171,171.34
42,94.361,170.07
44,94.361,168.51
46,94.551,166.72
48,93.601,164.85
50,93.696,162.96
52,92.936,161.11
54,93.981,159.26
56,92.841,157.46
58,91.322,155.66
60,93.126,153.97
62,91.797,152.41
64,91.322,150.99
66,91.987,149.65
68,90.657,148.46
70,90.847,147.34
72,90.277,146.24
74,90.182,145.26
76,90.942,144.33
78,89.707,143.30
80,90.277,142.25
82,90.562,141.10
84,89.138,139.92
86,88.853,138.85
88,89.138,137.93
90,89.612,137.01
92,89.043,136.20
94,88.283,135.49
96,87.998,134.76
98,87.998,134.15
100,87.998,133.67
102,87.618,133.37
104,88.473,133.26
106,87.618,133.17
108,86.478,133.03
110,87.618,132.92
112,86.953,132.81
114,86.668,132.73
116,86.953,132.73
118,87.143,132.76
120,86.004,132.89
122,85.434,133.01
124,86.194,133.15
126,85.624,133.34
128,84.769,133.57
130,84.959,133.81
132,84.769,134.00
134,85.624,134.17
136,84.484,134.19
138,84.864,134.13
140,84.199,133.94
142,85.529,133.64
144,84.864,133.37
146,84.104,133.08
148,83.629,132.73
150,83.819,132.30
152,83.629,131.85
154,82.870,131.53
156,82.680,131.27
158,83.155,131.25
160,83.155,131.33
162,82.870,131.43
164,82.015,131.48
166,81.825,131.41
168,81.540,131.29
170,81.350,131.18
172,82.300,131.06
174,82.110,130.86
176,80.780,130.60
178,80.970,130.20
180,80.780,129.59
182,81.445,128.91
184,81.445,128.26
186,80.211,127.67
188,80.116,127.19
190,80.495,126.81
192,79.831,126.49
194,79.641,126.15
196,79.071,125.78
198,79.546,125.38
200,78.881,125.03
202,79.356,124.76
204,79.261,124.48
206,79.451,124.22
208,78.976,124.05
210,78.311,123.81
212,78.311,123.55
214,78.881,123.33
216,77.551,123.18
218,77.741,123.05
220,77.361,123.00
222,77.267,122.89
224,77.267,122.77
226,77.077,122.70
228,77.172,122.52
230,77.741,122.26
232,76.887,122.04
234,77.267,121.85
236,77.267,121.65
238,76.507,121.46
240,76.127,121.30
242,75.272,121.15
244,75.082,121.04
246,75.842,120.93
248,75.652,120.88
250,74.512,120.86
252,76.222,120.82
254,74.607,120.76
256,74.987,120.76
258,74.892,120.81
260,74.702,120.79
262,74.323,120.71
264,73.468,120.62
266,74.702,120.59
268,73.468,120.50
270,74.892,120.38
272,73.468,120.19
274,72.613,120.00
276,73.468,119.81
278,72.803,119.60
280,72.993,119.38
282,73.468,119.17
284,72.613,118.94
286,71.568,118.68
288,72.328,118.41
290,72.138,118.14
292,72.043,117.90
294,71.853,117.72
296,71.948,117.49
298,71.948,117.15
300,71.758,116.73
302,70.904,116.21
304,71.284,115.62
306,71.568,115.00
308,71.379,114.39
310,70.239,113.83
312,71.094,113.29
314,70.524,112.80
316,70.904,112.34
318,70.239,112.03
320,69.669,111.82
322,70.144,111.70
324,69.669,111.67
326,69.194,111.63
328,69.669,111.60
330,68.245,111.51
332,69.669,111.36
334,68.814,111.16
336,68.245,110.91
338,68.624,110.59
340,69.289,110.16
342,68.245,109.64
344,68.624,109.13
346,68.434,108.62
348,68.055,108.18
350,67.865,107.73
352,67.960,107.31
354,67.105,106.87
356,67.960,106.43
358,67.105,105.97
360,67.010,105.46
362,67.675,105.06
364,67.200,104.80
366,66.345,104.62
368,67.675,104.43
370,66.915,104.17
372,67.200,103.92
374,66.725,103.63
376,66.440,103.27
378,66.155,102.97
380,65.490,102.70
382,65.775,102.46
384,65.585,102.19
386,65.396,101.90
388,66.060,101.61
390,65.301,101.41
392,65.111,101.22
394,65.016,101.04
396,64.731,100.81
398,64.921,100.65
400,64.826,100.50
402,65.206,100.38
404,63.686,100.28
406,63.496,100.23
408,64.066,100.14
410,63.876,100.14
412,63.781,100.16
414,63.686,100.17
416,63.116,100.22
418,62.926,100.30
420,63.781,100.39
422,63.496,100.40
424,62.926,100.36
426,63.781,100.31
428,62.452,100.24
430,62.736,100.06
432,62.546,99.78
434,62.262,99.46
436,62.262,99.13
438,61.977,98.83
440,62.546,98.52
442,61.882,98.15
444,61.597,97.93
446,61.407,97.62
448,61.027,97.20
450,61.217,96.78
452,61.217,96.40
454,61.027,96.12
456,61.312,95.92
458,61.217,95.71
460,60.172,95.56
462,60.077,95.42
464,59.602,95.21
466,60.362,94.94
468,59.792,94.77
470,60.362,94.66
472,59.413,94.58
474,59.982,94.49
476,60.457,94.32
478,59.602,94.17
480,59.602,93.98
482,58.368,93.78
484,58.463,93.62
486,59.223,93.55
488,58.558,93.50
490,58.368,93.42
492,58.368,93.29
494,58.843,93.09
496,58.558,92.90
498,58.653,92.69
500,58.463,92.50
502,58.368,92.37
504,57.988,92.20
506,58.368,92.05
508,57.228,91.86
510,57.228,91.67
512,56.753,91.46
514,57.893,91.34
516,58.273,91.21
518,57.418,91.09
520,56.469,90.90
522,56.658,90.70
524,57.988,90.47
526,57.038,90.15
528,57.323,89.84
530,56.658,89.53
532,55.994,89.22
534,56.658,88.90
536,56.563,88.66
538,55.139,88.49
540,55.899,88.44
542,55.899,88.35
544,55.329,88.28
546,55.994,88.29
548,55.044,88.29
550,54.854,88.32
552,55.424,88.35
554,55.899,88.42
556,54.854,88.53
558,54.474,88.64
560,53.904,88.70
562,53.904,88.77
564,55.044,88.94
566,53.525,89.05
568,54.189,89.15
570,53.714,89.35
572,53.525,89.55
574,53.619,89.66
576,53.430,89.61
578,53.430,89.43
580,53.904,89.19
582,53.430,88.97
584,53.525,88.83
586,52.955,88.76
588,53.050,88.75
590,52.955,88.75
592,52.955,88.70
594,52.480,88.76
596,52.385,88.87
598,52.860,89.02
600,51.815,89.16
602,51.910,89.24
604,51.815,89.22
606,51.245,89.08
608,51.815,88.84
610,51.625,88.65
612,51.435,88.43
614,51.815,88.12
616,51.910,87.82
618,50.770,87.45
620,50.675,87.02
622,50.960,86.65
624,49.916,86.29
626,50.581,85.90
628,51.435,85.64
630,49.441,85.39
632,51.055,85.13
634,50.675,84.94
636,50.106,84.78
638,50.581,84.66
640,50.486,84.56
642,49.821,84.49
644,50.011,84.46
646,49.251,84.48
648,48.966,84.55
650,49.536,84.51
652,48.966,84.62
654,49.061,84.68
656,49.441,84.74
658,49.156,84.82
660,48.871,84.98
662,49.156,85.32
664,48.586,85.65
666,48.586,85.94
668,47.826,86.10
670,47.542,86.19
672,48.206,86.17
674,48.111,86.02
676,47.162,85.82
678,48.491,85.51
680,47.542,85.14
682,47.257,84.72
684,47.352,84.31
686,47.257,83.90
688,47.352,83.51
690,47.352,83.20
692,47.542,82.95
694,46.402,82.69
696,47.447,82.46
698,46.972,82.27
700,46.782,82.17
702,46.592,82.07
704,46.212,81.91
706,46.022,81.69
708,46.402,81.54
710,45.452,81.50
712,45.927,81.45
714,46.022,81.42
716,45.832,81.40
718,46.212,81.32
720,46.117,81.15
722,45.167,80.91
724,45.357,80.69
726,45.642,80.49
728,44.882,80.37
730,45.927,80.18
732,45.737,79.97
734,43.838,79.71
736,44.408,79.52
738,45.167,79.45
740,43.933,79.46
742,44.313,79.57
744,44.313,79.64
746,44.408,79.64
748,43.648,79.59
750,44.503,79.56
752,44.218,79.41
754,44.028,79.23
756,43.458,79.02
758,43.363,78.84
760,43.743,78.67
762,43.458,78.52
764,43.268,78.35
766,43.838,78.26
768,42.603,78.24
770,43.173,78.16
772,43.268,78.11
774,42.413,78.12
776,43.268,78.14
778,42.413,78.08
780,41.559,77.91
782,41.938,77.71
784,42.413,77.58
786,41.938,77.39
788,41.843,77.20
790,42.033,77.06
792,42.033,77.00
794,41.369,76.83
796,41.654,76.67
798,41.748,76.60
800,42.413,76.58
802,40.989,76.48
804,41.748,76.34
806,41.179,76.28
808,40.134,76.22
810,40.324,76.17
812,40.229,76.07
814,40.514,76.05
816,40.989,75.96
818,40.324,75.76
820,40.894,75.58
822,40.514,75.45
824,39.944,75.38
826,39.944,75.29
828,40.609,75.22
830,39.944,75.03
832,39.849,74.73
834,39.374,74.35
836,38.520,73.94
838,38.899,73.54
840,39.374,73.21
842,38.899,72.81
844,38.899,72.34
846,39.564,71.93
848,39.564,71.46
850,39.184,70.98
852,38.140,70.52
854,38.994,70.14
856,38.330,69.87
858,37.950,69.80
860,37.760,69.70
862,37.950,69.55
864,38.899,69.52
866,37.570,69.56
868,37.855,69.57
870,38.235,69.64
872,37.855,69.74
874,37.855,69.95
876,37.760,70.14
878,37.095,70.23
880,38.330,70.29
882,36.905,70.30
884,36.715,70.13
886,36.145,69.91
888,36.335,69.62
890,37.190,69.29
892,36.145,69.09
894,36.905,68.83
896,36.715,68.49
898,36.525,68.12
900,35.671,67.71
902,36.335,67.44
904,37.285,67.36
906,35.766,67.33
908,35.860,67.35
910,36.145,67.36
912,35.386,67.34
914,35.671,67.20
916,36.335,67.07
918,36.715,66.95
920,35.196,66.94
922,35.386,66.95
924,35.101,66.85
926,34.911,66.67
928,35.196,66.41
930,35.386,66.18
932,34.911,65.91
934,35.671,65.62
936,34.531,65.38
938,35.006,65.10
940,34.626,64.81
942,34.246,64.49
944,35.101,64.23
946,34.056,64.05
948,34.056,64.08
950,34.911,64.23
952,33.771,64.37
954,34.341,64.67
956,34.056,64.94
958,33.201,65.14
960,33.011,65.30
962,33.581,65.44
964,33.771,65.60
966,33.771,65.71
968,33.771,65.69
970,32.916,65.53
972,33.771,65.33
974,33.486,65.14
976,32.537,65.04
978,33.676,64.94
980,32.916,64.84
982,32.821,64.74
984,32.916,64.52
986,32.347,64.19
988,32.347,63.92
990,32.442,63.75
992,31.397,63.65
994,32.727,63.51
996,31.967,63.21
998,32.347,62.90
1000,32.252,62.70
1002,32.537,62.49
1004,31.872,62.34
1006,32.252,62.21
1008,31.587,62.12
1010,31.492,62.03
1012,31.777,61.87
1014,31.682,61.71
1016,31.587,61.57
1018,31.872,61.49
1020,30.827,61.47
1022,31.112,61.47
1024,31.587,61.47
1026,30.637,61.49
1028,30.922,61.55
1030,31.207,61.64
1032,31.112,61.61
1034,30.257,61.52
1036,31.112,61.50
1038,30.732,61.50
1040,31.017,61.49
1042,30.447,61.36
1044,29.403,61.22
1046,29.783,61.14
1048,30.162,61.10
1050,30.067,61.03
1052,29.593,60.86
1054,29.593,60.74
1056,29.593,60.57
1058,29.972,60.35
1060,29.308,60.01
1062,29.118,59.59
1064,29.972,59.30
1066,29.403,59.00
1068,29.403,58.75
1070,29.403,58.59
1072,29.023,58.47
1074,29.118,58.41
1076,29.403,58.32
1078,28.263,58.21
1080,28.738,58.20
1082,28.643,58.31
1084,28.833,58.44
1086,27.883,58.54
1088,27.883,58.66
1090,28.738,58.63
1092,28.643,58.55
1094,27.503,58.49
1096,28.073,58.43
1098,27.503,58.38
1100,27.503,58.29
1102,27.503,58.18
1104,27.788,58.06
1106,27.408,57.94
1108,27.313,57.81
1110,27.883,57.65
1112,27.503,57.50
1114,26.744,57.30
1116,27.313,57.11
1118,26.744,56.92
1120,26.364,56.84
1122,26.459,56.70
1124,27.028,56.51
1126,26.174,56.30
1128,26.459,56.06
1130,26.269,55.81
1132,26.364,55.54
1134,26.269,55.36
1136,25.509,55.26
1138,26.649,55.17
1140,26.933,55.04
1142,25.984,54.83
1144,25.889,54.69
1146,25.889,54.67
1148,25.984,54.60
1150,25.889,54.46
1152,25.794,54.41
1154,25.034,54.36
1156,25.889,54.19
1158,25.319,54.01
1160,24.844,53.85
1162,25.319,53.69
1164,25.604,53.62
1166,25.319,53.53
1168,25.319,53.45
1170,24.844,53.42
1172,24.274,53.39
1174,24.844,53.21
1176,25.034,53.10
1178,24.179,53.00
1180,23.989,52.94
1182,25.224,52.92
1184,24.464,52.84
1186,24.749,52.68
1188,25.509,52.43
1190,23.325,52.12
1192,24.369,51.77
1194,24.179,51.51
1196,25.034,51.27
1198,24.749,50.99
1200,25.034,50.60
1202,23.705,50.16
1204,23.800,49.84
1206,23.230,49.65
1208,23.800,49.58
1210,24.274,49.56
1212,23.230,49.65
1214,23.989,49.72
1216,23.705,49.73
1218,23.230,49.69
1220,23.420,49.68
1222,23.230,49.73
1224,23.230,49.83
1226,22.375,49.83
1228,22.185,49.75
1230,22.185,49.68
1232,22.090,49.54
1234,22.660,49.41
1236,21.520,49.36
1238,23.230,49.39
1240,23.040,49.44
1242,21.045,49.35
1244,22.660,49.13
1246,22.185,48.89
1248,22.945,48.62
1250,22.660,48.38
1252,21.615,48.17
1254,22.280,47.97
1256,21.330,47.76
1258,21.140,47.52
1260,21.140,47.35
1262,22.090,47.17
1264,21.140,47.14
1266,21.615,47.20
1268,21.235,47.35
1270,21.235,47.37
1272,21.520,47.20
1274,21.615,46.95
1276,20.571,46.66
1278,20.856,46.28
1280,21.140,45.78
1282,20.666,45.26
1284,20.381,44.71
1286,19.811,44.04
1288,20.950,43.26
1290,20.286,42.57
1292,20.761,42.11
1294,20.571,41.85
1296,19.716,41.59
1298,19.431,41.44
1300,19.146,41.27
1302,20.286,41.20
1304,20.001,41.21
1306,19.526,41.39
1308,20.191,41.55
1310,19.621,41.58
1312,19.906,41.58
1314,20.571,41.50
1316,20.001,41.37
1318,19.146,41.18
1320,19.431,41.03
1322,19.906,40.87
1324,20.001,40.65
1326,20.001,40.40
1328,19.431,40.02
1330,19.431,39.70
1332,19.146,39.48
1334,19.051,39.19
1336,19.431,38.90
1338,18.671,38.64
1340,18.576,38.48
1342,18.196,38.34
1344,18.576,38.22
1346,17.912,38.04
1348,18.671,37.97
1350,18.386,37.90
1352,18.956,37.70
1354,18.956,37.50
1356,19.146,37.33
1358,19.146,37.10
1360,18.291,36.84
1362,17.437,36.47
1364,18.291,36.00
1366,17.152,35.59
1368,18.386,35.16
1370,17.342,34.64
1372,17.817,34.15
1374,17.437,33.77
1376,18.861,33.28
1378,18.101,32.83
1380,17.437,32.52
1382,17.342,32.19
1384,18.006,31.88
1386,17.247,31.65
1388,17.342,31.34
1390,16.677,31.00
1392,18.101,30.78
1394,17.912,30.57
1396,17.247,30.35
1398,18.196,30.22
1400,16.677,30.14
1402,17.057,29.94
1404,17.532,29.69
1406,17.722,29.42
1408,17.817,29.10
1410,17.437,28.78
1412,16.107,28.53
1414,16.867,28.26
1416,17.722,28.02
1418,17.247,27.81
1420,16.867,27.43
1422,16.487,26.90
1424,16.012,26.52
1426,16.677,26.23
1428,16.962,26.02
1430,16.012,25.86
1432,16.677,25.73
1434,16.202,25.60
1436,16.487,25.56
1438,17.057,25.49
1440,15.442,25.36
1442,16.582,25.29
1444,15.632,25.28
1446,16.487,25.30
1448,15.822,25.26
1450,15.917,25.25
1452,16.107,25.21
1454,15.822,25.02
1456,16.107,24.73
1458,16.012,24.28
1460,16.202,23.79
1462,15.442,23.44
1464,15.537,23.04
1466,15.157,22.60
1468,16.202,22.22
1470,15.347,21.91
1472,15.062,21.70
1474,15.157,21.52
1476,15.062,21.38
1478,15.632,21.38
1480,14.778,21.49
1482,14.968,21.60
1484,14.778,21.73
1486,14.208,21.91
1488,14.778,21.92
1490,15.252,21.77
1492,14.683,21.49
1494,14.493,21.16
1496,15.442,20.83
1498,14.588,20.56
1500,14.873,20.31
1502,14.683,20.05
1504,14.398,19.69
1506,15.062,19.38
1508,13.353,19.19
1510,14.778,19.08
1512,14.778,19.13
1514,14.588,19.20
1516,14.208,19.31
1518,14.018,19.40
1520,14.208,19.36
1522,14.018,19.22
1524,14.588,19.09
1526,14.208,18.92
1528,14.113,18.64
1530,14.588,18.31
1532,13.258,17.95
1534,13.638,17.50
1536,13.638,17.04
1538,13.448,16.53
1540,13.638,16.04
1542,14.018,15.61
1544,13.448,15.20
1546,14.873,14.99
1548,14.493,14.87
1550,13.828,14.77
1552,13.353,14.73
1554,13.543,14.67
1556,13.923,14.61
1558,13.448,14.65
1560,14.018,14.74
1562,13.448,14.85
1564,13.353,14.96
1566,13.543,14.88
1568,14.208,14.66
1570,13.163,14.48
1572,13.733,14.32
1574,13.448,14.06
1576,13.543,13.83
1578,13.543,13.56
1580,13.068,13.25
1582,12.973,12.94
1584,12.688,12.69
1586,12.783,12.55
1588,12.308,12.45
1590,12.498,12.34
1592,12.593,12.23
1594,12.878,12.11
1596,12.403,12.01
1598,13.448,11.96
1600,12.973,12.01
1602,12.213,12.15
1604,12.688,12.37
1606,12.688,12.53
1608,13.448,12.66
1610,12.498,12.83
1612,12.783,12.92
1614,11.359,12.93
1616,12.213,12.96
1618,11.834,12.90
1620,11.929,12.80
1622,13.068,12.63
1624,11.834,12.30
1626,12.308,11.81
1628,11.929,11.39
1630,12.403,11.02
1632,12.308,10.68
1634,12.403,10.44
1636,12.403,10.20
1638,12.783,9.98
1640,12.213,9.75
1642,12.023,9.35
1644,11.929,8.92
1646,12.023,8.56
1648,12.118,8.25
1650,12.118,7.95
1652,11.359,7.68
1654,12.118,7.42
1656,11.929,7.12
1658,11.264,6.93
1660,11.739,6.79
1662,11.644,6.73
1664,11.549,6.66
1666,11.739,6.66
1668,11.834,6.60
1670,11.454,6.51
1672,11.454,6.36
1674,11.549,6.21
1676,11.929,6.13
1678,11.359,6.06
1680,11.169,5.83
1682,11.739,5.57
1684,10.789,5.29
1686,10.789,5.01
1688,11.359,4.65
1690,11.264,4.33
1692,11.359,4.10
1694,11.359,3.95
1696,11.264,3.91
1698,11.359,3.89
1700,11.454,3.97
1702,11.169,4.11
1704,10.979,4.27
1706,10.314,4.44
1708,10.979,4.60
1710,10.599,4.80
1712,10.789,4.90
1714,10.789,4.91
1716,11.074,4.78
1718,10.884,4.61
1720,10.409,4.36
1722,10.789,4.19
1724,9.554,4.04
1726,11.074,3.96
1728,10.219,4.00
1730,10.694,4.11
1732,10.694,4.22
1734,10.789,4.34
1736,10.409,4.40
1738,10.314,4.41
1740,9.174,4.38
1742,10.504,4.35
1744,9.839,4.17
1746,10.789,3.93
1748,10.409,3.63
1750,10.694,3.26
1752,10.124,2.89
1754,10.314,2.62
1756,10.409,2.39
1758,10.789,2.23
1760,10.029,2.10
1762,10.219,1.95
1764,10.124,1.89
1766,9.649,1.96
1768,10.599,2.05
1770,9.649,2.17
1772,10.219,2.24
1774,9.554,2.26
1776,9.649,2.30
1778,9.554,2.31
1780,9.459,2.23
1782,9.174,2.13
1784,9.934,2.00
1786,9.744,1.81
1788,9.269,1.58
1790,10.029,1.31
1792,9.174,1.04
1794,9.174,0.92
1796,10.789,0.80
1798,9.364,0.66
1800,8.605,0.62
1802,9.174,0.53
1804,9.079,0.40
1806,7.560,0.26
1808,9.364,0.18
1810,9.934,0.19
1812,9.459,0.31
1814,8.225,0.42
1816,9.744,0.43
1818,9.744,0.46
1820,9.649,0.35
1822,8.605,0.27
1824,8.415,0.30
1826,9.079,0.36
1828,9.174,0.42
1830,8.035,0.46
1832,8.700,0.43
1834,9.554,0.36
1836,8.795,0.25
1838,8.415,0.09
1840,8.605,0.00