File: PMMA/Calibration_Data/FM/FM_FPA_25kW_2.csv
Time,Mass,Temperature Front
[s],[g],[K]
1,168.48,299.081
2,168.518,304.547
3,168.504,323.334
4,168.483,338.401
5,168.484,350.312
6,168.486,360.34
7,168.55,369.296
8,168.535,377.291
9,168.517,384.505
10,168.48,391.062
11,168.494,397.193
12,168.512,402.72
13,168.525,407.832
14,168.54,412.723
15,168.552,417.688
16,168.538,422.416
17,168.554,426.805
18,168.565,430.727
19,168.564,435.05
20,168.566,439.243
21,168.562,443.377
22,168.575,446.954
23,168.572,450.401
24,168.58,453.959
25,168.592,457.537
26,168.578,460.827
27,168.579,464.189
28,168.578,467.577
29,168.588,470.601
30,168.601,473.632
31,168.59,476.595
32,168.619,479.674
33,168.614,482.556
34,168.607,485.443
35,168.595,488.359
36,168.607,491.062
37,168.626,493.58
38,168.608,495.994
39,168.623,498.332
40,168.613,501.012
41,168.599,503.359
42,168.602,505.288
43,168.619,507.629
44,168.618,510.053
45,168.624,512.38
46,168.638,514.769
47,168.638,516.518
48,168.637,518.366
49,168.638,520.52
50,168.643,523.063
51,168.637,525.027
52,168.628,527.046
53,168.646,529.138
54,168.654,531.477
55,168.677,533.479
56,168.657,535.262
57,168.663,537.226
58,168.659,538.846
59,168.673,540.546
60,168.676,542.734
61,168.672,544.324
62,168.663,546.001
63,168.689,547.604
64,168.674,548.985
65,168.679,550.614
66,168.672,552.167
67,168.684,553.769
68,168.688,555.84
69,168.673,557.543
70,168.678,559.59
71,168.693,561.274
72,168.684,562.587
73,168.702,564.137
74,168.684,565.304
75,168.68,566.594
76,168.683,568.816
77,168.693,570.5
78,168.685,571.895
79,168.678,573.126
80,168.702,574.542
81,168.693,575.814
82,168.676,577.95
83,168.6927,579.93
84,168.69,581.551
85,168.69,582.933
86,168.69,584.584
87,168.697,586.607
88,168.71,587.729
89,168.716,588.454
90,168.697,589.64
91,168.709,590.716
92,168.7,591.415
93,168.724,593.169
94,168.712,595.02
95,168.714,595.453
96,168.694,596.697
97,168.696,597.932
98,168.711,598.835
99,168.71,600.277
100,168.702,601.56
101,168.707,602.275
102,168.7,603.508
103,168.683,604.213
104,168.707,605.273
105,168.697,606.358
106,168.694,606.675
107,168.7,608.117
108,168.701,609.083
109,168.697,610.655
110,168.68,611.419
111,168.712,612.044
112,168.69,612.849
113,168.694,613.961
114,168.692,614.958
115,168.691,616.427
116,168.681,617.985
117,168.67,618.391
118,168.685,618.753
119,168.663,620.391
120,168.674,621.485
121,168.662,622.576
122,168.686,623.518
123,168.676,624.576
124,168.676,625.246
125,168.649,626.023
126,168.666,625.871
127,168.638,627.332
128,168.635,628.47
129,168.633,629.024
130,168.626,629.79
131,168.614,630.796
132,168.618,631.831
133,168.594,631.82
134,168.584,632.758
135,168.588,633.466
136,168.577,634.324
137,168.58,634.961
138,168.552,635.177
139,168.533,633.971
140,168.546,635.747
141,168.521,636.589
142,168.514,637.413
143,168.477,638.973
144,168.498,636.325
145,168.478,636.757
146,168.46,637.809
147,168.443,637.721
148,168.453,637.758
149,168.39,637.778
150,168.382,640.252
151,168.39,640.622
152,168.373,639.077
153,168.358,640.2
154,168.365,636.949
155,168.318,639.986
156,168.327,640.335
157,168.266,640.764
158,168.301,641.054
159,168.272,639.81
160,168.217,640.265
161,168.218,639.138
162,168.183,637.097
163,168.159,638.312
164,168.158,638.243
165,168.115,637.511
166,168.11,640.413
167,168.062,639.459
168,168.052,641.712
169,167.996,638.682
170,167.978,642.228
171,167.949,640.437
172,167.923,638.948
173,167.873,640.858
174,167.874,640.527
175,167.825,641.536
176,167.812,640.564
177,167.738,641.579
178,167.745,639.453
179,167.7,639.504
180,167.646,641.009
181,167.619,641.995
182,167.578,640.262
183,167.537,641.118
184,167.511,641.882
185,167.47,637.369
186,167.429,640.623
187,167.405,639.75
188,167.351,641.567
189,167.329,641.316
190,167.284,640.666
191,167.24,643.18
192,167.214,641.306
193,167.189,640.639
194,167.123,643.924
195,167.087,640.14
196,167.036,642.05
197,167.013,642.648
198,166.991,644.928
199,166.9407,641.072
200,166.911,640.622
201,166.858,646.234
202,166.816,647.067
203,166.806,645.708
204,166.75,646.871
205,166.702,643.747
206,166.657,645.335
207,166.626,641.198
208,166.555,639.978
209,166.508,642.498
210,166.464,642.38
211,166.435,642.468
212,166.4,643.442
213,166.347,643.338
214,166.322,649.523
215,166.253,650.945
216,166.254,648.474
217,166.171,645.662
218,166.13,646.432
219,166.09,642.861
220,166.038,645.998
221,165.9871,646.504
222,165.952,650.093
223,165.908,651.3
224,165.871,647.009
225,165.811,639.139
226,165.775,644.345
227,165.733,646.276
228,165.672,646.779
229,165.614,648.771
230,165.574,648.302
231,165.521,648.212
232,165.477,644.797
233,165.378,645.551
234,165.359,648.416
235,165.317,652.077
236,165.277,652.221
237,165.214,650.048
238,165.177,641.677
239,165.097,644.183
240,165.069,649.273
241,165.037,647.678
242,164.984,650.184
243,164.908,651.593
244,164.878,643.325
245,164.818,644.922
246,164.762,649.686
247,164.727,652.742
248,164.667,649.549
249,164.62,645.91
250,164.569,650.018
251,164.516,653.171
252,164.451,650.547
253,164.392,651.031
254,164.334,656.057
255,164.282,650.925
256,164.213,654.316
257,164.17,654.52
258,164.116,652.324
259,164.073,653.804
260,164.013,651.105
261,163.965,653.855
262,163.887,654.203
263,163.831,654.661
264,163.799,653.999
265,163.733,654.239
266,163.665,649.996
267,163.634,650.586
268,163.574,651.229
269,163.505,654.404
270,163.448,656.415
271,163.429,655.051
272,163.347,653.668
273,163.2815,654.8
274,163.237,658.672
275,163.174,657.419
276,163.088,654.243
277,163.031,658.195
278,162.977,655.665
279,162.936,652.655
280,162.838,658.599
281,162.83,658.878
282,162.748,657.798
283,162.695,657.874
284,162.624,656.08
285,162.556,659.914
286,162.529,654.171
287,162.471,654.978
288,162.397,662.719
289,162.309,659.3
290,162.273,657.932
291,162.247,660.952
292,162.155,660.48
293,162.093,663.891
294,162.02,661.976
295,162.002,661.404
296,161.921,663.692
297,161.868,659.761
298,161.78,658.208
299,161.735,659.434
300,161.665,658.895
301,161.585,656.53
302,161.536,659.819
303,161.496,659.794
304,161.418,660.005
305,161.383,661.12
306,161.318,660.06
307,161.211,663.433
308,161.15,662.929
309,161.116,661.502
310,161.086,659.387
311,160.97,662.615
312,160.92,661.827
313,160.875,656.027
314,160.833,663.364
315,160.712,662.978
316,160.613,661.167
317,160.571,659.398
318,160.479,663.919
319,160.496,665.397
320,160.32,661.954
321,160.332,662.665
322,160.212,657.966
323,160.212,657.728
324,160.148,658.192
325,160.042,657.094
326,159.937,659.513
327,159.909,656.821
328,159.781,660.245
329,159.806,657.498
330,159.633,661.836
331,159.644,661.16
332,159.504,659.193
333,159.503,660.837
334,159.42,660.875
335,159.32,661.27
336,159.225,664.557
337,159.184,660.591
338,159.084,660.085
339,159.081,661.881
340,158.913,663.985
341,158.937,662.031
342,158.801,657.164
343,158.763,654.118
344,158.699,653.809
345,158.63,659.617
346,158.496,663.81
347,158.483,662.28
348,158.362,662.406
349,158.371,658.289
350,158.181,657.074
351,158.208,656.649
352,158.065,658.23
353,157.9923,660.588
354,157.967,661.244
355,157.853,662.075
356,157.739,666.125
357,157.734,660.478
358,157.606,660.182
359,157.5931,660.891
360,157.422,660.918
361,157.437,661.428
362,157.3,658.54
363,157.228,662.122
364,157.19,653.772
365,157.097,659.242
366,156.989,662.186
367,156.946,660.533
368,156.838,663.306
369,156.835,660.215
370,156.664,653.489
371,156.687,655.509
372,156.541,647.476
373,156.457,652.862
374,156.43,657.647
375,156.306,659.78
376,156.206,660.26
377,156.196,661.425
378,156.036,657.473
379,156.018,652.345
380,155.85,654.698
381,155.905,653.255
382,155.745,651.469
383,155.657,650.784
384,155.599,663.085
385,155.508,661.092
386,155.411,655.856
387,155.412,656.178
388,155.239,656.56
389,155.226,660.581
390,155.04,665.575
391,155.067,657.543
392,154.967,658.486
393,154.829,663.232
394,154.781,663.069
395,154.691,662.288
396,154.598,655.768
397,154.589,650.175
398,154.416,651.453
399,154.419,650.952
400,154.262,649.111
401,154.288,649.868
402,154.168,655.564
403,154.036,653.19
404,153.976,652.377
405,153.888,658.958
406,153.773,660.585
407,153.749,663.959
408,153.593,651.473
409,153.586,644.984
410,153.436,651.014
411,153.409,652.654
412,153.332,658.802
413,153.179,650.714
414,153.148,648.428
415,153.037,656.569
416,152.953,653.688
417,152.871,645.628
418,152.729,655.16
419,152.727,658.288
420,152.563,650.955
421,152.522,656.155
422,152.485,654.393
423,152.312,653.938
424,152.288,651.693
425,152.173,650.085
426,152.086,655.284
427,152.031,652.525
428,151.884,660.49
429,151.867,657.564
430,151.689,649.105
431,151.604,653.763
432,151.584,652.624
433,151.403,659.442
434,151.37,650.137
435,151.247,654.578
436,151.142,657.907
437,151.112,654.324
438,150.96,653.821
439,150.952,657.584
440,150.779,656.514
441,150.662,651.96
442,150.655,650.967
443,150.508,649.693
444,150.456,656.375
445,150.343,659.359
446,150.256,653.434
447,150.182,652.927
448,150.062,651.453
449,150.03,649.329
450,149.885,647.234
451,149.746,648.745
452,149.738,657.371
453,149.6,657.043
454,149.537,644.536
455,149.421,643.968
456,149.338,644.839
457,149.278,647.843
458,149.123,658.461
459,149.086,648.974
460,148.991,641.638
461,148.807,656.405
462,148.774,663.811
463,148.622,656.596
464,148.58,657.367
465,148.464,654.247
466,148.357,643.793
467,148.318,640.346
468,148.147,638.492
469,148.118,636.279
470,148.027,646.064
471,147.846,645.888
472,147.831,643.278
473,147.656,658.087
474,147.594,651.577
475,147.504,649.574
476,147.373,647.092
477,147.341,647.098
478,147.141,643.552
479,147.125,641.775
480,147.041,652.264
481,146.831,659.176
482,146.801,658.369
483,146.647,651.017
484,146.578,650.579
485,146.494,643.815
486,146.364,630.774
487,146.306,644.571
488,146.118,651.334
489,146.048,648.298
490,146.012,646.116
491,145.821,641.82
492,145.788,637.391
493,145.643,637.861
494,145.558,647.895
495,145.489,651.671
496,145.342,634.601
497,145.301,644.808
498,145.118,656.991
499,145.008,655.567
500,144.993,644.693
501,144.795,648.643
502,144.771,658.348
503,144.608,642.468
504,144.512,627.415
505,144.419,627.656
506,144.298,646.878
507,144.259,651.678
508,144.072,635.07
509,143.96,635.676
510,143.937,642.397
511,143.751,644.176
512,143.697,651.274
513,143.568,637.479
514,143.474,640.08
515,143.371,638.081
516,143.233,631.431
517,143.185,637.23
518,143.061,637.158
519,142.901,633.856
520,142.864,646.914
521,142.702,647.684
522,142.649,634.114
523,142.519,633.047
524,142.388,630.405
525,142.297,631.683
526,142.122,626.045
527,142.098,629.64
528,141.968,650.898
529,141.806,653.874
530,141.751,644.736
531,141.578,641.703
532,141.522,635.397
533,141.404,639.431
534,141.286,627.844
535,141.193,635.51
536,141.044,634.68
537,141.001,639.195
538,140.9,635.085
539,140.687,636.266
540,140.658,637.929
541,140.492,644.083
542,140.399,638.61
543,140.277,628.447
544,140.157,625.569
545,140.092,635.489
546,139.919,633.651
547,139.828,639.239
548,139.723,638.82
549,139.526,629.77
550,139.479,619.526
551,139.314,609.792
552,139.221,612.043
553,139.121,616.469
554,138.973,625.665
555,138.884,634.514
556,138.73,626.375
557,138.671,619.808
558,138.513,621.409
559,138.406,625.493
560,138.279,620.147
561,138.188,614.608
562,138.075,636.665
563,137.947,634.181
564,137.826,621.041
565,137.718,626.603
566,137.597,636.838
567,137.476,631.039
568,137.35,628.148
569,137.227,623.268
570,137.1,620.372
571,136.9907,638.958
572,136.869,638.595
573,136.75,632.33
574,136.625,622.273
575,136.516,615.826
576,136.401,623.921
577,136.294,623.564
578,136.155,609.481
579,136.046,625.194
580,135.917,624.42
581,135.805,624.829
582,135.666,634.482
583,135.57,622.704
584,135.443,622.814
585,135.329,642.83
586,135.159,642.38
587,135.043,637.557
588,134.934,626.401
589,134.815,623.872
590,134.691,616.539
591,134.577,623.247
592,134.457,629.507
593,134.356,618.111
594,134.216,624.557
595,134.104,639.493
596,133.983,630.499
597,133.844,630.105
598,133.742,635.66
599,133.616,638.173
600,133.496,625.012
601,133.366,621.354
602,133.24,622.206
603,133.131,615.532
604,132.993,614.952
605,132.864,622.322
606,132.747,622.917
607,132.644,627.949
608,132.459,627.078
609,132.356,634.86
610,132.239,634.228
611,132.111,627.584
612,131.969,623.144
613,131.855,620.687
614,131.72,632.299
615,131.605,641.772
616,131.474,632.203
617,131.36,622.62
618,131.211,632.73
619,131.086,638.064
620,130.966,635.676
621,130.837,638.82
622,130.72,639.621
623,130.593,635.74
624,130.454,622.235
625,130.348,625.725
626,130.194,631.531
627,130.113,621.923
628,129.978,629.204
629,129.839,625.037
630,129.716,627.512
631,129.591,625.169
632,129.472,620.566
633,129.365,626.417
634,129.239,615.449
635,129.104,614.464
636,128.966,607.512
637,128.858,604.752
638,128.719,614.51
639,128.598,626.66
640,128.455,638.02
641,128.34,632.131
642,128.2,632.438
643,128.077,625.924
644,127.975,627.82
645,127.829,634.882
646,127.726,622.143
647,127.6,608.449
648,127.486,604.321
649,127.336,607.91
650,127.239,615.429
651,127.106,615.16
652,126.994,611.133
653,126.875,619.926
654,126.777,612.713
655,126.666,609.072
656,126.526,617.942
657,126.404,625.875
658,126.31,634.392
659,126.174,632.253
660,126.066,619.56
661,125.901,627.734
662,125.81,637.884
663,125.68,630.896
664,125.562,632.358
665,125.449,648.842
666,125.351,641.883
667,125.198,636.941
668,125.114,644.49
669,125.022,639.017
670,124.917,658.151
671,124.793,670.21
672,124.711,656.563
673,124.619,650.455
674,124.542,667.876
675,124.428,662.41
676,124.35,692.888
677,124.273,688.107
678,124.224,699.467
679,124.134,707.732
680,124.07,721.738
681,124.004,722.856
682,123.953,712.225
683,123.878,722.39
684,123.839,711.927
685,123.787,723.948
686,123.737,724.393
687,123.685,725.272
688,123.64,733.657
689,123.589,727.879
690,123.553,729.599
691,123.5,736.06
692,123.459,738.765
693,123.43,741.365
694,123.386,742.122
695,123.365,740.123
696,123.324,745.501
697,123.314,757.997
698,123.277,749.727
699,123.24,746.401
700,123.196,759.51
701,123.183,753.161
702,123.169,751.011
703,123.169,751.695
704,123.144,755.147
705,123.128,756.253
706,123.111,761.214
707,123.1,754.541
708,123.094,759.483
709,123.071,755.068
710,123.045,757.142
711,123.054,763.653
712,123.027,757.357
713,123.003,756.03
714,123.003,763.157
715,122.995,764.229
716,122.965,760.677
717,122.974,765.224
718,122.9693,765.104
719,122.951,765.618
720,122.918,762.829
721,122.928,764.076
722,122.927,761.09
723,122.917,762.779
724,122.903,767.831
725,122.897,771.014
726,122.884,770.26
727,122.89,771.963
728,122.875,769.852
729,122.87,766.766
730,122.853,768.807
731,122.851,774.131
732,122.866,772.978
733,122.85,770.496
734,122.84,770.817
735,122.833,775.341
736,122.811,772.876
737,122.811,772.105
738,122.807,774.353
739,122.825,773.964
740,122.809,776.304
741,122.812,777.114
742,122.79,777.118
743,122.787,776.277
744,122.783,778.164
745,122.81,779.226
746,122.786,780.211
747,122.763,778.708
748,122.765,779.073
749,122.775,779.289
750,122.747,779.123
751,122.775,779.913
752,122.775,779.672
753,122.773,779.339
754,122.758,780.868
755,122.756,777.608
756,122.755,777.535
757,122.752,779.175
758,122.749,780.178
759,122.761,779.343
760,122.762,780.875
761,122.755,781.357
762,122.755,779.826
763,122.759,780.757
764,122.731,780.542
765,122.722,780.326
766,122.721,780.429
767,122.716,778.762
768,122.724,778.853
769,122.718,779.324
770,122.731,781
771,122.713,782.034
772,122.715,781.624
773,122.703,782.791
774,122.705,784.985
775,122.701,783.036
776,122.689,783.234
777,122.688,780.655
778,122.683,780.911
779,122.67,780.649
780,122.663,781.605