File: PMMA/Calibration_Data/FM/FM_FPA_25kW_3.csv
Time,Mass,Temperature Front
[s],[g],[K]
1,168.263,304.834
2,168.192,321.598
3,168.159,338.277
4,168.156,350.911
5,168.17,361.293
6,168.303,370.219
7,168.497,378.524
8,168.625,386.001
9,168.719,392.745
10,168.73,398.94
11,168.737,404.557
12,168.745,409.795
13,168.741,414.706
14,168.754,419.791
15,168.74,424.707
16,168.753,429.143
17,168.74,433.608
18,168.721,437.627
19,168.741,441.662
20,168.71,445.755
21,168.717,449.434
22,168.697,453.36
23,168.71,457.073
24,168.698,460.741
25,168.706,464.319
26,168.699,467.812
27,168.689,470.906
28,168.67,473.718
29,168.67,476.833
30,168.67,480.028
31,168.66,482.896
32,168.655,485.675
33,168.641,488.376
34,168.662,491.424
35,168.642,493.98
36,168.646,496.602
37,168.623,499.629
38,168.631,502.221
39,168.634,504.446
40,168.637,507.105
41,168.598,509.497
42,168.592,512.141
43,168.592,514.408
44,168.604,516.371
45,168.592,518.64
46,168.582,521.013
47,168.575,522.875
48,168.558,524.902
49,168.564,526.746
50,168.571,528.794
51,168.578,530.881
52,168.571,532.791
53,168.561,534.468
54,168.567,536.48
55,168.547,538.134
56,168.558,540.514
57,168.559,542.56
58,168.566,544.435
59,168.558,546.096
60,168.55,547.524
61,168.568,549.644
62,168.554,551.559
63,168.561,553.522
64,168.524,554.913
65,168.554,556.575
66,168.562,558.327
67,168.526,559.927
68,168.517,561.157
69,168.534,563.083
70,168.527,564.415
71,168.53,566.091
72,168.537,567.57
73,168.52,568.798
74,168.535,570.615
75,168.528,572.348
76,168.564,573.657
77,168.553,575.039
78,168.534,576.445
79,168.537,578.327
80,168.544,579.951
81,168.526,581.849
82,168.5236,583.447
83,168.526,585.171
84,168.528,586.941
85,168.536,588.012
86,168.5236,589.284
87,168.511,590.315
88,168.5,591.984
89,168.51,593.129
90,168.521,594.341
91,168.488,595.487
92,168.479,596.612
93,168.478,597.952
94,168.472,599.181
95,168.481,599.903
96,168.481,601.077
97,168.475,602.238
98,168.459,603.399
99,168.473,604.805
100,168.458,606.068
101,168.446,607.05
102,168.452,608.508
103,168.472,609.178
104,168.469,609.754
105,168.491,611.207
106,168.501,611.841
107,168.482,612.949
108,168.481,614.781
109,168.497,616.245
110,168.457,618.213
111,168.443,618.683
112,168.442,619.853
113,168.428,621.242
114,168.432,621.719
115,168.429,623.304
116,168.406,624.094
117,168.391,625.419
118,168.414,626.344
119,168.419,626.729
120,168.415,627.885
121,168.373,628.859
122,168.375,629.646
123,168.351,630.347
124,168.378,630.947
125,168.362,630.971
126,168.338,631.737
127,168.334,632.782
128,168.31,633.179
129,168.329,634.003
130,168.321,634.649
131,168.334,635.018
132,168.318,635.288
133,168.309,636.054
134,168.307,637.006
135,168.307,639.366
136,168.276,638.236
137,168.281,638.243
138,168.273,638.15
139,168.239,639.26
140,168.229,639.384
141,168.223,639.211
142,168.24,638.899
143,168.215,640.065
144,168.196,641.844
145,168.187,640.343
146,168.173,641.496
147,168.181,640.519
148,168.155,641.043
149,168.128,639.637
150,168.118,640.944
151,168.127,639.713
152,168.114,639.899
153,168.101,641.389
154,168.085,640.701
155,168.054,641.631
156,168.017,642.578
157,167.992,642.743
158,168.005,642.173
159,167.994,641.948
160,167.975,641.521
161,167.928,641.489
162,167.945,642.411
163,167.917,642.855
164,167.89,640.166
165,167.862,639.64
166,167.829,642.555
167,167.806,644.022
168,167.739,643.483
169,167.725,642.872
170,167.686,642.855
171,167.677,643.214
172,167.654,640.782
173,167.642,644.13
174,167.596,644.561
175,167.591,639.838
176,167.54,640.05
177,167.521,643.119
178,167.473,643.623
179,167.45,645.863
180,167.416,640.048
181,167.394,639.099
182,167.336,640.3
183,167.321,643.128
184,167.28,643.208
185,167.283,639.368
186,167.214,640.682
187,167.182,639.365
188,167.134,639.388
189,167.117,646.052
190,167.066,649.876
191,167.052,646.243
192,167.029,640.453
193,166.991,636.26
194,166.914,642.839
195,166.905,647.723
196,166.868,649.875
197,166.856,650.953
198,166.806,652.064
199,166.758,647.912
200,166.701,645.938
201,166.666,650.178
202,166.625,647.946
203,166.576,648.482
204,166.549,647.342
205,166.515,647.181
206,166.484,646.491
207,166.433,646.967
208,166.3863,647.813
209,166.351,645.332
210,166.345,640.241
211,166.268,650.494
212,166.223,652.894
213,166.182,647.375
214,166.134,643.166
215,166.115,643.763
216,166.063,648.059
217,166.005,648.607
218,165.961,649.955
219,165.928,647.895
220,165.875,653.492
221,165.834,657.664
222,165.782,656.135
223,165.738,652.609
224,165.718,655.533
225,165.653,658.468
226,165.596,663.459
227,165.581,660.067
228,165.527,645.461
229,165.471,645.139
230,165.444,652.249
231,165.389,652.78
232,165.349,650.384
233,165.31,649.82
234,165.2497,651.168
235,165.212,652.849
236,165.146,654.335
237,165.122,653.759
238,165.088,657.916
239,165.027,645.152
240,164.974,646.601
241,164.915,652.413
242,164.873,652.864
243,164.808,652.784
244,164.791,648.628
245,164.718,653.849
246,164.671,663.858
247,164.636,657.552
248,164.586,654.414
249,164.553,654.131
250,164.491,655.478
251,164.454,650.367
252,164.385,646.409
253,164.335,653.894
254,164.281,657.277
255,164.232,654.683
256,164.164,655.88
257,164.126,657.284
258,164.087,652.185
259,164.024,647.253
260,163.942,653.592
261,163.888,654.859
262,163.834,655.972
263,163.777,653.95
264,163.719,655.929
265,163.669,657.211
266,163.647,661.428
267,163.598,655.509
268,163.517,657.62
269,163.485,662.333
270,163.426,661.29
271,163.377,656.961
272,163.332,657.469
273,163.248,658.168
274,163.226,658.849
275,163.177,659.729
276,163.154,658.079
277,163.056,654.763
278,163.029,659.382
279,162.962,662.397
280,162.91,662.754
281,162.834,668.002
282,162.834,664.59
283,162.778,660.126
284,162.701,661.357
285,162.637,663.814
286,162.589,664.153
287,162.537,665.965
288,162.484,661.735
289,162.408,665.816
290,162.353,665.448
291,162.278,666.506
292,162.242,666.781
293,162.163,664.083
294,162.0978,667.228
295,162.071,667.593
296,161.98,666.41
297,161.921,670.689
298,161.861,668.364
299,161.804,668.563
300,161.727,669.414
301,161.679,669.901
302,161.657,670.033
303,161.572,666.675
304,161.54,667.197
305,161.458,664.832
306,161.416,671.554
307,161.358,662.855
308,161.272,665.184
309,161.222,666.399
310,161.155,668.768
311,161.096,666.439
312,161.022,668.589
313,160.96,667.857
314,160.914,665.802
315,160.847,666.977
316,160.764,668.36
317,160.7,669.891
318,160.644,670.312
319,160.56,666.334
320,160.513,666.58
321,160.451,665.231
322,160.408,667.313
323,160.3,665.15
324,160.251,667.958
325,160.181,669.781
326,160.093,668.622
327,160.029,669.08
328,159.96,670.56
329,159.873,673.994
330,159.82,673.014
331,159.77,669.984
332,159.696,669.109
333,159.617,666.685
334,159.561,664.018
335,159.473,666.733
336,159.408,665.702
337,159.346,671.554
338,159.266,670.117
339,159.198,674.141
340,159.142,670.767
341,159.062,668.198
342,158.987,666.742
343,158.927,662.063
344,158.865,664.351
345,158.804,670.558
346,158.755,670.3
347,158.661,666.729
348,158.588,663.112
349,158.521,664.212
350,158.457,661.901
351,158.373,664.703
352,158.283,660.785
353,158.223,655.206
354,158.157,659.056
355,158.095,661.622
356,158.019,666.076
357,157.941,666.607
358,157.859,663.249
359,157.812,665.912
360,157.747,667.857
361,157.661,670.942
362,157.582,671.09
363,157.502,660.035
364,157.443,662.432
365,157.382,659.588
366,157.281,662.293
367,157.195,670.976
368,157.128,669.723
369,157.056,666.789
370,156.983,662.121
371,156.921,658.286
372,156.86,654.372
373,156.778,657.344
374,156.703,660.229
375,156.627,658.728
376,156.525,660.873
377,156.463,667.665
378,156.405,663.899
379,156.317,653.306
380,156.255,654.594
381,156.161,662.43
382,156.089,658.212
383,155.992,657.992
384,155.929,668.191
385,155.871,666.003
386,155.791,661.269
387,155.695,656.677
388,155.644,657.881
389,155.544,662.65
390,155.485,665.427
391,155.424,663.12
392,155.341,663.05
393,155.291,663.846
394,155.187,656.288
395,155.106,657.598
396,155.023,658.441
397,154.938,666.934
398,154.881,668.333
399,154.796,665.725
400,154.735,662.5
401,154.633,659.152
402,154.577,671.896
403,154.504,668.047
404,154.44,660.223
405,154.318,660.996
406,154.25,672.475
407,154.166,663.579
408,154.095,654.374
409,154.034,665.97
410,153.962,670.798
411,153.856,663.089
412,153.772,658.063
413,153.688,655.21
414,153.606,655.308
415,153.494,659.403
416,153.436,651.256
417,153.376,649.287
418,153.285,660.349
419,153.2,667.141
420,153.122,659.124
421,153.047,644.89
422,152.975,651.132
423,152.894,648.545
424,152.787,642.733
425,152.683,651.27
426,152.613,657.607
427,152.53,660.8
428,152.437,655.084
429,152.341,653.554
430,152.256,653.73
431,152.187,656.199
432,152.113,657.44
433,152.041,653.272
434,151.952,651.394
435,151.868,653.439
436,151.777,657.487
437,151.709,657.568
438,151.614,667.292
439,151.521,661.702
440,151.424,652.31
441,151.347,649.942
442,151.263,661.801
443,151.177,659.129
444,151.092,660.778
445,151,658.978
446,150.902,646.157
447,150.81,658.249
448,150.737,653.11
449,150.626,661.659
450,150.571,659.092
451,150.489,657.889
452,150.396,664.4
453,150.294,651.918
454,150.239,657.558
455,150.122,658.695
456,150.047,647.468
457,149.945,641.995
458,149.852,650.756
459,149.752,644.928
460,149.684,647.446
461,149.584,658.424
462,149.514,658.905
463,149.406,662.272
464,149.333,645.462
465,149.23,650.191
466,149.117,656.274
467,149.013,649.469
468,148.942,649.469
469,148.84,658.525
470,148.771,657.087
471,148.658,644.308
472,148.574,637.542
473,148.445,647.86
474,148.364,641.948
475,148.272,637.797
476,148.167,639.692
477,148.103,653.353
478,147.988,645.595
479,147.888,646.016
480,147.804,662.723
481,147.731,659.969
482,147.631,651.152
483,147.514,646.714
484,147.422,641.113
485,147.351,651.648
486,147.228,643.576
487,147.142,639.077
488,147.028,640.698
489,146.958,652.8
490,146.839,652.907
491,146.737,655.369
492,146.662,638.561
493,146.558,638.453
494,146.437,659.313
495,146.352,656.526
496,146.254,638.077
497,146.167,642.311
498,146.063,647.879
499,145.986,639.759
500,145.899,648.921
501,145.785,645.771
502,145.688,641.404
503,145.612,646.536
504,145.485,654.168
505,145.368,642.094
506,145.277,647.592
507,145.183,654.426
508,145.091,661.487
509,144.985,656.202
510,144.881,642.573
511,144.781,642.382
512,144.668,636.445
513,144.557,628.809
514,144.443,636.185
515,144.36,637.594
516,144.226,636.986
517,144.133,654.768
518,144.036,658.918
519,143.952,655.393
520,143.837,648.039
521,143.738,646.221
522,143.635,634.237
523,143.544,621.651
524,143.423,626.595
525,143.324,633.851
526,143.203,645.829
527,143.118,643.321
528,143.031,628.367
529,142.888,617.598
530,142.78,614.017
531,142.683,622.02
532,142.589,620.277
533,142.482,615.713
534,142.373,608.348
535,142.252,619.208
536,142.145,627.145
537,142.03,625.013
538,141.944,617.846
539,141.837,624.912
540,141.716,618.026
541,141.628,613.834
542,141.509,615.927
543,141.386,616.364
544,141.2653,611.895
545,141.177,612.778
546,141.084,627.089
547,140.942,622.163
548,140.834,619.877
549,140.751,635.924
550,140.651,623.176
551,140.478,629.893
552,140.383,634.813
553,140.268,620.564
554,140.15,625.884
555,140.04,626.863
556,139.932,628.479
557,139.818,624.371
558,139.719,634.458
559,139.59,623.547
560,139.496,606.881
561,139.347,600.557
562,139.241,606.043
563,139.127,604.434
564,139.013,607.149
565,138.896,605.475
566,138.774,611.599
567,138.667,621.193
568,138.581,612.682
569,138.445,618.191
570,138.343,623.366
571,138.232,620.003
572,138.109,607.517
573,137.993,616.885
574,137.871,624.008
575,137.73,627.188
576,137.619,620.391
577,137.496,614.27
578,137.386,621.189
579,137.26,603.727
580,137.157,614.117
581,137.038,612.77
582,136.913,614.401
583,136.798,610.798
584,136.655,605.986
585,136.529,606.457
586,136.425,601.593
587,136.314,604.672
588,136.183,605.405
589,136.056,609.11
590,135.951,611.312
591,135.873,617.653
592,135.711,611.413
593,135.602,617.631
594,135.451,598.015
595,135.348,597.177
596,135.214,616.525
597,135.118,615.378
598,134.972,603.409
599,134.842,629.002
600,134.741,619.234
601,134.637,607.726
602,134.484,607.61
603,134.379,612.737
604,134.248,615.854
605,134.135,604.535
606,134.016,602.199
607,133.877,598.753
608,133.79,608.096
609,133.662,612.263
610,133.54,605.289
611,133.424,612.333
612,133.298,614.501
613,133.179,611.047
614,133.057,599.973
615,132.907,600.536
616,132.783,617.484
617,132.661,604.541
618,132.543,604.023
619,132.387,611.444
620,132.281,610.94
621,132.159,612.513
622,132.059,625.098
623,131.929,619.313
624,131.816,610.264
625,131.691,606.96
626,131.55,602.291
627,131.442,607.709
628,131.325,604.915
629,131.205,605.264
630,131.075,598.671
631,130.962,593.668
632,130.818,601.045
633,130.721,592.567
634,130.592,596.591
635,130.474,598.264
636,130.329,608.35
637,130.231,594.908
638,130.104,596.522
639,129.99,595.677
640,129.877,591.207
641,129.756,587.342
642,129.622,597.896
643,129.519,613.138
644,129.404,613.587
645,129.283,607.855
646,129.156,609.068
647,129.025,604.769
648,128.934,600.619
649,128.821,607.373
650,128.696,636.087
651,128.572,623.224
652,128.464,613.552
653,128.342,616.008
654,128.22,632.842
655,128.099,624.235
656,127.988,620.911
657,127.892,620.941
658,127.743,628.623
659,127.639,620.543
660,127.51,635.307
661,127.425,643.915
662,127.314,635.611
663,127.195,642.04
664,127.099,638.615
665,127.007,633.389
666,126.91,642.574
667,126.805,663.117
668,126.693,656.424
669,126.618,632.126
670,126.531,644.227
671,126.452,665.181
672,126.355,666.257
673,126.252,667.882
674,126.174,682.054
675,126.093,677.287
676,126.02,684.147
677,125.941,690.234
678,125.856,688.452
679,125.8,694.208
680,125.706,701.625
681,125.637,702.446
682,125.582,696.668
683,125.515,710.459
684,125.463,716.873
685,125.394,690.46
686,125.332,701.415
687,125.265,704.185
688,125.232,695.021
689,125.149,704.457
690,125.113,701.768
691,125.066,701.87
692,125.023,712.861
693,124.976,705.583
694,124.89,697.907
695,124.85,701.259
696,124.8,701.936
697,124.743,699.287
698,124.709,707.151
699,124.666,704.838
700,124.636,704.55
701,124.591,714.83
702,124.532,714.262
703,124.498,710.868
704,124.446,713.391
705,124.412,716.237
706,124.392,716.709
707,124.338,719.119
708,124.31,717.962
709,124.278,709.37
710,124.2611,714.436
711,124.222,718.334
712,124.191,719.922
713,124.168,716.989
714,124.139,724.276
715,124.117,726.058
716,124.061,720.069
717,124.039,724.735
718,124.01,724.302
719,123.999,723.66
720,123.968,719.754
721,123.946,720.293
722,123.926,723.436
723,123.907,724.36
724,123.867,730.379
725,123.853,725.267
726,123.82,727.832
727,123.823,731.43
728,123.782,730.913
729,123.76,732.132
730,123.771,736.003
731,123.764,736.534
732,123.727,732.786
733,123.712,733.968
734,123.717,733.279
735,123.706,734.958
736,123.7,738.098
737,123.69,738.256
738,123.679,738.242
739,123.677,739.551
740,123.697,738.82
741,123.694,736.749
742,123.681,741.335
743,123.664,743.917
744,123.666,742.661
745,123.643,740.986
746,123.619,740.037
747,123.632,739.594
748,123.629,738.588
749,123.612,741.691
750,123.599,741.244
751,123.578,741.824
752,123.596,743.601
753,123.579,743.636
754,123.604,742.639
755,123.564,743.225
756,123.569,743.813
757,123.564,742.431
758,123.545,741.596
759,123.531,745.246
760,123.551,744.883
761,123.556,742.522
762,123.548,744.585
763,123.53,746.077
764,123.528,742.68
765,123.501,742.26
766,123.494,741.664
767,123.486,743.084
768,123.482,743.977
769,123.514,743.069
770,123.482,745.26
771,123.488,745.729
772,123.474,742.493
773,123.458,742.014
774,123.467,742.294
775,123.446,742.851
776,123.462,744.085
777,123.449,744.716
778,123.44,748.22
779,123.451,746.18