File: PMMA/Calibration_Data/FM/FM_FPA_50kW_2.csv
Time,Mass,Temperature
[s],[g],[K]
1,167.831,296.912
2,168.206,297.867
3,168.051,323.384
4,167.953,358.413
5,167.961,383.602
6,167.964,403.579
7,168.002,419.92
8,168.392,434.303
9,168.593,447.868
10,168.471,460.998
11,168.26,472.897
12,168.067,483.464
13,167.947,493.676
14,167.888,503.709
15,167.852,513.158
16,167.787,521.772
17,167.78,529.986
18,167.762,538.318
19,167.741,545.966
20,167.726,553.422
21,167.722,561.574
22,167.673,567.82
23,167.638,574.681
24,167.628,580.792
25,167.626,586.857
26,167.646,592.412
27,167.641,598.536
28,167.641,604.793
29,167.6,609.768
30,167.59,613.198
31,167.563,617.315
32,167.536,621.86
33,167.508,626.225
34,167.486,631.759
35,167.467,638.718
36,167.408,641.521
37,167.379,646.209
38,167.346,648.79
39,167.274,646.865
40,167.24,652.893
41,167.175,652.622
42,167.134,654.411
43,167.052,655.237
44,166.982,651.367
45,166.893,651.376
46,166.798,651.34
47,166.676,651.89
48,166.577,653.434
49,166.453,650.121
50,166.362,652.093
51,166.29,655.193
52,166.215,653.954
53,166.117,656.415
54,166.021,662.457
55,165.885,660.273
56,165.769,658.296
57,165.667,655.796
58,165.546,654.853
59,165.423,658.66
60,165.323,652.129
61,165.214,651.706
62,165.079,656.336
63,164.955,654.569
64,164.836,651.836
65,164.696,650.848
66,164.581,639.284
67,164.485,651.236
68,164.361,663.239
69,164.215,658.862
70,164.065,647.724
71,163.972,653.928
72,163.828,652.835
73,163.686,652.105
74,163.623,650.748
75,163.54,655.902
76,163.388,659.086
77,163.244,650.085
78,163.108,638.631
79,163.021,647.137
80,162.894,658.329
81,162.725,663.485
82,162.6,656.673
83,162.43,659.609
84,162.281,661.325
85,162.123,665.33
86,161.964,661.667
87,161.791,657.677
88,161.659,652.709
89,161.512,651.99
90,161.397,651.386
91,161.236,663.827
92,161.111,658.751
93,160.959,654.691
94,160.815,657.971
95,160.644,664.352
96,160.488,664.295
97,160.273,662.071
98,160.136,668.179
99,160.039,662.971
100,159.984,663.992
101,159.923,666.903
102,159.808,666.74
103,159.613,664.336
104,159.45,648.44
105,159.253,654.945
106,159.109,660.021
107,158.978,657.534
108,158.817,654.545
109,158.678,658.81
110,158.528,655.88
111,158.343,664.416
112,158.185,650.215
113,158.021,645.564
114,157.856,657.091
115,157.705,657.871
116,157.546,654.06
117,157.389,661.372
118,157.243,658.825
119,157.095,663.178
120,156.946,661.61
121,156.816,662.091
122,156.737,661.653
123,156.645,661.026
124,156.51,651.65
125,156.35,647.298
126,156.189,644.742
127,156.005,650.902
128,155.866,649.532
129,155.708,651.41
130,155.538,654.594
131,155.345,658.397
132,155.192,657.477
133,155.005,661.642
134,154.85,654.427
135,154.715,656.61
136,154.53,649.933
137,154.334,660.138
138,154.194,670.558
139,154.012,662.909
140,153.863,651.993
141,153.685,654.467
142,153.538,656.03
143,153.363,650.902
144,153.162,656.864
145,152.966,655.087
146,152.782,649.689
147,152.623,646.572
148,152.561,647.366
149,152.396,653.731
150,152.261,653.268
151,152.153,654.327
152,151.955,640.713
153,151.773,655.588
154,151.609,658.029
155,151.436,645.255
156,151.298,643.753
157,151.147,642.856
158,150.943,638.942
159,150.763,647.098
160,150.564,644.584
161,150.394,652.945
162,150.311,654.869
163,150.131,644.541
164,149.969,644.799
165,149.79,658.348
166,149.608,650.703
167,149.432,651.348
168,149.28,646.29
169,149.105,642.255
170,149.018,646.119
171,148.864,644.638
172,148.72,642.968
173,148.538,638.999
174,148.368,650.766
175,148.152,662.5
176,147.956,647.619
177,147.763,643.558
178,147.594,643.744
179,147.391,645.078
180,147.218,651.69
181,147.04,647.281
182,146.856,641.061
183,146.665,644.792
184,146.495,648.233
185,146.286,649.941
186,146.0984,655.135
187,145.864,651.764
188,145.687,647.493
189,145.5056,647.137
190,145.326,648.618
191,145.093,654.845
192,144.849,661.467
193,144.579,654.346
194,144.261,646.928
195,144.028,651.679
196,143.875,646.472
197,143.713,641.045
198,143.526,637.526
199,143.327,643.334
200,143.111,645.779
201,142.901,645.037
202,142.674,645.405
203,142.501,639.193
204,142.286,641.143
205,142.053,655.674
206,141.886,647.686
207,141.671,652.713
208,141.442,647.57
209,141.257,641.262
210,141.057,641.012
211,140.859,645.064
212,140.653,639.092
213,140.438,647.885
214,140.2391,648.999
215,140.018,652.414
216,139.785,659.186
217,139.573,657.684
218,139.351,657.546
219,139.152,643.38
220,138.923,644.619
221,138.79,637.203
222,138.613,650.236
223,138.416,648.733
224,138.207,637.743
225,138.005,648.827
226,137.749,650.705
227,137.538,640.568
228,137.301,644.332
229,137.047,649.301
230,136.786,655.821
231,136.573,651.211
232,136.333,636.93
233,136.088,638.642
234,135.865,641.857
235,135.586,647.053
236,135.288,648.999
237,135.025,641.329
238,134.793,631.541
239,134.506,644.984
240,134.228,647.087
241,133.883,640.034
242,133.556,655.079
243,133.293,659.938
244,133.08,666.293
245,132.9,650.428
246,132.632,649.235
247,132.381,645.896
248,132.109,650.192
249,131.808,652.166
250,131.559,645.481
251,131.301,638.529
252,131.065,649.785
253,130.8,657.483
254,130.544,653.054
255,130.247,645.625
256,129.939,656.295
257,129.668,648.677
258,129.415,642.615
259,129.113,636.906
260,128.841,638.234
261,128.515,638.746
262,128.247,625.435
263,127.942,638.044
264,127.667,647.122
265,127.399,646.373
266,127.091,645.221
267,126.795,655.33
268,126.496,664.623
269,126.202,655.198
270,125.915,651.573
271,125.641,655.498
272,125.361,667.29
273,125.086,657.059
274,124.836,649.24
275,124.569,667.677
276,124.3,659.682
277,124.086,647.18
278,123.874,655.937
279,123.685,661.536
280,123.519,646.013
281,123.369,678.66
282,123.228,674.63
283,123.134,710.284
284,123.015,745.294
285,122.946,760.874
286,122.872,814.472
287,122.811,822.279
288,122.779,830.106
289,122.696,837.585
290,122.626,853.95
291,122.562,866.499
292,122.541,876.748
293,122.572,883.23
294,122.552,882.814
295,122.537,886.182
296,122.5,890.13
297,122.485,892.587
298,122.467,892.181
299,122.461,894.032
300,122.454,894.874
301,122.44,895.616
302,122.404,898.41
303,122.424,900.504
304,122.425,899.755
305,122.396,900.02
306,122.389,899.542
307,122.37,902.399
308,122.382,902.71
309,122.366,900.851
310,122.352,899.53
311,122.356,901.043
312,122.357,901.891
313,122.371,901.867
314,122.395,902.242
315,122.411,902.793