File: Wood/Calibration_Data/TIFP+UCT/TIFP+UCT_Gasification_hor_perpendicular_60kW_R1.csv
Time (s),Mass (g),TC back 1 (K),TC back 2 (K),TC back 3 (K)
0,107.54,291.95,293.05,292.15
1,107.49,291.95,293.35,292.15
2,107.43,291.95,293.45,292.15
3,107.37,292.05,293.85,292.25
4,107.38,292.15,294.15,292.35
5,107.37,292.15,294.25,292.45
6,107.24,292.25,294.65,292.55
7,107.25,292.35,294.95,292.65
8,107.20,292.45,295.15,292.65
9,107.14,292.45,295.45,292.85
10,107.16,292.65,295.75,292.95
11,107.04,292.65,295.85,293.05
12,106.98,292.75,296.25,293.15
13,106.94,292.85,296.55,293.25
14,106.88,292.95,296.65,293.25
15,106.78,293.05,297.05,293.45
16,106.69,293.15,297.25,293.55
17,106.62,293.15,297.45,293.65
18,106.67,293.25,297.75,293.75
19,106.69,293.35,298.05,293.85
20,106.68,293.45,298.15,293.95
21,106.43,293.55,298.45,294.05
22,106.18,293.65,298.75,294.15
23,105.98,293.75,298.85,294.25
24,105.86,293.85,299.25,294.45
25,105.68,293.95,299.45,294.55
26,105.50,294.05,299.65,294.55
27,105.25,294.15,299.85,294.75
28,105.13,294.25,300.15,294.85
29,104.88,294.35,300.25,294.85
30,104.87,294.45,300.45,295.05
31,104.88,294.55,300.75,295.15
32,104.77,294.65,300.85,295.15
33,104.67,294.75,301.15,295.35
34,104.50,294.85,301.35,295.45
35,104.34,294.95,301.55,295.45
36,104.15,295.15,301.75,295.55
37,104.04,295.25,302.05,295.75
38,104.00,295.35,302.15,295.75
39,103.91,295.55,302.45,295.85
40,103.78,295.65,302.75,296.05
41,103.60,295.75,302.85,296.05
42,103.47,295.85,303.15,296.25
43,103.33,296.05,303.35,296.35
44,103.26,296.15,303.55,296.35
45,103.11,296.25,303.85,296.55
46,102.90,296.45,304.05,296.65
47,102.71,296.45,304.25,296.75
48,102.60,296.65,304.45,296.85
49,102.58,296.75,304.75,296.95
50,102.44,296.85,304.95,297.05
51,102.34,297.05,305.25,297.25
52,102.29,297.25,305.55,297.35
53,102.27,297.35,305.65,297.45
54,102.04,297.55,305.95,297.65
55,101.77,297.75,306.25,297.75
56,101.61,297.85,306.35,297.85
57,101.58,298.05,306.75,298.05
58,101.64,298.35,307.05,298.25
59,101.60,298.45,307.15,298.35
60,101.47,298.65,307.45,298.55
61,101.37,298.95,307.75,298.75
62,101.18,299.05,307.85,298.85
63,101.05,299.35,308.25,299.05
64,100.93,299.55,308.55,299.25
65,100.84,299.75,308.65,299.45
66,100.77,300.05,309.05,299.65
67,100.76,300.35,309.35,299.85
68,100.75,300.55,309.55,300.05
69,100.55,300.85,309.95,300.25
70,100.34,301.25,310.25,300.55
71,100.18,301.45,310.45,300.65
72,100.17,301.85,310.85,300.95
73,100.15,302.25,311.25,301.25
74,99.98,302.45,311.45,301.45
75,99.84,302.85,311.85,301.75
76,99.85,303.25,312.25,302.15
77,99.74,303.55,312.45,302.25
78,99.69,303.95,312.95,302.65
79,99.66,304.45,313.35,303.05
80,99.58,304.65,313.65,303.15
81,99.46,305.15,314.05,303.55
82,99.34,305.65,314.55,303.95
83,99.31,305.95,314.75,304.15
84,99.19,306.45,315.25,304.55
85,99.10,307.05,315.75,304.95
86,98.99,307.25,316.05,305.25
87,98.90,307.85,316.55,305.65
88,98.75,308.45,317.05,306.15
89,98.63,308.75,317.35,306.35
90,98.56,309.35,317.85,306.85
91,98.45,309.95,318.45,307.25
92,98.35,310.25,318.75,307.55
93,98.34,310.85,319.35,308.05
94,98.26,311.55,319.95,308.55
95,98.09,311.85,320.25,308.85
96,97.99,312.45,320.85,309.45
97,97.93,313.15,321.45,309.95
98,97.88,313.45,321.75,310.25
99,97.80,314.15,322.35,310.85
100,97.71,314.85,323.05,311.45
101,97.63,315.25,323.35,311.75
102,97.56,315.95,324.05,312.35
103,97.49,316.65,324.75,312.95
104,97.45,317.05,325.15,313.25
105,97.35,317.75,325.95,313.85
106,97.29,318.45,326.65,314.45
107,97.24,318.85,326.95,314.75
108,97.06,319.55,327.65,315.45
109,96.92,320.35,328.35,316.05
110,96.90,320.65,328.75,316.35
111,96.87,321.45,329.45,317.05
112,96.76,322.25,330.15,317.65
113,96.69,322.55,330.55,318.05
114,96.51,323.35,331.25,318.65
115,96.43,324.15,331.95,319.35
116,96.41,324.55,332.35,319.75
117,96.39,325.35,333.05,320.35
118,96.23,326.15,333.85,321.05
119,96.15,326.55,334.15,321.45
120,96.13,327.35,334.95,322.15
121,96.02,328.15,335.65,322.85
122,95.90,328.55,336.05,323.15
123,95.84,329.45,336.75,323.85
124,95.78,330.25,337.55,324.55
125,95.77,330.65,337.95,324.85
126,95.72,331.45,338.65,325.65
127,95.57,332.25,339.45,326.35
128,95.51,332.65,339.85,326.75
129,95.51,333.45,340.55,327.35
130,95.42,334.25,341.35,328.05
131,95.24,334.65,341.65,328.45
132,94.97,335.45,342.45,329.25
133,94.67,336.35,343.15,330.05
134,94.57,336.75,343.55,330.35
135,94.63,337.55,344.35,331.15
136,94.67,338.35,345.05,331.85
137,94.54,338.75,345.45,332.25
138,94.35,339.65,346.25,333.05
139,94.30,340.45,347.05,333.75
140,94.28,340.85,347.35,334.05
141,94.30,341.75,348.15,334.85
142,94.20,342.65,348.95,335.55
143,94.04,343.05,349.35,335.95
144,93.95,343.95,350.05,336.65
145,93.89,344.75,350.75,337.35
146,93.81,345.25,351.15,337.75
147,93.73,346.15,351.95,338.45
148,93.68,347.05,352.75,339.15
149,93.65,347.45,353.05,339.55
150,93.63,348.35,353.85,340.35
151,93.53,349.25,354.65,341.05
152,93.39,349.75,355.05,341.45
153,93.28,350.65,355.75,342.15
154,93.17,351.35,356.45,342.85
155,93.00,351.75,356.85,343.15
156,92.86,352.55,357.55,343.95
157,92.81,353.25,358.25,344.65
158,92.72,353.65,358.65,344.95
159,92.73,354.35,359.35,345.65
160,92.71,355.15,360.05,346.35
161,92.71,355.45,360.35,346.75
162,92.68,356.15,361.05,347.45
163,92.66,356.95,361.75,348.05
164,92.57,357.25,362.05,348.45
165,92.51,357.95,362.75,349.15
166,92.45,358.65,363.35,349.85
167,92.37,359.05,363.75,350.15
168,92.27,359.75,364.35,350.75
169,92.13,360.35,365.05,351.45
170,92.01,360.75,365.35,351.75
171,91.96,361.35,365.95,352.35
172,91.81,362.05,366.55,353.05
173,91.64,362.45,366.95,353.35
174,91.54,363.05,367.55,353.95
175,91.48,363.75,368.15,354.65
176,91.49,364.05,368.45,354.95
177,91.37,364.65,369.15,355.55
178,91.27,365.25,369.65,356.15
179,91.27,365.55,369.95,356.45
180,91.17,366.15,370.55,357.05
181,91.01,366.65,371.15,357.65
182,90.87,366.95,371.35,357.95
183,90.75,367.45,371.95,358.45
184,90.71,367.95,372.45,359.05
185,90.69,368.25,372.75,359.35
186,90.65,368.75,373.25,359.85
187,90.60,369.25,373.75,360.45
188,90.56,369.45,374.05,360.65
189,90.41,369.95,374.55,361.25
190,90.34,370.45,374.95,361.75
191,90.25,370.75,375.25,361.95
192,90.17,371.25,375.75,362.55
193,90.07,371.75,376.15,363.05
194,89.98,371.95,376.45,363.25
195,89.87,372.45,376.85,363.75
196,89.76,372.95,377.35,364.25
197,89.69,373.15,377.55,364.55
198,89.63,373.55,377.95,365.05
199,89.60,373.95,378.35,365.45
200,89.50,374.05,378.45,365.75
201,89.34,374.45,378.85,366.15
202,89.23,374.75,379.25,366.65
203,89.15,374.85,379.35,366.85
204,89.12,375.05,379.75,367.25
205,89.10,375.35,380.05,367.65
206,89.03,375.45,380.15,367.85
207,88.93,375.65,380.45,368.25
208,88.81,375.85,380.75,368.65
209,88.69,375.95,380.85,368.95
210,88.60,376.15,381.15,369.25
211,88.59,376.35,381.45,369.75
212,88.57,376.45,381.55,369.85
213,88.47,376.55,381.85,370.25
214,88.39,376.75,382.05,370.55
215,88.32,376.75,382.15,370.75
216,88.22,376.95,382.35,371.05
217,88.17,377.15,382.45,371.35
218,88.06,377.15,382.55,371.55
219,87.94,377.35,382.75,371.85
220,87.81,377.45,382.95,372.05
221,87.77,377.55,383.05,372.25
222,87.76,377.75,383.25,372.45
223,87.66,377.85,383.55,372.75
224,87.49,377.95,383.65,372.85
225,87.34,378.25,383.85,373.15
226,87.27,378.75,384.05,373.35
227,87.19,378.95,384.15,373.45
228,87.15,379.35,384.35,373.75
229,87.15,379.65,384.55,373.95
230,87.11,379.75,384.65,374.05
231,86.99,379.95,384.85,374.15
232,86.87,380.15,385.05,374.25
233,86.77,380.25,385.15,374.35
234,86.62,380.35,385.35,374.55
235,86.49,380.55,385.55,374.65
236,86.44,380.65,385.65,374.75
237,86.45,380.75,385.75,374.85
238,86.36,380.85,385.95,374.85
239,86.29,380.95,386.05,374.95
240,86.24,381.15,386.15,374.95
241,86.18,381.25,386.25,375.05
242,86.09,381.35,386.45,375.15
243,86.00,381.55,386.55,375.15
244,85.85,381.65,386.75,375.25
245,85.75,381.75,386.85,375.35
246,85.65,381.85,387.05,375.35
247,85.56,382.05,387.35,375.35
248,85.47,382.05,387.45,375.35
249,85.43,382.25,387.65,375.45
250,85.39,382.35,387.85,375.45
251,85.32,382.45,388.05,375.55
252,85.24,382.55,388.25,375.55
253,85.13,382.65,388.45,375.65
254,85.09,382.75,388.55,375.55
255,84.98,382.95,388.75,375.65
256,84.84,383.05,388.95,375.75
257,84.74,383.15,389.05,375.75
258,84.68,383.25,389.25,375.75
259,84.61,383.35,389.45,375.85
260,84.51,383.45,389.55,375.85
261,84.37,383.55,389.75,375.95
262,84.33,383.65,389.95,375.95
263,84.29,383.75,390.05,376.05
264,84.20,383.95,390.35,376.05
265,84.06,384.05,390.55,376.15
266,83.96,384.15,390.65,376.15
267,83.88,384.25,390.85,376.15
268,83.87,384.35,391.15,376.15
269,83.88,384.35,391.35,376.25
270,83.80,384.45,391.55,376.25
271,83.76,384.65,391.75,376.35
272,83.71,384.65,391.85,376.35
273,83.49,384.85,391.95,376.45
274,83.36,384.95,392.05,376.45
275,83.39,385.05,392.15,376.55
276,83.30,385.15,392.35,376.55
277,83.16,385.25,392.45,376.55
278,83.10,385.35,392.55,376.55
279,83.03,385.45,392.75,376.65
280,82.96,385.55,392.85,376.65
281,82.85,385.65,392.95,376.75
282,82.80,385.75,393.05,376.75
283,82.68,385.95,393.25,376.85
284,82.52,385.95,393.25,376.85
285,82.49,386.05,393.45,376.85
286,82.49,386.25,393.65,376.95
287,82.49,386.35,393.65,376.95
288,82.38,386.45,393.75,377.05
289,82.24,386.55,393.95,377.15
290,82.12,386.65,393.95,377.15
291,82.02,386.75,394.15,377.15
292,81.97,386.85,394.25,377.25
293,81.98,386.85,394.35,377.25
294,81.92,387.05,394.55,377.35
295,81.80,387.15,394.65,377.35
296,81.65,387.25,394.65,377.35
297,81.58,387.35,394.75,377.45
298,81.52,387.45,394.95,377.55
299,81.41,387.55,394.95,377.55
300,81.30,387.65,395.15,377.55
301,81.29,387.75,395.25,377.65
302,81.19,387.85,395.35,377.65
303,81.11,387.95,395.45,377.65
304,81.01,388.15,395.55,377.75
305,80.95,388.15,395.65,377.75
306,80.93,388.35,395.85,377.85
307,80.94,388.45,395.95,377.85
308,80.84,388.55,396.05,377.95
309,80.64,388.65,396.15,377.95
310,80.48,388.75,396.25,378.05
311,80.46,388.75,396.35,378.05
312,80.45,388.95,396.45,378.15
313,80.33,389.05,396.55,378.15
314,80.23,389.15,396.65,378.25
315,80.23,389.25,396.75,378.25
316,80.23,389.35,396.95,378.25
317,80.12,389.45,397.05,378.35
318,79.96,389.55,397.15,378.35
319,79.87,389.65,397.25,378.35
320,79.86,389.75,397.35,378.45
321,79.90,389.85,397.45,378.45
322,79.79,390.05,397.55,378.55
323,79.68,390.05,397.65,378.55
324,79.53,390.15,397.75,378.55
325,79.44,390.35,397.95,378.65
326,79.34,390.35,397.95,378.65
327,79.23,390.45,398.15,378.75
328,79.23,390.55,398.25,378.75
329,79.27,390.65,398.35,378.75
330,79.21,390.85,398.45,378.85
331,79.01,390.95,398.55,378.95
332,78.90,391.05,398.55,378.95
333,78.83,391.15,398.75,379.05
334,78.76,391.25,398.85,379.05
335,78.64,391.35,398.95,379.05
336,78.58,391.45,399.05,379.15
337,78.59,391.55,399.25,379.15
338,78.49,391.65,399.25,379.25
339,78.44,391.75,399.45,379.25
340,78.36,391.95,399.55,379.25
341,78.27,391.95,399.65,379.35
342,78.21,392.05,399.75,379.35
343,78.17,392.25,399.95,379.45
344,78.08,392.35,400.05,379.45
345,78.00,392.45,400.15,379.55
346,77.91,392.65,400.35,379.55
347,77.80,392.65,400.35,379.65
348,77.76,392.75,400.55,379.65
349,77.67,392.85,400.65,379.75
350,77.65,392.95,400.75,379.75
351,77.60,393.15,400.95,379.85
352,77.47,393.25,401.15,379.85
353,77.48,393.35,401.15,379.85
354,77.46,393.45,401.35,379.95
355,77.28,393.65,401.45,379.95
356,77.21,393.65,401.55,380.05
357,77.15,393.85,401.75,380.05
358,76.98,393.95,401.85,380.15
359,76.88,393.95,401.95,380.15
360,76.91,394.15,402.05,380.15
361,76.85,394.25,402.15,380.15
362,76.77,394.35,402.25,380.15
363,76.66,394.55,402.45,380.25
364,76.51,394.65,402.55,380.25
365,76.45,394.75,402.65,380.25
366,76.39,394.85,402.85,380.35
367,76.41,394.95,403.05,380.35
368,76.35,395.05,403.05,380.45
369,76.21,395.25,403.25,380.45
370,76.12,395.35,403.45,380.55
371,76.13,395.45,403.45,380.55
372,76.04,395.55,403.65,380.55
373,75.92,395.75,403.85,380.65
374,75.84,395.75,403.95,380.65
375,75.80,395.95,404.05,380.75
376,75.78,396.15,404.25,380.75
377,75.69,396.15,404.25,380.85
378,75.48,396.35,404.45,380.85
379,75.40,396.45,404.65,380.85
380,75.34,396.55,404.75,380.95
381,75.33,396.75,404.95,380.95
382,75.26,396.85,405.15,381.05
383,75.22,396.95,405.15,381.05
384,75.21,397.15,405.35,381.05
385,75.05,397.25,405.55,381.15
386,74.97,397.35,405.65,381.15
387,75.00,397.55,405.75,381.15
388,74.91,397.75,405.95,381.25
389,74.80,397.75,406.05,381.25
390,74.76,397.95,406.25,381.35
391,74.60,398.05,406.35,381.35
392,74.60,398.15,406.45,381.45
393,74.52,398.35,406.65,381.45
394,74.36,398.55,406.85,381.55
395,74.35,398.65,406.95,381.55
396,74.38,398.85,407.05,381.55
397,74.37,398.95,407.25,381.65
398,74.19,399.05,407.35,381.65
399,74.05,399.25,407.55,381.75
400,74.02,399.45,407.65,381.75
401,73.97,399.55,407.85,381.75
402,73.90,399.75,407.95,381.85
403,73.83,399.95,408.15,381.95
404,73.75,399.95,408.25,381.95
405,73.70,400.15,408.45,382.05
406,73.66,400.35,408.55,382.05
407,73.55,400.45,408.65,382.05
408,73.52,400.55,408.85,382.15
409,73.34,400.75,409.05,382.25
410,73.24,400.85,409.15,382.25
411,73.19,401.05,409.35,382.25
412,73.15,401.25,409.55,382.35
413,73.14,401.35,409.65,382.35
414,73.09,401.55,409.85,382.45
415,72.98,401.75,410.05,382.45
416,72.81,401.85,410.15,382.55
417,72.79,402.05,410.35,382.55
418,72.77,402.15,410.55,382.65
419,72.66,402.25,410.65,382.65
420,72.59,402.45,410.85,382.75
421,72.56,402.65,411.05,382.85
422,72.41,402.85,411.15,382.85
423,72.29,403.05,411.35,382.85
424,72.27,403.25,411.55,382.95
425,72.25,403.35,411.65,382.95
426,72.17,403.55,411.85,383.05
427,72.10,403.75,412.05,383.05
428,72.09,403.95,412.15,383.15
429,71.98,404.15,412.35,383.15
430,71.90,404.35,412.55,383.25
431,71.79,404.45,412.65,383.35
432,71.77,404.65,412.95,383.35
433,71.71,404.85,413.15,383.45
434,71.68,404.95,413.25,383.45
435,71.61,405.25,413.45,383.55
436,71.55,405.45,413.75,383.65
437,71.44,405.55,413.85,383.65
438,71.33,405.85,414.05,383.75
439,71.36,406.05,414.35,383.75
440,71.28,406.15,414.45,383.85
441,71.12,406.45,414.75,383.95
442,71.05,406.65,414.95,384.05
443,71.01,406.85,415.05,384.05
444,70.96,407.05,415.35,384.15
445,70.87,407.25,415.65,384.25
446,70.73,407.35,415.75,384.25
447,70.75,407.65,416.05,384.35
448,70.65,407.95,416.35,384.45
449,70.59,408.05,416.45,384.55
450,70.54,408.35,416.75,384.65
451,70.49,408.55,417.05,384.75
452,70.40,408.75,417.15,384.75
453,70.30,409.05,417.45,384.85
454,70.24,409.25,417.75,384.95
455,70.14,409.45,417.95,384.95
456,70.01,409.65,418.25,385.05
457,70.04,409.95,418.55,385.15
458,69.94,410.05,418.65,385.15
459,69.87,410.35,418.95,385.25
460,69.83,410.65,419.35,385.35
461,69.74,410.85,419.45,385.45
462,69.67,411.15,419.85,385.55
463,69.57,411.45,420.15,385.75
464,69.50,411.55,420.35,385.75
465,69.41,411.85,420.65,385.95
466,69.35,412.15,421.05,386.05
467,69.32,412.35,421.15,386.15
468,69.27,412.65,421.55,386.25
469,69.23,412.95,421.95,386.45
470,69.09,413.05,422.05,386.55
471,68.99,413.35,422.45,386.65
472,68.95,413.75,422.85,386.85
473,68.94,413.85,423.05,386.85
474,68.85,414.15,423.45,386.95
475,68.76,414.55,423.75,387.15
476,68.66,414.65,423.95,387.25
477,68.59,414.95,424.35,387.45
478,68.59,415.35,424.75,387.65
479,68.53,415.45,424.95,387.75
480,68.42,415.85,425.35,387.95
481,68.21,416.15,425.75,388.15
482,68.27,416.35,426.05,388.25
483,68.22,416.75,426.45,388.45
484,68.13,417.05,426.85,388.65
485,68.07,417.25,427.05,388.75
486,68.01,417.55,427.45,389.05
487,67.87,417.95,427.95,389.25
488,67.79,418.15,428.15,389.35
489,67.79,418.55,428.55,389.55
490,67.71,418.95,429.05,389.85
491,67.65,419.15,429.25,389.95
492,67.55,419.45,429.75,390.15
493,67.42,419.85,430.15,390.45
494,67.41,420.05,430.45,390.65
495,67.32,420.45,430.95,390.95
496,67.20,420.85,431.35,391.15
497,67.13,421.05,431.65,391.35
498,67.09,421.45,432.05,391.65
499,67.03,421.85,432.55,391.85
500,66.92,422.05,432.85,391.95
501,66.91,422.55,433.25,392.25
502,66.82,422.95,433.75,392.55
503,66.70,423.15,433.95,392.75
504,66.63,423.55,434.45,393.05
505,66.56,423.95,434.95,393.45
506,66.50,424.15,435.25,393.65
507,66.46,424.65,435.65,393.95
508,66.39,425.05,436.15,394.35
509,66.33,425.25,436.45,394.55
510,66.26,425.75,436.85,394.85
511,66.16,426.15,437.35,395.25
512,66.13,426.35,437.65,395.45
513,65.99,426.75,438.15,395.75
514,65.99,427.25,438.65,396.15
515,65.85,427.45,438.85,396.35
516,65.83,427.95,439.35,396.75
517,65.68,428.45,439.95,397.05
518,65.69,428.65,440.15,397.25
519,65.58,429.15,440.65,397.65
520,65.53,429.55,441.15,397.95
521,65.50,429.75,441.45,398.25
522,65.40,430.25,441.95,398.65
523,65.27,430.75,442.45,399.05
524,65.29,430.95,442.75,399.25
525,65.13,431.45,443.25,399.65
526,65.03,431.95,443.75,400.05
527,65.07,432.15,443.95,400.35
528,64.94,432.65,444.55,400.75
529,64.93,433.15,445.05,401.15
530,64.84,433.45,445.25,401.35
531,64.78,433.95,445.85,401.75
532,64.67,434.35,446.35,402.15
533,64.59,434.65,446.65,402.25
534,64.50,435.15,447.15,402.75
535,64.50,435.65,447.65,403.05
536,64.40,435.95,447.95,403.25
537,64.34,436.45,448.55,403.75
538,64.22,436.95,449.05,404.15
539,64.24,437.25,449.35,404.35
540,64.07,437.75,449.85,404.75
541,64.03,438.25,450.45,405.15
542,63.97,438.45,450.65,405.45
543,63.85,438.95,451.25,405.85
544,63.86,439.55,451.75,406.35
545,63.73,439.75,452.05,406.55
546,63.64,440.35,452.65,406.95
547,63.61,440.85,453.25,407.45
548,63.51,441.05,453.55,407.65
549,63.48,441.65,454.15,408.15
550,63.36,442.15,454.75,408.55
551,63.29,442.45,454.95,408.75
552,63.29,442.95,455.55,409.15
553,63.17,443.45,456.05,409.65
554,63.10,443.75,456.45,409.85
555,63.08,444.35,456.95,410.25
556,62.96,444.85,457.55,410.75
557,62.90,445.05,457.85,410.95
558,62.85,445.65,458.45,411.45
559,62.78,446.15,459.15,411.85
560,62.66,446.45,459.55,412.05
561,62.61,446.95,460.25,412.55
562,62.52,447.55,460.95,412.95
563,62.50,447.85,461.35,413.15
564,62.38,448.35,462.05,413.55
565,62.28,448.85,462.75,413.95
566,62.23,449.15,463.15,414.25
567,62.11,449.65,463.85,414.65
568,62.05,450.25,464.65,415.15
569,62.00,450.45,465.05,415.35
570,61.94,451.05,465.85,415.75
571,61.86,451.55,466.65,416.15
572,61.81,451.85,466.95,416.35
573,61.75,452.45,467.95,416.85
574,61.66,453.05,468.65,417.35
575,61.57,453.25,469.05,417.45
576,61.50,453.85,469.85,417.95
577,61.44,454.35,470.55,418.45
578,61.35,454.65,470.85,418.65
579,61.29,455.25,471.55,419.05
580,61.27,455.75,472.25,419.55
581,61.15,456.05,472.55,419.75
582,61.12,456.65,473.25,420.25
583,61.00,457.15,473.85,420.75
584,60.94,457.45,474.25,420.95
585,60.82,458.05,474.95,421.45
586,60.80,458.65,475.55,421.85
587,60.75,458.85,475.85,422.15
588,60.63,459.45,476.55,422.65
589,60.55,460.05,477.25,423.15
590,60.50,460.25,477.55,423.35
591,60.41,460.85,478.25,423.85
592,60.32,461.45,478.85,424.35
593,60.27,461.65,479.15,424.55
594,60.15,462.25,479.85,425.05
595,60.07,462.95,480.55,425.55
596,60.01,463.25,480.85,425.85
597,59.94,463.75,481.45,426.35
598,59.97,464.35,482.15,426.85
599,59.82,464.65,482.45,427.05
600,59.71,465.15,483.15,427.55
601,59.63,465.75,483.75,428.05
602,59.60,466.05,484.05,428.25
603,59.52,466.65,484.75,428.85
604,59.40,467.25,485.35,429.35
605,59.34,467.45,485.65,429.65
606,59.29,468.05,486.35,430.15
607,59.18,468.65,486.95,430.65
608,59.17,468.95,487.25,430.95
609,59.05,469.55,487.95,431.45
610,59.02,470.15,488.55,431.95
611,58.92,470.35,488.85,432.15
612,58.89,470.95,489.55,432.75
613,58.81,471.55,490.15,433.25
614,58.70,471.85,490.45,433.45
615,58.63,472.45,491.15,434.05
616,58.53,472.95,491.75,434.55
617,58.42,473.25,492.05,434.85
618,58.37,473.85,492.65,435.35
619,58.33,474.45,493.25,435.95
620,58.21,474.75,493.65,436.25
621,58.09,475.35,494.25,436.75
622,58.14,475.95,494.85,437.35
623,58.01,476.25,495.15,437.65
624,57.98,476.85,495.75,438.15
625,57.88,477.35,496.35,438.75
626,57.81,477.65,496.75,439.05
627,57.71,478.25,497.35,439.55
628,57.66,478.85,497.95,440.15
629,57.59,479.15,498.25,440.45
630,57.55,479.75,498.85,441.05
631,57.44,480.25,499.45,441.55
632,57.36,480.55,499.85,441.85
633,57.31,481.15,500.45,442.45
634,57.21,481.75,501.05,442.95
635,57.14,482.05,501.35,443.25
636,57.07,482.55,501.95,443.75
637,56.97,483.15,502.55,444.35
638,56.87,483.45,502.85,444.65
639,56.77,484.05,503.55,445.25
640,56.71,484.55,504.15,445.85
641,56.64,484.85,504.45,446.05
642,56.49,485.45,505.05,446.75
643,56.49,486.05,505.65,447.35
644,56.52,486.35,505.95,447.65
645,56.33,486.95,506.55,448.15
646,56.26,487.45,507.25,448.75
647,56.38,487.75,507.55,449.05
648,56.11,488.35,508.15,449.65
649,56.10,488.95,508.65,450.25
650,56.01,489.25,508.95,450.45
651,55.95,489.85,509.55,451.05
652,55.90,490.45,510.15,451.65
653,55.70,490.75,510.45,451.95
654,55.69,491.25,511.05,452.55
655,55.57,491.85,511.65,453.15
656,55.50,492.15,511.95,453.45
657,55.42,492.75,512.55,454.05
658,55.33,493.35,513.15,454.55
659,55.28,493.65,513.45,454.95
660,55.19,494.15,513.95,455.45
661,55.15,494.75,514.55,456.15
662,55.04,495.05,514.85,456.45
663,54.99,495.55,515.45,457.05
664,54.84,496.15,516.05,457.65
665,54.70,496.45,516.35,457.95
666,54.68,497.05,516.95,458.55
667,54.62,497.65,517.45,459.05
668,54.56,497.95,517.75,459.35
669,54.53,498.55,518.35,459.95
670,54.40,499.15,518.95,460.55
671,54.36,499.45,519.15,460.85
672,54.26,500.05,519.85,461.45
673,54.22,500.65,520.35,462.05
674,54.12,501.05,520.65,462.35
675,54.04,501.55,521.25,462.95
676,53.94,502.15,521.85,463.55
677,53.87,502.45,522.15,463.85
678,53.81,502.95,522.65,464.45
679,53.69,503.65,523.25,465.05
680,53.64,503.85,523.55,465.35
681,53.55,504.45,524.15,465.95
682,53.47,505.05,524.65,466.55
683,53.39,505.35,524.95,466.85
684,53.32,505.95,525.55,467.45
685,53.24,506.55,526.05,468.05
686,53.17,506.85,526.35,468.35
687,53.04,507.35,526.95,468.85
688,53.00,507.95,527.55,469.45
689,52.88,508.25,527.85,469.75
690,52.88,508.75,528.35,470.45
691,52.73,509.35,528.95,471.05
692,52.69,509.65,529.25,471.35
693,52.62,510.25,529.75,471.95
694,52.57,510.75,530.35,472.55
695,52.46,510.95,530.65,472.85
696,52.38,511.55,531.15,473.45
697,52.28,512.15,531.85,474.05
698,52.21,512.35,532.05,474.35
699,52.14,512.95,532.65,474.95
700,52.07,513.45,533.15,475.55
701,51.94,513.75,533.45,475.85
702,51.88,514.25,533.95,476.45
703,51.83,514.85,534.55,476.95
704,51.73,515.15,534.85,477.25
705,51.67,515.65,535.35,477.85
706,51.57,516.25,535.95,478.45
707,51.46,516.55,536.25,478.75
708,51.42,517.05,536.75,479.35
709,51.35,517.65,537.35,479.95
710,51.26,517.85,537.55,480.25
711,51.20,518.45,538.15,480.85
712,51.09,518.95,538.75,481.45
713,51.03,519.25,538.95,481.75
714,50.94,519.85,539.55,482.35
715,50.87,520.35,540.05,482.95
716,50.78,520.65,540.35,483.25
717,50.70,521.25,540.85,483.75
718,50.74,521.75,541.45,484.35
719,50.54,522.05,541.75,484.65
720,50.46,522.55,542.25,485.25
721,50.38,523.15,542.85,485.85
722,50.29,523.45,543.05,486.15
723,50.23,523.95,543.65,486.75
724,50.10,524.55,544.15,487.35
725,50.04,524.75,544.45,487.65
726,49.94,525.35,544.95,488.25
727,49.83,525.85,545.55,488.85
728,49.78,526.15,545.75,489.05
729,49.69,526.65,546.35,489.65
730,49.62,527.15,546.85,490.25
731,49.56,527.45,547.15,490.55
732,49.48,527.95,547.65,491.15
733,49.41,528.45,548.25,491.75
734,49.30,528.75,548.45,492.05
735,49.22,529.25,549.05,492.55
736,49.13,529.85,549.55,493.15
737,49.05,530.05,549.75,493.45
738,48.99,530.65,550.35,494.05
739,48.90,531.15,550.85,494.55
740,48.82,531.35,551.15,494.85
741,48.71,531.95,551.65,495.45
742,48.67,532.45,552.15,495.95
743,48.57,532.65,552.45,496.25
744,48.47,533.25,552.95,496.85
745,48.42,533.75,553.55,497.45
746,48.32,534.05,553.85,497.75
747,48.21,534.55,554.35,498.35
748,48.16,535.05,554.95,498.95
749,48.08,535.35,555.15,499.15
750,48.00,535.85,555.75,499.75
751,47.92,536.35,556.25,500.35
752,47.85,536.55,556.55,500.65
753,47.73,537.05,557.05,501.15
754,47.66,537.55,557.55,501.65
755,47.56,537.85,557.85,501.95
756,47.48,538.35,558.35,502.55
757,47.35,538.85,558.95,503.15
758,47.36,539.05,559.25,503.45
759,47.22,539.65,559.75,504.05
760,47.14,540.15,560.35,504.65
761,47.04,540.35,560.55,504.95
762,47.00,540.85,561.15,505.45
763,46.93,541.35,561.65,506.05
764,46.83,541.65,561.95,506.35
765,46.70,542.15,562.45,506.85
766,46.67,542.65,562.95,507.45
767,46.54,542.85,563.25,507.75
768,46.46,543.35,563.75,508.25
769,46.40,543.95,564.35,508.85
770,46.32,544.15,564.65,509.15
771,46.21,544.65,565.15,509.65
772,46.12,545.15,565.65,510.15
773,46.04,545.45,565.95,510.45
774,45.95,545.95,566.45,511.05
775,45.91,546.35,566.95,511.55
776,45.81,546.65,567.25,511.85
777,45.71,547.15,567.75,512.45
778,45.63,547.55,568.35,512.95
779,45.56,547.85,568.55,513.25
780,45.48,548.35,569.05,513.75
781,45.37,548.85,569.65,514.35
782,45.30,549.05,569.85,514.55
783,45.18,549.55,570.35,515.15
784,45.13,550.05,570.95,515.75
785,45.05,550.35,571.15,515.95
786,44.95,550.85,571.65,516.45
787,44.88,551.35,572.15,517.05
788,44.78,551.55,572.45,517.35
789,44.68,552.05,572.95,517.85
790,44.63,552.55,573.45,518.35
791,44.56,552.85,573.75,518.65
792,44.45,553.35,574.25,519.25
793,44.39,553.85,574.75,519.75
794,44.30,554.15,575.05,520.05
795,44.19,554.65,575.55,520.85
796,44.11,555.05,576.05,521.55
797,43.98,555.35,576.35,521.85
798,43.91,555.85,576.85,522.45
799,43.83,556.35,577.35,523.05
800,43.74,556.55,577.55,523.35
801,43.68,557.05,578.05,523.95
802,43.60,557.55,578.55,524.45
803,43.44,557.85,578.85,524.75
804,43.39,558.35,579.45,525.35
805,43.35,558.85,579.95,525.85
806,43.26,559.05,580.15,526.15
807,43.19,559.55,580.65,526.65
808,43.11,560.05,581.15,527.15
809,43.01,560.25,581.45,527.45
810,42.93,560.75,581.95,527.95
811,42.84,561.25,582.45,528.55
812,42.73,561.55,582.75,528.85
813,42.67,562.05,583.25,529.35
814,42.56,562.45,583.75,529.85
815,42.51,562.75,583.95,530.15
816,42.41,563.25,584.45,530.65
817,42.30,563.75,584.95,531.25
818,42.22,563.95,585.25,531.45
819,42.14,564.45,585.75,532.05
820,42.06,564.95,586.25,532.55
821,41.97,565.25,586.55,532.85
822,41.88,565.75,587.05,533.35
823,41.81,566.15,587.55,533.85
824,41.71,566.45,587.85,534.15
825,41.64,566.95,588.35,534.65
826,41.53,567.45,588.85,535.15
827,41.44,567.65,589.15,535.45
828,41.40,568.15,589.65,535.95
829,41.30,568.65,590.15,536.45
830,41.19,568.95,590.45,536.75
831,41.10,569.35,590.95,537.25
832,41.05,569.85,591.45,537.75
833,40.98,570.15,591.75,538.05
834,40.85,570.65,592.25,538.55
835,40.77,571.05,592.75,539.05
836,40.67,571.35,593.05,539.35
837,40.59,571.75,593.55,539.85
838,40.52,572.25,594.05,540.45
839,40.43,572.45,594.25,540.65
840,40.31,572.95,594.75,541.15
841,40.24,573.35,595.25,541.65
842,40.16,573.65,595.55,541.95
843,40.10,574.15,596.05,542.45
844,40.01,574.65,596.65,543.05
845,39.91,574.85,596.85,543.25
846,39.84,575.25,597.45,543.75
847,39.77,575.75,597.95,544.25
848,39.66,576.05,598.25,544.55
849,39.58,576.45,598.85,545.05
850,39.48,576.95,599.35,545.55
851,39.46,577.25,599.65,545.75
852,39.30,577.65,600.25,546.25
853,39.22,578.15,600.85,546.75
854,39.17,578.35,601.05,547.05
855,39.10,578.85,601.45,547.55
856,39.02,579.25,602.05,548.05
857,38.91,579.55,602.25,548.35
858,38.82,579.95,602.75,548.85
859,38.75,580.45,603.35,549.35
860,38.65,580.65,603.55,549.55
861,38.53,581.05,604.05,550.15
862,38.48,581.55,604.65,550.65
863,38.41,581.85,604.85,550.95
864,38.30,582.25,605.45,551.45
865,38.22,582.75,605.95,551.95
866,38.14,582.95,606.15,552.15
867,38.05,583.45,606.75,552.75
868,37.96,583.85,607.25,553.25
869,37.89,584.05,607.55,553.55
870,37.80,584.55,608.05,554.05
871,37.72,585.05,608.55,554.65
872,37.65,585.25,608.85,554.85
873,37.53,585.65,609.35,555.35
874,37.44,586.15,609.95,555.95
875,37.38,586.45,610.15,556.15
876,37.32,586.85,610.75,556.75
877,37.24,587.35,611.25,557.25
878,37.15,587.55,611.55,557.55
879,37.07,588.05,612.15,558.15
880,36.96,588.55,612.65,558.65
881,36.86,588.75,612.95,558.95
882,36.79,589.25,613.45,559.45
883,36.69,589.65,614.05,560.05
884,36.61,589.95,614.35,560.35
885,36.56,590.45,614.85,560.85
886,36.47,590.85,615.35,561.45
887,36.37,591.05,615.65,561.65
888,36.27,591.55,616.15,562.25
889,36.17,592.05,616.75,562.85
890,36.12,592.25,616.95,563.15
891,36.05,592.75,617.55,563.75
892,35.94,593.25,618.05,564.25
893,35.85,593.45,618.35,564.55
894,35.79,593.95,618.85,565.15
895,35.68,594.35,619.45,565.75
896,35.61,594.65,619.75,566.05
897,35.54,595.05,620.25,566.65
898,35.45,595.55,620.75,567.15
899,35.36,595.85,621.05,567.45
900,35.27,596.25,621.55,568.05
901,35.19,596.75,622.15,568.65
902,35.11,597.05,622.35,568.85
903,35.02,597.45,622.95,569.45
904,34.92,598.05,623.45,570.15
905,34.88,598.25,623.75,570.35
906,34.81,598.75,624.35,570.95
907,34.73,599.25,624.85,571.55
908,34.65,599.45,625.15,571.85
909,34.52,599.95,625.65,572.35
910,34.43,600.45,626.25,572.95
911,34.37,600.65,626.55,573.25
912,34.31,601.15,627.05,573.85
913,34.22,601.65,627.65,574.35
914,34.13,601.95,627.85,574.65
915,34.04,602.45,628.45,575.25
916,33.97,602.95,629.05,575.85
917,33.91,603.15,629.25,576.15
918,33.84,603.65,629.75,576.65
919,33.74,604.15,630.35,577.25
920,33.66,604.45,630.65,577.45
921,33.55,604.95,631.15,578.05
922,33.49,605.45,631.75,578.65
923,33.40,605.75,632.05,578.95
924,33.33,606.15,632.55,579.55
925,33.23,606.65,633.05,580.05
926,33.16,606.85,633.35,580.35
927,33.07,607.35,633.95,580.95
928,33.01,607.85,634.55,581.45
929,32.93,608.05,634.75,581.75
930,32.84,608.55,635.35,582.35
931,32.76,609.05,635.95,582.95
932,32.66,609.25,636.25,583.25
933,32.59,609.75,636.85,583.85
934,32.53,610.25,637.35,584.35
935,32.47,610.45,637.65,584.55
936,32.38,610.95,638.25,585.15
937,32.32,611.35,638.85,585.75
938,32.23,611.65,639.05,586.05
939,32.16,612.05,639.65,586.55
940,32.05,612.55,640.25,587.15
941,32.00,612.75,640.55,587.45
942,31.94,613.25,641.15,588.05
943,31.84,613.65,641.75,588.55
944,31.74,613.95,642.05,588.85
945,31.67,614.35,642.65,589.45
946,31.60,614.85,643.25,590.05
947,31.52,615.05,643.55,590.35
948,31.44,615.55,644.15,590.85
949,31.38,615.95,644.85,591.45
950,31.31,616.15,645.15,591.75
951,31.22,616.65,645.75,592.35
952,31.14,617.05,646.35,592.95
953,31.06,617.25,646.65,593.25
954,30.97,617.75,647.35,593.85
955,30.94,618.25,648.05,594.35
956,30.83,618.35,648.35,594.65
957,30.73,618.85,649.05,595.25
958,30.66,619.35,649.65,595.85
959,30.60,619.55,649.95,596.05
960,30.52,620.05,650.65,596.65
961,30.46,620.45,651.35,597.25
962,30.38,620.65,651.65,597.45
963,30.30,621.15,652.35,598.05
964,30.22,621.65,653.05,598.55
965,30.16,621.85,653.35,598.85
966,30.08,622.25,653.95,599.35
967,30.01,622.75,654.65,599.95
968,29.92,622.95,654.95,600.25
969,29.85,623.45,655.65,600.75
970,29.77,623.95,656.35,601.35
971,29.73,624.15,656.65,601.65
972,29.66,624.65,657.25,602.15
973,29.58,625.15,657.95,602.75
974,29.52,625.35,658.25,603.05
975,29.43,625.85,658.85,603.65
976,29.36,626.35,659.55,604.15
977,29.32,626.65,659.85,604.45
978,29.25,627.05,660.45,604.95
979,29.16,627.55,661.15,605.55
980,29.07,627.75,661.45,605.75
981,29.00,628.25,662.05,606.35
982,28.95,628.75,662.65,606.85
983,28.88,628.95,662.95,607.15
984,28.81,629.45,663.55,607.65
985,28.70,629.95,664.15,608.25
986,28.66,630.25,664.35,608.45
987,28.61,630.75,664.95,609.05
988,28.55,631.25,665.55,609.55
989,28.48,631.45,665.85,609.85
990,28.39,631.95,666.55,610.35
991,28.33,632.45,667.15,610.95
992,28.25,632.65,667.45,611.25
993,28.20,633.15,668.15,611.75
994,28.14,633.65,668.75,612.25
995,28.05,633.95,669.15,612.55
996,27.98,634.45,669.75,613.05
997,27.91,634.95,670.45,613.65
998,27.85,635.25,670.75,613.85
999,27.79,635.75,671.45,614.45
1000,27.70,636.25,672.15,615.05
1001,27.64,636.55,672.45,615.35
1002,27.58,637.05,673.05,615.85
1003,27.51,637.55,673.75,616.45
1004,27.46,637.85,674.05,616.75
1005,27.40,638.35,674.75,617.25
1006,27.36,638.95,675.35,617.85
1007,27.26,639.15,675.75,618.15
1008,27.17,639.75,676.45,618.65
1009,27.12,640.35,677.15,619.25
1010,27.08,640.65,677.45,619.55
1011,26.99,641.25,678.15,620.15
1012,26.92,641.75,678.85,620.65
1013,26.87,642.05,679.25,620.95
1014,26.83,642.65,679.95,621.65
1015,26.75,643.25,680.65,622.15
1016,26.70,643.55,681.05,622.45
1017,26.63,644.15,681.75,623.05
1018,26.54,644.85,682.45,623.65
1019,26.52,645.15,682.85,623.95
1020,26.45,645.85,683.65,624.55
1021,26.38,646.55,684.45,625.05
1022,26.33,646.95,684.85,625.45
1023,26.26,647.65,685.55,625.95
1024,26.20,648.35,686.35,626.65
1025,26.16,648.65,686.75,626.95
1026,26.11,649.45,687.55,627.55
1027,26.03,650.25,688.25,628.15
1028,25.98,650.65,688.75,628.55
1029,25.91,651.45,689.45,629.15
1030,25.85,652.25,690.25,629.85
1031,25.79,652.65,690.75,630.15
1032,25.70,653.45,691.65,630.85
1033,25.66,654.25,692.45,631.45
1034,25.63,654.75,692.85,631.85
1035,25.55,655.55,693.75,632.55
1036,25.50,656.55,694.65,633.25
1037,25.45,656.95,695.15,633.55
1038,25.39,657.95,695.95,634.25
1039,25.33,658.95,696.75,634.95
1040,25.28,659.45,697.15,635.35
1041,25.20,660.45,698.15,636.05
1042,25.14,661.55,698.95,636.85
1043,25.10,662.05,699.25,637.15
1044,25.03,663.15,700.15,637.85
1045,24.97,664.25,700.95,638.65
1046,24.93,664.85,701.45,639.05
1047,24.88,665.95,702.35,639.75
1048,24.80,667.15,703.35,640.55
1049,24.75,667.85,703.85,640.95
1050,24.69,669.05,704.75,641.75
1051,24.62,670.35,705.65,642.45
1052,24.58,670.95,706.15,642.85
1053,24.52,672.35,707.05,643.75
1054,24.49,673.65,708.15,644.55
1055,24.44,674.35,708.55,644.95
1056,24.38,675.75,709.45,645.75
1057,24.29,677.25,710.35,646.55
1058,24.27,678.05,710.75,646.95
1059,24.22,679.55,711.75,647.75
1060,24.15,681.15,712.65,648.65
1061,24.11,681.95,713.15,649.05
1062,24.06,683.55,714.15,649.95
1063,24.02,685.15,715.15,650.95
1064,23.99,685.95,715.65,651.35
1065,23.95,687.45,716.65,652.25
1066,23.91,689.05,717.55,653.25
1067,23.87,689.95,717.95,653.65
1068,23.83,691.55,718.85,654.55
1069,23.75,692.95,719.55,655.45
1070,23.70,693.75,720.05,655.85
1071,23.66,695.35,720.85,656.75
1072,23.63,696.85,721.65,657.65
1073,23.58,697.55,722.15,658.15
1074,23.53,698.85,722.95,659.05
1075,23.49,700.45,723.75,659.95
1076,23.42,701.25,724.25,660.45
1077,23.38,702.65,725.05,661.35
1078,23.36,704.05,725.95,662.35
1079,23.28,704.65,726.25,662.85
1080,23.25,705.95,727.05,663.85
1081,23.22,707.25,727.85,664.75
1082,23.16,707.85,728.25,665.25
1083,23.14,709.05,729.05,666.35
1084,23.13,710.35,729.85,667.35
1085,23.10,711.05,730.25,667.85
1086,23.04,712.15,731.05,668.95
1087,23.01,713.45,731.75,670.05
1088,22.98,714.05,732.15,670.55
1089,22.93,715.15,733.05,671.75
1090,22.88,716.35,733.75,672.95
1091,22.86,716.95,734.15,673.45
1092,22.85,718.05,734.95,674.65
1093,22.81,719.15,735.85,675.75
1094,22.78,719.65,736.25,676.45
1095,22.75,720.95,737.05,677.55
1096,22.69,722.05,737.75,678.85
1097,22.66,722.65,738.25,679.45
1098,22.65,723.65,739.05,680.85
1099,22.64,724.65,739.75,682.15
1100,22.59,725.15,740.15,682.85
1101,22.56,726.05,740.95,684.35
1102,22.53,727.15,741.65,685.75
1103,22.49,727.65,742.15,686.55
1104,22.45,728.55,742.95,688.15
1105,22.44,729.55,743.65,689.65
1106,22.42,730.05,744.05,690.45
1107,22.40,731.05,744.75,692.15
1108,22.38,732.05,745.55,693.85
1109,22.34,732.55,745.95,694.75
1110,22.32,733.45,746.75,696.55
1111,22.30,734.45,747.55,698.55
1112,22.26,734.95,747.95,699.55
1113,22.25,735.95,748.75,701.55
1114,22.23,737.05,749.55,703.55
1115,22.21,737.65,749.95,704.55
1116,22.18,738.75,750.65,706.75
1117,22.18,739.95,751.35,708.95
1118,22.16,740.55,751.75,710.15
1119,22.14,741.65,752.55,712.65
1120,22.14,742.75,753.25,715.15
1121,22.09,743.25,753.65,716.35
1122,22.06,744.45,754.45,719.05
1123,22.02,745.75,755.15,721.75
1124,22.02,746.25,755.45,723.15
1125,22.01,747.45,756.25,726.05
1126,22.00,748.65,756.95,728.85
1127,21.97,749.15,757.35,730.35
1128,21.96,750.25,758.05,733.45
1129,21.96,751.45,758.75,736.45
1130,21.96,751.95,759.15,737.95
1131,21.93,753.05,759.85,740.95
1132,21.91,754.15,760.55,743.85
1133,21.91,754.75,760.85,745.25
1134,21.88,755.95,761.55,748.05
1135,21.84,757.05,762.25,750.65
1136,21.84,757.65,762.65,751.85
1137,21.81,758.85,763.35,753.95
1138,21.83,759.85,764.05,755.25
1139,21.80,760.45,764.35,755.75
1140,21.80,761.55,764.85,756.55
1141,21.77,762.35,765.45,757.05
1142,21.77,762.75,765.75,757.15
1143,21.76,763.45,766.25,757.55
1144,21.75,764.15,766.65,757.95
1145,21.74,764.45,766.85,758.15
1146,21.74,765.15,767.25,758.55
1147,21.72,766.05,767.65,758.95
1148,21.72,766.55,767.75,759.05
1149,21.73,767.35,768.15,759.45
1150,21.72,768.15,768.55,759.95
1151,21.68,768.45,768.75,760.15
1152,21.69,769.05,769.15,760.45
1153,21.72,769.75,769.55,760.95
1154,21.71,770.15,769.75,761.05
1155,21.70,770.75,770.15,761.55
1156,21.72,771.25,770.55,762.05
1157,21.69,771.45,770.75,762.15
1158,21.65,772.05,771.15,762.65
1159,21.65,772.65,771.45,763.15
1160,21.62,772.95,771.65,763.35
1161,21.62,773.55,772.05,763.85
1162,21.62,774.05,772.35,764.25
1163,21.62,774.45,772.45,764.45
1164,21.60,774.85,772.85,764.95
1165,21.60,775.45,773.15,765.45
1166,21.60,775.65,773.35,765.75
1167,21.59,776.15,773.65,766.25
1168,21.58,776.65,773.95,766.65
1169,21.59,777.05,774.05,766.95
1170,21.59,777.75,774.45,767.25
1171,21.59,778.35,774.75,767.85
1172,21.60,778.55,774.95,768.15
1173,21.57,778.85,775.35,768.55
1174,21.55,779.25,775.55,768.95
1175,21.56,779.55,775.75,769.25
1176,21.55,780.15,776.05,769.65
1177,21.55,780.75,776.35,770.05
1178,21.54,781.15,776.55,770.25
1179,21.53,781.55,776.85,770.75
1180,21.52,781.85,777.15,771.15
1181,21.53,782.15,777.25,771.35
1182,21.51,782.65,777.55,771.85
1183,21.52,783.15,777.85,772.25
1184,21.52,783.35,777.95,772.45
1185,21.49,783.95,778.25,772.85
1186,21.47,784.35,778.55,773.25
1187,21.49,784.55,778.65,773.55
1188,21.48,784.95,778.85,773.85
1189,21.49,785.65,779.05,774.45
1190,21.48,785.85,779.15,774.55
1191,21.45,786.35,779.55,774.85
1192,21.44,786.65,779.95,775.35
1193,21.44,786.85,780.05,775.55
1194,21.46,787.35,780.35,775.95
1195,21.46,787.85,780.65,776.45
1196,21.45,788.05,780.75,776.75
1197,21.44,788.55,781.15,777.15
1198,21.41,788.85,781.35,777.55
1199,21.42,789.05,781.55,777.75
1200,21.43,789.45,781.75,778.15