File: Wood/Calibration_Data/TIFP+UCT/TIFP+UCT_STA_N2_20K_R1.csv
Time (s),Temperature (K),Mass (mg),Heat Flow Rate (W/g)
0,303.147,5.0232,-0.0036
2,303.1463,5.023,-0.0034
4,303.143,5.0223,-0.0034
6,303.146,5.0224,-0.0034
8,303.148,5.0226,-0.0035
10,303.1457,5.0229,-0.0036
12,303.148,5.0237,-0.0034
14,303.1487,5.0234,-0.0036
16,303.1497,5.0236,-0.0035
18,303.149,5.0234,-0.0034
20,303.1533,5.0232,-0.0033
22,303.1517,5.0234,-0.0035
24,303.153,5.0233,-0.0034
26,303.1537,5.0243,-0.0035
28,303.1527,5.024,-0.0033
30,303.154,5.0234,-0.0034
32,303.156,5.0238,-0.0034
34,303.157,5.0232,-0.0033
36,303.156,5.0233,-0.0035
38,303.1583,5.023,-0.0034
40,303.1563,5.0229,-0.0035
42,303.158,5.0232,-0.0035
44,303.1597,5.0222,-0.0033
46,303.16,5.0226,-0.0035
48,303.16,5.0217,-0.0034
50,303.1603,5.0221,-0.0035
52,303.1613,5.0226,-0.0035
54,303.165,5.0234,-0.0035
56,303.1643,5.0234,-0.0033
58,303.1643,5.023,-0.0034
60,303.161,5.023,-0.0035
62,303.1637,5.0243,-0.0035
64,303.1647,5.023,-0.0036
66,303.163,5.0223,-0.0035
68,303.1657,5.0229,-0.0035
70,303.17,5.022,-0.0034
72,303.17,5.022,-0.0033
74,303.17,5.0224,-0.0035
76,303.1667,5.0222,-0.0034
78,303.171,5.0222,-0.0035
80,303.1683,5.0231,-0.0034
82,303.171,5.0237,-0.0034
84,303.172,5.0232,-0.0034
86,303.1723,5.0227,-0.0035
88,303.168,5.0226,-0.0034
90,303.174,5.0223,-0.0035
92,303.1713,5.0217,-0.0035
94,303.171,5.0221,-0.0034
96,303.173,5.023,-0.0036
98,303.171,5.0216,-0.0035
100,303.1717,5.0216,-0.0034
102,303.173,5.0216,-0.0034
104,303.1737,5.0216,-0.0035
106,303.1717,5.0226,-0.0033
108,303.174,5.022,-0.0033
110,303.172,5.0232,-0.0033
112,303.1723,5.0242,-0.0033
114,303.172,5.0243,-0.0032
116,303.1737,5.0239,-0.0032
118,303.173,5.0229,-0.0034
120,303.174,5.023,-0.0035
122,303.1747,5.0241,-0.0033
124,303.1727,5.0231,-0.0033
126,303.175,5.0238,-0.0034
128,303.1747,5.0231,-0.0033
130,303.1743,5.0228,-0.0033
132,303.175,5.0231,-0.0033
134,303.1707,5.0222,-0.0032
136,303.1723,5.023,-0.0032
138,303.171,5.0217,-0.003
140,303.1737,5.0226,-0.0032
142,303.172,5.0222,-0.0031
144,303.173,5.0231,-0.0032
146,303.1723,5.0228,-0.0031
148,303.1723,5.0224,-0.003
150,303.17,5.0217,-0.0028
152,303.173,5.0229,-0.0028
154,303.1723,5.0222,-0.0028
156,303.171,5.0232,-0.0027
158,303.1733,5.0232,-0.0029
160,303.1723,5.0239,-0.0028
162,303.172,5.0242,-0.0028
164,303.173,5.0242,-0.0028
166,303.1743,5.0234,-0.0025
168,303.171,5.0232,-0.0026
170,303.1727,5.0221,-0.0024
172,303.1733,5.0221,-0.0026
174,303.172,5.0219,-0.0025
176,303.1703,5.0214,-0.0026
178,303.1707,5.0221,-0.0026
180,303.17,5.0232,-0.0026
182,303.1673,5.0226,-0.0025
184,303.1683,5.023,-0.0022
186,303.169,5.0233,-0.0023
188,303.166,5.0224,-0.0024
190,303.169,5.022,-0.0024
192,303.17,5.0226,-0.0023
194,303.169,5.022,-0.0024
196,303.1667,5.022,-0.0024
198,303.168,5.0233,-0.0024
200,303.168,5.022,-0.0023
202,303.166,5.022,-0.0022
204,303.165,5.0223,-0.0021
206,303.165,5.0223,-0.0023
208,303.166,5.0233,-0.0023
210,303.164,5.0222,-0.002
212,303.1653,5.0225,-0.0022
214,303.1647,5.0232,-0.0022
216,303.166,5.0232,-0.0022
218,303.1637,5.0232,-0.0022
220,303.164,5.0221,-0.0023
222,303.163,5.0232,-0.0023
224,303.1633,5.0228,-0.0022
226,303.163,5.0223,-0.0023
228,303.164,5.0232,-0.0022
230,303.1623,5.022,-0.0023
232,303.1627,5.0217,-0.0023
234,303.163,5.0219,-0.0023
236,303.1647,5.0225,-0.0022
238,303.162,5.0231,-0.0023
240,303.161,5.0233,-0.0022
242,303.1613,5.0231,-0.0024
244,303.1607,5.0226,-0.0025
246,303.161,5.0233,-0.0024
248,303.16,5.0229,-0.0024
250,303.161,5.022,-0.0023
252,303.159,5.0213,-0.0024
254,303.1607,5.0217,-0.0025
256,303.1617,5.0216,-0.0024
258,303.163,5.022,-0.0024
260,303.1603,5.022,-0.0026
262,303.1603,5.0209,-0.0025
264,303.16,5.022,-0.0026
266,303.1587,5.022,-0.0025
268,303.1597,5.022,-0.0026
270,303.159,5.022,-0.0023
272,303.1593,5.0233,-0.0025
274,303.1603,5.0224,-0.0026
276,303.163,5.0233,-0.0027
278,303.1613,5.0224,-0.0026
280,303.1603,5.0219,-0.0025
282,303.16,5.022,-0.0025
284,303.157,5.022,-0.0026
286,303.1577,5.0222,-0.0027
288,303.158,5.022,-0.0025
290,303.1613,5.0221,-0.0027
292,303.161,5.0216,-0.0027
294,303.162,5.022,-0.0027
296,303.16,5.021,-0.0027
298,303.1573,5.0206,-0.0026
300,303.161,5.0206,-0.0025
302,303.1573,5.0209,-0.0024
304,303.1567,5.0206,-0.0025
306,303.158,5.022,-0.0028
308,303.1593,5.0215,-0.0028
310,303.165,5.021,-0.0032
312,303.171,5.0202,-0.0038
314,303.1817,5.02,-0.0051
316,303.1967,5.0203,-0.006
318,303.219,5.0207,-0.0081
320,303.247,5.0207,-0.0101
322,303.2823,5.0211,-0.0133
324,303.328,5.0216,-0.0162
326,303.3853,5.02,-0.0199
328,303.4523,5.02,-0.0242
330,303.532,5.0209,-0.0293
332,303.6233,5.021,-0.0352
334,303.7317,5.0223,-0.0411
336,303.851,5.022,-0.0485
338,303.991,5.0212,-0.0557
340,304.147,5.0198,-0.0641
342,304.323,5.0205,-0.073
344,304.514,5.0195,-0.0825
346,304.7273,5.0202,-0.0925
348,304.957,5.0201,-0.1032
350,305.211,5.0194,-0.1147
352,305.4873,5.0205,-0.1271
354,305.787,5.0224,-0.1392
356,306.112,5.0199,-0.1527
358,306.46,5.0203,-0.1665
360,306.83,5.0215,-0.1806
362,307.2247,5.0216,-0.195
364,307.6427,5.0211,-0.2102
366,308.087,5.0214,-0.2259
368,308.5587,5.02,-0.2419
370,309.0563,5.0206,-0.2579
372,309.576,5.0215,-0.2746
374,310.1267,5.021,-0.2914
376,310.698,5.0207,-0.3079
378,311.296,5.0216,-0.3251
380,311.9183,5.0195,-0.3422
382,312.565,5.0197,-0.3593
384,313.233,5.0199,-0.3767
386,313.9307,5.0198,-0.3941
388,314.6463,5.0192,-0.4111
390,315.386,5.0201,-0.4283
392,316.1457,5.0196,-0.4456
394,316.927,5.02,-0.4623
396,317.728,5.021,-0.4791
398,318.5493,5.0208,-0.4957
400,319.3897,5.0194,-0.5122
402,320.245,5.0202,-0.528
404,321.1213,5.0193,-0.544
406,322.013,5.021,-0.5591
408,322.917,5.021,-0.5742
410,323.8377,5.0214,-0.5883
412,324.773,5.0215,-0.6022
414,325.717,5.0216,-0.616
416,326.6753,5.0208,-0.6286
418,327.646,5.0202,-0.6409
420,328.623,5.0209,-0.6529
422,329.6113,5.0202,-0.6638
424,330.6087,5.0201,-0.6742
426,331.607,5.0202,-0.6842
428,332.6207,5.0197,-0.6939
430,333.6343,5.0201,-0.7023
432,334.655,5.0203,-0.7104
434,335.6803,5.0205,-0.7181
436,336.7063,5.0204,-0.725
438,337.734,5.0207,-0.7309
440,338.7673,5.0182,-0.7365
442,339.7993,5.0191,-0.7415
444,340.833,5.0202,-0.7468
446,341.8647,5.0199,-0.7505
448,342.898,5.0189,-0.7547
450,343.926,5.0196,-0.7581
452,344.952,5.0187,-0.7608
454,345.9787,5.0181,-0.7634
456,347.0,5.0181,-0.7656
458,348.0163,5.0172,-0.7676
460,349.0317,5.017,-0.7686
462,350.04,5.0172,-0.7699
464,351.0433,5.0161,-0.7708
466,352.04,5.0153,-0.7713
468,353.033,5.0158,-0.7711
470,354.019,5.0156,-0.7708
472,354.997,5.0155,-0.77
474,355.966,5.0155,-0.7689
476,356.9333,5.015,-0.7675
478,357.8927,5.0145,-0.7655
480,358.839,5.0145,-0.7628
482,359.783,5.0143,-0.7607
484,360.718,5.0131,-0.7571
486,361.644,5.0131,-0.7532
488,362.5623,5.013,-0.7491
490,363.471,5.0118,-0.7447
492,364.374,5.0118,-0.7396
494,365.265,5.0116,-0.7339
496,366.1477,5.0112,-0.7283
498,367.024,5.0117,-0.7219
500,367.8943,5.0115,-0.7155
502,368.753,5.0102,-0.7083
504,369.603,5.0092,-0.7006
506,370.4473,5.0102,-0.693
508,371.282,5.0096,-0.6846
510,372.106,5.0079,-0.6763
512,372.9257,5.0085,-0.6677
514,373.734,5.0084,-0.6588
516,374.538,5.0074,-0.6496
518,375.3313,5.0066,-0.6406
520,376.122,5.0067,-0.6312
522,376.901,5.0067,-0.6218
524,377.674,5.0053,-0.6122
526,378.441,5.0054,-0.6025
528,379.198,5.005,-0.5929
530,379.9523,5.0035,-0.5833
532,380.6977,5.004,-0.5738
534,381.44,5.005,-0.5647
536,382.173,5.0036,-0.5554
538,382.9033,5.0036,-0.546
540,383.625,5.0049,-0.5371
542,384.3453,5.0052,-0.5286
544,385.057,5.005,-0.5197
546,385.764,5.0052,-0.5117
548,386.4677,5.0039,-0.5037
550,387.168,5.005,-0.4958
552,387.863,5.0039,-0.4888
554,388.555,5.0037,-0.4815
556,389.239,5.003,-0.4744
558,389.922,5.0039,-0.4678
560,390.6043,5.0039,-0.4612
562,391.279,5.0039,-0.4552
564,391.953,5.0032,-0.449
566,392.6247,5.0036,-0.4437
568,393.2953,5.0036,-0.4382
570,393.958,5.0025,-0.4333
572,394.6233,5.0025,-0.4283
574,395.286,5.0016,-0.4238
576,395.944,5.0025,-0.4192
578,396.6043,5.0025,-0.4155
580,397.261,5.0025,-0.4112
582,397.916,5.0012,-0.4077
584,398.5697,5.0022,-0.4043
586,399.2233,5.0022,-0.401
588,399.877,5.0022,-0.398
590,400.5283,5.0022,-0.3952
592,401.178,5.0022,-0.3926
594,401.831,5.0025,-0.39
596,402.479,5.0025,-0.3877
598,403.13,5.0025,-0.3856
600,403.779,5.0025,-0.3834
602,404.4293,5.0027,-0.3817
604,405.0773,5.0022,-0.3801
606,405.729,5.0022,-0.3783
608,406.379,5.0013,-0.3768
610,407.0317,5.0008,-0.3756
612,407.679,4.9998,-0.3743
614,408.332,4.9995,-0.3732
616,408.983,4.9995,-0.372
618,409.635,4.9992,-0.3707
620,410.288,4.9982,-0.3702
622,410.941,4.9991,-0.3691
624,411.595,4.9995,-0.3683
626,412.2523,4.9995,-0.3677
628,412.9053,4.9982,-0.3666
630,413.565,4.9995,-0.3658
632,414.2223,4.9995,-0.3656
634,414.8803,4.9996,-0.3649
636,415.54,4.9995,-0.3645
638,416.202,4.9995,-0.3642
640,416.8637,4.9995,-0.3637
642,417.526,4.9988,-0.3638
644,418.1887,4.9982,-0.3635
646,418.8527,4.9982,-0.3632
648,419.517,4.9968,-0.363
650,420.1853,4.9966,-0.3626
652,420.853,4.9955,-0.3625
654,421.521,4.9965,-0.3627
656,422.1903,4.9955,-0.3625
658,422.8597,4.9955,-0.3626
660,423.531,4.9941,-0.3628
662,424.202,4.995,-0.3633
664,424.8743,4.9941,-0.3634
666,425.548,4.9955,-0.3636
668,426.2203,4.9941,-0.3639
670,426.8933,4.9941,-0.3643
672,427.569,4.9951,-0.3646
674,428.2443,4.9944,-0.3648
676,428.92,4.9941,-0.3651
678,429.597,4.9928,-0.3652
680,430.2727,4.9941,-0.3651
682,430.9507,4.9941,-0.3653
684,431.628,4.9928,-0.3656
686,432.3067,4.9928,-0.3655
688,432.9877,4.9928,-0.3657
690,433.664,4.9925,-0.3653
692,434.3417,4.9915,-0.3655
694,435.0203,4.9915,-0.3652
696,435.7,4.9914,-0.3648
698,436.3773,4.9914,-0.3648
700,437.0567,4.9914,-0.3644
702,437.735,4.9901,-0.3644
704,438.414,4.9901,-0.3638
706,439.0937,4.9901,-0.3636
708,439.769,4.9901,-0.3632
710,440.451,4.989,-0.3629
712,441.1297,4.9888,-0.362
714,441.806,4.9888,-0.3615
716,442.4833,4.9888,-0.3609
718,443.161,4.9876,-0.3605
720,443.839,4.9874,-0.36
722,444.5153,4.9874,-0.3591
724,445.1913,4.986,-0.3589
726,445.868,4.9857,-0.3581
728,446.5433,4.9847,-0.357
730,447.218,4.9847,-0.3566
732,447.89,4.9847,-0.3557
734,448.5673,4.9847,-0.355
736,449.2403,4.9847,-0.3544
738,449.91,4.9847,-0.3538
740,450.5853,4.9847,-0.3532
742,451.2587,4.9847,-0.3525
744,451.928,4.9847,-0.3517
746,452.601,4.9824,-0.3511
748,453.27,4.9821,-0.3503
750,453.942,4.9821,-0.3496
752,454.6093,4.9807,-0.3488
754,455.279,4.9794,-0.3482
756,455.947,4.9794,-0.3476
758,456.614,4.978,-0.3475
760,457.2843,4.978,-0.3475
762,457.949,4.9767,-0.3481
764,458.616,4.9764,-0.3488
766,459.2833,4.9764,-0.3508
768,459.946,4.975,-0.3522
770,460.6143,4.974,-0.3507
772,461.2777,4.9736,-0.3484
774,461.942,4.9727,-0.3462
776,462.6057,4.9727,-0.3439
778,463.2697,4.9705,-0.3418
780,463.932,4.97,-0.3403
782,464.5957,4.9689,-0.3383
784,465.2557,4.9686,-0.3363
786,465.918,4.9686,-0.3352
788,466.5797,4.9675,-0.3334
790,467.2423,4.966,-0.332
792,467.902,4.966,-0.331
794,468.561,4.9646,-0.3295
796,469.2213,4.9646,-0.3282
798,469.883,4.9633,-0.3267
800,470.5393,4.9633,-0.3259
802,471.1987,4.9606,-0.3245
804,471.859,4.9593,-0.3238
806,472.518,4.9593,-0.3227
808,473.1743,4.9579,-0.3219
810,473.832,4.9559,-0.3205
812,474.491,4.955,-0.3198
814,475.1473,4.9539,-0.3189
816,475.805,4.9524,-0.3182
818,476.463,4.9509,-0.3172
820,477.1207,4.9495,-0.3167
822,477.777,4.9485,-0.316
824,478.435,4.9465,-0.3148
826,479.0947,4.9453,-0.3146
828,479.752,4.9437,-0.3138
830,480.4067,4.9408,-0.3129
832,481.0643,4.9392,-0.3125
834,481.723,4.9378,-0.3116
836,482.379,4.9362,-0.3111
838,483.0367,4.9347,-0.3102
840,483.691,4.9333,-0.3094
842,484.3503,4.9322,-0.3088
844,485.007,4.932,-0.308
846,485.663,4.9292,-0.3074
848,486.3213,4.9276,-0.3067
850,486.98,4.926,-0.3058
852,487.635,4.9245,-0.3049
854,488.2937,4.9225,-0.3037
856,488.9523,4.9212,-0.3032
858,489.611,4.9182,-0.3021
860,490.269,4.9161,-0.301
862,490.927,4.9149,-0.3006
864,491.585,4.9127,-0.2994
866,492.245,4.911,-0.2986
868,492.9033,4.9077,-0.2973
870,493.563,4.9054,-0.296
872,494.2213,4.9035,-0.2951
874,494.881,4.9019,-0.2938
876,495.54,4.9001,-0.2925
878,496.1997,4.8977,-0.2913
880,496.8583,4.8953,-0.29
882,497.519,4.8934,-0.2885
884,498.1793,4.8911,-0.2874
886,498.84,4.8889,-0.286
888,499.501,4.8865,-0.2849
890,500.1627,4.884,-0.2835
892,500.823,4.8807,-0.2822
894,501.485,4.8793,-0.2811
896,502.1453,4.8772,-0.2796
898,502.8063,4.8744,-0.2784
900,503.471,4.8714,-0.2769
902,504.1327,4.8696,-0.2757
904,504.7953,4.8678,-0.2744
906,505.457,4.8651,-0.2732
908,506.119,4.8626,-0.2717
910,506.782,4.8605,-0.2707
912,507.443,4.8584,-0.2691
914,508.108,4.8548,-0.2678
916,508.7717,4.8519,-0.2666
918,509.437,4.8482,-0.2652
920,510.0997,4.8465,-0.2643
922,510.7613,4.8446,-0.263
924,511.423,4.8415,-0.2616
926,512.0903,4.8396,-0.2605
928,512.7553,4.8345,-0.2594
930,513.418,4.8315,-0.2584
932,514.084,4.8282,-0.2575
934,514.7483,4.8245,-0.2564
936,515.411,4.8228,-0.2555
938,516.0777,4.8197,-0.2548
940,516.7437,4.8171,-0.2538
942,517.409,4.813,-0.2532
944,518.0713,4.8107,-0.2524
946,518.7387,4.8073,-0.2518
948,519.401,4.8049,-0.251
950,520.0653,4.8016,-0.25
952,520.7323,4.7977,-0.2496
954,521.399,4.7949,-0.249
956,522.0613,4.7899,-0.2484
958,522.7277,4.7859,-0.2476
960,523.394,4.7817,-0.2472
962,524.06,4.7777,-0.2469
964,524.7253,4.7734,-0.2468
966,525.39,4.7697,-0.2462
968,526.0557,4.7653,-0.2458
970,526.721,4.7617,-0.2452
972,527.386,4.7578,-0.2455
974,528.0533,4.7528,-0.245
976,528.7197,4.7482,-0.2448
978,529.384,4.7439,-0.2447
980,530.0517,4.7391,-0.2445
982,530.717,4.735,-0.2442
984,531.38,4.7311,-0.2443
986,532.0467,4.7252,-0.2441
988,532.7137,4.7198,-0.2437
990,533.379,4.7154,-0.2436
992,534.044,4.71,-0.2439
994,534.71,4.7056,-0.2441
996,535.376,4.7007,-0.2439
998,536.039,4.6942,-0.2442
1000,536.7033,4.6897,-0.2446
1002,537.371,4.6851,-0.2448
1004,538.0357,4.6796,-0.2448
1006,538.6983,4.674,-0.2449
1008,539.365,4.6683,-0.2452
1010,540.0297,4.6626,-0.2457
1012,540.6927,4.6578,-0.2463
1014,541.359,4.6524,-0.2466
1016,542.0223,4.6463,-0.2472
1018,542.686,4.6403,-0.2479
1020,543.351,4.6348,-0.2488
1022,544.0137,4.6287,-0.2492
1024,544.679,4.6216,-0.2497
1026,545.343,4.6156,-0.2509
1028,546.0077,4.609,-0.2518
1030,546.6707,4.6031,-0.2523
1032,547.334,4.5972,-0.2533
1034,547.9977,4.5902,-0.2542
1036,548.6617,4.5842,-0.2554
1038,549.326,4.5773,-0.2562
1040,549.9907,4.5695,-0.2571
1042,550.653,4.563,-0.2581
1044,551.317,4.557,-0.259
1046,551.9827,4.5499,-0.2599
1048,552.6447,4.5417,-0.2609
1050,553.307,4.5347,-0.2619
1052,553.9737,4.5269,-0.2629
1054,554.6363,4.5201,-0.2639
1056,555.3,4.513,-0.2649
1058,555.9643,4.5054,-0.2656
1060,556.6263,4.497,-0.2667
1062,557.292,4.4899,-0.2675
1064,557.9523,4.4819,-0.2682
1066,558.615,4.4728,-0.2693
1068,559.281,4.4657,-0.27
1070,559.9437,4.4581,-0.271
1072,560.6063,4.4512,-0.2719
1074,561.269,4.4442,-0.2728
1076,561.9343,4.4352,-0.2734
1078,562.5963,4.4262,-0.2741
1080,563.259,4.4183,-0.2746
1082,563.9227,4.4106,-0.2754
1084,564.588,4.4028,-0.2763
1086,565.252,4.3952,-0.277
1088,565.9143,4.3853,-0.2774
1090,566.5777,4.377,-0.278
1092,567.242,4.3691,-0.2787
1094,567.9053,4.3589,-0.2792
1096,568.5713,4.3503,-0.2801
1098,569.232,4.3419,-0.2802
1100,569.8973,4.333,-0.281
1102,570.5603,4.3249,-0.2814
1104,571.223,4.3146,-0.2817
1106,571.8873,4.3051,-0.2825
1108,572.5527,4.2963,-0.2829
1110,573.216,4.2878,-0.2834
1112,573.8797,4.2784,-0.284
1114,574.5443,4.2689,-0.2845
1116,575.208,4.26,-0.2851
1118,575.8707,4.2512,-0.2859
1120,576.5393,4.242,-0.2864
1122,577.2,4.2317,-0.2872
1124,577.867,4.2215,-0.2876
1126,578.531,4.2123,-0.2883
1128,579.194,4.2029,-0.2893
1130,579.8583,4.1918,-0.2899
1132,580.5233,4.1809,-0.2907
1134,581.192,4.1722,-0.2916
1136,581.8537,4.1619,-0.2931
1138,582.519,4.1527,-0.2939
1140,583.183,4.1415,-0.2949
1142,583.85,4.1306,-0.296
1144,584.5153,4.1202,-0.2974
1146,585.181,4.1104,-0.2985
1148,585.8473,4.099,-0.3003
1150,586.512,4.0891,-0.3019
1152,587.178,4.0787,-0.3034
1154,587.8447,4.0676,-0.3051
1156,588.5093,4.0563,-0.3071
1158,589.176,4.0462,-0.309
1160,589.8437,4.0343,-0.3113
1162,590.5077,4.0231,-0.3135
1164,591.172,4.0108,-0.316
1166,591.8417,3.9981,-0.3184
1168,592.5073,3.9862,-0.3213
1170,593.173,3.9744,-0.3238
1172,593.8403,3.9614,-0.3272
1174,594.508,3.9489,-0.3307
1176,595.174,3.9363,-0.3338
1178,595.8387,3.9229,-0.3375
1180,596.5067,3.9102,-0.3409
1182,597.171,3.898,-0.3444
1184,597.8373,3.8837,-0.3489
1186,598.5037,3.8705,-0.3527
1188,599.169,3.8573,-0.3572
1190,599.837,3.8441,-0.3615
1192,600.503,3.8297,-0.3662
1194,601.168,3.816,-0.3706
1196,601.836,3.801,-0.3752
1198,602.501,3.7861,-0.3801
1200,603.165,3.7728,-0.3847
1202,603.8327,3.7577,-0.3901
1204,604.4977,3.7423,-0.395
1206,605.166,3.728,-0.4001
1208,605.831,3.712,-0.4054
1210,606.4947,3.697,-0.4111
1212,607.161,3.6811,-0.4162
1214,607.8277,3.6652,-0.4215
1216,608.4927,3.6494,-0.4271
1218,609.157,3.6346,-0.4329
1220,609.8233,3.6167,-0.4382
1222,610.489,3.6013,-0.4439
1224,611.155,3.5858,-0.4493
1226,611.8213,3.5677,-0.4549
1228,612.487,3.55,-0.4606
1230,613.151,3.534,-0.4662
1232,613.8173,3.5159,-0.4715
1234,614.483,3.4995,-0.4771
1236,615.15,3.4825,-0.4821
1238,615.8167,3.4639,-0.4883
1240,616.4817,3.4462,-0.4933
1242,617.146,3.4278,-0.4984
1244,617.813,3.4086,-0.5038
1246,618.477,3.3913,-0.5091
1248,619.141,3.3738,-0.514
1250,619.808,3.3548,-0.5191
1252,620.4733,3.337,-0.5242
1254,621.14,3.3198,-0.5291
1256,621.8053,3.2997,-0.5342
1258,622.469,3.2815,-0.5388
1260,623.135,3.2637,-0.5434
1262,623.7983,3.2447,-0.5482
1264,624.464,3.2235,-0.5532
1266,625.129,3.2049,-0.558
1268,625.7943,3.185,-0.563
1270,626.46,3.1656,-0.568
1272,627.125,3.1469,-0.5726
1274,627.7907,3.1269,-0.5777
1276,628.4533,3.107,-0.5828
1278,629.118,3.0886,-0.5878
1280,629.7847,3.0685,-0.5933
1282,630.449,3.0508,-0.5988
1284,631.114,3.0305,-0.6043
1286,631.7787,3.0095,-0.6102
1288,632.445,2.99,-0.6165
1290,633.107,2.9706,-0.6226
1292,633.7737,2.9488,-0.6292
1294,634.436,2.9277,-0.6363
1296,635.101,2.9079,-0.6433
1298,635.7677,2.8861,-0.6505
1300,636.431,2.8654,-0.6582
1302,637.094,2.8459,-0.6662
1304,637.7573,2.8229,-0.6748
1306,638.422,2.8027,-0.6839
1308,639.089,2.7811,-0.6923
1310,639.7523,2.7593,-0.702
1312,640.4157,2.7368,-0.7123
1314,641.08,2.7153,-0.7216
1316,641.7423,2.692,-0.7322
1318,642.4073,2.6697,-0.7429
1320,643.07,2.6474,-0.7541
1322,643.7327,2.6237,-0.7654
1324,644.3973,2.5999,-0.777
1326,645.058,2.5797,-0.7888
1328,645.7233,2.5552,-0.8012
1330,646.385,2.5321,-0.8135
1332,647.048,2.5075,-0.8265
1334,647.7113,2.4813,-0.8393
1336,648.3737,2.4559,-0.8527
1338,649.038,2.4316,-0.8653
1340,649.7013,2.4062,-0.8783
1342,650.364,2.3819,-0.8906
1344,651.027,2.3561,-0.9036
1346,651.69,2.3294,-0.9166
1348,652.354,2.3034,-0.9289
1350,653.017,2.2787,-0.941
1352,653.6803,2.2508,-0.953
1354,654.3453,2.2241,-0.9645
1356,655.007,2.1983,-0.9757
1358,655.67,2.1699,-0.9867
1360,656.332,2.1422,-0.997
1362,656.998,2.1166,-1.0063
1364,657.6613,2.0874,-1.0145
1366,658.3243,2.0597,-1.0222
1368,658.989,2.0332,-1.0288
1370,659.6493,2.0054,-1.0344
1372,660.3147,1.9771,-1.0387
1374,660.978,1.9509,-1.042
1376,661.6423,1.9225,-1.0436
1378,662.3047,1.8968,-1.0435
1380,662.97,1.8712,-1.0417
1382,663.6337,1.8444,-1.038
1384,664.2983,1.8168,-1.0322
1386,664.961,1.7916,-1.0246
1388,665.6257,1.7642,-1.0143
1390,666.2893,1.7409,-1.0021
1392,666.954,1.7174,-0.9876
1394,667.6177,1.693,-0.971
1396,668.2847,1.6696,-0.9524
1398,668.946,1.6494,-0.9312
1400,669.6123,1.6267,-0.9078
1402,670.2787,1.6077,-0.8828
1404,670.942,1.589,-0.8553
1406,671.61,1.57,-0.8263
1408,672.2767,1.5517,-0.7952
1410,672.941,1.5358,-0.7635
1412,673.6063,1.5198,-0.7301
1414,674.2713,1.5059,-0.6961
1416,674.937,1.4931,-0.6617
1418,675.6047,1.4791,-0.6269
1420,676.2707,1.4677,-0.5928
1422,676.937,1.4579,-0.5581
1424,677.6023,1.4476,-0.5251
1426,678.2713,1.439,-0.4927
1428,678.937,1.4311,-0.4617
1430,679.6057,1.424,-0.4322
1432,680.274,1.4186,-0.4048
1434,680.94,1.4114,-0.3785
1436,681.6087,1.4056,-0.3553
1438,682.2767,1.4004,-0.3324
1440,682.945,1.3962,-0.3126
1442,683.6123,1.3924,-0.2945
1444,684.2793,1.3891,-0.2781
1446,684.946,1.3839,-0.2635
1448,685.615,1.3802,-0.2505
1450,686.2823,1.3781,-0.2389
1452,686.948,1.3751,-0.2291
1454,687.6177,1.3721,-0.2202
1456,688.2837,1.3688,-0.2125
1458,688.948,1.3661,-0.2057
1460,689.6177,1.3628,-0.2003
1462,690.2837,1.3599,-0.1947
1464,690.953,1.3573,-0.1901
1466,691.6193,1.3557,-0.1862
1468,692.286,1.3537,-0.1831
1470,692.953,1.3508,-0.1802
1472,693.6193,1.3488,-0.1773
1474,694.2827,1.3451,-0.1755
1476,694.952,1.3416,-0.1733
1478,695.6193,1.3386,-0.1715
1480,696.284,1.3371,-0.1702
1482,696.949,1.3355,-0.1688
1484,697.6177,1.3336,-0.1679
1486,698.2837,1.3301,-0.1673
1488,698.949,1.3272,-0.1662
1490,699.6153,1.3254,-0.1654
1492,700.2803,1.3226,-0.1647
1494,700.946,1.3204,-0.1649
1496,701.612,1.3181,-0.1643
1498,702.2783,1.3143,-0.1635
1500,702.945,1.3119,-0.1628
1502,703.6093,1.3106,-0.1627
1504,704.2763,1.3089,-0.1622
1506,704.941,1.307,-0.1617
1508,705.6053,1.3039,-0.1618
1510,706.2737,1.3022,-0.1613
1512,706.938,1.3004,-0.161
1514,707.6017,1.2982,-0.1615
1516,708.2683,1.2956,-0.1616
1518,708.933,1.293,-0.1615
1520,709.5973,1.2894,-0.1617
1522,710.264,1.2879,-0.1621
1524,710.928,1.286,-0.1619
1526,711.5917,1.284,-0.1625
1528,712.2583,1.2818,-0.1627
1530,712.923,1.2793,-0.1632
1532,713.589,1.2763,-0.1632
1534,714.2533,1.2748,-0.1638
1536,714.919,1.2728,-0.1644
1538,715.584,1.27,-0.1651
1540,716.2497,1.2682,-0.1661
1542,716.917,1.2667,-0.1668
1544,717.5803,1.2647,-0.1679
1546,718.2447,1.2621,-0.1691
1548,718.908,1.2602,-0.1703
1550,719.574,1.2586,-0.1715
1552,720.2383,1.256,-0.1733
1554,720.904,1.2536,-0.1746
1556,721.566,1.2521,-0.1763
1558,722.234,1.2498,-0.1778
1560,722.898,1.2467,-0.1796
1562,723.5617,1.2455,-0.1813
1564,724.2263,1.2454,-0.1825
1566,724.891,1.2429,-0.1847
1568,725.556,1.2411,-0.1865
1570,726.2187,1.238,-0.1886
1572,726.883,1.236,-0.1903
1574,727.5473,1.2343,-0.1924
1576,728.2113,1.2326,-0.1948
1578,728.877,1.2312,-0.1969
1580,729.539,1.2291,-0.1991
1582,730.2043,1.2272,-0.2017
1584,730.87,1.2266,-0.2043
1586,731.5327,1.225,-0.207
1588,732.1977,1.2227,-0.2097
1590,732.863,1.22,-0.2127
1592,733.5267,1.2184,-0.2151
1594,734.1903,1.2164,-0.2177
1596,734.855,1.2125,-0.2207
1598,735.5207,1.2106,-0.2234
1600,736.1837,1.2105,-0.2264
1602,736.848,1.2091,-0.2295
1604,737.514,1.2076,-0.2327
1606,738.1773,1.206,-0.236
1608,738.844,1.2046,-0.2391
1610,739.508,1.203,-0.2427
1612,740.1717,1.2014,-0.2459
1614,740.836,1.1996,-0.249
1616,741.5017,1.1967,-0.2522
1618,742.1663,1.1953,-0.2554
1620,742.83,1.1938,-0.2585
1622,743.4967,1.1923,-0.2622
1624,744.162,1.1907,-0.2662
1626,744.827,1.1891,-0.2698
1628,745.4923,1.1877,-0.2738
1630,746.157,1.1861,-0.2775
1632,746.822,1.1848,-0.2813
1634,747.489,1.1835,-0.2845
1636,748.152,1.1818,-0.2884
1638,748.818,1.1814,-0.2921
1640,749.484,1.1803,-0.2958
1642,750.1477,1.1789,-0.2991
1644,750.813,1.1773,-0.3028
1646,751.4783,1.1758,-0.3067
1648,752.142,1.1734,-0.31
1650,752.811,1.1732,-0.3138
1652,753.475,1.1718,-0.3174
1654,754.1433,1.1705,-0.321
1656,754.809,1.169,-0.3245
1658,755.4723,1.1682,-0.3277
1660,756.1373,1.1667,-0.3309
1662,756.804,1.1643,-0.334
1664,757.47,1.163,-0.3374
1666,758.1373,1.1619,-0.34
1668,758.803,1.1604,-0.3428
1670,759.4663,1.159,-0.3458
1672,760.133,1.1578,-0.3478
1674,760.802,1.1576,-0.3507
1676,761.4653,1.1563,-0.3533
1678,762.1303,1.1552,-0.3559
1680,762.797,1.1549,-0.3582
1682,763.4623,1.1535,-0.3608
1684,764.1283,1.1521,-0.3638
1686,764.794,1.1508,-0.3662
1688,765.4603,1.1495,-0.3682
1690,766.1277,1.1481,-0.37
1692,766.788,1.1476,-0.3714
1694,767.455,1.1466,-0.373
1696,768.123,1.1457,-0.3753
1698,768.79,1.1434,-0.3769
1700,769.4523,1.1424,-0.3788
1702,770.1187,1.1416,-0.3809
1704,770.786,1.1411,-0.383
1706,771.45,1.1403,-0.3851
1708,772.117,1.1397,-0.3876
1710,772.781,1.1389,-0.3902
1712,773.4473,1.1381,-0.3928
1714,774.1157,1.1367,-0.3949
1716,774.782,1.1354,-0.3976
1718,775.4483,1.134,-0.4001
1720,776.114,1.134,-0.4025
1722,776.781,1.1327,-0.4052
1724,777.4487,1.1322,-0.407
1726,778.116,1.1306,-0.4095
1728,778.78,1.1284,-0.412
1730,779.447,1.1284,-0.4138
1732,780.1163,1.128,-0.4161
1734,780.784,1.1278,-0.4185
1736,781.4483,1.1273,-0.4201
1738,782.119,1.1268,-0.4224
1740,782.786,1.1254,-0.4243
1742,783.4533,1.1246,-0.4262
1744,784.1207,1.1241,-0.4283
1746,784.79,1.1227,-0.4301
1748,785.456,1.1213,-0.4324
1750,786.124,1.1198,-0.4336
1752,786.793,1.1185,-0.4354
1754,787.4597,1.1171,-0.4369
1756,788.1273,1.1171,-0.4389
1758,788.796,1.1158,-0.4403
1760,789.463,1.1158,-0.4424
1762,790.1297,1.1145,-0.4439
1764,790.799,1.1145,-0.4457
1766,791.4687,1.1131,-0.4471
1768,792.1357,1.1118,-0.4489
1770,792.803,1.1104,-0.4505
1772,793.4727,1.1104,-0.4526
1774,794.1417,1.1104,-0.4545
1776,794.809,1.1091,-0.4568
1778,795.4773,1.1091,-0.4588
1780,796.1487,1.1084,-0.4612
1782,796.818,1.1067,-0.4637
1784,797.487,1.1067,-0.466
1786,798.1557,1.1054,-0.4688
1788,798.824,1.1051,-0.4706
1790,799.4943,1.1037,-0.4726
1792,800.164,1.1024,-0.4746
1794,800.834,1.1024,-0.4768
1796,801.5034,1.1011,-0.4788
1798,802.1723,1.1011,-0.4801
1800,802.843,1.1007,-0.4821
1802,803.5107,1.0997,-0.4835
1804,804.1823,1.0984,-0.485
1806,804.853,1.0984,-0.4863
1808,805.523,1.0981,-0.488
1810,806.193,1.097,-0.4896
1812,806.865,1.0957,-0.4913
1814,807.533,1.0957,-0.4924
1816,808.202,1.0943,-0.4939
1818,808.872,1.094,-0.4963
1820,809.544,1.093,-0.498
1822,810.2143,1.0916,-0.4998
1824,810.883,1.0903,-0.5015
1826,811.5526,1.089,-0.5035
1828,812.2213,1.089,-0.5056
1830,812.891,1.089,-0.5078
1832,813.5617,1.0876,-0.5104
1834,814.2333,1.0876,-0.5133
1836,814.902,1.0863,-0.5151
1838,815.573,1.0859,-0.5173
1840,816.2417,1.085,-0.5195
1842,816.912,1.085,-0.5218
1844,817.582,1.085,-0.5242
1846,818.2507,1.085,-0.5259
1848,818.922,1.0823,-0.5282
1850,819.5913,1.0823,-0.5309
1852,820.2587,1.0823,-0.533
1854,820.927,1.0809,-0.535
1856,821.5967,1.0807,-0.5365
1858,822.2656,1.0796,-0.5378
1860,822.934,1.0793,-0.5402
1862,823.603,1.0782,-0.5412
1864,824.2727,1.0782,-0.5422
1866,824.942,1.0769,-0.5434
1868,825.6083,1.0769,-0.5451
1870,826.2773,1.0744,-0.5469
1872,826.945,1.0742,-0.5485
1874,827.6126,1.0734,-0.5497
1876,828.283,1.0729,-0.5513
1878,828.95,1.0729,-0.5533
1880,829.6173,1.0715,-0.5565
1882,830.2864,1.0715,-0.5594
1884,830.953,1.0705,-0.5623
1886,831.6224,1.0709,-0.5663
1888,832.2897,1.0709,-0.5697
1890,832.957,1.0695,-0.5735
1892,833.626,1.0682,-0.578
1894,834.2933,1.0681,-0.5816
1896,834.962,1.0668,-0.5856
1898,835.6263,1.0668,-0.5891
1900,836.2927,1.0655,-0.5929
1902,836.961,1.0655,-0.5966
1904,837.6253,1.0628,-0.5997
1906,838.2913,1.0628,-0.603
1908,838.955,1.0628,-0.6062
1910,839.6193,1.0615,-0.6099
1912,840.285,1.0601,-0.6126
1914,840.95,1.0601,-0.6157
1916,841.6137,1.0601,-0.619
1918,842.2793,1.0588,-0.6215
1920,842.942,1.0588,-0.6245
1922,843.6063,1.0586,-0.6271
1924,844.269,1.0574,-0.6287
1926,844.933,1.0574,-0.6318
1928,845.5963,1.0562,-0.6338
1930,846.2613,1.0561,-0.6364
1932,846.922,1.0554,-0.6393
1934,847.5857,1.0548,-0.6416
1936,848.248,1.0534,-0.6435
1938,848.911,1.0534,-0.6456
1940,849.5743,1.0532,-0.6465
1942,850.2377,1.0521,-0.6477
1944,850.903,1.0521,-0.6503
1946,851.566,1.0507,-0.6541
1948,852.2313,1.049,-0.6588
1950,852.894,1.0481,-0.6648
1952,853.56,1.049,-0.6718
1954,854.2273,1.0494,-0.68
1956,854.892,1.0481,-0.6882
1958,855.5593,1.0481,-0.6974
1960,856.2267,1.0481,-0.7073
1962,856.893,1.0481,-0.7172
1964,857.5587,1.0476,-0.7273
1966,858.2233,1.0467,-0.7378
1968,858.891,1.0467,-0.7481
1970,859.555,1.0459,-0.7581
1972,860.22,1.0454,-0.7681
1974,860.886,1.045,-0.7782
1976,861.5513,1.044,-0.788
1978,862.2153,1.044,-0.7976
1980,862.879,1.044,-0.8073
1982,863.545,1.0429,-0.8167
1984,864.2093,1.0413,-0.8263
1986,864.873,1.0413,-0.8357
1988,865.5393,1.04,-0.8448
1990,866.2027,1.0396,-0.8539
1992,866.869,1.0387,-0.8623
1994,867.5313,1.0387,-0.8709
1996,868.1947,1.04,-0.879
1998,868.859,1.0387,-0.8873
2000,869.5237,1.0387,-0.8956
2002,870.1853,1.0373,-0.9038
2004,870.848,1.0373,-0.9119
2006,871.5133,1.0367,-0.9195
2008,872.1777,1.0355,-0.9282
2010,872.842,1.035,-0.9355
2012,873.5053,1.035,-0.9438
2014,874.1703,1.0349,-0.9505
2016,874.833,1.0336,-0.9583
2018,875.4993,1.0336,-0.9655
2020,876.162,1.0323,-0.9722
2022,876.828,1.0323,-0.9791
2024,877.492,1.0319,-0.9852
2026,878.1583,1.031,-0.9913
2028,878.82,1.0306,-0.9975
2030,879.4847,1.0298,-0.9984
2032,880.151,1.031,-0.9968
2034,880.815,1.031,-0.9923
2036,881.4797,1.031,-0.986
2038,882.143,1.0283,-0.9775
2040,882.808,1.0283,-0.9671
2042,883.4723,1.0273,-0.955
2044,884.135,1.0269,-0.9425
2046,884.801,1.0269,-0.9286
2048,885.4657,1.0256,-0.9153
2050,886.13,1.0256,-0.9017
2052,886.795,1.0242,-0.8887
2054,887.46,1.0242,-0.876
2056,888.1224,1.0242,-0.8638
2058,888.788,1.0229,-0.8528
2060,889.4517,1.0229,-0.8425
2062,890.1183,1.0229,-0.8328
2064,890.783,1.0216,-0.8253
2066,891.4463,1.0213,-0.8181
2068,892.1087,1.0202,-0.8117
2070,892.773,1.0202,-0.8062
2072,893.4373,1.0202,-0.8019
2074,894.099,1.0189,-0.798
2076,894.763,1.0189,-0.7939
2078,895.426,1.0189,-0.7908
2080,896.0897,1.0189,-0.7885
2082,896.754,1.0179,-0.787
2084,897.4167,1.0175,-0.785
2086,898.0797,1.0175,-0.7843
2088,898.744,1.0169,-0.7838
2090,899.4087,1.0162,-0.7832
2092,900.072,1.0162,-0.7846
2094,900.736,1.0162,-0.7852
2096,901.4013,1.015,-0.7858
2098,902.064,1.0149,-0.7874
2100,902.73,1.0135,-0.7881
2102,903.3933,1.0135,-0.7894
2104,904.0597,1.0134,-0.7913
2106,904.725,1.0122,-0.7931
2108,905.3927,1.0122,-0.795
2110,906.0567,1.0115,-0.797
2112,906.723,1.0098,-0.7986
2114,907.3897,1.0098,-0.8027
2116,908.0563,1.0097,-0.8063
2118,908.724,1.0082,-0.8097
2120,909.388,1.0082,-0.8136
2122,910.0563,1.0077,-0.8188
2124,910.722,1.0068,-0.8232
2126,911.388,1.0068,-0.8264
2128,912.0536,1.0064,-0.8294
2130,912.719,1.0055,-0.8334
2132,913.385,1.0055,-0.8367
2134,914.0497,1.0047,-0.8409
2136,914.716,1.0041,-0.8442
2138,915.3843,1.0036,-0.8479
2140,916.051,1.0041,-0.8511
2142,916.718,1.0041,-0.8541
2144,917.382,1.0041,-0.8568
2146,918.051,1.0041,-0.8595
2148,918.719,1.0028,-0.862
2150,919.3864,1.0028,-0.8645
2152,920.053,1.0028,-0.8674
2154,920.725,1.0018,-0.8698
2156,921.392,1.0001,-0.8727
2158,922.0596,1.0001,-0.875
2160,922.727,1.0004,-0.878
2162,923.3967,1.0001,-0.88
2164,924.0657,1.0001,-0.8823
2166,924.735,1.0001,-0.8842
2168,925.4053,0.9997,-0.8866
2170,926.0743,0.9988,-0.8892
2172,926.743,0.9988,-0.8912
2174,927.4153,0.9988,-0.8939
2176,928.0853,0.998,-0.8963
2178,928.755,0.9974,-0.8988
2180,929.426,0.9961,-0.9014
2182,930.0963,0.9961,-0.9035
2184,930.768,0.9961,-0.9058
2186,931.4373,0.9961,-0.908
2188,932.109,0.9961,-0.9097
2190,932.779,0.9961,-0.9118
2192,933.4497,0.9961,-0.9141
2194,934.1203,0.9956,-0.9158
2196,934.791,0.9947,-0.9179
2198,935.462,0.9947,-0.9196
2200,936.134,0.9947,-0.9226
2202,936.803,0.9947,-0.9262
2204,937.4743,0.9934,-0.9294
2206,938.1433,0.9934,-0.9331
2208,938.814,0.9934,-0.9372
2210,939.4854,0.9921,-0.9419
2212,940.1547,0.9921,-0.9459
2214,940.824,0.9934,-0.9504
2216,941.4927,0.9921,-0.9552
2218,942.164,0.9921,-0.9593
2220,942.833,0.9921,-0.9634
2222,943.5006,0.9917,-0.9679
2224,944.1717,0.9906,-0.9709
2226,944.841,0.9904,-0.974
2228,945.5067,0.9904,-0.9772
2230,946.178,0.9904,-0.9802
2232,946.847,0.9904,-0.9824
2234,947.5157,0.9902,-0.9846
2236,948.1833,0.989,-0.9871
2238,948.853,0.989,-0.9888
2240,949.5203,0.989,-0.9906
2242,950.1883,0.989,-0.9933
2244,950.858,0.9877,-0.9949
2246,951.5237,0.9877,-0.9971
2248,952.192,0.9877,-0.9985
2250,952.858,0.9877,-1.0004
2252,953.528,0.9872,-1.003
2254,954.196,0.9867,-1.005
2256,954.862,0.9867,-1.0072
2258,955.5297,0.9879,-1.0096
2260,956.1967,0.988,-1.0118
2262,956.865,0.9877,-1.0141
2264,957.5307,0.9863,-1.0168
2266,958.1963,0.9863,-1.0193
2268,958.865,0.9863,-1.0225
2270,959.5313,0.9863,-1.0253
2272,960.1987,0.985,-1.0281
2274,960.864,0.985,-1.031
2276,961.5313,0.985,-1.0341
2278,962.1987,0.985,-1.0386
2280,962.864,0.985,-1.0418
2282,963.5323,0.9843,-1.0458
2284,964.199,0.9843,-1.0502
2286,964.866,0.983,-1.0552
2288,965.5317,0.983,-1.0599
2290,966.1977,0.9819,-1.0643
2292,966.864,0.9816,-1.0698
2294,967.531,0.9816,-1.0743
2296,968.1977,0.9809,-1.0789
2298,968.862,0.9817,-1.0833
2300,969.528,0.9817,-1.0855
2302,970.1933,0.9817,-1.0895
2304,970.86,0.9817,-1.093
2306,971.525,0.9803,-1.0965
2308,972.191,0.9803,-1.1004
2310,972.855,0.9803,-1.1038
2312,973.52,0.9794,-1.1076
2314,974.182,0.979,-1.1111
2316,974.839,0.979,-1.1172
2318,975.4883,0.979,-1.128
2320,976.1196,0.979,-1.14
2322,976.736,0.979,-1.1551
2324,977.3317,0.9777,-1.1754
2326,977.9063,0.9776,-1.2006
2328,978.456,0.977,-1.2304
2330,978.9763,0.9774,-1.2666
2332,979.472,0.9776,-1.307
2334,979.938,0.9766,-1.352
2336,980.3756,0.9763,-1.4024
2338,980.7837,0.9762,-1.4569
2340,981.162,0.9763,-1.515
2342,981.507,0.9763,-1.5773
2344,981.8207,0.9763,-1.6436
2346,982.106,0.9753,-1.7174
2348,982.3584,0.9763,-1.7904
2350,982.5777,0.9765,-1.8653
2352,982.771,0.9763,-1.9408
2354,982.931,0.9761,-2.0188
2356,983.063,0.9756,-2.0975
2357,983.109,0.9752,-2.1292