File: Wood/Calibration_Data/TIFP+UCT/TIFP+UCT_Wood_Gasification_60kW_hor_perpendicular_R2.csv
Time (s),Mass (g),TC back 1 (K),TC back 2 (K),TC back 3 (K)
0,114.35,298.05,298.05,295.65
1,114.22,298.15,298.15,295.75
2,114.09,298.35,298.35,296.05
3,113.92,298.55,298.45,296.25
4,113.71,298.65,298.55,296.35
5,113.58,298.85,298.75,296.55
6,113.48,299.05,299.05,296.65
7,113.41,299.15,299.05,296.75
8,113.36,299.35,299.35,296.95
9,113.31,299.55,299.55,297.15
10,113.29,299.65,299.65,297.15
11,113.19,299.75,299.95,297.35
12,113.17,299.95,300.15,297.45
13,113.10,300.05,300.25,297.55
14,113.01,300.25,300.45,297.65
15,112.92,300.35,300.65,297.85
16,112.87,300.45,300.75,297.85
17,112.80,300.65,300.95,298.05
18,112.71,300.85,301.15,298.15
19,112.63,300.95,301.25,298.25
20,112.50,301.15,301.45,298.35
21,112.41,301.25,301.65,298.45
22,112.32,301.35,301.75,298.45
23,112.23,301.55,301.95,298.65
24,112.08,301.75,302.15,298.75
25,111.96,301.85,302.25,298.75
26,111.86,302.05,302.45,298.85
27,111.75,302.15,302.65,298.95
28,111.65,302.25,302.75,299.05
29,111.49,302.45,302.95,299.15
30,111.36,302.65,303.15,299.25
31,111.20,302.75,303.15,299.35
32,111.07,302.95,303.35,299.45
33,110.94,303.05,303.55,299.55
34,110.78,303.15,303.65,299.55
35,110.64,303.35,303.85,299.65
36,110.44,303.55,304.05,299.85
37,110.37,303.65,304.15,299.85
38,110.24,303.85,304.35,299.95
39,110.12,304.05,304.55,300.05
40,109.97,304.15,304.55,300.15
41,109.86,304.25,304.75,300.25
42,109.70,304.45,304.95,300.35
43,109.56,304.55,305.05,300.45
44,109.45,304.75,305.25,300.45
45,109.38,304.95,305.45,300.65
46,109.23,305.05,305.55,300.65
47,109.06,305.25,305.75,300.75
48,108.91,305.55,305.95,300.95
49,108.75,305.65,306.05,300.95
50,108.72,305.85,306.25,301.15
51,108.64,306.05,306.45,301.25
52,108.52,306.15,306.55,301.35
53,108.45,306.45,306.75,301.45
54,108.36,306.65,306.95,301.55
55,108.11,306.75,307.05,301.65
56,108.04,307.05,307.35,301.75
57,107.74,307.25,307.55,301.95
58,107.66,307.45,307.65,302.05
59,107.67,307.65,307.95,302.15
60,107.48,307.95,308.15,302.35
61,107.37,308.15,308.35,302.45
62,107.33,308.45,308.55,302.65
63,107.25,308.75,308.85,302.75
64,107.14,308.85,308.95,302.85
65,107.01,309.15,309.25,303.05
66,106.93,309.55,309.55,303.25
67,106.80,309.75,309.75,303.35
68,106.69,310.05,310.05,303.65
69,106.64,310.45,310.45,303.85
70,106.54,310.65,310.55,303.95
71,106.46,311.05,310.95,304.15
72,106.30,311.45,311.25,304.45
73,106.23,311.65,311.45,304.55
74,106.17,312.05,311.85,304.85
75,105.98,312.45,312.25,305.15
76,105.95,312.65,312.45,305.25
77,105.83,313.15,312.85,305.55
78,105.82,313.65,313.25,305.85
79,105.66,313.85,313.45,306.05
80,105.55,314.35,313.95,306.35
81,105.32,314.85,314.45,306.75
82,105.36,315.15,314.65,306.85
83,105.24,315.65,315.15,307.25
84,105.08,316.15,315.65,307.65
85,105.05,316.45,315.95,307.85
86,105.00,316.95,316.45,308.25
87,104.92,317.55,316.95,308.65
88,104.82,317.85,317.25,308.85
89,104.75,318.45,317.85,309.25
90,104.66,319.05,318.35,309.75
91,104.47,319.35,318.65,309.95
92,104.42,319.95,319.25,310.45
93,104.36,320.55,319.85,310.95
94,104.17,320.85,320.25,311.15
95,104.14,321.55,320.85,311.65
96,104.13,322.15,321.45,312.15
97,104.02,322.45,321.75,312.45
98,103.90,323.15,322.45,313.05
99,103.87,323.85,323.05,313.55
100,103.75,324.15,323.45,313.85
101,103.62,324.85,324.15,314.35
102,103.56,325.55,324.85,315.05
103,103.48,325.85,325.15,315.35
104,103.40,326.55,325.85,315.95
105,103.26,327.25,326.55,316.55
106,103.17,327.65,326.95,316.85
107,103.09,328.35,327.65,317.55
108,103.01,329.05,328.45,318.15
109,102.88,329.45,328.75,318.55
110,102.86,330.15,329.55,319.15
111,102.78,330.95,330.25,319.85
112,102.68,331.35,330.65,320.15
113,102.61,332.05,331.35,320.85
114,102.52,332.75,332.15,321.55
115,102.44,333.15,332.55,321.95
116,102.26,333.95,333.25,322.65
117,102.19,334.65,334.05,323.45
118,102.19,335.05,334.45,323.75
119,102.04,335.85,335.25,324.45
120,101.97,336.55,336.05,325.25
121,101.99,336.95,336.45,325.65
122,101.85,337.75,337.25,326.35
123,101.74,338.55,338.05,327.15
124,101.68,338.95,338.45,327.55
125,101.68,339.75,339.25,328.25
126,101.51,340.55,340.05,329.05
127,101.47,340.95,340.45,329.45
128,101.38,341.85,341.35,330.25
129,101.29,342.85,342.05,331.05
130,101.25,343.35,342.55,331.45
131,101.17,344.25,343.35,332.25
132,101.03,345.05,344.15,333.15
133,101.00,345.45,344.55,333.55
134,100.94,346.35,345.35,334.35
135,100.87,347.15,346.15,335.15
136,100.77,347.55,346.65,335.65
137,100.64,348.45,347.45,336.45
138,100.63,349.25,348.25,337.35
139,100.51,349.65,348.65,337.75
140,100.40,350.55,349.45,338.55
141,100.33,351.45,350.15,339.45
142,100.19,351.85,350.55,339.85
143,100.08,352.55,351.35,340.75
144,100.05,353.35,352.05,341.55
145,99.99,353.75,352.45,341.95
146,99.97,354.45,353.15,342.85
147,99.83,355.15,353.95,343.75
148,99.73,355.55,354.25,344.15
149,99.70,356.25,354.95,345.05
150,99.60,357.05,355.65,345.85
151,99.44,357.35,356.05,346.25
152,99.43,358.15,356.75,347.15
153,99.36,358.85,357.45,347.95
154,99.23,359.15,357.75,348.35
155,99.13,359.95,358.45,349.15
156,99.12,360.65,359.05,349.95
157,99.03,360.95,359.45,350.35
158,98.90,361.65,360.05,351.15
159,98.77,362.35,360.65,351.95
160,98.77,362.65,361.05,352.35
161,98.72,363.45,361.65,353.05
162,98.53,364.15,362.25,353.85
163,98.46,364.55,362.55,354.25
164,98.41,365.25,363.15,354.95
165,98.34,366.05,363.75,355.65
166,98.28,366.55,364.05,356.05
167,98.14,367.45,364.65,356.75
168,98.04,368.35,365.25,357.45
169,97.99,368.75,365.45,357.85
170,97.89,369.65,366.05,358.55
171,97.87,370.45,366.65,359.25
172,97.79,370.75,366.95,359.55
173,97.69,371.55,367.55,360.25
174,97.50,372.25,368.15,360.85
175,97.47,372.55,368.45,361.25
176,97.41,373.15,369.05,361.85
177,97.32,373.75,369.65,362.45
178,97.21,374.05,369.95,362.75
179,97.10,374.55,370.55,363.35
180,97.06,375.05,371.15,363.95
181,97.04,375.25,371.45,364.35
182,96.91,375.75,372.05,364.85
183,96.80,376.15,372.55,365.45
184,96.75,376.35,372.85,365.75
185,96.61,376.75,373.25,366.35
186,96.58,377.05,373.75,366.85
187,96.54,377.25,373.95,367.15
188,96.45,377.55,374.45,367.75
189,96.43,377.95,374.85,368.25
190,96.26,378.05,374.95,368.55
191,96.18,378.25,375.45,369.05
192,96.13,378.55,375.75,369.45
193,95.97,378.65,375.95,369.75
194,95.90,378.85,376.35,370.25
195,95.79,379.05,376.65,370.65
196,95.75,379.15,376.85,370.95
197,95.66,379.35,377.15,371.35
198,95.67,379.55,377.45,371.75
199,95.55,379.65,377.65,371.95
200,95.39,379.75,377.95,372.35
201,95.28,379.95,378.25,372.75
202,95.31,380.05,378.35,372.95
203,95.28,380.15,378.65,373.25
204,95.11,380.35,378.85,373.65
205,94.94,380.35,379.05,373.85
206,94.95,380.55,379.25,374.15
207,94.91,380.65,379.55,374.45
208,94.80,380.75,379.65,374.65
209,94.67,380.85,379.85,374.95
210,94.66,380.95,380.05,375.25
211,94.59,381.05,380.15,375.35
212,94.44,381.15,380.35,375.65
213,94.29,381.35,380.55,375.95
214,94.22,381.45,380.65,376.05
215,94.22,381.55,380.85,376.35
216,94.18,381.75,381.05,376.65
217,94.07,381.85,381.15,376.75
218,93.97,381.95,381.35,377.05
219,94.02,382.05,381.45,377.25
220,93.91,382.15,381.55,377.35
221,93.72,382.25,381.75,377.55
222,93.69,382.45,381.95,377.75
223,93.65,382.55,382.05,377.85
224,93.45,382.75,382.25,377.95
225,93.34,382.95,382.45,378.15
226,93.29,383.05,382.55,378.25
227,93.19,383.35,382.75,378.35
228,93.08,383.55,382.95,378.55
229,93.05,383.65,383.05,378.65
230,93.02,383.85,383.15,378.75
231,92.83,384.05,383.25,378.85
232,92.68,384.15,383.35,378.85
233,92.68,384.25,383.45,378.95
234,92.66,384.45,383.65,379.15
235,92.50,384.45,383.65,379.15
236,92.29,384.65,383.85,379.25
237,92.26,384.75,383.95,379.25
238,92.28,384.85,383.95,379.35
239,92.15,384.95,384.05,379.35
240,92.03,385.05,384.15,379.45
241,92.00,385.05,384.15,379.45
242,91.95,385.15,384.25,379.55
243,91.90,385.35,384.35,379.65
244,91.83,385.35,384.45,379.65
245,91.72,385.45,384.45,379.75
246,91.65,385.55,384.65,379.85
247,91.61,385.65,384.65,379.85
248,91.53,385.75,384.75,379.95
249,91.47,385.85,384.85,379.95
250,91.33,385.85,384.85,380.05
251,91.21,385.95,384.95,380.05
252,91.08,386.05,385.05,380.15
253,91.05,386.05,385.15,380.15
254,90.99,386.15,385.15,380.25
255,90.89,386.25,385.25,380.25
256,90.81,386.35,385.35,380.35
257,90.72,386.45,385.45,380.35
258,90.63,386.55,385.55,380.45
259,90.59,386.65,385.55,380.45
260,90.56,386.75,385.65,380.45
261,90.39,386.75,385.75,380.55
262,90.30,386.85,385.75,380.55
263,90.27,386.95,385.85,380.65
264,90.12,387.05,385.95,380.65
265,90.02,387.15,386.05,380.75
266,90.00,387.25,386.05,380.75
267,89.96,387.35,386.15,380.85
268,89.88,387.35,386.15,380.85
269,89.82,387.45,386.25,380.95
270,89.71,387.55,386.35,380.95
271,89.64,387.55,386.45,380.95
272,89.62,387.65,386.55,381.05
273,89.48,387.75,386.55,381.05
274,89.41,387.75,386.65,381.15
275,89.42,387.85,386.65,381.15
276,89.25,387.95,386.75,381.25
277,89.16,388.05,386.85,381.25
278,89.18,388.15,386.95,381.25
279,89.05,388.25,386.95,381.35
280,88.91,388.25,387.05,381.35
281,88.91,388.35,387.15,381.45
282,88.85,388.45,387.15,381.55
283,88.75,388.55,387.25,381.55
284,88.71,388.55,387.35,381.55
285,88.64,388.65,387.45,381.65
286,88.51,388.75,387.45,381.65
287,88.37,388.85,387.55,381.75
288,88.31,388.95,387.65,381.75
289,88.29,388.95,387.65,381.75
290,88.28,389.05,387.75,381.85
291,88.43,389.15,387.85,381.85
292,88.19,389.25,387.85,381.85
293,87.93,389.35,387.95,381.95
294,87.81,389.45,388.05,382.05
295,87.80,389.45,388.15,382.05
296,87.70,389.55,388.25,382.15
297,87.62,389.65,388.25,382.15
298,87.54,389.65,388.35,382.15
299,87.46,389.75,388.45,382.25
300,87.36,389.85,388.55,382.25
301,87.30,389.95,388.55,382.35
302,87.26,390.05,388.65,382.35
303,87.16,390.15,388.75,382.45
304,87.12,390.15,388.75,382.45
305,87.16,390.25,388.85,382.45
306,87.14,390.35,388.95,382.55
307,86.96,390.35,388.95,382.55
308,86.90,390.45,389.05,382.55
309,86.92,390.55,389.15,382.65
310,86.84,390.65,389.15,382.65
311,86.68,390.75,389.25,382.75
312,86.57,390.85,389.35,382.75
313,86.48,390.85,389.45,382.75
314,86.39,390.95,389.45,382.85
315,86.22,391.15,389.55,382.95
316,86.20,391.15,389.65,382.95
317,86.21,391.25,389.75,382.95
318,86.06,391.35,389.75,383.05
319,85.93,391.35,389.85,383.05
320,85.85,391.45,389.95,383.15
321,85.86,391.55,390.05,383.25
322,85.75,391.65,390.15,383.25
323,85.66,391.75,390.15,383.35
324,85.60,391.85,390.25,383.35
325,85.56,391.95,390.35,383.35
326,85.56,392.05,390.35,383.45
327,85.50,392.05,390.45,383.45
328,85.40,392.15,390.55,383.45
329,85.35,392.25,390.65,383.55
330,85.32,392.35,390.75,383.55
331,85.16,392.45,390.75,383.55
332,85.00,392.55,390.85,383.65
333,84.87,392.65,390.95,383.65
334,84.84,392.65,391.05,383.75
335,84.79,392.75,391.05,383.75
336,84.73,392.85,391.15,383.75
337,84.62,392.85,391.25,383.85
338,84.57,392.95,391.25,383.85
339,84.56,393.05,391.35,383.95
340,84.49,393.15,391.45,383.95
341,84.39,393.25,391.45,383.95
342,84.37,393.35,391.55,384.05
343,84.24,393.35,391.65,384.05
344,84.19,393.45,391.75,384.15
345,84.16,393.55,391.85,384.25
346,84.10,393.65,391.85,384.25
347,84.04,393.75,391.95,384.25
348,84.02,393.85,392.05,384.35
349,83.95,393.85,392.15,384.35
350,84.08,394.05,392.25,384.35
351,83.98,394.15,392.35,384.45
352,83.73,394.15,392.35,384.45
353,83.53,394.25,392.45,384.55
354,83.46,394.35,392.55,384.55
355,83.40,394.45,392.55,384.55
356,83.29,394.55,392.65,384.65
357,83.17,394.65,392.75,384.65
358,83.10,394.65,392.75,384.65
359,83.11,394.75,392.85,384.75
360,83.08,394.95,392.95,384.75
361,83.06,394.95,393.05,384.85
362,83.06,395.05,393.15,384.85
363,83.03,395.15,393.15,384.95
364,82.94,395.25,393.25,384.95
365,82.81,395.35,393.35,385.05
366,82.71,395.45,393.45,385.05
367,82.70,395.45,393.45,385.15
368,82.66,395.55,393.55,385.15
369,82.56,395.65,393.65,385.15
370,82.46,395.75,393.75,385.25
371,82.37,395.85,393.85,385.25
372,82.24,395.95,393.95,385.35
373,82.13,396.05,393.95,385.35
374,82.07,396.15,394.05,385.45
375,82.03,396.25,394.15,385.45
376,81.89,396.35,394.25,385.55
377,81.80,396.45,394.35,385.55
378,81.77,396.55,394.45,385.65
379,81.79,396.65,394.45,385.65
380,81.73,396.75,394.55,385.75
381,81.63,396.85,394.65,385.75
382,81.56,396.85,394.75,385.75
383,81.48,396.95,394.85,385.85
384,81.39,397.05,394.85,385.85
385,81.29,397.15,394.95,385.85
386,81.25,397.25,395.05,385.95
387,81.16,397.35,395.15,385.95
388,80.97,397.35,395.25,386.05
389,80.89,397.55,395.35,386.05
390,80.88,397.65,395.35,386.15
391,80.89,397.75,395.45,386.15
392,80.82,397.85,395.55,386.25
393,80.80,397.95,395.65,386.25
394,80.83,397.95,395.65,386.25
395,80.75,398.05,395.85,386.35
396,80.59,398.15,395.85,386.35
397,80.46,398.25,395.95,386.45
398,80.43,398.35,396.05,386.45
399,80.37,398.45,396.15,386.55
400,80.31,398.55,396.25,386.55
401,80.28,398.65,396.35,386.65
402,80.12,398.75,396.35,386.65
403,79.93,398.85,396.45,386.75
404,79.93,398.95,396.55,386.75
405,79.90,399.05,396.65,386.85
406,79.79,399.15,396.75,386.85
407,79.79,399.25,396.85,386.95
408,79.78,399.35,396.95,386.95
409,79.68,399.45,397.05,387.05
410,79.57,399.55,397.15,387.05
411,79.54,399.65,397.15,387.15
412,79.44,399.75,397.25,387.15
413,79.38,399.85,397.35,387.25
414,79.38,399.95,397.45,387.35
415,79.28,400.05,397.55,387.35
416,79.14,400.15,397.65,387.35
417,79.11,400.35,397.75,387.45
418,79.11,400.35,397.85,387.55
419,79.01,400.45,397.95,387.55
420,78.91,400.55,398.05,387.65
421,78.87,400.65,398.15,387.65
422,78.83,400.75,398.25,387.65
423,78.90,400.85,398.35,387.75
424,78.87,400.95,398.35,387.75
425,78.67,401.05,398.55,387.85
426,78.46,401.15,398.65,387.85
427,78.33,401.25,398.65,387.95
428,78.30,401.35,398.75,387.95
429,78.22,401.45,398.85,388.05
430,78.13,401.55,398.95,388.05
431,78.10,401.65,399.05,388.15
432,78.11,401.75,399.15,388.15
433,78.04,401.85,399.25,388.25
434,77.92,401.95,399.35,388.35
435,77.83,402.05,399.45,388.35
436,77.72,402.15,399.55,388.35
437,77.63,402.25,399.65,388.45
438,77.61,402.45,399.75,388.55
439,77.56,402.45,399.75,388.55
440,77.48,402.65,399.95,388.65
441,77.46,402.75,400.05,388.65
442,77.39,402.85,400.15,388.75
443,77.31,402.95,400.25,388.75
444,77.22,403.15,400.35,388.85
445,77.20,403.15,400.45,388.85
446,77.22,403.35,400.55,388.95
447,77.17,403.45,400.65,389.05
448,77.06,403.55,400.65,389.05
449,76.95,403.65,400.85,389.15
450,76.84,403.75,400.95,389.15
451,76.77,403.85,401.05,389.25
452,76.70,404.05,401.15,389.35
453,76.62,404.15,401.25,389.45
454,76.55,404.25,401.35,389.45
455,76.47,404.45,401.45,389.55
456,76.39,404.55,401.65,389.55
457,76.32,404.65,401.65,389.65
458,76.30,404.85,401.85,389.65
459,76.27,405.05,401.95,389.75
460,76.26,405.05,402.05,389.85
461,76.14,405.25,402.15,389.85
462,76.00,405.45,402.25,389.95
463,75.97,405.45,402.35,390.05
464,76.11,405.65,402.45,390.05
465,75.95,405.85,402.65,390.15
466,75.77,405.95,402.75,390.15
467,75.67,406.05,402.85,390.25
468,75.72,406.25,402.95,390.35
469,75.72,406.35,403.05,390.35
470,75.61,406.55,403.15,390.45
471,75.43,406.65,403.35,390.55
472,75.34,406.75,403.45,390.65
473,75.24,406.95,403.55,390.65
474,75.22,407.05,403.75,390.75
475,75.26,407.15,403.85,390.85
476,75.18,407.35,404.05,390.85
477,75.08,407.55,404.15,391.05
478,74.94,407.65,404.25,391.05
479,74.90,407.75,404.45,391.15
480,74.90,407.95,404.55,391.25
481,74.85,408.05,404.65,391.25
482,74.74,408.25,404.85,391.35
483,74.65,408.45,404.95,391.45
484,74.58,408.55,405.05,391.45
485,74.50,408.75,405.25,391.65
486,74.49,408.95,405.45,391.75
487,74.47,409.05,405.55,391.75
488,74.43,409.25,405.75,391.85
489,74.29,409.45,405.85,391.95
490,74.18,409.55,405.95,392.05
491,74.10,409.75,406.15,392.05
492,74.05,410.05,406.35,392.15
493,74.04,410.05,406.45,392.15
494,73.95,410.35,406.65,392.25
495,73.87,410.55,406.85,392.45
496,73.88,410.65,406.95,392.45
497,73.88,410.95,407.15,392.55
498,73.79,411.15,407.35,392.65
499,73.68,411.35,407.45,392.75
500,73.55,411.55,407.65,392.85
501,73.39,411.75,407.85,392.95
502,73.25,411.95,407.95,393.05
503,73.21,412.15,408.15,393.15
504,73.25,412.45,408.45,393.25
505,73.19,412.55,408.55,393.35
506,73.09,412.75,408.75,393.55
507,73.10,413.05,408.95,393.65
508,73.01,413.15,409.05,393.75
509,72.90,413.45,409.35,393.85
510,72.79,413.65,409.55,393.95
511,72.74,413.75,409.65,394.05
512,72.77,413.95,409.95,394.15
513,72.69,414.25,410.15,394.25
514,72.57,414.35,410.25,394.35
515,72.51,414.65,410.45,394.45
516,72.49,414.85,410.75,394.55
517,72.44,414.95,410.85,394.65
518,72.35,415.25,411.05,394.75
519,72.26,415.55,411.35,394.95
520,72.22,415.65,411.45,395.05
521,72.16,416.05,411.75,395.15
522,72.02,416.25,411.95,395.35
523,71.90,416.45,412.15,395.35
524,71.82,416.75,412.35,395.55
525,71.77,417.05,412.65,395.65
526,71.74,417.25,412.75,395.75
527,71.70,417.55,413.05,395.95
528,71.66,417.85,413.35,396.05
529,71.55,418.05,413.45,396.15
530,71.45,418.35,413.75,396.35
531,71.37,418.65,414.05,396.45
532,71.36,418.75,414.15,396.55
533,71.25,419.15,414.45,396.65
534,71.20,419.45,414.75,396.85
535,71.22,419.65,414.95,396.95
536,71.16,419.95,415.25,397.15
537,71.04,420.35,415.55,397.25
538,70.91,420.55,415.65,397.35
539,70.87,421.05,416.05,397.55
540,70.92,421.35,416.35,397.75
541,70.88,421.55,416.55,397.85
542,70.76,421.85,416.85,398.05
543,70.65,422.25,417.15,398.25
544,70.63,422.45,417.35,398.35
545,70.52,422.85,417.65,398.45
546,70.38,423.35,417.95,398.75
547,70.38,423.55,418.15,398.75
548,70.41,423.95,418.55,398.95
549,70.28,424.35,418.85,399.25
550,70.17,424.55,419.05,399.35
551,70.08,424.95,419.35,399.55
552,70.10,425.35,419.75,399.75
553,70.06,425.55,419.95,399.85
554,69.92,425.95,420.35,400.05
555,69.83,426.45,420.65,400.25
556,69.75,426.65,420.85,400.45
557,69.72,427.05,421.25,400.65
558,69.65,427.55,421.65,400.95
559,69.49,427.75,421.85,401.05
560,69.44,428.15,422.25,401.25
561,69.46,428.65,422.65,401.45
562,69.40,428.85,422.85,401.65
563,69.28,429.25,423.25,401.85
564,69.15,429.75,423.65,402.05
565,69.17,429.95,423.85,402.15
566,69.17,430.45,424.25,402.45
567,69.06,430.85,424.65,402.75
568,68.97,431.15,424.95,402.85
569,68.93,431.55,425.35,403.05
570,68.93,432.05,425.75,403.25
571,68.82,432.25,425.95,403.45
572,68.68,432.75,426.45,403.75
573,68.57,433.25,426.85,403.95
574,68.54,433.55,427.05,404.15
575,68.51,433.95,427.45,404.35
576,68.45,434.45,427.95,404.65
577,68.38,434.75,428.15,404.65
578,68.29,435.25,428.65,404.95
579,68.21,435.75,429.05,405.25
580,68.18,436.05,429.35,405.35
581,68.12,436.55,429.75,405.65
582,67.96,437.05,430.25,405.95
583,67.89,437.25,430.45,406.05
584,67.89,437.85,430.95,406.35
585,67.85,438.35,431.45,406.65
586,67.71,438.55,431.65,406.85
587,67.59,439.15,432.15,407.05
588,67.60,439.65,432.65,407.35
589,67.55,439.95,432.95,407.45
590,67.43,440.45,433.35,407.75
591,67.39,441.05,433.85,408.05
592,67.39,441.25,434.15,408.15
593,67.32,441.85,434.65,408.45
594,67.23,442.45,435.15,408.65
595,67.22,442.75,435.45,408.85
596,67.07,443.25,435.95,409.15
597,66.93,443.85,436.45,409.45
598,66.88,444.05,436.65,409.65
599,66.83,444.65,437.25,409.95
600,66.69,445.25,437.75,410.25
601,66.61,445.55,437.95,410.45
602,66.63,446.15,438.55,410.75
603,66.60,446.65,439.05,411.15
604,66.46,446.95,439.25,411.25
605,66.42,447.55,439.85,411.55
606,66.43,448.05,440.35,411.85
607,66.35,448.35,440.55,412.05
608,66.24,448.95,441.15,412.45
609,66.16,449.55,441.65,412.75
610,65.99,449.85,441.95,412.95
611,65.90,450.45,442.45,413.25
612,65.86,451.05,442.95,413.65
613,65.78,451.35,443.25,413.85
614,65.84,451.95,443.75,414.15
615,65.83,452.55,444.35,414.45
616,65.68,452.85,444.55,414.65
617,65.59,453.45,445.15,414.95
618,65.46,453.95,445.65,415.35
619,65.46,454.35,445.95,415.55
620,65.43,454.85,446.55,415.95
621,65.26,455.55,447.05,416.35
622,65.20,455.75,447.35,416.45
623,65.21,456.35,447.85,416.85
624,65.13,456.95,448.45,417.25
625,65.04,457.25,448.75,417.45
626,65.06,457.85,449.25,417.85
627,64.93,458.45,449.85,418.15
628,64.75,458.75,450.05,418.35
629,64.77,459.35,450.65,418.85
630,64.71,459.95,451.15,419.15
631,64.68,460.25,451.45,419.35
632,64.63,460.85,452.05,419.75
633,64.47,461.45,452.55,420.15
634,64.40,461.75,452.95,420.35
635,64.31,462.35,453.45,420.85
636,64.27,462.95,454.05,421.25
637,64.29,463.35,454.35,421.45
638,64.17,463.95,454.85,421.95
639,64.03,464.55,455.45,422.35
640,64.02,464.85,455.75,422.55
641,63.97,465.45,456.25,423.05
642,63.82,466.15,456.85,423.45
643,63.70,466.45,457.15,423.65
644,63.70,467.05,457.75,424.15
645,63.65,467.65,458.35,424.65
646,63.54,468.05,458.55,424.85
647,63.47,468.65,459.15,425.35
648,63.38,469.35,459.75,425.85
649,63.35,469.65,460.05,426.05
650,63.34,470.25,460.55,426.55
651,63.23,470.95,461.15,427.05
652,63.12,471.25,461.45,427.25
653,63.09,471.85,462.05,427.75
654,63.00,472.45,462.55,428.15
655,62.87,472.85,462.85,428.45
656,62.81,473.45,463.45,428.95
657,62.76,474.05,463.95,429.45
658,62.67,474.45,464.25,429.65
659,62.54,475.05,464.85,430.15
660,62.52,475.65,465.45,430.65
661,62.52,475.95,465.75,430.95
662,62.47,476.65,466.35,431.45
663,62.40,477.25,466.85,432.05
664,62.26,477.55,467.05,432.25
665,62.15,478.15,467.55,432.85
666,62.05,478.85,468.05,433.35
667,62.00,479.15,468.35,433.65
668,61.97,479.75,468.95,434.15
669,61.95,480.45,469.45,434.75
670,61.83,480.75,469.75,434.95
671,61.74,481.35,470.35,435.45
672,61.63,481.95,470.85,436.05
673,61.62,482.35,471.15,436.35
674,61.56,482.95,471.75,436.85
675,61.48,483.55,472.35,437.35
676,61.44,483.85,472.65,437.65
677,61.35,484.55,473.15,438.25
678,61.22,485.15,473.75,438.75
679,61.14,485.45,474.05,439.05
680,61.10,486.15,474.55,439.55
681,60.99,486.75,475.15,440.15
682,60.93,487.05,475.45,440.45
683,60.86,487.75,476.05,441.05
684,60.77,488.35,476.55,441.65
685,60.77,488.65,476.85,441.85
686,60.66,489.25,477.45,442.55
687,60.55,489.85,478.05,443.15
688,60.49,490.15,478.35,443.35
689,60.43,490.85,478.85,443.95
690,60.39,491.45,479.45,444.55
691,60.31,491.75,479.75,444.85
692,60.15,492.35,480.35,445.45
693,60.14,493.05,480.85,446.05
694,60.08,493.35,481.15,446.35
695,60.03,493.95,481.75,446.95
696,59.91,494.55,482.25,447.55
697,59.83,494.85,482.55,447.85
698,59.77,495.45,483.15,448.55
699,59.66,496.15,483.75,449.15
700,59.57,496.45,483.95,449.45
701,59.51,497.05,484.55,450.05
702,59.46,497.75,485.15,450.65
703,59.37,498.05,485.45,450.95
704,59.29,498.65,485.95,451.55
705,59.22,499.25,486.55,452.25
706,59.06,499.55,486.85,452.55
707,59.03,500.15,487.35,453.15
708,58.93,500.75,487.95,453.75
709,58.90,501.05,488.25,454.05
710,58.89,501.75,488.75,454.75
711,58.77,502.35,489.35,455.35
712,58.64,502.65,489.65,455.65
713,58.62,503.25,490.15,456.35
714,58.48,503.85,490.75,456.95
715,58.46,504.15,490.95,457.25
716,58.40,504.85,491.55,457.95
717,58.31,505.35,492.05,458.55
718,58.23,505.75,492.35,458.95
719,58.09,506.25,492.95,459.55
720,58.12,506.85,493.45,460.15
721,58.04,507.15,493.75,460.55
722,57.88,507.75,494.35,461.15
723,57.80,508.35,494.85,461.85
724,57.75,508.65,495.15,462.15
725,57.63,509.25,495.65,462.85
726,57.51,509.75,496.25,463.55
727,57.47,510.05,496.55,463.85
728,57.37,510.65,497.05,464.55
729,57.33,511.15,497.65,465.25
730,57.24,511.45,497.95,465.55
731,57.18,512.05,498.45,466.15
732,57.14,512.55,498.95,466.85
733,56.99,512.85,499.25,467.15
734,56.83,513.35,499.75,467.85
735,56.69,513.95,500.35,468.55
736,56.76,514.25,500.65,468.95
737,56.74,514.75,501.15,469.55
738,56.60,515.35,501.65,470.25
739,56.55,515.55,501.95,470.55
740,56.41,516.05,502.55,471.25
741,56.32,516.55,503.05,471.95
742,56.25,516.85,503.25,472.35
743,56.19,517.35,503.85,473.05
744,56.09,517.95,504.35,473.65
745,56.02,518.15,504.65,474.05
746,55.97,518.75,505.15,474.75
747,55.83,519.25,505.75,475.45
748,55.79,519.45,505.95,475.75
749,55.71,520.05,506.55,476.45
750,55.61,520.45,507.05,477.15
751,55.63,520.75,507.35,477.45
752,55.50,521.25,507.85,478.05
753,55.35,521.85,508.35,478.75
754,55.33,522.05,508.65,479.05
755,55.24,522.55,509.15,479.75
756,55.11,523.05,509.65,480.45
757,55.10,523.35,509.95,480.75
758,54.95,523.85,510.45,481.45
759,54.86,524.35,510.95,482.15
760,54.82,524.55,511.25,482.45
761,54.74,525.05,511.75,483.15
762,54.69,525.55,512.25,483.75
763,54.59,525.85,512.55,484.05
764,54.47,526.35,513.05,484.75
765,54.41,526.85,513.55,485.45
766,54.31,527.05,513.85,485.75
767,54.29,527.55,514.35,486.35
768,54.18,528.05,514.85,487.05
769,54.07,528.35,515.15,487.35
770,53.94,528.85,515.65,488.05
771,53.93,529.35,516.15,488.65
772,53.82,529.55,516.45,488.95
773,53.74,530.05,516.95,489.55
774,53.64,530.55,517.45,490.25
775,53.60,530.85,517.65,490.55
776,53.48,531.35,518.15,491.15
777,53.45,531.85,518.65,491.75
778,53.34,532.15,518.95,492.15
779,53.21,532.55,519.45,492.75
780,53.18,533.05,519.95,493.45
781,53.08,533.25,520.25,493.75
782,52.96,533.75,520.75,494.35
783,52.93,534.35,521.25,494.95
784,52.84,534.55,521.45,495.35
785,52.71,535.05,522.05,495.85
786,52.63,535.55,522.45,496.55
787,52.55,535.85,522.75,496.85
788,52.48,536.35,523.25,497.45
789,52.40,536.85,523.75,498.05
790,52.32,537.05,524.05,498.35
791,52.24,537.55,524.55,498.95
792,52.11,538.15,525.05,499.65
793,52.05,538.35,525.35,499.95
794,51.93,538.85,525.85,500.65
795,51.87,539.35,526.35,501.15
796,51.76,539.65,526.55,501.45
797,51.69,540.15,527.05,502.15
798,51.62,540.65,527.65,502.75
799,51.50,540.85,527.85,503.05
800,51.42,541.45,528.35,503.65
801,51.35,541.95,528.95,504.25
802,51.23,542.15,529.15,504.45
803,51.16,542.65,529.65,505.15
804,51.07,543.15,530.15,505.75
805,50.99,543.45,530.35,506.05
806,50.89,543.95,530.95,506.65
807,50.86,544.45,531.45,507.25
808,50.80,544.75,531.65,507.55
809,50.68,545.25,532.15,508.15
810,50.63,545.75,532.75,508.75
811,50.51,545.95,532.95,509.05
812,50.41,546.55,533.45,509.65
813,50.32,547.05,533.95,510.25
814,50.19,547.35,534.25,510.55
815,50.09,547.85,534.75,511.15
816,49.99,548.35,535.25,511.75
817,49.95,548.65,535.55,511.95
818,49.79,549.15,536.05,512.55
819,49.74,549.65,536.55,513.15
820,49.66,549.95,536.85,513.45
821,49.55,550.45,537.35,514.05
822,49.49,551.05,537.85,514.65
823,49.41,551.25,538.05,514.85
824,49.28,551.85,538.65,515.55
825,49.21,552.35,539.15,516.05
826,49.13,552.65,539.35,516.35
827,49.05,553.15,539.85,516.85
828,48.93,553.75,540.35,517.45
829,48.86,553.95,540.65,517.75
830,48.77,554.55,541.15,518.35
831,48.67,555.05,541.75,518.85
832,48.58,555.35,541.95,519.15
833,48.49,555.95,542.45,519.75
834,48.39,556.45,543.05,520.35
835,48.31,556.75,543.25,520.55
836,48.21,557.25,543.85,521.15
837,48.14,557.85,544.35,521.65
838,48.04,558.05,544.55,521.95
839,47.94,558.55,545.15,522.55
840,47.83,559.15,545.65,523.05
841,47.76,559.35,545.95,523.35
842,47.62,559.85,546.45,523.95
843,47.56,560.35,546.95,524.55
844,47.49,560.65,547.25,524.75
845,47.38,561.15,547.75,525.35
846,47.27,561.65,548.35,525.95
847,47.21,561.95,548.55,526.25
848,47.12,562.45,549.15,526.75
849,47.02,562.95,549.65,527.25
850,46.94,563.25,549.95,527.45
851,46.85,563.75,550.45,528.05
852,46.75,564.25,550.95,528.65
853,46.66,564.45,551.35,528.85
854,46.59,564.95,551.85,529.45
855,46.47,565.55,552.35,529.95
856,46.36,565.85,552.65,530.25
857,46.26,566.35,553.25,530.85
858,46.14,566.95,553.75,531.35
859,46.10,567.15,554.05,531.55
860,46.02,567.75,554.65,532.15
861,45.90,568.25,555.15,532.65
862,45.81,568.55,555.45,532.85
863,45.69,569.15,555.95,533.35
864,45.60,569.65,556.55,533.95
865,45.51,569.95,556.85,534.15
866,45.43,570.45,557.35,534.65
867,45.38,570.95,557.95,535.15
868,45.24,571.25,558.25,535.45
869,45.12,571.85,558.85,535.85
870,45.05,572.35,559.45,536.35
871,44.92,572.65,559.75,536.65
872,44.83,573.15,560.35,537.35
873,44.75,573.65,560.85,537.95
874,44.63,573.95,561.25,538.25
875,44.57,574.55,561.75,538.75
876,44.49,575.05,562.45,539.25
877,44.39,575.35,562.65,539.55
878,44.26,575.85,563.25,540.05
879,44.18,576.45,563.85,540.55
880,44.06,576.75,564.15,540.85
881,44.00,577.35,564.75,541.35
882,43.87,577.85,565.35,541.95
883,43.78,578.15,565.65,542.15
884,43.72,578.75,566.25,542.75
885,43.61,579.35,566.85,543.25
886,43.48,579.65,567.15,543.55
887,43.37,580.25,567.75,544.05
888,43.26,580.95,568.35,544.65
889,43.17,581.25,568.65,544.95
890,43.11,581.85,569.25,545.45
891,42.97,582.45,569.75,545.95
892,42.89,582.75,570.05,546.25
893,42.80,583.35,570.65,546.75
894,42.71,583.95,571.25,547.35
895,42.62,584.25,571.55,547.55
896,42.50,584.95,572.05,548.15
897,42.42,585.55,572.65,548.75
898,42.29,585.85,572.95,549.05
899,42.22,586.45,573.45,549.55
900,42.13,587.15,574.15,550.05
901,42.05,587.35,574.35,550.35
902,41.91,587.95,574.95,550.95
903,41.85,588.65,575.45,551.45
904,41.76,588.95,575.75,551.75
905,41.64,589.55,576.35,552.35
906,41.54,590.25,576.95,552.95
907,41.46,590.55,577.25,553.15
908,41.36,591.15,577.75,553.75
909,41.28,591.75,578.35,554.35
910,41.15,592.15,578.65,554.65
911,41.07,592.75,579.15,555.25
912,40.97,593.35,579.75,555.85
913,40.88,593.65,580.05,556.15
914,40.76,594.35,580.65,556.75
915,40.69,594.95,581.15,557.25
916,40.64,595.25,581.45,557.55
917,40.52,595.85,581.95,558.15
918,40.43,596.45,582.55,558.75
919,40.32,596.75,582.85,559.05
920,40.20,597.35,583.45,559.65
921,40.11,597.95,583.95,560.15
922,40.02,598.25,584.25,560.45
923,39.94,598.85,584.75,561.05
924,39.81,599.45,585.35,561.65
925,39.71,599.75,585.65,561.95
926,39.67,600.25,586.15,562.55
927,39.55,600.85,586.75,563.15
928,39.45,601.15,587.05,563.45
929,39.37,601.65,587.55,564.15
930,39.25,602.25,588.15,564.75
931,39.13,602.55,588.35,565.05
932,39.05,603.05,588.95,565.65
933,38.96,603.65,589.55,566.25
934,38.86,603.95,589.85,566.55
935,38.78,604.45,590.35,567.25
936,38.69,605.05,590.85,567.75
937,38.60,605.35,591.15,568.05
938,38.49,605.95,591.75,568.75
939,38.42,606.45,592.25,569.35
940,38.30,606.75,592.55,569.65
941,38.20,607.25,593.25,570.25
942,38.11,607.85,593.75,570.85
943,38.00,608.15,593.95,571.15
944,37.91,608.75,594.55,571.85
945,37.78,609.25,595.05,572.45
946,37.69,609.55,595.35,572.65
947,37.59,610.05,595.95,573.35
948,37.45,610.65,596.55,573.95
949,37.42,610.85,596.85,574.25
950,37.35,611.45,597.35,574.85
951,37.22,611.95,597.85,575.45
952,37.13,612.25,598.15,575.85
953,37.08,612.85,598.75,576.45
954,36.98,613.35,599.25,577.05
955,36.86,613.65,599.55,577.35
956,36.77,614.25,600.15,577.95
957,36.66,614.75,600.75,578.65
958,36.60,615.05,600.95,578.95
959,36.48,615.65,601.55,579.55
960,36.41,616.15,602.05,580.25
961,36.33,616.55,602.35,580.55
962,36.24,617.05,602.95,581.25
963,36.12,617.65,603.45,581.95
964,36.00,617.85,603.75,582.25
965,35.91,618.45,604.35,582.95
966,35.82,619.05,604.95,583.65
967,35.73,619.35,605.25,583.95
968,35.65,619.85,605.85,584.65
969,35.56,620.45,606.45,585.35
970,35.50,620.75,606.75,585.75
971,35.38,621.25,607.55,586.35
972,35.31,621.85,608.15,587.05
973,35.22,622.15,608.55,587.45
974,35.11,622.85,609.15,588.15
975,34.99,623.35,609.85,588.85
976,34.93,623.75,610.15,589.25
977,34.82,624.35,610.85,589.95
978,34.79,624.95,611.45,590.65
979,34.65,625.25,611.75,591.05
980,34.57,625.95,612.35,591.65
981,34.45,626.55,612.95,592.45
982,34.33,626.95,613.35,592.75
983,34.26,627.55,613.85,593.45
984,34.20,628.15,614.35,594.15
985,34.11,628.55,614.65,594.55
986,34.03,629.15,615.25,595.35
987,33.94,629.85,615.85,596.05
988,33.83,630.15,616.15,596.45
989,33.72,630.85,616.75,597.15
990,33.65,631.45,617.45,597.95
991,33.56,631.75,617.75,598.35
992,33.46,632.45,618.45,599.05
993,33.42,633.15,619.05,599.85
994,33.33,633.45,619.35,600.25
995,33.23,634.15,620.05,601.05
996,33.14,634.75,620.75,601.85
997,33.07,635.05,621.05,602.25
998,32.97,635.75,621.75,603.05
999,32.89,636.35,622.35,603.85
1000,32.79,636.75,622.75,604.25
1001,32.69,637.45,623.35,605.05
1002,32.63,638.15,623.95,605.95
1003,32.53,638.45,624.25,606.35
1004,32.43,639.15,624.85,607.15
1005,32.32,639.95,625.65,607.95
1006,32.25,640.25,625.95,608.35
1007,32.17,641.05,626.75,609.25
1008,32.10,641.85,627.55,610.15
1009,32.02,642.25,627.95,610.55
1010,31.91,643.05,628.65,611.35
1011,31.81,643.85,629.35,612.25
1012,31.75,644.25,629.75,612.65
1013,31.67,645.15,630.65,613.55
1014,31.57,645.95,631.55,614.45
1015,31.50,646.35,631.95,614.85
1016,31.42,647.25,632.85,615.75
1017,31.32,648.15,633.75,616.65
1018,31.24,648.85,634.25,617.15
1019,31.17,650.05,635.05,618.05
1020,31.07,651.45,635.95,619.05
1021,30.97,652.05,636.35,619.45
1022,30.92,653.55,637.25,620.45
1023,30.88,655.15,638.05,621.25
1024,30.76,655.95,638.55,621.75
1025,30.69,657.65,639.35,622.65
1026,30.56,659.25,640.15,623.65
1027,30.49,660.15,640.65,624.05
1028,30.44,661.95,641.15,625.05
1029,30.35,660.35,641.45,625.95
1030,30.23,660.25,641.65,626.45
1031,30.16,660.95,642.05,627.35
1032,30.07,661.95,642.65,628.35
1033,29.99,662.75,642.95,628.85
1034,29.94,664.15,643.85,629.85
1035,29.86,665.65,645.05,630.85
1036,29.78,666.55,645.75,631.35
1037,29.73,668.25,647.25,632.35
1038,29.62,670.15,648.55,633.35
1039,29.56,670.95,649.15,633.85
1040,29.49,673.75,650.35,634.95
1041,29.41,676.45,651.55,635.95
1042,29.32,677.45,652.05,636.45
1043,29.26,679.65,653.15,637.55
1044,29.19,681.55,654.35,638.65
1045,29.11,682.35,654.85,639.15
1046,29.02,683.65,656.25,640.25
1047,28.97,684.75,657.55,641.35
1048,28.87,685.35,658.15,641.95
1049,28.77,686.35,659.65,643.15
1050,28.72,687.85,661.05,644.15
1051,28.66,688.75,661.75,644.75
1052,28.59,691.15,663.15,645.85
1053,28.53,695.45,664.85,647.05
1054,28.42,698.05,665.75,647.65
1055,28.34,701.75,667.45,648.75
1056,28.26,704.75,668.95,649.95
1057,28.18,706.05,669.75,650.55
1058,28.13,708.45,671.45,651.65
1059,28.05,710.95,672.95,652.95
1060,27.99,712.05,673.75,653.55
1061,27.93,714.45,675.25,654.85
1062,27.88,716.65,676.85,656.05
1063,27.80,717.65,677.75,656.65
1064,27.75,719.75,679.45,657.85
1065,27.68,721.85,681.25,659.05
1066,27.62,722.85,682.05,659.65
1067,27.57,724.75,683.85,660.95
1068,27.46,726.55,685.65,662.15
1069,27.37,727.35,686.55,662.65
1070,27.33,729.15,688.35,663.85
1071,27.30,730.95,690.35,665.05
1072,27.23,731.65,691.25,665.65
1073,27.17,733.35,693.05,666.85
1074,27.10,734.85,695.25,668.15
1075,27.04,735.65,696.45,668.75
1076,27.00,737.05,698.45,670.05
1077,26.95,738.45,700.85,671.35
1078,26.89,739.15,702.05,672.05
1079,26.84,740.35,704.25,673.55
1080,26.76,741.55,706.95,675.15
1081,26.72,742.25,708.35,676.05
1082,26.66,743.65,711.45,677.85
1083,26.63,745.05,714.35,679.65
1084,26.55,745.95,715.55,680.55
1085,26.49,747.45,718.45,682.45
1086,26.46,748.75,721.55,684.45
1087,26.39,749.45,723.15,685.45
1088,26.33,751.05,726.05,687.45
1089,26.30,752.65,728.95,689.55
1090,26.25,753.45,730.65,690.55
1091,26.18,755.35,733.25,692.65
1092,26.16,756.65,736.45,695.05
1093,26.13,757.45,737.75,696.15
1094,26.06,759.05,740.55,698.35
1095,26.03,760.45,742.75,700.65
1096,25.99,761.25,743.95,701.85
1097,25.93,762.55,746.45,704.05
1098,25.88,763.85,748.35,706.55
1099,25.81,764.45,749.45,707.95
1100,25.76,765.75,751.35,710.75
1101,25.73,767.05,753.35,713.75
1102,25.69,767.75,754.35,715.15
1103,25.65,768.95,756.45,718.15
1104,25.60,770.05,758.35,721.55
1105,25.54,770.75,759.15,723.15
1106,25.49,771.95,760.95,726.55
1107,25.48,773.25,762.95,730.15
1108,25.43,773.95,763.75,732.05
1109,25.38,774.95,765.25,735.65
1110,25.35,776.05,766.75,739.45
1111,25.31,776.65,767.45,741.45
1112,25.30,777.75,768.85,745.55
1113,25.21,778.95,770.15,749.75
1114,25.21,779.55,770.75,751.95
1115,25.20,780.85,772.25,756.95
1116,25.18,782.05,773.65,762.05
1117,25.18,782.65,774.15,764.75
1118,25.14,783.65,775.55,771.55
1119,25.09,784.65,777.05,779.15
1120,25.09,785.15,777.65,782.85
1121,25.02,786.15,779.05,790.05
1122,25.02,787.05,780.85,795.85
1123,25.01,787.55,781.35,798.05
1124,24.97,788.65,782.55,801.35
1125,24.98,789.85,783.45,803.45
1126,24.92,790.35,784.05,804.15
1127,24.88,791.35,785.05,805.15
1128,24.89,792.25,785.85,805.95
1129,24.91,792.65,786.05,806.05
1130,24.90,793.55,786.15,806.25
1131,24.84,794.25,786.85,806.65
1132,24.81,794.55,786.95,806.65
1133,24.82,795.15,787.25,806.95
1134,24.85,795.85,787.75,807.25
1135,24.82,796.05,787.85,807.45
1136,24.83,796.65,788.25,807.55
1137,24.78,797.15,788.65,807.85
1138,24.74,797.45,788.75,808.05
1139,24.70,797.95,788.65,808.35
1140,24.70,798.45,788.95,808.55
1141,24.61,798.65,789.05,808.65
1142,24.64,799.25,789.15,808.85
1143,24.65,799.65,789.35,809.05
1144,24.67,799.85,789.55,809.25
1145,24.65,800.35,790.45,810.05
1146,24.65,800.95,790.95,810.45
1147,24.65,801.15,791.05,810.65
1148,24.63,801.65,791.25,810.95
1149,24.59,802.15,792.15,811.55
1150,24.59,802.45,792.35,811.85
1151,24.59,802.75,792.55,812.05
1152,24.59,803.15,792.65,812.45
1153,24.56,803.45,792.85,812.55
1154,24.58,803.85,792.95,812.65
1155,24.54,804.25,793.35,812.95
1156,24.55,804.55,793.95,813.35
1157,24.51,804.85,794.05,813.65
1158,24.52,805.35,794.55,813.95
1159,24.53,805.45,794.65,814.25
1160,24.54,805.95,794.95,814.65
1161,24.51,806.25,794.65,814.65
1162,24.49,806.55,794.55,814.85
1163,24.48,806.85,794.75,815.15
1164,24.46,807.15,794.85,815.05
1165,24.45,807.35,795.25,815.05
1166,24.46,807.75,795.25,815.35
1167,24.46,808.05,795.75,815.95
1168,24.43,808.25,796.05,816.05
1169,24.41,808.65,796.95,816.85
1170,24.40,808.95,797.05,816.85
1171,24.40,809.15,796.95,816.75
1172,24.39,809.45,796.25,816.75
1173,24.40,809.85,796.95,817.35
1174,24.40,809.95,796.95,817.35