File: Wood/Calibration_Data/TIFP+UCT/TIFP+UCT_Wood_Gasification_hor_perpendicular_30kW_R2.csv
Time (s),Mass (g),TC back 1 (K),TC back 2 (K),TC back 3 (K)
0,105.88,302.15,300.15,301.05
2,105.76,302.25,300.25,301.15
4,105.59,302.35,300.35,301.35
6,105.47,302.55,300.45,301.65
8,105.49,302.65,300.65,301.95
10,105.44,302.75,300.65,302.15
12,105.48,302.95,300.85,302.45
14,105.52,303.05,300.85,302.65
16,105.50,303.15,300.95,302.95
18,105.49,303.35,301.05,303.15
20,105.30,303.45,301.15,303.35
22,105.38,303.55,301.25,303.55
24,105.38,303.65,301.35,303.85
26,105.30,303.75,301.35,304.05
28,105.38,303.85,301.45,304.25
30,105.37,304.05,301.55,304.55
32,105.29,304.15,301.65,304.75
34,105.20,304.25,301.75,304.95
36,105.07,304.45,301.85,305.15
38,105.07,304.55,301.95,305.35
40,104.82,304.75,301.95,305.65
42,104.90,304.85,302.15,305.85
44,105.02,304.95,302.15,306.05
46,104.93,305.05,302.25,306.25
48,104.91,305.25,302.35,306.55
50,104.86,305.35,302.45,306.75
52,104.80,305.45,302.55,306.95
54,104.69,305.65,302.75,307.25
56,104.62,305.75,302.85,307.55
58,104.61,305.95,302.95,307.75
60,104.62,306.05,303.05,308.05
62,104.42,306.25,303.15,308.25
64,104.19,306.45,303.35,308.55
66,104.42,306.65,303.55,308.95
68,104.20,306.85,303.65,309.25
70,104.16,307.05,303.85,309.55
72,104.20,307.35,304.05,309.95
74,103.98,307.55,304.25,310.25
76,104.01,307.75,304.45,310.55
78,103.93,308.05,304.75,311.05
80,103.53,308.35,304.95,311.45
82,103.54,308.65,305.15,311.85
84,103.62,308.95,305.45,312.35
86,103.53,309.25,305.75,312.75
88,103.47,309.55,305.95,313.25
90,103.37,310.05,306.45,313.85
92,103.34,310.35,306.75,314.25
94,103.26,310.65,307.05,314.75
96,102.99,311.25,307.55,315.45
98,102.85,311.55,307.95,316.05
100,102.89,311.95,308.35,316.55
102,102.85,312.55,308.85,317.35
104,102.69,313.05,309.35,317.95
106,102.63,313.45,309.75,318.55
108,102.53,314.15,310.45,319.35
110,102.42,314.55,310.95,320.05
112,102.35,315.15,311.45,320.65
114,102.21,315.85,312.15,321.65
116,102.10,316.35,312.65,322.25
118,102.10,316.95,313.25,322.95
120,101.81,317.65,314.05,323.95
122,101.73,318.25,314.65,324.65
124,101.74,318.85,315.25,325.45
126,101.55,319.75,316.05,326.45
128,101.38,320.35,316.75,327.15
130,101.36,321.05,317.45,327.95
132,101.19,321.85,318.35,329.05
134,100.97,322.55,318.95,329.85
136,100.95,323.15,319.75,330.65
138,100.81,324.15,320.65,331.75
140,100.91,324.85,321.35,332.55
142,100.80,325.55,322.15,333.35
144,100.55,326.45,323.15,334.35
146,100.49,327.25,323.85,335.25
148,100.51,327.95,324.55,336.05
150,100.45,328.95,325.65,337.05
152,100.25,329.75,326.35,337.95
154,100.28,330.45,327.15,338.75
156,100.20,331.45,328.15,339.85
158,100.14,332.25,328.95,340.65
160,100.06,333.05,329.75,341.45
162,99.77,334.15,330.85,342.55
164,99.60,334.85,331.55,343.35
166,99.48,335.65,332.35,344.15
168,99.45,336.65,333.45,345.25
170,99.24,337.45,334.15,346.05
172,99.20,338.15,334.95,346.85
174,99.13,339.25,336.05,347.95
176,99.04,340.05,336.75,348.75
178,98.99,340.85,337.55,349.65
180,98.90,341.85,338.55,350.65
182,98.85,342.65,339.35,351.45
184,98.69,343.35,340.15,352.25
186,98.62,344.35,341.15,353.35
188,98.50,345.15,341.95,354.15
190,98.43,345.85,342.75,354.85
192,98.27,346.85,343.75,355.95
194,98.14,347.65,344.55,356.65
196,97.97,348.35,345.25,357.45
198,97.91,349.35,346.25,358.35
200,97.75,350.05,347.05,359.15
202,97.71,350.75,347.75,359.85
204,97.68,351.75,348.75,360.75
206,97.50,352.45,349.45,361.45
208,97.44,353.05,350.15,362.15
210,97.31,354.05,351.15,363.05
212,97.25,354.75,351.85,363.75
214,97.16,355.35,352.55,364.45
216,97.03,356.25,353.45,365.25
218,96.96,356.95,354.15,365.85
220,96.84,357.55,354.75,366.45
222,96.80,358.35,355.65,367.25
224,96.79,358.95,356.35,367.85
226,96.65,359.55,356.95,368.45
228,96.54,360.35,357.75,369.15
230,96.48,360.95,358.35,369.65
232,96.35,361.55,359.05,370.25
234,96.19,362.25,359.85,370.95
236,96.22,362.75,360.45,371.55
238,96.12,363.35,360.95,372.05
240,96.12,364.05,361.75,372.75
242,95.93,364.55,362.25,373.25
244,95.74,365.05,362.75,373.85
246,95.71,365.75,363.45,374.45
248,95.62,366.15,363.95,374.95
250,95.63,366.65,364.45,375.45
252,95.42,367.25,365.15,376.15
254,95.41,367.75,365.65,376.55
256,95.40,368.15,366.05,377.05
258,95.19,368.75,366.65,377.65
260,95.03,369.25,367.15,377.95
262,95.00,369.65,367.65,378.35
264,94.96,370.15,368.25,378.75
266,94.80,370.55,368.65,378.95
268,94.70,370.95,369.15,379.25
270,94.67,371.45,369.65,379.55
272,94.71,371.85,370.15,379.75
274,94.58,372.15,370.55,379.85
276,94.52,372.65,371.15,380.05
278,94.41,372.95,371.45,380.15
280,94.26,373.25,371.85,380.25
282,94.08,373.65,372.45,380.45
284,94.07,373.95,372.85,380.55
286,94.09,374.25,373.25,380.65
288,93.87,374.65,373.75,380.75
290,93.72,374.85,374.05,380.75
292,93.69,375.15,374.45,380.85
294,93.58,375.55,374.85,380.95
296,93.45,375.75,375.15,381.05
298,93.48,375.95,375.45,381.15
300,93.34,376.25,375.85,381.15
302,93.22,376.55,376.05,381.25
304,93.06,376.65,376.25,381.35
306,93.05,376.95,376.55,381.35
308,92.95,377.15,376.75,381.45
310,92.90,377.35,376.85,381.45
312,92.85,377.55,377.05,381.55
314,92.67,377.75,377.25,381.65
316,92.63,377.85,377.35,381.65
318,92.55,378.05,377.45,381.75
320,92.38,378.15,377.55,381.75
322,92.45,378.25,377.65,381.75
324,92.21,378.45,377.75,381.85
326,92.15,378.55,377.85,381.95
328,92.03,378.65,377.85,381.95
330,91.99,378.75,377.95,382.05
332,91.87,378.85,378.05,382.15
334,91.72,378.95,378.05,382.15
336,91.62,378.95,378.15,382.25
338,91.50,379.05,378.15,382.35
340,91.42,379.15,378.15,382.35
342,91.36,379.15,378.15,382.45
344,91.23,379.25,378.25,382.45
346,91.25,379.25,378.25,382.55
348,91.20,379.35,378.25,382.55
350,91.10,379.35,378.35,382.65
352,91.04,379.45,378.35,382.65
354,90.99,379.45,378.35,382.75
356,90.87,379.55,378.35,382.85
358,90.82,379.55,378.35,382.85
360,90.62,379.55,378.45,382.95
362,90.61,379.65,378.45,383.05
364,90.59,379.65,378.45,383.15
366,90.46,379.75,378.55,383.15
368,90.36,379.75,378.55,383.25
370,90.20,379.75,378.65,383.25
372,90.11,379.85,378.65,383.35
374,90.25,379.85,378.65,383.45
376,90.01,379.85,378.65,383.45
378,89.80,379.95,378.65,383.55
380,89.86,379.95,378.75,383.55
382,89.82,379.95,378.75,383.65
384,89.55,380.05,378.75,383.75
386,89.58,380.05,378.75,383.75
388,89.48,380.05,378.85,383.85
390,89.50,380.05,378.85,383.95
392,89.35,380.15,378.85,383.95
394,89.38,380.15,378.95,384.05
396,89.20,380.25,378.95,384.15
398,89.08,380.25,378.95,384.25
400,89.19,380.25,379.05,384.25
402,89.02,380.35,379.05,384.35
404,88.87,380.35,379.05,384.35
406,88.86,380.45,379.05,384.45
408,88.81,380.45,379.15,384.55
410,88.64,380.55,379.15,384.65
412,88.43,380.55,379.15,384.65
414,88.50,380.55,379.25,384.85
416,88.50,380.65,379.25,384.85
418,88.39,380.65,379.25,384.95
420,88.27,380.75,379.35,385.05
422,88.08,380.75,379.35,385.15
424,88.05,380.75,379.35,385.15
426,87.81,380.85,379.45,385.25
428,87.82,380.85,379.45,385.35
430,87.92,380.85,379.45,385.45
432,87.72,380.95,379.55,385.55
434,87.75,380.95,379.55,385.55
436,87.55,380.95,379.55,385.65
438,87.52,381.05,379.55,385.75
440,87.38,381.05,379.65,385.85
442,87.41,381.15,379.65,385.95
444,87.23,381.15,379.75,386.05
446,87.11,381.15,379.75,386.05
448,87.11,381.25,379.75,386.15
450,86.97,381.35,379.85,386.35
452,86.88,381.35,379.85,386.35
454,86.88,381.35,379.95,386.45
456,86.77,381.45,379.95,386.55
458,86.64,381.45,379.95,386.65
460,86.66,381.55,380.05,386.75
462,86.45,381.55,380.05,386.85
464,86.45,381.65,380.05,386.95
466,86.30,381.65,380.15,387.05
468,86.28,381.75,380.15,387.15
470,86.25,381.75,380.25,387.25
472,86.13,381.75,380.25,387.35
474,86.07,381.85,380.25,387.55
476,86.04,381.85,380.35,387.65
478,85.92,381.95,380.35,387.75
480,85.98,382.05,380.45,387.85
482,85.77,382.05,380.45,387.95
484,85.72,382.05,380.45,388.05
486,85.59,382.15,380.55,388.15
488,85.62,382.25,380.55,388.25
490,85.63,382.25,380.65,388.35
492,85.33,382.35,380.75,388.55
494,85.25,382.35,380.75,388.65
496,85.20,382.45,380.75,388.75
498,85.27,382.45,380.85,388.85
500,85.12,382.55,380.85,389.05
502,85.22,382.55,380.85,389.15
504,85.20,382.65,380.95,389.35
506,84.92,382.65,380.95,389.45
508,84.86,382.75,381.05,389.55
510,84.84,382.85,381.05,389.75
512,84.67,382.85,381.15,389.85
514,84.67,382.95,381.15,389.95
516,84.57,383.05,381.25,390.15
518,84.53,383.05,381.25,390.35
520,84.43,383.15,381.35,390.45
522,84.32,383.25,381.45,390.65
524,84.29,383.35,381.45,390.75
526,84.16,383.35,381.55,390.95
528,84.19,383.45,381.65,391.15
530,84.14,383.45,381.65,391.25
532,83.97,383.55,381.75,391.45
534,83.91,383.65,381.75,391.65
536,83.89,383.75,381.85,391.75
538,83.81,383.85,381.85,391.95
540,83.70,383.95,381.95,392.15
542,83.55,383.95,382.05,392.35
544,83.54,384.05,382.05,392.55
546,83.46,384.15,382.15,392.75
548,83.48,384.25,382.25,392.95
550,83.40,384.35,382.25,393.15
552,83.22,384.45,382.35,393.35
554,83.24,384.45,382.45,393.55
556,83.16,384.55,382.45,393.75
558,83.04,384.65,382.55,394.05
560,83.00,384.75,382.65,394.25
562,82.90,384.85,382.65,394.45
564,82.77,384.95,382.75,394.75
566,82.81,385.05,382.75,394.95
568,82.81,385.15,382.85,395.15
570,82.71,385.25,382.95,395.45
572,82.59,385.35,383.05,395.65
574,82.62,385.45,383.15,395.85
576,82.54,385.65,383.25,396.25
578,82.35,385.75,383.35,396.45
580,82.45,385.85,383.45,396.75
582,82.24,385.95,383.45,397.05
584,82.15,386.05,383.55,397.25
586,82.14,386.15,383.65,397.55
588,82.13,386.35,383.75,397.95
590,82.01,386.45,383.85,398.15
592,81.97,386.55,383.95,398.35
594,81.63,386.75,384.05,398.75
596,81.77,386.85,384.15,399.05
598,81.69,386.95,384.25,399.35
600,81.58,387.15,384.35,399.75
602,81.80,387.25,384.45,399.95
604,81.36,387.35,384.55,400.25
606,81.58,387.55,384.65,400.65
608,81.32,387.75,384.75,400.95
610,81.34,387.85,384.85,401.25
612,81.16,388.05,384.95,401.65
614,81.26,388.15,385.05,402.05
616,81.05,388.35,385.15,402.35
618,81.07,388.55,385.35,402.75
620,80.97,388.65,385.45,403.15
622,80.99,388.85,385.55,403.45
624,80.82,389.05,385.75,403.95
626,80.81,389.15,385.85,404.25
628,80.75,389.35,385.95,404.65
630,80.65,389.55,386.05,405.15
632,80.66,389.75,386.25,405.45
634,80.56,389.95,386.35,405.85
636,80.41,390.15,386.55,406.35
638,80.36,390.35,386.65,406.75
640,80.28,390.55,386.75,407.15
642,80.32,390.75,386.95,407.65
644,80.26,390.95,387.15,408.05
646,80.08,391.15,387.25,408.45
648,80.15,391.45,387.45,409.05
650,80.01,391.65,387.65,409.45
652,79.99,391.85,387.75,409.85
654,79.91,392.05,387.95,410.45
656,79.87,392.35,388.15,410.85
658,79.78,392.55,388.25,411.35
660,79.64,392.85,388.55,411.95
662,79.63,393.05,388.65,412.35
664,79.57,393.25,388.85,412.75
666,79.54,393.65,389.15,413.35
668,79.42,393.85,389.35,413.85
670,79.38,394.05,389.45,414.35
672,79.32,394.45,389.75,414.95
674,79.24,394.65,389.95,415.45
676,79.11,394.85,390.15,415.95
678,79.14,395.25,390.45,416.55
680,79.04,395.45,390.65,417.05
682,78.98,395.75,390.85,417.45
684,78.95,396.05,391.15,418.15
686,78.93,396.35,391.35,418.65
688,78.67,396.65,391.65,419.15
690,78.76,397.05,391.95,419.85
692,78.73,397.35,392.15,420.35
694,78.55,397.65,392.35,420.85
696,78.47,398.05,392.75,421.55
698,78.52,398.35,392.95,422.05
700,78.41,398.55,393.25,422.65
702,78.42,399.05,393.55,423.35
704,78.23,399.35,393.85,423.95
706,78.26,399.65,394.15,424.45
708,78.09,400.05,394.55,425.25
710,78.10,400.45,394.85,425.85
712,77.96,400.75,395.05,426.35
714,77.99,401.25,395.45,427.05
716,77.86,401.55,395.65,427.65
718,77.82,401.85,395.95,428.25
720,77.77,402.35,396.45,429.05
722,77.71,402.75,396.75,429.65
724,77.59,403.15,397.05,430.25
726,77.59,403.65,397.45,431.05
728,77.52,404.05,397.85,431.65
730,77.39,404.35,398.15,432.25
732,77.49,404.95,398.55,433.05
734,77.27,405.25,398.85,433.55
736,77.30,405.65,399.25,434.15
738,77.18,406.15,399.75,434.95
740,77.19,406.65,400.05,435.55
742,77.00,407.05,400.45,436.15
744,77.01,407.55,400.95,436.95
746,76.88,408.05,401.25,437.55
748,76.85,408.45,401.65,438.15
750,76.86,409.05,402.15,438.95
752,76.76,409.45,402.45,439.45
754,76.64,409.95,402.85,440.05
756,76.78,410.45,403.35,440.85
758,76.57,410.95,403.75,441.45
760,76.46,411.35,404.15,441.95
762,76.41,411.95,404.75,442.75
764,76.37,412.35,405.15,443.35
766,76.28,412.85,405.55,443.95
768,76.20,413.45,406.05,444.75
770,76.18,413.95,406.55,445.35
772,76.10,414.35,406.95,445.95
774,76.02,414.95,407.55,446.75
776,75.97,415.45,407.95,447.25
778,75.89,415.95,408.35,447.85
780,75.84,416.55,408.95,448.65
782,75.77,417.05,409.35,449.25
784,75.75,417.55,409.75,449.75
786,75.63,418.25,410.35,450.55
788,75.69,418.75,410.85,451.15
790,75.46,419.15,411.25,451.75
792,75.46,419.85,411.75,452.45
794,75.44,420.35,412.25,453.05
796,75.28,420.85,412.65,453.65
798,75.27,421.55,413.25,454.45
800,75.11,422.15,413.75,454.95
802,75.12,422.65,414.15,455.55
804,74.97,423.35,414.85,456.35
806,75.08,423.85,415.25,456.85
808,74.93,424.45,415.75,457.45
810,74.94,425.15,416.45,458.25
812,74.81,425.65,416.85,458.75
814,74.78,426.25,417.35,459.35
816,74.60,426.95,417.95,460.15
818,74.61,427.45,418.45,460.65
820,74.60,428.05,418.95,461.25
822,74.55,428.75,419.55,461.95
824,74.32,429.35,420.05,462.55
826,74.39,429.85,420.55,463.05
828,74.28,430.65,421.25,463.85
830,74.22,431.15,421.75,464.45
832,74.16,431.75,422.35,464.95
834,74.19,432.45,423.05,465.65
836,74.01,433.05,423.45,466.25
838,73.99,433.55,424.05,466.85
840,73.89,434.35,424.75,467.65
842,73.84,434.95,425.25,468.05
844,73.69,435.45,425.75,468.65
846,73.79,436.25,426.45,469.35
848,73.75,436.85,426.95,469.95
850,73.63,437.35,427.45,470.45
852,73.51,438.15,428.25,471.15
854,73.36,438.65,428.75,471.75
856,73.44,439.25,429.25,472.25
858,73.30,440.05,429.95,472.95
860,73.24,440.55,430.55,473.55
862,73.21,441.15,431.05,474.05
864,73.08,441.95,431.75,474.75
866,73.05,442.55,432.25,475.25
868,73.00,443.05,432.85,475.85
870,72.94,443.85,433.55,476.55
872,72.83,444.45,434.05,477.05
874,72.73,445.05,434.65,477.55
876,72.75,445.75,435.35,478.25
878,72.54,446.25,435.95,478.75
880,72.61,446.85,436.45,479.25
882,72.48,447.65,437.25,479.95
884,72.41,448.25,437.75,480.45
886,72.33,448.75,438.35,481.05
888,72.27,449.55,439.05,481.65
890,72.21,450.05,439.65,482.15
892,72.19,450.65,440.15,482.65
894,72.14,451.45,440.85,483.35
896,71.93,451.95,441.45,483.85
898,71.95,452.55,442.05,484.35
900,71.84,453.25,442.75,485.05
902,71.81,453.85,443.25,485.55
904,71.65,454.45,443.85,486.05
906,71.64,455.15,444.55,486.75
908,71.57,455.75,445.15,487.15
910,71.38,456.25,445.75,487.65
912,71.77,456.95,446.45,488.35
914,71.33,457.55,446.95,488.85
916,71.28,458.05,447.55,489.25
918,71.25,458.85,448.35,489.95
920,71.14,459.35,448.95,490.45
922,71.09,459.95,449.45,490.95
924,70.95,460.65,450.25,491.55
926,70.95,461.25,450.85,492.05
928,70.89,461.75,451.35,492.55
930,70.85,462.45,452.15,493.15
932,70.68,462.95,452.65,493.65
934,70.74,463.55,453.25,494.15
936,70.58,464.25,454.05,494.75
938,70.51,464.85,454.55,495.25
940,70.45,465.35,455.15,495.75
942,70.38,466.05,455.85,496.35
944,70.33,466.55,456.45,496.85
946,70.34,467.05,456.95,497.25
948,70.07,467.85,457.75,497.95
950,70.07,468.35,458.35,498.35
952,70.04,468.85,458.95,498.85
954,69.89,469.55,459.65,499.45
956,69.89,470.05,460.15,499.95
958,69.73,470.65,460.75,500.35
960,69.72,471.25,461.55,500.95
962,69.62,471.85,462.05,501.45
964,69.58,472.35,462.65,501.85
966,69.46,472.95,463.35,502.45
968,69.35,473.55,463.95,502.95
970,69.31,474.05,464.45,503.35
972,69.30,474.65,465.25,503.95
974,69.16,475.15,465.75,504.45
976,69.00,475.65,466.35,504.85
978,69.06,476.35,467.05,505.45
980,68.90,476.85,467.65,505.95
982,68.95,477.35,468.25,506.35
984,68.77,478.05,468.95,506.95
986,68.65,478.55,469.55,507.45
988,68.62,478.95,470.05,507.85
990,68.49,479.65,470.85,508.45
992,68.46,480.15,471.35,508.85
994,68.46,480.65,471.85,509.35
996,68.32,481.25,472.65,509.85
998,68.25,481.75,473.15,510.35
1000,68.20,482.25,473.75,510.75
1002,68.04,482.85,474.45,511.35
1004,68.00,483.35,474.95,511.75
1006,67.89,483.75,475.45,512.15
1008,67.74,484.45,476.15,512.75
1010,67.73,484.85,476.65,513.15
1012,67.62,485.35,477.25,513.65
1014,67.51,485.95,477.95,514.15
1016,67.46,486.45,478.45,514.65
1018,67.51,486.95,478.95,515.05
1020,67.32,487.45,479.65,515.55
1022,67.30,487.95,480.15,515.95
1024,67.30,488.45,480.65,516.45
1026,67.07,489.05,481.35,516.95
1028,67.02,489.45,481.85,517.45
1030,66.85,489.95,482.35,517.85
1032,66.82,490.55,483.05,518.35
1034,66.70,490.95,483.55,518.85
1036,66.65,491.45,484.05,519.15
1038,66.56,492.05,484.75,519.75
1040,66.44,492.45,485.25,520.15
1042,66.38,492.95,485.75,520.55
1044,66.29,493.55,486.45,521.15
1046,66.19,493.95,486.95,521.55
1048,66.18,494.35,487.45,521.95
1050,66.03,494.95,488.15,522.55
1052,65.99,495.45,488.55,522.95
1054,65.84,495.85,489.05,523.35
1056,65.87,496.45,489.75,523.85
1058,65.76,496.85,490.25,524.35
1060,65.65,497.25,490.75,524.65
1062,65.54,497.85,491.35,525.25
1064,65.46,498.35,491.85,525.65
1066,65.44,498.75,492.25,526.05
1068,65.31,499.35,492.95,526.55
1070,65.22,499.75,493.35,526.95
1072,65.09,500.15,493.85,527.45
1074,65.08,500.75,494.45,527.95
1076,64.95,501.15,494.95,528.35
1078,64.89,501.55,495.45,528.75
1080,64.78,502.15,496.05,529.25
1082,64.70,502.55,496.55,529.65
1084,64.58,502.95,496.95,530.05
1086,64.48,503.55,497.65,530.55
1088,64.46,503.95,498.05,530.95
1090,64.39,504.35,498.55,531.35
1092,64.25,504.95,499.15,531.85
1094,64.12,505.35,499.65,532.25
1096,64.06,505.75,500.05,532.65
1098,63.99,506.35,500.65,533.25
1100,63.88,506.75,501.15,533.65
1102,63.73,507.15,501.55,533.95
1104,63.67,507.75,502.25,534.55
1106,63.60,508.15,502.65,534.95
1108,63.57,508.55,503.15,535.35
1110,63.46,509.15,503.75,535.85
1112,63.38,509.45,504.15,536.25
1114,63.10,509.85,504.65,536.55
1116,63.12,510.45,505.25,537.15
1118,62.97,510.85,505.75,537.55
1120,62.96,511.25,506.15,537.95
1122,62.86,511.75,506.75,538.45
1124,62.76,512.25,507.25,538.85
1126,62.72,512.65,507.75,539.25
1128,62.60,513.15,508.35,539.75
1130,62.42,513.55,508.75,540.15
1132,62.42,513.95,509.25,540.55
1134,62.31,514.55,509.75,541.05
1136,62.22,514.95,510.25,541.45
1138,62.06,515.35,510.65,541.85
1140,62.04,515.85,511.25,542.25
1142,61.91,516.25,511.65,542.65
1144,61.78,516.65,512.15,543.05
1146,61.72,517.25,512.75,543.55
1148,61.63,517.65,513.15,543.95
1150,61.49,518.05,513.65,544.35
1152,61.44,518.55,514.15,544.85
1154,61.36,519.05,514.65,545.25
1156,61.25,519.45,515.05,545.65
1158,61.16,519.95,515.65,546.15
1160,61.02,520.35,516.05,546.55
1162,60.97,520.75,516.55,546.95
1164,60.86,521.35,517.05,547.45
1166,60.75,521.75,517.55,547.85
1168,60.68,522.15,517.95,548.25
1170,60.56,522.65,518.55,548.75
1172,60.48,523.05,519.05,549.15
1174,60.40,523.45,519.45,549.55
1176,60.28,524.05,520.05,550.05
1178,60.13,524.45,520.45,550.45
1180,60.08,524.85,520.85,550.75
1182,60.03,525.45,521.45,551.25
1184,59.90,525.85,521.85,551.65
1186,59.60,526.25,522.35,552.05
1188,59.67,526.75,522.85,552.55
1190,59.56,527.15,523.35,552.95
1192,59.54,527.55,523.75,553.35
1194,59.55,528.15,524.35,553.85
1196,59.33,528.55,524.75,554.15
1198,59.16,528.95,525.15,554.55
1200,59.08,529.55,525.65,555.05
1202,58.92,529.95,526.15,555.45
1204,58.82,530.35,526.55,555.85
1206,58.75,530.85,527.15,556.35
1208,58.63,531.25,527.55,556.65
1210,58.56,531.65,527.95,557.05
1212,58.44,532.25,528.55,557.55
1214,58.32,532.65,528.95,557.95
1216,58.22,533.05,529.35,558.35
1218,58.16,533.65,529.95,558.85
1220,58.05,534.05,530.35,559.15
1222,57.92,534.45,530.75,559.55
1224,57.80,534.95,531.25,560.05
1226,57.71,535.45,531.65,560.45
1228,57.56,535.75,532.15,560.75
1230,57.47,536.35,532.65,561.25
1232,57.35,536.75,533.05,561.65
1234,57.21,537.15,533.35,561.95
1236,57.21,537.65,533.95,562.45
1238,57.09,538.05,534.35,562.85
1240,57.00,538.55,534.75,563.15
1242,56.88,539.05,535.35,563.65
1244,56.76,539.45,535.75,563.95
1246,56.65,539.85,536.15,564.35
1248,56.57,540.45,536.65,564.85
1250,56.42,540.85,537.15,565.25
1252,56.33,541.25,537.55,565.55
1254,56.26,541.85,538.15,566.05
1256,56.07,542.25,538.55,566.35
1258,56.01,542.65,539.05,566.75
1260,55.89,543.15,539.55,567.25
1262,55.80,543.65,540.05,567.55
1264,55.67,544.05,540.45,567.95
1266,55.58,544.55,541.05,568.35
1268,55.48,545.05,541.55,568.75
1270,55.35,545.45,541.95,569.05
1272,55.27,545.95,542.55,569.55
1274,55.11,546.35,543.05,569.85
1276,55.05,546.85,543.45,570.25
1278,54.93,547.35,544.15,570.65
1280,54.78,547.85,544.55,570.95
1282,54.71,548.25,544.95,571.35
1284,54.62,548.75,545.55,571.75
1286,54.48,549.25,546.05,572.15
1288,54.38,549.65,546.45,572.45
1290,54.24,550.15,547.15,572.95
1292,54.15,550.65,547.55,573.25
1294,54.01,551.05,548.05,573.55
1296,53.93,551.65,548.55,573.95
1298,53.82,552.05,549.05,574.35
1300,53.70,552.45,549.55,574.65
1302,53.58,553.05,550.15,575.05
1304,53.46,553.45,550.55,575.35
1306,53.32,553.85,551.05,575.75
1308,53.24,554.45,551.65,576.15
1310,53.18,554.85,552.05,576.45
1312,53.02,555.25,552.55,576.85
1314,52.90,555.85,553.15,577.25
1316,52.83,556.25,553.55,577.55
1318,52.68,556.75,554.05,577.85
1320,52.53,557.25,554.65,578.25
1322,52.42,557.65,555.05,578.55
1324,52.34,558.15,555.55,578.95
1326,52.27,558.65,556.25,579.35
1328,52.12,559.15,556.65,579.65
1330,51.99,559.55,557.15,579.95
1332,51.87,560.15,557.75,580.35
1334,51.76,560.55,558.15,580.65
1336,51.66,560.95,558.65,580.95
1338,51.55,561.55,559.25,581.45
1340,51.44,561.95,559.75,581.75
1342,51.25,562.35,560.15,582.05
1344,51.20,562.95,560.75,582.35
1346,51.08,563.35,561.25,582.75
1348,50.98,563.75,561.65,583.05
1350,50.86,564.35,562.35,583.45
1352,50.74,564.75,562.75,583.75
1354,50.66,565.15,563.25,584.05
1356,50.51,565.75,563.85,584.45
1358,50.42,566.15,564.25,584.75
1360,50.30,566.55,564.75,585.05
1362,50.18,567.15,565.35,585.45
1364,50.09,567.55,565.85,585.75
1366,49.93,568.05,566.25,586.05
1368,49.82,568.55,566.95,586.35
1370,49.70,568.95,567.35,586.65
1372,49.56,569.35,567.85,586.95
1374,49.50,569.85,568.45,587.35
1376,49.38,570.25,568.85,587.65
1378,49.25,570.65,569.35,587.95
1380,49.12,571.25,569.95,588.35
1382,49.00,571.65,570.35,588.55
1384,48.91,572.05,570.85,588.85
1386,48.78,572.55,571.45,589.25
1388,48.67,572.95,571.85,589.55
1390,48.57,573.35,572.25,589.85
1392,48.43,573.85,572.85,590.25
1394,48.32,574.25,573.35,590.55
1396,48.16,574.65,573.75,590.75
1398,48.08,575.25,574.35,591.15
1400,47.96,575.65,574.75,591.45
1402,47.82,575.95,575.25,591.75
1404,47.74,576.45,575.85,592.15
1406,47.61,576.85,576.25,592.35
1408,47.49,577.25,576.75,592.65
1410,47.39,577.75,577.25,593.05
1412,47.21,578.15,577.65,593.25
1414,47.13,578.55,578.05,593.55
1416,47.04,579.05,578.65,593.85
1418,46.91,579.45,579.05,594.15
1420,46.78,579.75,579.55,594.45
1422,46.68,580.25,580.05,594.85
1424,46.55,580.65,580.45,595.05
1426,46.43,581.05,580.95,595.35
1428,46.33,581.55,581.45,595.65
1430,46.20,581.95,581.85,595.95
1432,46.10,582.35,582.25,596.25
1434,45.98,582.85,582.85,596.55
1436,45.84,583.15,583.25,596.85
1438,45.77,583.45,583.65,597.15
1440,45.64,583.95,584.15,597.45
1442,45.51,584.35,584.55,597.75
1444,45.37,584.75,584.95,598.05
1446,45.29,585.15,585.55,598.35
1448,45.17,585.55,585.85,598.65
1450,45.06,585.95,586.25,598.85
1452,44.93,586.45,586.75,599.25
1454,44.84,586.75,587.25,599.45
1456,44.71,587.15,587.55,599.75
1458,44.60,587.55,588.05,600.15
1460,44.47,587.95,588.45,600.35
1462,44.35,588.25,588.85,600.55
1464,44.28,588.75,589.35,600.95
1466,44.16,589.05,589.75,601.15
1468,44.05,589.35,590.15,601.45
1470,43.90,589.85,590.55,601.75
1472,43.79,590.15,590.95,601.95
1474,43.66,590.45,591.25,602.25
1476,43.58,590.85,591.75,602.55
1478,43.45,591.15,592.15,602.75
1480,43.31,591.45,592.45,603.05
1482,43.22,591.85,592.95,603.35
1484,43.10,592.15,593.25,603.55
1486,43.02,592.45,593.65,603.75
1488,42.92,592.75,594.05,604.15
1490,42.74,593.15,594.35,604.35
1492,42.66,593.35,594.75,604.55
1494,42.56,593.75,595.15,604.85
1496,42.47,594.05,595.45,605.15
1498,42.34,594.35,595.85,605.35
1500,42.23,594.75,596.25,605.65
1502,42.12,594.95,596.55,605.85
1504,41.99,595.15,596.85,606.05
1506,41.88,595.55,597.25,606.35
1508,41.77,595.75,597.55,606.55
1510,41.67,595.95,597.75,606.75
1512,41.56,596.35,598.15,607.05
1514,41.42,596.55,598.45,607.25
1516,41.36,596.75,598.75,607.45
1518,41.23,597.05,599.15,607.75
1520,41.13,597.25,599.45,607.95
1522,41.00,597.45,599.65,608.15
1524,40.92,597.75,600.05,608.35
1526,40.82,597.95,600.35,608.55
1528,40.70,598.05,600.55,608.75
1530,40.57,598.35,600.95,608.95
1532,40.47,598.55,601.15,609.15
1534,40.37,598.65,601.45,609.35
1536,40.28,598.95,601.75,609.65
1538,40.16,599.15,601.95,609.85
1540,40.10,599.25,602.25,610.15
1542,39.94,599.45,602.55,610.35
1544,39.82,599.65,602.75,610.55
1546,39.74,599.75,602.95,610.75
1548,39.62,599.95,603.25,610.95
1550,39.52,600.15,603.45,611.15
1552,39.42,600.25,603.65,611.35
1554,39.33,600.35,603.85,611.65
1556,39.19,600.55,604.05,611.85
1558,39.10,600.65,604.15,612.05
1560,39.00,600.85,604.45,612.35
1562,38.91,600.95,604.55,612.55
1564,38.79,601.15,604.65,612.65
1566,38.69,601.35,604.85,612.85
1568,38.58,601.45,605.05,612.95
1570,38.50,601.55,605.15,613.05
1572,38.39,601.75,605.25,613.15
1574,38.29,601.85,605.45,613.25
1576,38.17,601.95,605.55,613.35
1578,38.09,602.15,605.65,613.45
1580,37.97,602.25,605.75,613.55
1582,37.89,602.45,605.85,613.65
1584,37.79,602.55,606.05,613.75
1586,37.69,602.75,606.15,613.85
1588,37.60,602.85,606.25,613.95
1590,37.50,603.05,606.45,614.15
1592,37.40,603.05,606.65,614.25
1594,37.34,603.25,606.85,614.35
1596,37.23,603.45,606.95,614.55
1598,37.13,603.55,607.15,614.65
1600,37.02,603.65,607.35,614.75
1602,36.91,603.85,607.55,614.85
1604,36.82,604.05,607.75,614.95
1606,36.76,604.15,607.85,615.05
1608,36.64,604.35,608.05,615.25
1610,36.54,604.45,608.15,615.35
1612,36.42,604.65,608.25,615.45
1614,36.33,604.85,608.25,615.55
1616,36.25,605.05,608.25,615.75
1618,36.15,605.15,608.45,615.85
1620,36.06,605.35,608.55,615.95
1622,35.99,605.45,608.65,616.15
1624,35.90,605.65,608.85,616.25
1626,35.81,605.75,609.05,616.45
1628,35.77,605.95,609.25,616.65
1630,35.74,606.25,609.45,616.75
1632,35.62,606.45,609.65,616.95
1634,35.54,606.65,609.85,617.05
1636,35.45,606.85,610.15,617.25
1638,35.39,607.15,610.65,617.35
1640,35.30,607.35,611.05,617.55
1642,35.22,607.55,611.45,617.75
1644,35.12,607.95,612.15,617.95
1646,35.01,608.15,612.65,618.05
1648,34.96,608.45,613.05,618.25
1650,34.85,608.85,613.65,618.55
1652,34.74,609.05,614.05,618.85
1654,34.65,609.35,614.45,619.15
1656,34.56,609.75,615.05,619.45
1658,34.50,610.05,615.55,619.55
1660,34.39,610.35,615.95,619.75
1662,34.33,610.65,616.45,619.95
1664,34.26,610.95,616.85,620.15
1666,34.17,611.35,617.35,620.35
1668,34.09,611.75,617.95,620.65
1670,34.03,612.15,618.35,620.75
1672,33.97,612.55,618.85,620.95
1674,33.92,612.95,619.45,621.25
1676,33.81,613.35,619.95,621.45
1678,33.72,613.75,620.55,621.65
1680,33.66,614.35,621.25,622.05
1682,33.63,614.75,621.85,622.25
1684,33.51,615.15,622.35,622.55
1686,33.46,615.75,623.15,622.85
1688,33.39,616.15,623.65,623.15
1690,33.35,616.55,624.25,623.45
1692,33.27,617.25,624.95,623.75
1694,33.20,617.65,625.55,624.05
1696,33.12,618.15,626.15,624.35
1698,33.03,618.75,627.05,624.75
1700,33.01,619.25,627.65,625.05
1702,32.91,619.75,628.25,625.35
1704,32.84,620.35,629.15,625.75
1706,32.78,620.95,629.85,626.15
1708,32.71,621.45,630.45,626.45
1710,32.69,622.15,631.45,626.95
1712,32.63,622.75,632.15,627.35
1714,32.54,623.35,632.85,627.65
1716,32.47,624.15,633.85,628.25
1718,32.43,624.75,634.65,628.65
1720,32.37,625.35,635.45,629.05
1722,32.36,626.25,636.45,629.55
1724,32.26,626.85,637.35,630.05
1726,32.21,627.55,638.15,630.45
1728,32.21,628.45,639.35,631.05
1730,32.12,629.15,640.25,631.45
1732,32.03,629.75,641.15,631.95
1734,31.99,630.75,642.65,632.65
1736,31.94,631.45,643.65,633.15
1738,31.89,632.25,644.65,633.65
1740,31.85,633.25,645.95,634.35
1742,31.78,634.05,647.05,634.85
1744,31.71,634.85,648.05,635.35
1746,31.68,635.85,649.55,636.05
1748,31.62,636.65,650.65,636.55
1750,31.56,637.45,651.75,637.05
1752,31.53,638.55,653.25,637.75
1754,31.48,639.35,654.35,638.25
1756,31.44,640.25,655.55,638.85
1758,31.38,641.45,657.15,639.55
1760,31.36,642.35,658.35,640.05
1762,31.31,643.15,659.55,640.55
1764,31.26,644.35,661.15,641.25
1766,31.21,645.25,662.35,641.75
1768,31.15,646.15,663.55,642.25
1770,31.14,647.25,665.15,642.85
1772,31.09,648.25,666.35,643.35
1774,31.04,649.05,667.45,643.85
1776,31.02,650.25,668.95,644.55
1778,30.95,651.15,670.05,645.05
1780,30.90,652.05,671.05,645.45
1782,30.87,653.25,672.45,646.05
1784,30.79,654.05,673.45,646.55
1786,30.77,654.85,674.35,646.95
1788,30.75,656.05,675.55,647.55
1790,30.71,656.95,676.45,647.95
1792,30.75,657.75,677.25,648.35
1794,30.74,658.75,678.35,648.95
1796,30.68,659.55,679.05,649.35
1798,30.64,660.35,679.85,649.75
1800,30.59,661.45,680.75,650.25
1802,30.54,662.05,681.35,650.65
1804,30.56,662.85,681.95,651.05
1806,30.52,663.75,682.75,651.55
1808,30.45,664.45,683.35,651.85
1810,30.40,665.15,683.85,652.15
1812,30.39,666.15,684.45,652.55
1814,30.35,666.75,684.95,652.95
1816,30.32,667.35,685.45,653.25
1818,30.26,668.15,685.95,653.75
1820,30.24,668.75,686.35,653.95
1822,30.22,669.35,686.65,654.25
1824,30.17,670.15,687.15,654.65
1826,30.11,670.65,687.45,654.85
1828,30.11,671.15,687.65,655.15
1830,30.08,671.85,688.05,655.45
1832,30.06,672.35,688.25,655.65
1834,30.03,672.85,688.55,655.95
1836,30.01,673.45,688.85,656.25
1838,29.94,673.95,689.05,656.55
1840,29.95,674.35,689.25,656.75
1842,29.93,674.95,689.45,657.05
1844,29.93,675.35,689.55,657.25
1846,29.61,675.75,689.65,657.45
1848,29.88,676.25,689.85,657.75
1850,29.83,676.65,689.95,657.95
1852,29.80,677.05,690.05,658.05
1854,29.76,677.55,690.15,658.25
1856,29.71,677.85,690.35,658.45
1858,29.72,678.25,690.35,658.65
1860,29.69,678.65,690.45,658.95
1862,29.64,678.95,690.55,659.25
1864,29.59,679.25,690.65,659.35
1866,29.60,679.65,690.65,659.55
1868,29.55,679.95,690.75,659.65
1870,29.53,680.25,690.75,659.75
1872,29.48,680.55,690.75,659.95
1874,29.46,680.85,690.75,660.05
1876,29.46,681.15,690.75,660.15
1878,29.38,681.45,690.75,660.35
1880,29.39,681.65,690.85,660.35
1882,29.36,681.95,690.85,660.55
1884,29.34,682.15,690.85,660.55
1886,29.35,682.35,690.85,660.75
1888,29.31,682.65,690.85,660.85
1890,29.25,682.85,690.85,660.85
1892,29.23,683.05,690.85,661.05
1894,29.23,683.25,690.85,661.05
1896,29.23,683.45,690.85,661.15
1898,29.19,683.65,690.85,661.25
1900,29.17,683.75,690.75,661.25
1902,29.14,683.95,690.75,661.45
1904,29.12,684.05,690.75,661.45
1906,29.11,684.15,690.75,661.55
1908,29.09,684.35,690.75,661.65
1910,29.07,684.45,690.75,661.65
1912,29.06,684.55,690.65,661.65
1914,29.02,684.75,690.65,661.75
1916,29.04,684.85,690.65,661.85
1918,29.02,684.95,690.65,661.85
1920,28.99,685.15,690.55,661.95
1922,28.98,685.25,690.55,661.95
1924,28.94,685.35,690.55,662.05
1926,28.92,685.45,690.55,662.15
1928,28.92,685.55,690.55,662.15
1930,28.90,685.65,690.45,662.25
1932,28.88,685.75,690.45,662.25
1934,28.86,685.85,690.35,662.35
1936,28.80,685.95,690.35,662.25
1938,28.82,685.95,690.35,662.35
1940,28.81,686.05,690.35,662.35
1942,28.77,686.15,690.25,662.35
1944,28.75,686.25,690.25,662.25
1946,28.74,686.35,690.15,662.35
1948,28.72,686.35,690.15,662.35
1950,28.68,686.45,690.05,662.35
1952,28.67,686.45,690.05,662.35
1954,28.67,686.55,690.05,662.45
1956,28.66,686.65,690.05,662.45
1958,28.63,686.75,689.95,662.45
1960,28.61,686.75,689.95,662.45
1962,28.60,686.75,689.85,662.35
1964,28.58,686.75,689.85,662.35
1966,28.54,686.85,689.75,662.35
1968,28.56,686.85,689.75,662.35
1970,28.55,686.95,689.75,662.35
1972,28.54,686.95,689.65,662.35
1974,28.51,687.05,689.65,662.35
1976,28.50,687.05,689.55,662.35
1978,28.48,687.15,689.55,662.35
1980,28.47,687.15,689.55,662.25
1982,28.46,687.15,689.45,662.15
1984,28.42,687.25,689.45,661.95
1986,28.42,687.25,689.45,661.85
1988,28.38,687.25,689.35,661.75
1990,28.39,687.35,689.35,661.65
1992,28.37,687.35,689.25,661.55
1994,28.37,687.35,689.25,661.45
1996,28.35,687.45,689.15,661.45
1998,28.31,687.55,689.15,661.35
2000,28.32,687.55,689.15,661.35
2002,28.29,687.55,689.15,661.35
2004,28.28,687.65,689.05,661.25
2006,28.25,687.65,689.05,661.25
2008,28.23,687.75,689.05,661.15
2010,28.22,687.85,689.05,661.15
2012,28.23,687.75,689.05,661.05
2014,28.21,687.75,688.95,661.05
2016,28.20,687.75,688.85,661.05
2018,28.18,687.85,688.85,660.95
2020,28.15,687.85,688.75,660.95
2022,28.15,687.95,688.75,660.85
2024,28.13,687.95,688.85,660.85
2026,28.13,687.95,688.75,660.85
2028,28.14,687.95,688.65,660.85
2030,28.10,687.95,688.65,660.75
2032,28.09,687.95,688.65,660.65
2034,28.06,687.95,688.55,660.65
2036,28.06,687.95,688.55,660.65
2038,28.04,687.95,688.45,660.55
2040,28.04,688.05,688.45,660.55
2042,28.03,688.05,688.35,660.45
2044,28.01,688.05,688.45,660.45
2046,28.02,688.05,688.35,660.35
2048,27.96,688.05,688.25,660.25
2050,27.95,688.05,688.25,660.25
2052,27.96,688.15,688.25,660.15
2054,27.93,688.05,688.15,660.15
2056,27.93,688.15,688.15,660.15
2058,27.93,688.05,688.05,660.15
2060,27.89,688.05,688.05,660.05
2062,27.88,688.15,687.95,659.95
2064,27.87,688.15,687.95,659.85
2066,27.88,688.15,687.95,659.75
2068,27.86,688.05,687.85,659.75
2070,27.87,688.05,687.85,659.75
2072,27.85,688.15,687.85,659.75
2074,27.84,688.05,687.85,659.75
2076,27.82,688.05,687.75,659.75
2078,27.82,688.15,687.75,659.75
2080,27.83,688.05,687.75,659.65
2082,27.83,688.15,687.75,659.65
2084,27.80,688.15,687.65,659.65
2086,27.78,688.15,687.65,659.55
2088,27.77,688.15,687.65,659.55
2090,27.76,688.15,687.65,659.55
2092,27.76,688.15,687.55,659.55
2094,27.77,688.15,687.55,659.55
2096,27.73,688.25,687.55,659.45
2098,27.71,688.15,687.55,659.45
2100,27.73,688.15,687.55,659.45
2102,27.71,688.15,687.45,659.35
2104,27.69,688.15,687.45,659.35
2106,27.69,688.25,687.45,659.25
2108,27.65,688.25,687.45,659.25
2110,27.65,688.25,687.45,659.15
2112,27.64,688.25,687.35,659.15
2114,27.65,688.25,687.35,659.15
2116,27.64,688.25,687.35,659.05
2118,27.62,688.35,687.35,659.05
2120,27.60,688.25,687.25,659.05
2122,27.60,688.25,687.25,658.95
2124,27.60,688.25,687.25,659.05
2126,27.60,688.25,687.25,658.95
2128,27.58,688.25,687.25,658.95
2130,27.59,688.25,687.15,658.85
2132,27.57,688.25,687.15,658.85
2134,27.56,688.25,687.15,658.85
2136,27.55,688.25,687.15,658.85
2138,27.53,688.25,687.15,658.85
2140,27.54,688.15,687.15,658.85
2142,27.52,688.25,687.15,658.85
2144,27.48,688.25,687.15,658.75
2146,27.51,688.25,687.15,658.75
2148,27.48,688.25,687.15,658.75
2150,27.48,688.15,687.15,658.75
2152,27.49,688.25,687.05,658.75
2154,27.47,688.15,687.05,658.75
2156,27.46,688.15,687.05,658.75
2158,27.50,688.15,687.05,658.65
2160,27.46,688.15,686.95,658.65
2162,27.44,688.05,686.95,658.65
2164,27.45,688.05,686.95,658.65
2166,27.46,688.05,686.85,658.65
2168,27.44,687.95,686.95,658.65
2170,27.42,687.95,686.95,658.65
2172,27.43,687.95,686.85,658.65
2174,27.40,687.95,686.95,658.65
2176,27.40,687.95,686.85,658.55
2178,27.40,687.95,686.85,658.65
2180,27.38,687.95,686.85,658.65
2182,27.36,687.95,686.85,658.55
2184,27.39,687.95,686.95,658.55
2186,27.38,687.85,686.85,658.55
2188,27.36,687.85,686.85,658.55
2190,27.35,687.85,686.85,658.55
2192,27.34,687.85,686.85,658.55
2194,27.34,687.85,686.85,658.45
2196,27.34,687.85,686.85,658.45
2198,27.31,687.85,686.85,658.45
2200,27.31,687.85,686.85,658.45
2202,27.29,687.75,686.85,658.35
2204,27.30,687.85,686.85,658.45
2206,27.28,687.75,686.85,658.35
2208,27.29,687.75,686.75,658.35
2210,27.26,687.75,686.75,658.25
2212,27.26,687.75,686.75,658.25
2214,27.27,687.75,686.75,658.25
2216,27.26,687.75,686.75,658.25
2218,27.25,687.65,686.75,658.25
2220,27.22,687.65,686.75,658.15
2222,27.22,687.75,686.75,658.15
2224,27.22,687.75,686.75,658.15
2226,27.20,687.75,686.75,658.15
2228,27.19,687.65,686.75,658.05
2230,27.18,687.55,686.65,658.05
2232,27.18,687.55,686.55,657.95
2234,27.20,687.55,686.55,658.05
2236,27.19,687.55,686.65,658.05
2238,27.17,687.55,686.65,657.95
2240,27.16,687.45,686.65,657.95
2242,27.14,687.55,686.55,657.95
2244,27.16,687.45,686.55,657.95
2246,27.15,687.45,686.55,657.95
2248,27.14,687.45,686.55,657.95
2250,27.13,687.35,686.55,657.95
2252,27.11,687.25,686.55,657.95
2254,27.13,687.25,686.45,657.85
2256,27.13,687.35,686.45,657.85
2258,27.09,687.25,686.55,657.85
2260,27.11,687.15,686.45,657.85
2262,27.07,687.15,686.45,657.85
2264,27.08,687.15,686.45,657.75
2266,27.09,687.15,686.45,657.65
2268,27.07,687.25,686.45,657.65
2270,27.05,687.15,686.45,657.65
2272,27.07,687.25,686.45,657.65
2274,27.05,687.15,686.45,657.65
2276,27.05,687.15,686.45,657.65
2278,27.03,687.15,686.35,657.65
2280,27.05,687.05,686.35,657.65
2282,27.05,687.05,686.35,657.65
2284,27.04,687.05,686.35,657.65
2286,27.03,687.05,686.35,657.65
2288,27.03,687.05,686.25,657.55
2290,27.03,686.95,686.25,657.55
2292,27.00,686.85,686.25,657.55
2294,27.02,686.85,686.25,657.45
2296,26.97,686.85,686.25,657.55
2298,27.01,686.75,686.25,657.45
2300,27.02,686.75,686.25,657.45
2302,27.01,686.75,686.25,657.45
2304,27.00,686.75,686.15,657.35
2306,27.01,686.75,686.25,657.35
2308,26.97,686.75,686.25,657.35
2310,26.95,686.65,686.15,657.35
2312,26.97,686.65,686.15,657.45
2314,26.97,686.55,686.15,657.45
2316,26.95,686.55,686.15,657.35
2318,26.95,686.45,686.15,657.35
2320,26.95,686.55,686.15,657.35
2322,26.95,686.45,686.15,657.35
2324,26.95,686.45,686.15,657.35
2326,26.94,686.45,686.15,657.35
2328,26.93,686.45,686.15,657.35
2330,26.94,686.45,686.15,657.25
2332,26.92,686.45,686.15,657.25
2334,26.91,686.45,686.15,657.25
2336,26.89,686.45,686.15,657.25
2338,26.95,686.45,686.15,657.25
2340,26.89,686.45,686.15,657.25
2342,26.88,686.45,686.15,657.25
2343,26.88,686.35,686.15,657.25