File: Wood/Calibration_Data/TIFP+UCT/TIFP+UCT_Wood_STA_N2_10K_R3.csv
Time (s),Temperature (K),Mass (mg),Heat Flow Rate (W/g)
0,303.158,5.1394,0.0005
3,303.16,5.1401,0.0007
6,303.158,5.1403,0.0007
9,303.158,5.1403,0.0005
12,303.16,5.1392,0.0008
15,303.1595,5.1392,0.0006
18,303.158,5.1392,0.0006
21,303.1595,5.1389,0.0009
24,303.159,5.1391,0.0009
27,303.157,5.1387,0.0007
30,303.159,5.1394,0.0008
33,303.158,5.1394,0.0009
36,303.158,5.1393,0.001
39,303.1595,5.1396,0.0009
42,303.157,5.1394,0.0009
45,303.158,5.1399,0.0012
48,303.158,5.1394,0.0012
51,303.1605,5.139,0.0012
54,303.16,5.1393,0.001
57,303.1605,5.1393,0.0011
60,303.163,5.1403,0.0012
63,303.159,5.1398,0.0011
66,303.163,5.1402,0.0013
69,303.161,5.1398,0.0014
72,303.162,5.1377,0.0012
75,303.1625,5.1381,0.0012
78,303.159,5.1377,0.0014
81,303.161,5.1391,0.0012
84,303.163,5.1391,0.0014
87,303.161,5.1397,0.0015
90,303.161,5.1391,0.0013
93,303.162,5.1404,0.0013
96,303.165,5.1404,0.0013
99,303.1615,5.1397,0.0013
102,303.158,5.1394,0.0013
105,303.1605,5.1393,0.0013
108,303.16,5.139,0.0012
111,303.1605,5.1396,0.0013
114,303.158,5.1403,0.0013
117,303.1615,5.1401,0.0012
120,303.162,5.1389,0.0012
123,303.1605,5.1391,0.0011
126,303.159,5.138,0.0011
129,303.16,5.1381,0.001
132,303.159,5.1377,0.001
135,303.1605,5.1398,0.001
138,303.157,5.1405,0.0012
141,303.1595,5.1402,0.0011
144,303.16,5.1398,0.0013
147,303.161,5.1397,0.0011
150,303.163,5.1405,0.001
153,303.162,5.1398,0.001
156,303.16,5.1392,0.001
159,303.16,5.1402,0.0009
162,303.162,5.1419,0.001
165,303.161,5.1405,0.0008
168,303.162,5.1392,0.0009
171,303.1605,5.1397,0.0008
174,303.16,5.1403,0.0009
177,303.1625,5.1405,0.0008
180,303.161,5.1406,0.0007
183,303.1605,5.14,0.0006
186,303.162,5.141,0.0006
189,303.1615,5.1401,0.0006
192,303.161,5.1406,0.0006
195,303.1625,5.1393,0.0006
198,303.162,5.1406,0.0005
201,303.163,5.1398,0.0006
204,303.165,5.1396,0.0003
207,303.1635,5.1393,0.0003
210,303.162,5.1393,0.0005
213,303.1635,5.1395,0.0006
216,303.165,5.1393,0.0004
219,303.164,5.1406,0.0004
222,303.164,5.1406,0.0005
225,303.1645,5.1396,0.0004
228,303.164,5.1406,0.0005
231,303.1675,5.1401,0.0006
234,303.166,5.1396,0.0005
237,303.168,5.1401,0.0004
240,303.165,5.1393,0.0004
243,303.168,5.1401,0.0004
246,303.169,5.1393,0.0003
249,303.1675,5.1401,0.0005
252,303.168,5.1406,0.0006
255,303.17,5.1413,0.0003
258,303.167,5.1393,0.0006
261,303.169,5.1407,0.0006
264,303.168,5.1407,0.0007
267,303.17,5.1411,0.0008
270,303.167,5.1407,0.0007
273,303.17,5.1409,0.0008
276,303.167,5.1404,0.0006
279,303.167,5.1408,0.0009
282,303.168,5.1394,0.0008
285,303.167,5.1409,0.0008
288,303.168,5.1407,0.0008
291,303.1665,5.1401,0.001
294,303.167,5.1393,0.001
297,303.1685,5.1398,0.0008
300,303.166,5.1406,0.001
303,303.168,5.1406,0.0009
306,303.168,5.1406,0.0009
309,303.167,5.1393,0.0009
312,303.174,5.1408,0.001
315,303.183,5.1399,0.0008
318,303.198,5.1394,-0.0001
321,303.221,5.1401,-0.0003
324,303.254,5.1395,-0.0017
327,303.297,5.1393,-0.0024
330,303.352,5.1396,-0.0035
333,303.425,5.1402,-0.0047
336,303.511,5.1384,-0.0055
339,303.616,5.1395,-0.0063
342,303.737,5.1381,-0.007
345,303.881,5.1389,-0.0074
348,304.042,5.1381,-0.0075
351,304.228,5.1402,-0.007
354,304.441,5.1404,-0.006
357,304.668,5.1397,-0.0053
360,304.93,5.14,-0.0036
363,305.215,5.1394,-0.0014
366,305.521,5.1385,0.0006
369,305.857,5.1382,0.0035
372,306.222,5.1383,0.0065
375,306.609,5.1381,0.0099
378,307.026,5.1366,0.014
381,307.464,5.1376,0.0178
384,307.932,5.1384,0.0222
387,308.426,5.1378,0.0266
390,308.942,5.1387,0.0316
393,309.486,5.1384,0.0364
396,310.049,5.1385,0.0413
399,310.636,5.1378,0.0463
402,311.243,5.1382,0.0513
405,311.87,5.1373,0.0563
408,312.518,5.139,0.0614
411,313.176,5.1378,0.0667
414,313.856,5.1378,0.0712
417,314.55,5.1365,0.0762
420,315.254,5.1375,0.0808
423,315.973,5.1378,0.0853
426,316.702,5.1374,0.0897
429,317.438,5.1364,0.0941
432,318.183,5.138,0.0979
435,318.936,5.1372,0.102
438,319.691,5.1368,0.1053
441,320.452,5.1358,0.1089
444,321.216,5.1368,0.1118
447,321.976,5.1368,0.1148
450,322.739,5.1376,0.1172
453,323.502,5.1363,0.12
456,324.265,5.1362,0.1223
459,325.022,5.1363,0.1242
462,325.772,5.1358,0.1257
465,326.523,5.1365,0.1268
468,327.265,5.1365,0.1283
471,328.003,5.1346,0.1294
474,328.734,5.1347,0.1301
477,329.459,5.1347,0.1302
480,330.175,5.1361,0.1304
483,330.882,5.1357,0.1303
486,331.583,5.1347,0.1299
489,332.273,5.1334,0.1293
492,332.957,5.1334,0.1285
495,333.63,5.135,0.1278
498,334.296,5.1361,0.1269
501,334.952,5.135,0.1258
504,335.599,5.135,0.1246
507,336.234,5.135,0.1233
510,336.864,5.1337,0.1218
513,337.482,5.1324,0.1203
516,338.095,5.1324,0.1188
519,338.697,5.1337,0.1172
522,339.291,5.1337,0.1156
525,339.879,5.1337,0.1142
528,340.459,5.1324,0.1126
531,341.028,5.1337,0.1107
534,341.594,5.1337,0.1089
537,342.149,5.1324,0.1074
540,342.702,5.1324,0.1056
543,343.244,5.1324,0.1039
546,343.786,5.132,0.1022
549,344.319,5.1324,0.1003
552,344.85,5.1324,0.0984
555,345.37,5.131,0.0966
558,345.89,5.1304,0.0949
561,346.408,5.13,0.0931
564,346.915,5.13,0.0913
567,347.426,5.1297,0.0889
570,347.931,5.1297,0.087
573,348.433,5.1297,0.0852
576,348.935,5.1297,0.0833
579,349.434,5.1297,0.0811
582,349.931,5.1297,0.0793
585,350.423,5.1297,0.0773
588,350.918,5.1283,0.0755
591,351.41,5.1297,0.0736
594,351.902,5.1283,0.0717
597,352.394,5.1283,0.0694
600,352.882,5.1277,0.0676
603,353.373,5.1283,0.0656
606,353.859,5.127,0.0636
609,354.351,5.127,0.0615
612,354.841,5.1257,0.0593
615,355.332,5.1253,0.0577
618,355.823,5.1257,0.0555
621,356.315,5.1257,0.054
624,356.807,5.1243,0.0519
627,357.302,5.123,0.05
630,357.795,5.1243,0.0482
633,358.289,5.1242,0.0461
636,358.784,5.1242,0.044
639,359.279,5.1242,0.0423
642,359.782,5.1242,0.0403
645,360.278,5.1231,0.0385
648,360.777,5.1231,0.0366
651,361.279,5.1221,0.0345
654,361.782,5.1227,0.0329
657,362.279,5.1227,0.0309
660,362.783,5.1241,0.0291
663,363.288,5.1241,0.0268
666,363.789,5.1241,0.0252
669,364.296,5.1227,0.0236
672,364.801,5.1227,0.0214
675,365.307,5.1227,0.0196
678,365.814,5.1227,0.0175
681,366.319,5.1227,0.0159
684,366.827,5.1227,0.014
687,367.336,5.1221,0.0119
690,367.841,5.1214,0.01
693,368.352,5.1214,0.0084
696,368.861,5.1214,0.0069
699,369.372,5.1204,0.0047
702,369.88,5.1214,0.0031
705,370.387,5.1224,0.0013
708,370.896,5.1214,-0.0003
711,371.407,5.1214,-0.002
714,371.914,5.1207,-0.0036
717,372.423,5.1204,-0.0055
720,372.93,5.1214,-0.0067
723,373.439,5.1201,-0.0085
726,373.946,5.1201,-0.01
729,374.456,5.1201,-0.0116
732,374.965,5.1201,-0.0134
735,375.471,5.1201,-0.0148
738,375.978,5.1201,-0.0167
741,376.486,5.1201,-0.0178
744,376.992,5.1201,-0.0195
747,377.498,5.1201,-0.0209
750,378.005,5.1204,-0.0223
753,378.508,5.1201,-0.0237
756,379.014,5.1211,-0.0254
759,379.518,5.1201,-0.027
762,380.027,5.1214,-0.0281
765,380.527,5.1201,-0.0292
768,381.032,5.1214,-0.031
771,381.539,5.1204,-0.0318
774,382.038,5.1214,-0.0336
777,382.541,5.1201,-0.0345
780,383.045,5.1201,-0.0358
783,383.546,5.1201,-0.0371
786,384.05,5.1187,-0.0384
789,384.546,5.1197,-0.0396
792,385.05,5.1187,-0.0405
795,385.554,5.1201,-0.042
798,386.05,5.1187,-0.0433
801,386.551,5.1191,-0.0442
804,387.054,5.1201,-0.0453
807,387.553,5.1204,-0.0464
810,388.051,5.1201,-0.0475
813,388.553,5.1194,-0.0484
816,389.051,5.1201,-0.0498
819,389.552,5.1201,-0.0506
822,390.05,5.1191,-0.0512
825,390.552,5.1191,-0.0526
828,391.049,5.1201,-0.0536
831,391.551,5.1187,-0.0544
834,392.048,5.1187,-0.0552
837,392.55,5.1187,-0.056
840,393.048,5.1187,-0.057
843,393.55,5.1187,-0.0577
846,394.05,5.1187,-0.0589
849,394.551,5.1187,-0.0595
852,395.05,5.1191,-0.0606
855,395.554,5.1201,-0.0611
858,396.055,5.1201,-0.0623
861,396.556,5.1187,-0.0627
864,397.058,5.1184,-0.0636
867,397.563,5.118,-0.0644
870,398.066,5.1187,-0.0652
873,398.569,5.1187,-0.0658
876,399.072,5.1174,-0.0664
879,399.576,5.1187,-0.0675
882,400.077,5.1191,-0.0683
885,400.581,5.1187,-0.0688
888,401.083,5.1174,-0.0694
891,401.588,5.1174,-0.07
894,402.093,5.1174,-0.0708
897,402.598,5.1174,-0.0712
900,403.104,5.1184,-0.072
903,403.609,5.1174,-0.0726
906,404.114,5.1187,-0.073
909,404.62,5.1184,-0.0737
912,405.128,5.1174,-0.0741
915,405.631,5.1174,-0.0747
918,406.138,5.116,-0.0752
921,406.645,5.116,-0.0757
924,407.153,5.116,-0.0758
927,407.662,5.116,-0.0765
930,408.167,5.1157,-0.0772
933,408.673,5.116,-0.0775
936,409.181,5.116,-0.0779
939,409.687,5.116,-0.0782
942,410.193,5.1154,-0.0788
945,410.702,5.116,-0.079
948,411.211,5.1174,-0.0795
951,411.717,5.116,-0.0799
954,412.226,5.1174,-0.0803
957,412.732,5.116,-0.0809
960,413.239,5.116,-0.0814
963,413.746,5.116,-0.0815
966,414.257,5.116,-0.0821
969,414.762,5.115,-0.0823
972,415.271,5.116,-0.0824
975,415.779,5.1147,-0.0826
978,416.282,5.114,-0.0825
981,416.787,5.1147,-0.0824
984,417.295,5.1147,-0.0822
987,417.804,5.1134,-0.0823
990,418.309,5.1144,-0.0822
993,418.815,5.1134,-0.0822
996,419.32,5.1134,-0.082
999,419.825,5.1134,-0.0819
1002,420.329,5.1133,-0.0819
1005,420.834,5.1133,-0.0817
1008,421.339,5.1133,-0.082
1011,421.844,5.112,-0.0818
1014,422.347,5.1133,-0.0819
1017,422.85,5.1133,-0.0815
1020,423.354,5.1124,-0.0822
1023,423.855,5.1133,-0.0823
1026,424.358,5.112,-0.0823
1029,424.859,5.112,-0.0822
1032,425.361,5.1113,-0.0824
1035,425.865,5.112,-0.0824
1038,426.363,5.112,-0.0825
1041,426.862,5.112,-0.0826
1044,427.367,5.112,-0.0832
1047,427.866,5.112,-0.0831
1050,428.367,5.1107,-0.0833
1053,428.865,5.1107,-0.0835
1056,429.365,5.1114,-0.0833
1059,429.864,5.1107,-0.0837
1062,430.363,5.1107,-0.0838
1065,430.862,5.1107,-0.0841
1068,431.36,5.1093,-0.0846
1071,431.861,5.1107,-0.0844
1074,432.359,5.1103,-0.0848
1077,432.856,5.1097,-0.0849
1080,433.353,5.1093,-0.0854
1083,433.852,5.108,-0.0848
1086,434.354,5.1067,-0.0853
1089,434.85,5.1067,-0.0853
1092,435.346,5.1067,-0.0858
1095,435.846,5.1067,-0.086
1098,436.341,5.1067,-0.0864
1101,436.84,5.1067,-0.0865
1104,437.337,5.1067,-0.0869
1107,437.833,5.1067,-0.0869
1110,438.332,5.107,-0.0872
1113,438.828,5.107,-0.0875
1116,439.329,5.1056,-0.0876
1119,439.823,5.104,-0.088
1122,440.321,5.105,-0.0882
1125,440.818,5.104,-0.0886
1128,441.315,5.1036,-0.0887
1131,441.813,5.1016,-0.0891
1134,442.309,5.1013,-0.0894
1137,442.807,5.1026,-0.0896
1140,443.306,5.102,-0.0898
1143,443.801,5.1026,-0.0902
1146,444.299,5.102,-0.0907
1149,444.797,5.102,-0.0904
1152,445.295,5.1006,-0.0909
1155,445.793,5.1006,-0.091
1158,446.29,5.0993,-0.0912
1161,446.787,5.0993,-0.0917
1164,447.286,5.0993,-0.0915
1167,447.784,5.0979,-0.0916
1170,448.283,5.0979,-0.0923
1173,448.78,5.0966,-0.0921
1176,449.276,5.0956,-0.0922
1179,449.776,5.0939,-0.0924
1182,450.272,5.0939,-0.093
1185,450.775,5.0942,-0.0931
1188,451.271,5.0932,-0.093
1191,451.769,5.0932,-0.0931
1194,452.266,5.0922,-0.0933
1197,452.766,5.0909,-0.0933
1200,453.264,5.0909,-0.0934
1203,453.762,5.0909,-0.0935
1206,454.26,5.0906,-0.0938
1209,454.759,5.0885,-0.094
1212,455.259,5.0882,-0.0938
1215,455.756,5.0869,-0.094
1218,456.254,5.0869,-0.0941
1221,456.754,5.0869,-0.094
1224,457.255,5.0855,-0.0939
1227,457.751,5.0838,-0.0933
1230,458.252,5.0838,-0.0932
1233,458.751,5.0825,-0.0932
1236,459.248,5.0825,-0.0928
1239,459.748,5.0812,-0.0932
1242,460.248,5.0798,-0.0936
1245,460.745,5.0785,-0.0946
1248,461.245,5.0771,-0.0949
1251,461.743,5.0771,-0.0953
1254,462.245,5.0758,-0.0958
1257,462.741,5.0758,-0.0964
1260,463.241,5.0745,-0.0968
1263,463.738,5.0745,-0.0972
1266,464.239,5.0731,-0.0974
1269,464.739,5.0718,-0.0978
1272,465.238,5.0718,-0.0979
1275,465.737,5.0691,-0.0979
1278,466.237,5.0691,-0.0982
1281,466.735,5.0676,-0.0986
1284,467.235,5.0663,-0.099
1287,467.735,5.065,-0.0989
1290,468.236,5.065,-0.099
1293,468.735,5.0623,-0.0994
1296,469.233,5.0606,-0.0995
1299,469.732,5.0599,-0.0998
1302,470.231,5.0596,-0.0997
1305,470.73,5.0582,-0.0999
1308,471.228,5.0569,-0.1001
1311,471.728,5.0546,-0.1001
1314,472.228,5.0542,-0.1005
1317,472.726,5.0542,-0.1005
1320,473.223,5.0529,-0.101
1323,473.726,5.0529,-0.1013
1326,474.221,5.0502,-0.1014
1329,474.721,5.0468,-0.102
1332,475.22,5.0455,-0.1023
1335,475.718,5.0448,-0.1026
1338,476.215,5.0448,-0.1031
1341,476.715,5.0435,-0.1032
1344,477.213,5.0422,-0.1032
1347,477.711,5.0408,-0.1035
1350,478.209,5.0395,-0.1036
1353,478.705,5.0368,-0.1037
1356,479.203,5.0361,-0.1039
1359,479.701,5.0354,-0.1042
1362,480.2,5.0348,-0.1043
1365,480.698,5.0331,-0.1043
1368,481.195,5.0321,-0.1047
1371,481.692,5.0297,-0.105
1374,482.187,5.0281,-0.1054
1377,482.685,5.0267,-0.1059
1380,483.185,5.024,-0.1061
1383,483.679,5.0227,-0.1066
1386,484.175,5.0214,-0.1067
1389,484.671,5.02,-0.1072
1392,485.171,5.018,-0.1074
1395,485.667,5.016,-0.1074
1398,486.165,5.0143,-0.1078
1401,486.661,5.0126,-0.108
1404,487.156,5.0106,-0.1085
1407,487.655,5.0093,-0.1089
1410,488.152,5.0078,-0.1091
1413,488.648,5.0065,-0.1095
1416,489.143,5.0051,-0.1098
1419,489.641,5.0041,-0.1098
1422,490.137,5.0025,-0.11
1425,490.635,4.9998,-0.11
1428,491.131,4.9983,-0.1098
1431,491.628,4.997,-0.1097
1434,492.126,4.9944,-0.1093
1437,492.624,4.9931,-0.1092
1440,493.119,4.9917,-0.1087
1443,493.618,4.9901,-0.108
1446,494.117,4.9871,-0.1077
1449,494.613,4.9851,-0.1072
1452,495.109,4.9838,-0.1074
1455,495.61,4.9816,-0.1073
1458,496.108,4.9799,-0.1073
1461,496.606,4.9779,-0.1074
1464,497.103,4.9747,-0.1072
1467,497.6,4.9734,-0.1075
1470,498.099,4.9707,-0.1077
1473,498.597,4.9707,-0.108
1476,499.095,4.9677,-0.1083
1479,499.592,4.9661,-0.1083
1482,500.088,4.9647,-0.1084
1485,500.587,4.9618,-0.1087
1488,501.086,4.9591,-0.1087
1491,501.584,4.9576,-0.109
1494,502.081,4.9546,-0.1096
1497,502.583,4.9533,-0.1096
1500,503.081,4.9509,-0.1103
1503,503.578,4.9488,-0.1108
1506,504.076,4.9462,-0.1114
1509,504.578,4.9441,-0.1121
1512,505.078,4.942,-0.1127
1515,505.576,4.9399,-0.1131
1518,506.075,4.9372,-0.1138
1521,506.572,4.9356,-0.1144
1524,507.072,4.9315,-0.115
1527,507.572,4.93,-0.1158
1530,508.071,4.9278,-0.1161
1533,508.571,4.9244,-0.1168
1536,509.069,4.9216,-0.117
1539,509.57,4.9191,-0.1176
1542,510.069,4.9163,-0.118
1545,510.567,4.9134,-0.1181
1548,511.068,4.9107,-0.1185
1551,511.569,4.9062,-0.1188
1554,512.068,4.9037,-0.119
1557,512.568,4.9011,-0.1192
1560,513.067,4.8979,-0.1199
1563,513.566,4.8949,-0.12
1566,514.066,4.8917,-0.1203
1569,514.567,4.8888,-0.1205
1572,515.066,4.8858,-0.121
1575,515.565,4.8822,-0.1212
1578,516.064,4.8793,-0.1216
1581,516.563,4.8755,-0.1218
1584,517.063,4.8728,-0.1219
1587,517.562,4.8703,-0.1223
1590,518.061,4.8667,-0.1225
1593,518.558,4.8638,-0.1228
1596,519.057,4.861,-0.1233
1599,519.556,4.8567,-0.1234
1602,520.053,4.8531,-0.1238
1605,520.553,4.8482,-0.1241
1608,521.051,4.8447,-0.1244
1611,521.55,4.8408,-0.1246
1614,522.049,4.8375,-0.1247
1617,522.549,4.834,-0.125
1620,523.046,4.829,-0.1254
1623,523.544,4.8255,-0.1255
1626,524.044,4.8207,-0.1257
1629,524.542,4.8165,-0.126
1632,525.04,4.813,-0.1263
1635,525.539,4.8095,-0.1267
1638,526.038,4.8055,-0.1267
1641,526.537,4.7999,-0.1269
1644,527.035,4.7949,-0.1272
1647,527.532,4.791,-0.1277
1650,528.031,4.7866,-0.1276
1653,528.529,4.7826,-0.128
1656,529.027,4.778,-0.1281
1659,529.526,4.7733,-0.1283
1662,530.023,4.7678,-0.1284
1665,530.521,4.764,-0.1284
1668,531.018,4.7609,-0.129
1671,531.514,4.756,-0.1292
1674,532.013,4.751,-0.1292
1677,532.51,4.7468,-0.1295
1680,533.008,4.7428,-0.13
1683,533.505,4.7371,-0.1302
1686,534.004,4.7318,-0.1305
1689,534.502,4.7261,-0.1304
1692,535,4.7197,-0.1306
1695,535.497,4.7163,-0.1305
1698,535.996,4.7121,-0.1307
1701,536.492,4.7066,-0.1309
1704,536.99,4.7019,-0.131
1707,537.489,4.6959,-0.1312
1710,537.99,4.6915,-0.1314
1713,538.486,4.6847,-0.1312
1716,538.985,4.6793,-0.1314
1719,539.485,4.6742,-0.1317
1722,539.984,4.6698,-0.132
1725,540.481,4.6644,-0.1322
1728,540.981,4.6586,-0.1326
1731,541.479,4.6536,-0.133
1734,541.978,4.6472,-0.1335
1737,542.476,4.6419,-0.1338
1740,542.975,4.6361,-0.1341
1743,543.476,4.6309,-0.1348
1746,543.976,4.6256,-0.135
1749,544.475,4.6195,-0.1355
1752,544.978,4.6129,-0.136
1755,545.479,4.6064,-0.1364
1758,545.978,4.6016,-0.137
1761,546.479,4.5958,-0.1373
1764,546.98,4.591,-0.1381
1767,547.48,4.585,-0.1387
1770,547.982,4.5792,-0.1394
1773,548.483,4.5735,-0.14
1776,548.986,4.5653,-0.1406
1779,549.488,4.5601,-0.1413
1782,549.987,4.5539,-0.1422
1785,550.489,4.5479,-0.1429
1788,550.99,4.5411,-0.1434
1791,551.492,4.5364,-0.1441
1794,551.992,4.5288,-0.1448
1797,552.492,4.5234,-0.1454
1800,552.993,4.5175,-0.1462
1803,553.494,4.5108,-0.1467
1806,553.995,4.5042,-0.1472
1809,554.494,4.4975,-0.1478
1812,554.992,4.4908,-0.1487
1815,555.495,4.4836,-0.149
1818,555.995,4.4754,-0.1496
1821,556.494,4.4697,-0.1501
1824,556.993,4.4633,-0.1512
1827,557.495,4.4557,-0.1517
1830,557.995,4.4494,-0.1522
1833,558.495,4.4424,-0.153
1836,558.993,4.4354,-0.1534
1839,559.493,4.429,-0.1536
1842,559.993,4.422,-0.1544
1845,560.493,4.4155,-0.155
1848,560.992,4.4083,-0.1556
1851,561.491,4.4011,-0.1562
1854,561.989,4.3943,-0.1568
1857,562.487,4.3866,-0.1572
1860,562.987,4.38,-0.1579
1863,563.488,4.3726,-0.1583
1866,563.988,4.3648,-0.1588
1869,564.487,4.3579,-0.1593
1872,564.986,4.3509,-0.1597
1875,565.484,4.3417,-0.1601
1878,565.985,4.3352,-0.1607
1881,566.483,4.3279,-0.1611
1884,566.982,4.3205,-0.1617
1887,567.481,4.3138,-0.1624
1890,567.98,4.3066,-0.1629
1893,568.48,4.2997,-0.163
1896,568.978,4.292,-0.1635
1899,569.478,4.2831,-0.1639
1902,569.977,4.275,-0.1642
1905,570.477,4.2669,-0.1645
1908,570.977,4.2584,-0.1649
1911,571.477,4.2501,-0.165
1914,571.975,4.2431,-0.1652
1917,572.475,4.2334,-0.1655
1920,572.975,4.2244,-0.1652
1923,573.474,4.2167,-0.1659
1926,573.975,4.2092,-0.1658
1929,574.473,4.2008,-0.1663
1932,574.972,4.193,-0.1663
1935,575.471,4.185,-0.1666
1938,575.971,4.1772,-0.1668
1941,576.469,4.1679,-0.167
1944,576.969,4.1579,-0.1674
1947,577.471,4.1493,-0.1672
1950,577.968,4.1402,-0.1672
1953,578.469,4.1318,-0.1675
1956,578.967,4.123,-0.1676
1959,579.468,4.1149,-0.1674
1962,579.965,4.1045,-0.1676
1965,580.465,4.095,-0.1674
1968,580.967,4.0852,-0.1674
1971,581.467,4.0755,-0.1671
1974,581.969,4.0674,-0.1668
1977,582.469,4.0571,-0.1665
1980,582.969,4.047,-0.1662
1983,583.467,4.0365,-0.166
1986,583.968,4.0272,-0.1656
1989,584.466,4.0172,-0.1649
1992,584.966,4.0072,-0.1642
1995,585.467,3.9968,-0.1635
1998,585.967,3.9858,-0.1634
2001,586.465,3.9749,-0.1626
2004,586.965,3.9635,-0.1621
2007,587.464,3.9533,-0.1617
2010,587.966,3.943,-0.1606
2013,588.467,3.9325,-0.1602
2016,588.966,3.9212,-0.1593
2019,589.466,3.9098,-0.1585
2022,589.966,3.8987,-0.158
2025,590.466,3.8869,-0.1571
2028,590.965,3.874,-0.1563
2031,591.463,3.8628,-0.1554
2034,591.962,3.8509,-0.1548
2037,592.463,3.8395,-0.1538
2040,592.963,3.8274,-0.153
2043,593.463,3.8158,-0.1521
2046,593.962,3.8039,-0.1512
2049,594.46,3.7894,-0.1501
2052,594.959,3.7761,-0.149
2055,595.46,3.7649,-0.1479
2058,595.959,3.7514,-0.1472
2061,596.458,3.7409,-0.146
2064,596.957,3.727,-0.1449
2067,597.459,3.713,-0.1439
2070,597.958,3.6997,-0.1428
2073,598.459,3.6868,-0.1419
2076,598.957,3.6731,-0.141
2079,599.455,3.6598,-0.1399
2082,599.954,3.6466,-0.1391
2085,600.453,3.635,-0.1382
2088,600.95,3.6195,-0.137
2091,601.451,3.6052,-0.1362
2094,601.95,3.5923,-0.1351
2097,602.45,3.5789,-0.1342
2100,602.945,3.5662,-0.1335
2103,603.447,3.5498,-0.1326
2106,603.944,3.5357,-0.1318
2109,604.445,3.5219,-0.1308
2112,604.945,3.507,-0.1302
2115,605.443,3.4927,-0.1293
2118,605.943,3.4784,-0.1288
2121,606.442,3.4634,-0.1281
2124,606.941,3.4497,-0.1274
2127,607.439,3.4351,-0.1266
2130,607.937,3.4206,-0.1258
2133,608.437,3.4054,-0.1253
2136,608.936,3.3905,-0.1244
2139,609.436,3.3722,-0.1238
2142,609.934,3.3579,-0.1227
2145,610.432,3.345,-0.1223
2148,610.933,3.3306,-0.1218
2151,611.431,3.3162,-0.1212
2154,611.929,3.2988,-0.1209
2157,612.43,3.2842,-0.1203
2160,612.93,3.2698,-0.1203
2163,613.428,3.2528,-0.1195
2166,613.927,3.2388,-0.1189
2169,614.429,3.2235,-0.1185
2172,614.928,3.2078,-0.1176
2175,615.43,3.1907,-0.1174
2178,615.928,3.1746,-0.1165
2181,616.428,3.1599,-0.1163
2184,616.928,3.144,-0.1156
2187,617.428,3.1276,-0.115
2190,617.925,3.1133,-0.1148
2193,618.427,3.0978,-0.114
2196,618.926,3.0809,-0.1135
2199,619.425,3.0641,-0.1126
2202,619.924,3.0488,-0.1117
2205,620.423,3.0334,-0.1111
2208,620.923,3.0173,-0.1105
2211,621.418,3.0014,-0.1092
2214,621.92,2.9845,-0.1086
2217,622.42,2.967,-0.1075
2220,622.918,2.951,-0.1065
2223,623.415,2.934,-0.1055
2226,623.913,2.9186,-0.1045
2229,624.412,2.9012,-0.103
2232,624.911,2.8851,-0.1017
2235,625.407,2.8677,-0.1005
2238,625.907,2.8504,-0.099
2241,626.405,2.8337,-0.0976
2244,626.902,2.8146,-0.0953
2247,627.403,2.7959,-0.094
2250,627.9,2.7805,-0.0923
2253,628.398,2.7634,-0.0899
2256,628.9,2.7449,-0.088
2259,629.394,2.7267,-0.0858
2262,629.894,2.7097,-0.0833
2265,630.393,2.693,-0.0808
2268,630.892,2.6743,-0.0784
2271,631.393,2.6553,-0.0758
2274,631.892,2.6376,-0.0732
2277,632.389,2.6193,-0.0704
2280,632.89,2.5998,-0.0674
2283,633.389,2.5771,-0.0642
2286,633.889,2.5589,-0.0613
2289,634.387,2.5395,-0.0582
2292,634.887,2.5203,-0.0555
2295,635.386,2.5021,-0.0527
2298,635.886,2.483,-0.0498
2301,636.383,2.463,-0.0468
2304,636.884,2.4409,-0.0439
2307,637.385,2.4195,-0.041
2310,637.883,2.3999,-0.0379
2313,638.383,2.3787,-0.0348
2316,638.882,2.3571,-0.0319
2319,639.382,2.3366,-0.0295
2322,639.883,2.3169,-0.0272
2325,640.385,2.2966,-0.0248
2328,640.886,2.2765,-0.0229
2331,641.384,2.2562,-0.021
2334,641.887,2.2355,-0.0188
2337,642.39,2.2136,-0.0173
2340,642.887,2.1915,-0.0161
2343,643.389,2.17,-0.0154
2346,643.887,2.1491,-0.0146
2349,644.389,2.1274,-0.0141
2352,644.892,2.1053,-0.0145
2355,645.392,2.083,-0.0146
2358,645.891,2.061,-0.0153
2361,646.394,2.0385,-0.017
2364,646.893,2.0178,-0.0191
2367,647.395,1.9973,-0.0217
2370,647.895,1.9775,-0.0249
2373,648.394,1.9572,-0.0291
2376,648.897,1.9361,-0.0334
2379,649.396,1.9152,-0.0389
2382,649.896,1.8972,-0.0448
2385,650.395,1.8789,-0.0514
2388,650.897,1.8572,-0.0592
2391,651.395,1.8383,-0.0673
2394,651.896,1.8206,-0.0761
2397,652.395,1.8031,-0.0861
2400,652.895,1.7834,-0.0966
2403,653.393,1.7644,-0.1077
2406,653.894,1.7472,-0.1192
2409,654.392,1.7314,-0.132
2412,654.891,1.7151,-0.1452
2415,655.389,1.6996,-0.159
2418,655.888,1.6861,-0.1734
2421,656.387,1.6711,-0.1891
2424,656.886,1.6575,-0.2042
2427,657.386,1.6446,-0.22
2430,657.885,1.6318,-0.2364
2433,658.385,1.6212,-0.2532
2436,658.886,1.6096,-0.2698
2439,659.386,1.5993,-0.2868
2442,659.886,1.5925,-0.3036
2445,660.386,1.5828,-0.32
2448,660.884,1.5738,-0.3366
2451,661.385,1.5651,-0.3528
2454,661.886,1.5585,-0.3684
2457,662.386,1.5512,-0.3834
2460,662.886,1.5446,-0.3986
2463,663.387,1.5398,-0.4126
2466,663.887,1.5344,-0.4261
2469,664.385,1.5306,-0.439
2472,664.889,1.526,-0.4509
2475,665.385,1.521,-0.4624
2478,665.886,1.5156,-0.4729
2481,666.387,1.5128,-0.4828
2484,666.886,1.509,-0.4919
2487,667.385,1.5071,-0.5002
2490,667.886,1.5044,-0.508
2493,668.389,1.5014,-0.5153
2496,668.888,1.4981,-0.5212
2499,669.388,1.4952,-0.5271
2502,669.887,1.4918,-0.5323
2505,670.388,1.4901,-0.5374
2508,670.888,1.4869,-0.5415
2511,671.387,1.4845,-0.5456
2514,671.885,1.4823,-0.5494
2517,672.386,1.4803,-0.553
2520,672.887,1.479,-0.5557
2523,673.384,1.4772,-0.5583
2526,673.881,1.4744,-0.5614
2529,674.383,1.4731,-0.5642
2532,674.883,1.4715,-0.5669
2535,675.379,1.4678,-0.5693
2538,675.878,1.4655,-0.5715
2541,676.379,1.4628,-0.5739
2544,676.879,1.4615,-0.5758
2547,677.376,1.4601,-0.5782
2550,677.873,1.4588,-0.5804
2553,678.373,1.4574,-0.5821
2556,678.873,1.4561,-0.5843
2559,679.371,1.4546,-0.5861
2562,679.871,1.4521,-0.5885
2565,680.369,1.4501,-0.5904
2568,680.87,1.4469,-0.5917
2571,681.367,1.4456,-0.5936
2574,681.864,1.4442,-0.5957
2577,682.367,1.4429,-0.5971
2580,682.865,1.4416,-0.599
2583,683.367,1.4391,-0.6006
2586,683.863,1.437,-0.6025
2589,684.363,1.4353,-0.6042
2592,684.863,1.4336,-0.6057
2595,685.363,1.4315,-0.6073
2598,685.861,1.429,-0.6086
2601,686.361,1.4274,-0.6104
2604,686.86,1.426,-0.612
2607,687.359,1.4233,-0.6138
2610,687.855,1.4214,-0.6152
2613,688.356,1.4201,-0.6166
2616,688.855,1.4184,-0.6183
2619,689.354,1.4174,-0.6197
2622,689.851,1.4161,-0.6212
2625,690.352,1.4136,-0.6226
2628,690.848,1.4126,-0.6241
2631,691.349,1.4106,-0.6255
2634,691.848,1.409,-0.6265
2637,692.346,1.4063,-0.6283
2640,692.848,1.4039,-0.6294
2643,693.344,1.4025,-0.6309
2646,693.844,1.4012,-0.6323
2649,694.341,1.3999,-0.6339
2652,694.839,1.3985,-0.6354
2655,695.34,1.3971,-0.6366
2658,695.838,1.3946,-0.6378
2661,696.337,1.3927,-0.6393
2664,696.836,1.3906,-0.6409
2667,697.338,1.3892,-0.6421
2670,697.838,1.388,-0.6435
2673,698.338,1.3858,-0.6445
2676,698.838,1.3843,-0.6465
2679,699.339,1.3823,-0.6477
2682,699.84,1.3795,-0.6491
2685,700.339,1.3782,-0.6505
2688,700.84,1.3768,-0.6522
2691,701.342,1.3753,-0.6536
2694,701.842,1.3721,-0.6548
2697,702.345,1.3707,-0.6562
2700,702.845,1.3692,-0.658
2703,703.344,1.3679,-0.6595
2706,703.845,1.3653,-0.6606
2709,704.345,1.365,-0.6624
2712,704.847,1.3636,-0.6644
2715,705.347,1.3623,-0.6661
2718,705.85,1.3608,-0.6676
2721,706.35,1.3595,-0.6694
2724,706.849,1.3582,-0.671
2727,707.349,1.3567,-0.6722
2730,707.849,1.3545,-0.6736
2733,708.35,1.3528,-0.6751
2736,708.85,1.3502,-0.6767
2739,709.348,1.3502,-0.6777
2742,709.848,1.3489,-0.6793
2745,710.348,1.3475,-0.6815
2748,710.845,1.3462,-0.6824
2751,711.343,1.3449,-0.6838
2754,711.843,1.3437,-0.6851
2757,712.342,1.342,-0.6864
2760,712.84,1.3398,-0.6875
2763,713.343,1.3359,-0.6886
2766,713.84,1.3342,-0.6898
2769,714.34,1.3339,-0.6912
2772,714.835,1.3329,-0.6925
2775,715.334,1.3316,-0.6938
2778,715.833,1.3312,-0.6948
2781,716.33,1.3292,-0.6961
2784,716.829,1.3273,-0.6974
2787,717.328,1.3259,-0.6985
2790,717.826,1.3231,-0.6994
2793,718.325,1.3217,-0.7007
2796,718.824,1.3217,-0.7017
2799,719.322,1.3203,-0.7029
2802,719.822,1.3189,-0.704
2805,720.319,1.3176,-0.7053
2808,720.82,1.3162,-0.7062
2811,721.319,1.3148,-0.7078
2814,721.817,1.3134,-0.7086
2817,722.317,1.3121,-0.7098
2820,722.817,1.3108,-0.7106
2823,723.315,1.3094,-0.7114
2826,723.813,1.3081,-0.7123
2829,724.312,1.308,-0.7136
2832,724.814,1.3066,-0.7145
2835,725.312,1.3053,-0.7154
2838,725.812,1.3036,-0.7161
2841,726.312,1.3013,-0.7169
2844,726.809,1.2999,-0.7178
2847,727.312,1.2986,-0.7183
2850,727.811,1.2972,-0.7196
2853,728.31,1.2966,-0.7202
2856,728.809,1.2944,-0.721
2859,729.309,1.2921,-0.7218
2862,729.809,1.2907,-0.7227
2865,730.308,1.2907,-0.7236
2868,730.81,1.2907,-0.7246
2871,731.308,1.2904,-0.7252
2874,731.81,1.2891,-0.7265
2877,732.311,1.2877,-0.7273
2880,732.811,1.2867,-0.7279
2883,733.311,1.2854,-0.7287
2886,733.811,1.2844,-0.7292
2889,734.313,1.2837,-0.7296
2892,734.814,1.2824,-0.7306
2895,735.314,1.2807,-0.7313
2898,735.816,1.279,-0.7324
2901,736.315,1.2783,-0.7332
2904,736.816,1.277,-0.7337
2907,737.315,1.2757,-0.7348
2910,737.816,1.2757,-0.7355
2913,738.315,1.2743,-0.7363
2916,738.816,1.273,-0.7376
2919,739.316,1.271,-0.7385
2922,739.814,1.27,-0.7389
2925,740.315,1.2678,-0.7395
2928,740.816,1.2672,-0.7406
2931,741.315,1.2665,-0.7022
2934,741.815,1.2652,-0.7046
2937,742.312,1.2652,-0.7084
2940,742.815,1.2652,-0.7117
2943,743.311,1.2652,-0.7143
2946,743.812,1.2638,-0.7166
2949,744.311,1.2625,-0.719
2952,744.807,1.2615,-0.7205
2955,745.312,1.2588,-0.722
2958,745.811,1.257,-0.7238
2961,746.311,1.257,-0.7254
2964,746.812,1.257,-0.7265
2967,747.31,1.2557,-0.7277
2970,747.809,1.2557,-0.7291
2973,748.31,1.2557,-0.7303
2976,748.809,1.253,-0.7315
2979,749.31,1.2516,-0.7322
2982,749.808,1.253,-0.7341
2985,750.308,1.2516,-0.735
2988,750.809,1.2516,-0.736
2991,751.309,1.251,-0.7373
2994,751.808,1.2503,-0.7385
2997,752.306,1.2503,-0.74
3000,752.807,1.2489,-0.7413
3003,753.305,1.2489,-0.7426
3006,753.809,1.2486,-0.7437
3009,754.308,1.2463,-0.7454
3012,754.805,1.2443,-0.7462
3015,755.306,1.2422,-0.7476
3018,755.809,1.2422,-0.7488
3021,756.309,1.2409,-0.7502
3024,756.807,1.2409,-0.751
3027,757.309,1.2409,-0.7527
3030,757.809,1.2409,-0.7537
3033,758.31,1.2409,-0.7552
3036,758.813,1.2396,-0.7566
3039,759.313,1.2382,-0.7575
3042,759.813,1.2392,-0.7588
3045,760.315,1.2375,-0.7598
3048,760.815,1.2359,-0.7607
3051,761.314,1.2352,-0.7622
3054,761.816,1.2315,-0.7636
3057,762.316,1.2312,-0.765
3060,762.816,1.2298,-0.7663
3063,763.313,1.2298,-0.7679
3066,763.812,1.2298,-0.7693
3069,764.313,1.2285,-0.7708
3072,764.813,1.2271,-0.7722
3075,765.314,1.2271,-0.774
3078,765.814,1.2271,-0.7752
3081,766.312,1.2268,-0.7769
3084,766.811,1.2258,-0.7789
3087,767.31,1.2258,-0.78
3090,767.809,1.2258,-0.7814
3093,768.307,1.2251,-0.7829
3096,768.805,1.2235,-0.7839
3099,769.307,1.2221,-0.7854
3102,769.807,1.2221,-0.7869
3105,770.306,1.2221,-0.788
3108,770.805,1.2208,-0.7892
3111,771.304,1.2194,-0.7907
3114,771.807,1.2194,-0.7918
3117,772.306,1.2194,-0.7932
3120,772.806,1.2184,-0.7947
3123,773.306,1.2181,-0.796
3126,773.806,1.2181,-0.7973
3129,774.307,1.2181,-0.799
3132,774.808,1.2167,-0.8002
3135,775.306,1.2167,-0.8016
3138,775.806,1.2164,-0.8029
3141,776.309,1.2154,-0.8044
3144,776.811,1.2151,-0.8057
3147,777.311,1.2151,-0.8071
3150,777.811,1.2137,-0.8088
3153,778.311,1.2131,-0.81
3156,778.811,1.2124,-0.8114
3159,779.314,1.2124,-0.8129
3162,779.815,1.211,-0.8139
3165,780.316,1.2097,-0.8157
3168,780.819,1.2084,-0.8171
3171,781.32,1.2084,-0.8187
3174,781.82,1.2084,-0.82
3177,782.322,1.208,-0.8214
3180,782.824,1.2057,-0.8232
3183,783.325,1.2043,-0.8243
3186,783.825,1.2057,-0.8262
3189,784.326,1.2057,-0.8274
3192,784.829,1.2057,-0.8289
3195,785.331,1.2043,-0.8302
3198,785.833,1.203,-0.8316
3201,786.334,1.203,-0.8328
3204,786.834,1.203,-0.8342
3207,787.334,1.203,-0.8365
3210,787.838,1.2017,-0.8378
3213,788.339,1.201,-0.839
3216,788.837,1.2006,-0.841
3219,789.339,1.1993,-0.8422
3222,789.839,1.198,-0.844
3225,790.338,1.198,-0.8455
3228,790.839,1.1966,-0.8471
3231,791.336,1.1966,-0.8484
3234,791.837,1.1963,-0.8497
3237,792.336,1.1953,-0.8515
3240,792.834,1.1949,-0.8524
3243,793.334,1.1949,-0.8538
3246,793.835,1.1949,-0.8554
3249,794.333,1.1939,-0.8567
3252,794.831,1.1926,-0.8576
3255,795.331,1.1926,-0.8591
3258,795.831,1.1926,-0.8604
3261,796.33,1.1913,-0.8619
3264,796.828,1.1899,-0.8632
3267,797.33,1.1896,-0.8644
3270,797.827,1.1896,-0.8652
3273,798.326,1.1882,-0.8668
3276,798.827,1.1882,-0.8683
3279,799.325,1.1882,-0.8695
3282,799.823,1.1882,-0.8706
3285,800.325,1.1862,-0.8719
3288,800.827,1.1862,-0.8731
3291,801.327,1.1862,-0.8747
3294,801.824,1.1849,-0.876
3297,802.326,1.1849,-0.877
3300,802.824,1.1849,-0.8786
3303,803.324,1.1849,-0.8797
3306,803.826,1.1849,-0.8806
3309,804.327,1.1835,-0.8822
3312,804.828,1.1822,-0.8831
3315,805.329,1.1822,-0.8842
3318,805.828,1.1815,-0.8856
3321,806.33,1.1809,-0.8864
3324,806.828,1.1809,-0.8876
3327,807.33,1.1795,-0.889
3330,807.831,1.1795,-0.8901
3333,808.334,1.1785,-0.8914
3336,808.836,1.1785,-0.8928
3339,809.337,1.1785,-0.894
3342,809.838,1.1772,-0.8957
3345,810.338,1.1762,-0.8966
3348,810.841,1.1762,-0.8979
3351,811.343,1.1762,-0.8995
3354,811.843,1.1762,-0.9002
3357,812.348,1.1762,-0.9015
3360,812.847,1.1762,-0.9026
3363,813.351,1.1755,-0.9043
3366,813.852,1.1755,-0.9052
3369,814.355,1.1742,-0.9065
3372,814.858,1.1735,-0.9079
3375,815.359,1.1718,-0.9094
3378,815.86,1.1718,-0.9105
3381,816.361,1.1718,-0.9113
3384,816.864,1.1705,-0.9129
3387,817.368,1.1695,-0.914
3390,817.87,1.1705,-0.9151
3393,818.373,1.1705,-0.9164
3396,818.874,1.1691,-0.9174
3399,819.376,1.1681,-0.9208
3402,819.878,1.1678,-0.9246
3405,820.38,1.1688,-0.93
3408,820.883,1.1681,-0.9359
3411,821.383,1.1674,-0.9416
3414,821.886,1.1674,-0.9468
3417,822.389,1.1668,-0.9513
3420,822.89,1.1654,-0.9561
3423,823.393,1.1651,-0.9598
3426,823.89,1.1651,-0.9627
3429,824.393,1.1638,-0.9656
3432,824.895,1.1638,-0.9678
3435,825.398,1.1638,-0.9692
3438,825.894,1.1638,-0.9714
3441,826.396,1.1624,-0.9729
3444,826.897,1.1624,-0.9735
3447,827.396,1.1611,-0.9747
3450,827.896,1.1607,-0.9755
3453,828.396,1.1607,-0.9761
3456,828.895,1.1607,-0.977
3459,829.394,1.1594,-0.9783
3462,829.893,1.1607,-0.9789
3465,830.393,1.1607,-0.9802
3468,830.894,1.1594,-0.9815
3471,831.392,1.1594,-0.9826
3474,831.889,1.1581,-0.9831
3477,832.389,1.1567,-0.9842
3480,832.89,1.1567,-0.9852
3483,833.39,1.1567,-0.9861
3486,833.89,1.1554,-0.987
3489,834.389,1.1554,-0.9877
3492,834.888,1.1567,-0.9886
3495,835.387,1.1554,-0.9896
3498,835.888,1.1554,-0.9905
3501,836.384,1.1554,-0.9917
3504,836.885,1.154,-0.9928
3507,837.383,1.1554,-0.9944
3510,837.883,1.154,-0.9955
3513,838.381,1.153,-0.9973
3516,838.882,1.1527,-0.9984
3519,839.379,1.1527,-0.9997
3522,839.879,1.1527,-1.0011
3525,840.379,1.1513,-1.0021
3528,840.879,1.1513,-1.0036
3531,841.378,1.1503,-1.0045
3534,841.877,1.1493,-1.0055
3537,842.376,1.1487,-1.0067
3540,842.878,1.1487,-1.0082
3543,843.376,1.1493,-1.0098
3546,843.878,1.149,-1.0108
3549,844.377,1.149,-1.0123
3552,844.875,1.149,-1.0136
3555,845.375,1.1487,-1.015
3558,845.875,1.1473,-1.0164
3561,846.377,1.1473,-1.0179
3564,846.876,1.1473,-1.019
3567,847.375,1.1473,-1.0202
3570,847.875,1.1473,-1.0213
3573,848.375,1.146,-1.0225
3576,848.877,1.1446,-1.0243
3579,849.375,1.144,-1.0254
3582,849.875,1.1446,-1.0275
3585,850.376,1.144,-1.0286
3588,850.874,1.142,-1.0305
3591,851.372,1.142,-1.032
3594,851.873,1.1406,-1.0333
3597,852.37,1.1406,-1.0344
3600,852.869,1.1416,-1.0355
3603,853.367,1.1406,-1.0369
3606,853.868,1.1406,-1.0376
3609,854.367,1.1396,-1.0387
3612,854.865,1.1396,-1.0396
3615,855.364,1.1383,-1.0409
3618,855.861,1.1383,-1.0421
3621,856.36,1.1383,-1.043
3624,856.859,1.1369,-1.0443
3627,857.356,1.1369,-1.0457
3630,857.855,1.1369,-1.0472
3633,858.354,1.1369,-1.0482
3636,858.854,1.1369,-1.0491
3639,859.353,1.1369,-1.0496
3642,859.851,1.1356,-1.0505
3645,860.35,1.1356,-1.0513
3648,860.849,1.1342,-1.0515
3651,861.348,1.1342,-1.0527
3654,861.849,1.1342,-1.0544
3657,862.347,1.1342,-1.0559
3660,862.85,1.1342,-1.058
3663,863.349,1.1329,-1.0598
3666,863.847,1.1329,-1.0615
3669,864.346,1.1329,-1.0629
3672,864.846,1.1316,-1.0647
3675,865.345,1.1316,-1.0656
3678,865.846,1.1316,-1.0671
3681,866.343,1.1316,-1.0686
3684,866.842,1.1295,-1.07
3687,867.336,1.1295,-1.0712
3690,867.834,1.1295,-1.0728
3693,868.329,1.1295,-1.0743
3696,868.828,1.1295,-1.0753
3699,869.326,1.1282,-1.0764
3702,869.822,1.1289,-1.0777
3705,870.318,1.1289,-1.079
3708,870.816,1.1282,-1.0795
3711,871.314,1.1282,-1.0806
3714,871.81,1.1282,-1.0822
3717,872.307,1.1272,-1.0836
3720,872.804,1.1259,-1.085
3723,873.303,1.1259,-1.0862
3726,873.802,1.1259,-1.087
3729,874.3,1.1259,-1.0874
3732,874.799,1.1245,-1.0876
3735,875.295,1.1245,-1.0876
3738,875.796,1.1238,-1.0873
3741,876.296,1.1249,-1.0869
3744,876.795,1.1249,-1.0867
3747,877.293,1.1249,-1.0866
3750,877.791,1.1242,-1.0871
3753,878.29,1.1228,-1.0872
3756,878.791,1.1218,-1.0883
3759,879.292,1.1202,-1.09
3762,879.794,1.1191,-1.0924
3765,880.293,1.1188,-1.0947
3768,880.795,1.1198,-1.0977
3771,881.294,1.1205,-1.0999
3774,881.797,1.1208,-1.1015
3777,882.297,1.1205,-1.1033
3780,882.798,1.1195,-1.1048
3783,883.3,1.1181,-1.1054
3786,883.801,1.1181,-1.1063
3789,884.306,1.1181,-1.107
3792,884.805,1.1168,-1.1074
3795,885.311,1.1168,-1.1084
3798,885.813,1.1168,-1.109
3801,886.314,1.1171,-1.1099
3804,886.817,1.1161,-1.1106
3807,887.324,1.1161,-1.1119
3810,887.825,1.1158,-1.113
3813,888.327,1.1168,-1.1141
3816,888.83,1.1168,-1.1159
3819,889.335,1.1168,-1.1174
3822,889.836,1.1161,-1.1191
3825,890.34,1.1161,-1.1204
3828,890.844,1.1158,-1.1224
3831,891.344,1.1155,-1.1252
3834,891.848,1.1148,-1.128
3837,892.349,1.1141,-1.131
3840,892.853,1.1141,-1.1347
3843,893.355,1.1141,-1.1383
3846,893.857,1.1114,-1.1423
3849,894.359,1.1114,-1.1447
3852,894.86,1.1138,-1.1473
3855,895.36,1.1138,-1.1493
3858,895.86,1.1124,-1.1514
3861,896.361,1.1124,-1.1532
3864,896.861,1.1124,-1.1551
3867,897.363,1.1111,-1.1567
3870,897.862,1.1111,-1.158
3873,898.36,1.1111,-1.16
3876,898.861,1.1104,-1.161
3879,899.361,1.1098,-1.1628
3882,899.861,1.1098,-1.1642
3885,900.361,1.1098,-1.1659
3888,900.858,1.1084,-1.1675
3891,901.362,1.1084,-1.1692
3894,901.861,1.1081,-1.171
3897,902.362,1.1084,-1.1724
3900,902.861,1.1084,-1.1743
3903,903.362,1.1081,-1.176
3906,903.862,1.1081,-1.1774
3909,904.362,1.1071,-1.1791
3912,904.864,1.1057,-1.1808
3915,905.364,1.1057,-1.1824
3918,905.866,1.1057,-1.1846
3921,906.365,1.1067,-1.1863
3924,906.868,1.1067,-1.1882
3927,907.369,1.1067,-1.1903
3930,907.87,1.1047,-1.1924
3933,908.373,1.1047,-1.194
3936,908.873,1.1047,-1.1971
3939,909.375,1.1051,-1.1999
3942,909.875,1.1037,-1.2043
3945,910.376,1.1037,-1.2079
3948,910.877,1.1051,-1.2111
3951,911.379,1.1051,-1.2138
3954,911.879,1.1037,-1.2156
3957,912.377,1.1024,-1.2179
3960,912.879,1.1031,-1.2189
3963,913.377,1.1034,-1.2206
3966,913.876,1.1031,-1.2215
3969,914.377,1.1017,-1.2229
3972,914.877,1.1017,-1.224
3975,915.374,1.1017,-1.2253
3978,915.874,1.1004,-1.2264
3981,916.372,1.1004,-1.2279
3984,916.87,1.1004,-1.2296
3987,917.369,1.1004,-1.231
3990,917.866,1.099,-1.2325
3993,918.366,1.099,-1.2342
3996,918.865,1.099,-1.2362
3999,919.363,1.099,-1.2379
4002,919.862,1.099,-1.2396
4005,920.36,1.099,-1.2418
4008,920.861,1.099,-1.2441
4011,921.36,1.098,-1.2466
4014,921.859,1.098,-1.2485
4017,922.359,1.098,-1.2504
4020,922.859,1.098,-1.2526
4023,923.357,1.097,-1.2546
4026,923.858,1.0984,-1.2571
4029,924.355,1.0984,-1.2588
4032,924.857,1.098,-1.2614
4035,925.359,1.0957,-1.2633
4038,925.862,1.0953,-1.2644
4041,926.36,1.0967,-1.2672
4044,926.86,1.0967,-1.2696
4047,927.362,1.0967,-1.2723
4050,927.862,1.0947,-1.2744
4053,928.362,1.094,-1.2776
4056,928.865,1.0953,-1.2808
4059,929.365,1.0953,-1.2841
4062,929.866,1.0953,-1.2877
4065,930.364,1.0947,-1.2918
4068,930.863,1.0927,-1.296
4071,931.367,1.094,-1.3004
4074,931.869,1.094,-1.3036
4077,932.367,1.0927,-1.3071
4080,932.869,1.0927,-1.3107
4083,933.372,1.0927,-1.3139
4086,933.872,1.0927,-1.3169
4089,934.374,1.0933,-1.3193
4092,934.873,1.0933,-1.3212
4095,935.373,1.0933,-1.323
4098,935.876,1.0927,-1.3241
4101,936.379,1.0927,-1.3259
4104,936.879,1.092,-1.3272
4107,937.38,1.0913,-1.3286
4110,937.884,1.0913,-1.3302
4113,938.384,1.0913,-1.3318
4116,938.882,1.0913,-1.3329
4119,939.387,1.0913,-1.3349
4122,939.888,1.0913,-1.3368
4125,940.386,1.09,-1.3388
4128,940.888,1.09,-1.3411
4131,941.386,1.0913,-1.3431
4134,941.885,1.0913,-1.3455
4137,942.388,1.0913,-1.3479
4140,942.888,1.09,-1.3505
4143,943.385,1.09,-1.3533
4146,943.887,1.089,-1.3558
4149,944.386,1.0873,-1.3583
4152,944.886,1.0873,-1.3615
4155,945.387,1.0873,-1.3647
4158,945.886,1.0896,-1.3674
4161,946.386,1.0896,-1.3701
4164,946.884,1.0873,-1.3734
4167,947.384,1.087,-1.3759
4170,947.884,1.0883,-1.3795
4173,948.384,1.0883,-1.3822
4176,948.883,1.088,-1.3849
4179,949.384,1.0856,-1.3886
4182,949.882,1.087,-1.3916
4185,950.383,1.087,-1.3946
4188,950.882,1.087,-1.3979
4191,951.381,1.0856,-1.4011
4194,951.88,1.0856,-1.4042
4197,952.381,1.0856,-1.4072
4200,952.88,1.0843,-1.4102
4203,953.378,1.0843,-1.4136
4206,953.875,1.0843,-1.417
4209,954.374,1.0843,-1.4195
4212,954.871,1.0856,-1.422
4215,955.368,1.0856,-1.4252
4218,955.868,1.0846,-1.4284
4221,956.364,1.0836,-1.4315
4224,956.866,1.0833,-1.4349
4227,957.362,1.0833,-1.4385
4230,957.861,1.0833,-1.4421
4233,958.36,1.0839,-1.4452
4236,958.858,1.0839,-1.4493
4239,959.357,1.0839,-1.4523
4242,959.853,1.0853,-1.4562
4245,960.352,1.0846,-1.4596
4248,960.85,1.0839,-1.4635
4251,961.351,1.0826,-1.4668
4254,961.848,1.0826,-1.4702
4257,962.346,1.0839,-1.4739
4260,962.847,1.0839,-1.4773
4263,963.346,1.0839,-1.4807
4266,963.848,1.0826,-1.4839
4269,964.351,1.0826,-1.4869
4272,964.848,1.0826,-1.4904
4275,965.348,1.0823,-1.4932
4278,965.847,1.0813,-1.4971
4281,966.348,1.0813,-1.4999
4284,966.848,1.0799,-1.5028
4287,967.347,1.0813,-1.5062
4290,967.848,1.0819,-1.5096
4293,968.349,1.0819,-1.5115
4296,968.849,1.0806,-1.5136
4299,969.346,1.0813,-1.517
4302,969.847,1.0813,-1.5203
4305,970.346,1.0813,-1.5233
4308,970.849,1.0813,-1.5263
4311,971.35,1.0816,-1.5291
4314,971.848,1.0826,-1.5328
4317,972.347,1.0813,-1.5359
4320,972.849,1.0813,-1.5391
4323,973.25,1.0813,-1.5414