File: Wood/Calibration_Data/TIFP+UCT/TIFP+UCT_Gasification_hor_perpendicular_30kW_R3.csv
Time (s),Mass (g),TC back 1 (K),TC back 2 (K),TC back 3 (K)
0,110.47,298.85,298.55,300.65
2,109.74,299.05,298.65,301.05
4,110.24,299.25,298.85,301.25
6,110.21,299.45,298.95,301.55
8,110.15,299.65,299.05,301.85
10,110.13,299.75,299.25,302.15
12,110.08,299.95,299.35,302.35
14,110.03,300.15,299.45,302.65
16,109.98,300.25,299.55,302.85
18,109.89,300.35,299.65,303.05
20,109.94,300.55,299.75,303.25
22,109.86,300.65,299.85,303.45
24,109.81,300.85,299.95,303.65
26,109.79,300.95,300.05,303.85
28,109.78,301.15,300.15,304.05
30,109.77,301.25,300.25,304.25
32,109.75,301.45,300.35,304.45
34,109.61,301.65,300.45,304.65
36,109.66,301.75,300.55,304.85
38,109.53,301.95,300.65,305.05
40,109.50,302.05,300.75,305.25
42,109.47,302.25,300.85,305.35
44,109.46,302.45,300.95,305.65
46,109.33,302.65,301.05,305.85
48,109.38,302.75,301.15,306.05
50,109.32,303.05,301.25,306.25
52,109.29,303.15,301.35,306.45
54,109.22,303.35,301.45,306.65
56,109.16,303.55,301.65,306.85
58,109.07,303.75,301.65,307.05
60,109.04,303.95,301.85,307.35
62,109.06,304.15,301.95,307.65
64,108.89,304.45,302.15,307.85
66,108.70,304.65,302.35,308.05
68,108.73,304.95,302.55,308.45
70,108.71,305.15,302.75,308.75
72,108.63,305.45,302.85,309.05
74,108.55,305.75,303.15,309.45
76,108.58,306.05,303.35,309.75
78,108.49,306.35,303.55,310.15
80,108.36,306.65,303.85,310.65
82,108.31,306.95,304.05,310.95
84,108.19,307.35,304.35,311.35
86,108.18,307.75,304.65,311.95
88,108.05,308.15,304.95,312.35
90,108.10,308.45,305.25,312.85
92,107.97,309.05,305.65,313.45
94,107.83,309.45,305.95,313.95
96,107.81,309.85,306.35,314.45
98,107.69,310.45,306.85,315.15
100,107.69,310.85,307.15,315.75
102,107.53,311.35,307.55,316.25
104,107.49,311.95,308.15,317.05
106,107.41,312.45,308.55,317.65
108,107.26,312.95,308.95,318.35
110,107.22,313.65,309.65,319.15
112,107.08,314.25,310.05,319.85
114,107.13,314.75,310.55,320.55
116,106.90,315.55,311.25,321.45
118,106.80,316.15,311.85,322.25
120,106.74,316.75,312.35,322.95
122,106.67,317.65,313.15,323.95
124,106.54,318.25,313.75,324.75
126,106.53,318.85,314.35,325.55
128,106.38,319.75,315.15,326.65
130,106.32,320.45,315.85,327.45
132,106.19,321.15,316.45,328.25
134,106.02,322.05,317.35,329.35
136,106.04,322.85,318.05,330.15
138,105.91,323.55,318.75,331.05
140,105.90,324.55,319.65,332.15
142,105.73,325.25,320.35,333.05
144,105.66,326.05,321.05,333.95
146,105.55,327.05,322.05,335.05
148,105.56,327.75,322.85,335.95
150,105.32,328.55,323.55,336.75
152,105.31,329.55,324.55,337.95
154,105.31,330.35,325.35,338.85
156,105.12,331.15,326.05,339.75
158,104.99,332.15,327.15,340.95
160,104.91,332.95,327.95,341.85
162,104.96,333.75,328.65,342.95
164,104.77,334.85,329.75,344.15
166,104.75,335.65,330.55,345.05
168,104.50,336.45,331.35,345.85
170,104.46,337.55,332.35,347.05
172,104.42,338.35,333.15,347.95
174,104.32,339.15,333.95,348.75
176,104.15,340.25,334.95,349.85
178,104.12,341.05,335.75,350.65
180,104.17,341.85,336.45,351.45
182,103.97,342.95,337.55,352.65
184,103.92,343.75,338.35,353.45
186,103.84,344.55,339.05,354.25
188,103.58,345.65,340.05,355.25
190,103.50,346.45,340.85,356.05
192,103.38,347.25,341.55,356.75
194,103.30,348.35,342.65,357.75
196,103.28,349.15,343.35,358.55
198,103.14,349.95,344.05,359.25
200,102.94,350.95,345.05,360.15
202,103.02,351.75,345.85,360.85
204,102.92,352.55,346.55,361.55
206,102.79,353.45,347.45,362.35
208,102.78,354.25,348.15,363.05
210,102.64,354.95,348.85,363.65
212,102.62,355.95,349.85,364.45
214,102.52,356.65,350.55,365.15
216,102.37,357.35,351.25,365.75
218,102.25,358.25,352.25,366.45
220,102.26,358.95,352.95,367.05
222,102.17,359.55,353.65,367.65
224,102.13,360.45,354.65,368.35
226,101.95,361.15,355.25,368.85
228,101.96,361.75,355.85,369.35
230,101.87,362.65,356.75,370.05
232,101.74,363.25,357.35,370.55
234,101.66,363.85,357.95,371.05
236,101.60,364.65,358.65,371.75
238,101.41,365.25,359.25,372.15
240,101.42,365.85,359.85,372.65
242,101.40,366.65,360.65,373.25
244,101.16,367.25,361.15,373.65
246,101.11,367.75,361.65,374.05
248,101.10,368.55,362.35,374.65
250,101.06,369.05,362.85,375.05
252,100.93,369.55,363.35,375.45
254,100.85,370.25,364.05,375.95
256,100.73,370.75,364.55,376.35
258,100.62,371.25,365.05,376.65
260,100.67,371.95,365.65,377.05
262,100.46,372.45,366.15,377.35
264,100.92,372.85,366.55,377.55
266,100.40,373.45,367.15,377.95
268,100.26,373.95,367.65,378.15
270,100.16,374.45,368.05,378.45
272,100.19,374.95,368.55,378.75
274,100.07,375.45,368.95,378.95
276,100.01,375.75,369.35,379.15
278,99.96,376.35,369.85,379.45
280,99.73,376.65,370.25,379.65
282,99.68,377.05,370.65,379.85
284,99.59,377.45,371.15,380.05
286,99.50,377.75,371.55,380.15
288,99.41,377.95,371.85,380.35
290,99.27,378.25,372.35,380.55
292,99.25,378.45,372.65,380.65
294,99.12,378.65,373.05,380.85
296,98.97,378.95,373.45,380.95
298,98.96,379.05,373.75,381.05
300,98.83,379.15,374.05,381.25
302,98.73,379.35,374.45,381.45
304,98.66,379.45,374.85,381.55
306,98.56,379.55,375.05,381.65
308,98.49,379.65,375.45,381.75
310,98.30,379.75,375.75,381.85
312,98.29,379.85,376.05,381.95
314,98.17,379.95,376.35,382.05
316,98.07,380.05,376.55,382.15
318,97.93,380.05,376.65,382.25
320,97.70,380.15,376.85,382.45
322,97.73,380.25,377.05,382.55
324,97.59,380.35,377.15,382.65
326,97.49,380.85,377.35,382.75
328,97.42,381.15,377.45,382.85
330,97.30,381.35,377.55,382.95
332,97.16,381.45,377.65,383.05
334,96.93,381.55,377.75,383.15
336,96.81,381.65,377.85,383.25
338,96.76,381.75,377.95,383.35
340,96.68,381.85,378.05,383.45
342,96.61,381.95,378.05,383.45
344,96.54,382.05,378.15,383.55
346,96.54,382.15,378.15,383.65
348,96.38,382.25,378.25,383.75
350,96.29,382.25,378.25,383.85
352,96.26,382.35,378.25,383.95
354,96.25,382.45,378.35,384.05
356,96.12,382.55,378.35,384.15
358,95.91,382.55,378.45,384.25
360,95.87,382.65,378.45,384.25
362,95.78,382.75,378.55,384.35
364,95.67,382.85,378.55,384.45
366,95.69,382.85,378.65,384.55
368,95.60,382.95,378.65,384.65
370,95.52,383.05,378.75,384.65
372,95.47,383.05,378.75,384.75
374,95.34,383.15,378.75,384.95
376,95.21,383.25,378.85,385.05
378,95.24,383.25,378.85,385.05
380,95.21,383.35,378.95,385.15
382,95.10,383.45,378.95,385.25
384,94.90,383.45,379.05,385.35
386,94.76,383.55,379.05,385.45
388,94.72,383.65,379.15,385.55
390,94.59,383.65,379.15,385.65
392,94.49,383.75,379.15,385.75
394,94.47,383.75,379.25,385.85
396,94.44,383.85,379.25,385.85
398,94.32,383.95,379.25,385.95
400,94.25,384.05,379.35,386.05
402,94.18,384.05,379.35,386.05
404,94.00,384.15,379.45,386.25
406,93.92,384.25,379.45,386.25
408,94.05,384.25,379.55,386.35
410,93.91,384.35,379.55,386.45
412,93.90,384.45,379.65,386.55
414,93.84,384.45,379.65,386.65
416,93.60,384.55,379.65,386.75
418,93.52,384.55,379.65,386.75
420,93.51,384.65,379.75,386.85
422,93.47,384.75,379.85,387.05
424,93.44,384.85,379.85,387.15
426,93.26,384.85,379.85,387.15
428,93.26,384.95,379.95,387.25
430,93.16,385.05,379.95,387.35
432,93.07,385.05,379.95,387.45
434,92.89,385.15,380.05,387.55
436,92.85,385.15,380.05,387.65
438,92.80,385.25,380.05,387.75
440,92.74,385.25,380.15,387.85
442,92.60,385.35,380.15,387.85
444,92.49,385.45,380.15,387.95
446,92.61,385.45,380.25,388.05
448,92.44,385.55,380.25,388.15
450,92.31,385.65,380.35,388.25
452,92.33,385.75,380.35,388.35
454,92.13,385.75,380.45,388.45
456,92.05,385.85,380.45,388.55
458,91.99,385.95,380.55,388.65
460,91.88,386.05,380.55,388.75
462,91.94,386.05,380.65,388.85
464,91.74,386.15,380.65,388.95
466,91.78,386.15,380.65,389.05
468,91.67,386.25,380.75,389.15
470,91.59,386.35,380.75,389.25
472,91.45,386.35,380.85,389.35
474,91.43,386.45,380.85,389.45
476,91.40,386.55,380.85,389.55
478,91.29,386.65,380.95,389.65
480,91.27,386.65,380.95,389.75
482,91.14,386.75,381.05,389.85
484,91.02,386.85,381.05,389.95
486,90.98,386.85,381.15,390.05
488,90.95,386.95,381.15,390.25
490,90.80,387.05,381.15,390.35
492,90.79,387.15,381.25,390.45
494,90.78,387.25,381.35,390.65
496,90.67,387.25,381.35,390.75
498,90.55,387.35,381.35,390.85
500,90.50,387.45,381.45,391.05
502,90.47,387.55,381.45,391.05
504,90.26,387.65,381.55,391.15
506,90.19,387.65,381.55,391.35
508,90.22,387.75,381.65,391.45
510,90.12,387.75,381.65,391.55
512,90.00,387.95,381.75,391.65
514,89.99,387.95,381.75,391.85
516,89.77,388.05,381.75,391.95
518,89.80,388.15,381.85,392.05
520,89.72,388.25,381.85,392.25
522,89.65,388.35,381.85,392.35
524,89.58,388.45,381.95,392.45
526,89.58,388.55,381.95,392.65
528,89.57,388.55,382.05,392.85
530,89.32,388.65,382.15,392.95
532,89.32,388.75,382.15,393.15
534,89.31,388.85,382.25,393.35
536,89.15,388.95,382.25,393.45
538,89.16,389.05,382.35,393.65
540,89.05,389.05,382.35,393.75
542,89.02,389.25,382.45,393.95
544,88.92,389.35,382.45,394.15
546,88.87,389.45,382.55,394.25
548,88.70,389.45,382.65,394.45
550,88.66,389.65,382.65,394.55
552,88.73,389.65,382.75,394.75
554,88.61,389.75,382.75,394.95
556,88.55,389.85,382.85,395.15
558,88.50,389.95,382.85,395.35
560,88.46,390.15,382.95,395.55
562,88.30,390.15,383.05,395.75
564,88.28,390.35,383.05,395.85
566,88.25,390.45,383.15,396.15
568,88.15,390.55,383.25,396.35
570,88.00,390.65,383.25,396.55
572,87.89,390.85,383.35,396.85
574,87.88,390.95,383.45,397.05
576,87.83,391.05,383.45,397.15
578,87.76,391.15,383.55,397.45
580,87.63,391.35,383.65,397.65
582,87.74,391.45,383.65,397.85
584,87.69,391.55,383.75,398.15
586,87.47,391.75,383.85,398.35
588,87.44,391.85,383.85,398.55
590,87.42,392.05,383.95,398.85
592,87.24,392.15,384.05,399.15
594,87.29,392.25,384.15,399.35
596,87.29,392.45,384.25,399.75
598,87.22,392.55,384.35,399.95
600,87.16,392.75,384.35,400.25
602,87.02,392.85,384.45,400.55
604,86.91,393.05,384.55,400.85
606,86.85,393.15,384.65,401.05
608,86.87,393.35,384.75,401.45
610,86.72,393.55,384.85,401.65
612,86.71,393.75,384.95,401.95
614,86.75,393.95,385.05,402.25
616,86.51,394.05,385.15,402.55
618,86.62,394.25,385.15,402.85
620,86.58,394.45,385.25,403.25
622,86.52,394.65,385.35,403.55
624,86.31,394.85,385.45,403.85
626,86.41,395.05,385.65,404.25
628,86.27,395.25,385.75,404.55
630,86.10,395.45,385.85,404.85
632,86.13,395.65,385.95,405.25
634,86.07,395.85,386.05,405.65
636,86.01,396.05,386.15,405.95
638,85.93,396.35,386.25,406.35
640,85.98,396.45,386.45,406.75
642,85.94,396.75,386.45,407.15
644,85.75,397.05,386.65,407.65
646,85.77,397.25,386.75,407.95
648,85.62,397.45,386.85,408.45
650,85.75,397.75,387.05,408.95
652,85.60,398.05,387.15,409.25
654,85.54,398.25,387.25,409.65
656,85.41,398.55,387.45,410.25
658,85.40,398.75,387.55,410.55
660,85.30,399.05,387.75,410.95
662,85.25,399.35,387.85,411.45
664,85.24,399.65,388.05,411.95
666,85.15,399.85,388.15,412.35
668,85.10,400.25,388.35,412.85
670,84.99,400.45,388.55,413.25
672,84.89,400.75,388.65,413.65
674,84.89,401.15,388.85,414.25
676,84.77,401.35,388.95,414.65
678,84.76,401.65,389.15,415.15
680,84.69,402.05,389.35,415.65
682,84.60,402.25,389.45,416.15
684,84.60,402.55,389.65,416.55
686,84.54,402.95,389.85,417.15
688,84.43,403.35,390.05,417.55
690,84.43,403.65,390.25,418.05
692,84.33,404.05,390.45,418.65
694,84.33,404.35,390.65,419.15
696,84.30,404.65,390.85,419.65
698,84.20,405.05,391.05,420.25
700,84.01,405.45,391.25,420.75
702,83.99,405.75,391.45,421.25
704,83.91,406.15,391.65,421.85
706,83.81,406.55,391.95,422.35
708,83.79,406.85,392.15,422.85
710,83.73,407.35,392.35,423.65
712,83.62,407.65,392.55,424.15
714,83.54,408.05,392.85,424.65
716,83.46,408.55,393.05,425.35
718,83.37,408.95,393.35,425.85
720,83.36,409.25,393.55,426.25
722,83.33,409.75,393.85,427.05
724,83.23,410.15,394.15,427.55
726,83.27,410.55,394.35,428.05
728,83.13,410.95,394.65,428.75
730,83.05,411.45,394.95,429.35
732,83.03,411.75,395.15,429.85
734,82.90,412.25,395.45,430.45
736,82.86,412.65,395.75,431.05
738,82.80,413.05,396.05,431.55
740,82.62,413.55,396.45,432.25
742,82.68,413.95,396.75,432.75
744,82.58,414.35,396.95,433.25
746,82.52,414.95,397.35,433.95
748,82.52,415.35,397.65,434.45
750,82.57,415.75,397.95,435.05
752,82.44,416.25,398.35,435.75
754,82.34,416.65,398.65,436.25
756,82.28,417.05,398.85,436.75
758,82.25,417.65,399.35,437.45
760,82.18,418.05,399.55,438.05
762,82.10,418.45,399.95,438.55
764,82.09,419.05,400.35,439.25
766,81.89,419.45,400.65,439.75
768,81.87,419.95,401.05,440.25
770,81.86,420.45,401.45,440.95
772,81.77,420.95,401.75,441.55
774,81.78,421.35,402.15,442.05
776,81.64,421.95,402.55,442.75
778,81.64,422.35,402.95,443.25
780,81.60,422.85,403.35,443.75
782,81.52,423.45,403.85,444.45
784,81.41,423.85,404.15,444.95
786,81.36,424.35,404.75,445.55
788,81.30,424.95,405.25,446.15
790,81.26,425.45,405.65,446.75
792,81.16,425.85,406.05,447.25
794,80.99,426.45,406.55,447.95
796,81.08,426.95,406.95,448.45
798,81.06,427.45,407.35,448.95
800,81.03,428.05,407.85,449.75
802,80.95,428.45,408.25,450.25
804,80.91,428.95,408.65,450.75
806,80.83,429.55,409.15,451.45
808,80.68,430.05,409.65,451.95
810,80.63,430.55,410.05,452.45
812,80.60,431.15,410.55,453.15
814,80.50,431.55,410.95,453.65
816,80.46,432.05,411.35,454.15
818,80.43,432.65,411.95,454.85
820,80.43,433.15,412.55,455.35
822,80.22,433.65,413.05,455.95
824,80.25,434.25,413.65,456.55
826,80.13,434.75,414.05,457.05
828,80.17,435.25,414.45,457.55
830,80.10,435.85,415.05,458.25
832,80.00,436.25,415.45,458.85
834,79.97,436.75,415.95,459.35
836,79.88,437.35,416.45,460.05
838,79.80,437.85,416.95,460.45
840,79.74,438.35,417.35,460.95
842,79.79,438.95,417.95,461.65
844,79.67,439.45,418.65,462.15
846,79.59,439.95,419.15,462.65
848,79.66,440.55,419.75,463.25
850,79.47,441.05,420.15,463.85
852,79.38,441.45,420.65,464.35
854,79.33,442.15,421.25,464.85
856,79.33,442.65,421.75,465.45
858,79.18,443.15,422.25,465.85
860,79.23,443.75,422.85,466.55
862,79.14,444.25,423.35,467.05
864,79.04,444.65,423.85,467.45
866,79.02,445.25,424.35,468.15
868,78.98,445.75,424.95,468.65
870,78.89,446.25,425.35,469.05
872,78.83,446.85,426.05,469.75
874,78.84,447.35,426.55,470.15
876,78.67,447.75,426.95,470.65
878,78.67,448.45,427.05,471.25
880,78.57,448.85,427.45,471.75
882,78.53,449.35,427.85,472.15
884,78.54,449.95,428.55,472.85
886,78.44,450.45,429.05,473.35
888,78.41,450.85,429.55,473.75
890,78.35,451.55,430.15,474.35
892,78.12,451.95,430.65,474.85
894,78.26,452.45,431.15,475.35
896,78.15,453.05,431.85,475.95
898,78.10,453.45,432.35,476.35
900,77.96,453.95,432.85,476.85
902,78.06,454.55,433.55,477.45
904,77.90,455.05,433.85,477.95
906,77.81,455.45,434.35,478.35
908,77.76,456.05,435.05,478.95
910,77.77,456.55,435.55,479.45
912,77.68,456.95,436.05,479.85
914,77.57,457.55,436.75,480.45
916,77.53,458.05,437.25,480.85
918,77.57,458.45,437.75,481.35
920,77.43,459.05,438.35,481.85
922,77.38,459.55,438.85,482.35
924,77.28,459.95,439.35,482.75
926,77.25,460.55,440.05,483.35
928,77.20,460.95,440.65,483.75
930,77.08,461.45,441.15,484.15
932,77.11,462.05,441.85,484.75
934,76.96,462.45,442.35,485.25
936,76.98,462.95,442.95,485.65
938,76.82,463.55,443.55,486.25
940,76.71,463.95,444.05,486.65
942,76.80,464.35,444.65,487.15
944,76.64,464.95,445.25,487.65
946,76.60,465.35,445.85,488.05
948,76.59,465.85,446.35,488.45
950,76.51,466.35,446.95,489.05
952,76.45,466.85,447.45,489.45
954,76.40,467.25,447.95,489.85
956,76.36,467.75,448.65,490.45
958,76.30,468.25,449.15,490.85
960,76.17,468.65,449.75,491.25
962,76.13,469.15,450.45,491.85
964,76.09,469.65,450.95,492.25
966,76.06,470.05,451.45,492.65
968,75.97,470.55,452.05,493.15
970,75.88,471.05,452.55,493.55
972,75.86,471.45,453.15,493.95
974,75.76,471.95,453.75,494.45
976,75.74,472.45,454.25,494.85
978,75.65,472.85,454.75,495.25
980,75.56,473.35,455.45,495.75
982,75.48,473.65,456.05,496.15
984,75.43,474.15,456.55,496.55
986,75.31,474.75,457.15,497.05
988,75.29,475.15,457.65,497.55
990,75.27,475.55,458.25,497.95
992,75.04,476.15,458.85,498.45
994,75.15,476.55,459.45,498.75
996,75.00,476.95,459.95,499.15
998,74.94,477.45,460.55,499.65
1000,74.83,477.85,461.15,500.05
1002,74.81,478.25,461.65,500.45
1004,74.76,478.75,462.35,500.85
1006,74.65,479.15,462.75,501.25
1008,74.60,479.55,463.35,501.65
1010,74.58,480.15,464.05,502.15
1012,74.49,480.45,464.55,502.45
1014,74.43,480.95,465.05,502.85
1016,74.28,481.45,465.65,503.35
1018,74.19,481.85,466.25,503.75
1020,74.20,482.25,466.75,504.15
1022,74.09,482.75,467.35,504.65
1024,74.01,483.15,467.75,504.95
1026,73.87,483.45,468.35,505.35
1028,73.85,484.05,469.15,505.75
1030,73.78,484.35,469.65,506.15
1032,73.78,484.75,470.15,506.55
1034,73.76,485.25,470.75,506.95
1036,73.69,485.65,471.35,507.35
1038,73.59,486.05,471.85,507.65
1040,73.44,486.55,472.45,508.15
1042,73.43,486.95,472.95,508.55
1044,73.28,487.35,473.45,508.85
1046,73.26,487.85,474.05,509.25
1048,73.25,488.15,474.45,509.65
1050,73.09,488.55,474.95,509.95
1052,73.01,489.05,475.55,510.45
1054,72.99,489.35,475.95,510.75
1056,72.90,489.75,476.45,511.05
1058,72.83,490.25,477.05,511.55
1060,72.74,490.65,477.55,511.85
1062,72.72,491.05,477.95,512.15
1064,72.63,491.45,478.55,512.55
1066,72.57,491.85,478.95,512.95
1068,72.45,492.25,479.45,513.25
1070,72.35,492.65,480.05,513.65
1072,72.31,493.05,480.45,514.05
1074,72.22,493.35,480.85,514.35
1076,72.12,493.85,481.45,514.75
1078,72.09,494.25,481.85,515.15
1080,71.91,494.55,482.35,515.45
1082,71.93,495.05,482.95,515.85
1084,71.80,495.45,483.25,516.15
1086,71.78,495.75,483.75,516.45
1088,71.68,496.25,484.35,516.95
1090,71.68,496.65,484.75,517.25
1092,71.53,496.95,485.15,517.55
1094,71.42,497.45,485.75,518.05
1096,71.33,497.75,486.15,518.35
1098,71.35,497.95,486.55,518.65
1100,71.16,498.45,487.05,519.05
1102,71.15,498.95,487.45,519.25
1104,71.04,499.25,487.85,519.65
1106,70.91,499.65,488.45,520.05
1108,70.91,500.05,488.85,520.25
1110,70.87,500.35,489.25,520.65
1112,70.76,500.85,489.85,521.05
1114,70.66,501.15,490.25,521.35
1116,70.54,501.45,490.65,521.65
1118,70.42,501.95,491.25,522.15
1120,70.42,502.25,491.55,522.35
1122,70.32,502.65,492.05,522.75
1124,70.29,503.05,492.55,523.15
1126,70.26,503.45,493.05,523.45
1128,70.10,503.75,493.35,523.75
1130,70.02,504.25,493.85,524.15
1132,69.99,504.55,494.25,524.45
1134,69.85,504.95,494.65,524.75
1136,69.83,505.35,495.05,525.05
1138,69.67,505.65,495.55,525.45
1140,69.71,506.05,495.95,525.65
1142,69.54,506.45,496.45,526.05
1144,69.48,506.75,496.85,526.45
1146,69.41,507.15,497.25,526.75
1148,69.29,507.65,497.75,527.05
1150,69.24,507.95,498.15,527.45
1152,69.09,508.25,498.55,527.75
1154,69.13,508.75,499.05,528.05
1156,69.01,509.05,499.45,528.35
1158,68.86,509.35,499.85,528.65
1160,68.73,509.85,500.35,529.15
1162,68.80,510.15,500.75,529.45
1164,68.64,510.45,501.05,529.75
1166,68.61,510.95,501.65,530.05
1168,68.53,511.25,502.05,530.35
1170,68.35,511.55,502.35,530.65
1172,68.30,512.05,502.85,531.05
1174,68.28,512.35,503.25,531.35
1176,68.16,512.65,503.65,531.65
1178,68.09,513.05,504.15,532.05
1180,67.92,513.35,504.55,532.35
1182,67.92,513.65,504.95,532.65
1184,67.84,514.15,505.45,533.05
1186,67.72,514.45,505.75,533.35
1188,67.63,514.75,506.15,533.65
1190,67.46,515.25,506.75,534.15
1192,67.45,515.55,507.05,534.35
1194,67.39,515.85,507.45,534.65
1196,67.36,516.35,507.95,535.15
1198,67.16,516.65,508.35,535.35
1200,67.08,516.95,508.75,535.65
1202,67.05,517.35,509.25,536.15
1204,66.89,517.75,509.65,536.45
1206,66.81,518.05,509.95,536.75
1208,66.68,518.45,510.45,537.15
1210,66.73,518.75,510.85,537.45
1212,66.60,519.05,511.15,537.65
1214,66.47,519.45,511.65,538.05
1216,66.35,519.85,512.05,538.35
1218,66.35,520.15,512.35,538.65
1220,66.30,520.55,512.85,539.05
1222,66.13,520.85,513.25,539.35
1224,66.01,521.15,513.65,539.65
1226,65.98,521.55,514.05,540.05
1228,65.85,521.95,514.45,540.35
1230,65.78,522.25,514.75,540.65
1232,65.74,522.65,515.25,541.05
1234,65.59,522.95,515.65,541.35
1236,65.48,523.25,516.05,541.65
1238,65.43,523.65,516.45,542.05
1240,65.31,523.95,516.95,542.35
1242,65.22,524.25,517.25,542.65
1244,65.20,524.65,517.75,543.05
1246,65.04,524.95,518.15,543.25
1248,64.99,525.25,518.45,543.55
1250,64.87,525.65,518.95,544.05
1252,64.77,526.05,519.35,544.25
1254,64.68,526.35,519.65,544.65
1256,64.56,526.75,520.15,544.95
1258,64.52,527.05,520.45,545.25
1260,64.38,527.35,520.85,545.55
1262,64.37,527.75,521.35,545.95
1264,64.18,528.05,521.75,546.25
1266,64.10,528.35,522.05,546.55
1268,64.10,528.75,522.55,546.95
1270,63.90,529.05,522.95,547.25
1272,63.81,529.35,523.35,547.55
1274,63.82,529.75,523.85,547.95
1276,63.58,530.05,524.25,548.25
1278,63.58,530.35,524.55,548.55
1280,63.47,530.75,525.05,548.95
1282,63.39,531.05,525.35,549.25
1284,63.26,531.35,525.75,549.45
1286,63.16,531.75,526.25,549.85
1288,63.03,532.05,526.55,550.15
1290,62.97,532.35,526.95,550.45
1292,62.89,532.75,527.35,550.85
1294,62.80,533.05,527.75,551.15
1296,62.69,533.35,528.15,551.45
1298,62.61,533.75,528.65,551.75
1300,62.46,534.05,529.05,552.05
1302,62.37,534.35,529.35,552.35
1304,62.30,534.75,529.85,552.75
1306,62.23,535.05,530.25,553.05
1308,62.13,535.35,530.55,553.35
1310,61.99,535.75,531.05,553.75
1312,61.92,536.05,531.45,554.05
1314,61.82,536.35,531.75,554.35
1316,61.73,536.65,532.25,554.65
1318,61.61,536.95,532.65,554.95
1320,61.53,537.25,533.05,555.25
1322,61.43,537.65,533.45,555.65
1324,61.31,537.95,533.85,555.95
1326,61.26,538.25,534.25,556.25
1328,61.11,538.65,534.65,556.55
1330,60.97,538.95,535.05,556.85
1332,60.86,539.25,535.35,557.15
1334,60.82,539.75,535.85,557.45
1336,60.68,539.95,536.15,557.75
1338,60.62,540.25,536.55,558.05
1340,60.53,540.65,537.05,558.45
1342,60.41,540.95,537.45,558.65
1344,60.32,541.25,537.85,558.95
1346,60.24,541.65,538.35,559.35
1348,60.16,541.95,538.65,559.65
1350,60.00,542.15,539.05,559.85
1352,59.93,542.55,539.55,560.25
1354,59.78,542.85,539.85,560.45
1356,59.67,543.05,540.25,560.75
1358,59.63,543.55,540.85,561.25
1360,59.50,543.75,541.15,561.45
1362,59.39,544.15,541.45,561.65
1364,59.30,544.45,541.95,562.15
1366,59.20,544.75,542.35,562.35
1368,59.10,545.05,542.75,562.65
1370,58.92,545.45,543.15,563.05
1372,58.84,545.75,543.55,563.25
1374,58.73,546.05,544.05,563.55
1376,58.69,546.45,544.45,563.95
1378,58.58,546.65,544.85,564.15
1380,58.43,547.05,545.15,564.45
1382,58.31,547.45,545.75,564.85
1384,58.24,547.65,546.15,565.15
1386,58.15,547.95,546.45,565.35
1388,58.04,548.35,546.95,565.75
1390,57.92,548.65,547.35,565.95
1392,57.81,548.95,547.65,566.25
1394,57.72,549.35,548.15,566.65
1396,57.61,549.65,548.55,566.95
1398,57.51,549.95,548.95,567.15
1400,57.39,550.35,549.45,567.55
1402,57.28,550.65,549.85,567.85
1404,57.24,550.95,550.25,568.15
1406,57.14,551.35,550.75,568.45
1408,57.01,551.65,551.15,568.65
1410,56.84,551.85,551.55,568.95
1412,56.73,552.25,552.05,569.25
1414,56.65,552.55,552.45,569.55
1416,56.51,552.85,552.85,569.85
1418,56.42,553.25,553.35,570.15
1420,56.31,553.55,553.65,570.45
1422,56.22,553.85,554.05,570.75
1424,56.11,554.25,554.55,571.05
1426,56.01,554.55,554.95,571.25
1428,55.88,554.85,555.35,571.55
1430,55.76,555.25,555.85,571.85
1432,55.65,555.55,556.15,572.15
1434,55.54,555.75,556.55,572.45
1436,55.44,556.15,557.15,572.75
1438,55.37,556.45,557.45,572.95
1440,55.19,556.75,557.75,573.25
1442,55.08,557.15,558.25,573.65
1444,55.02,557.45,558.65,573.85
1446,54.91,557.75,559.05,574.15
1448,54.81,558.15,559.55,574.45
1450,54.67,558.45,559.95,574.65
1452,54.56,558.75,560.35,574.95
1454,54.47,559.15,560.85,575.25
1456,54.32,559.35,561.25,575.45
1458,54.26,559.65,561.55,575.75
1460,54.11,560.05,562.15,576.15
1462,53.98,560.35,562.45,576.35
1464,53.85,560.65,562.85,576.55
1466,53.72,561.05,563.35,576.95
1468,53.65,561.35,563.75,577.25
1470,53.50,561.65,564.15,577.45
1472,53.40,562.05,564.65,577.75
1474,53.25,562.35,565.05,577.95
1476,53.18,562.65,565.35,578.25
1478,53.07,562.95,565.85,578.55
1480,52.94,563.25,566.15,578.85
1482,52.83,563.35,566.55,579.05
1484,52.72,563.75,567.05,579.45
1486,52.59,563.95,567.45,579.65
1488,52.48,564.25,567.85,579.95
1490,52.38,564.65,568.35,580.25
1492,52.32,564.95,568.65,580.55
1494,52.16,565.25,569.05,580.75
1496,52.07,565.55,569.45,581.05
1498,51.95,565.85,569.85,581.35
1500,51.79,566.15,570.25,581.55
1502,51.71,566.45,570.65,581.85
1504,51.61,566.75,571.05,582.15
1506,51.52,567.05,571.35,582.35
1508,51.37,567.45,571.85,582.65
1510,51.26,567.65,572.15,582.85
1512,51.16,567.95,572.55,583.15
1514,51.01,568.35,572.95,583.45
1516,50.89,568.55,573.35,583.75
1518,50.81,568.85,573.75,583.95
1520,50.69,569.15,574.15,584.35
1522,50.60,569.45,574.45,584.55
1524,50.48,569.65,574.85,584.85
1526,50.36,570.05,575.25,585.15
1528,50.21,570.25,575.65,585.35
1530,50.15,570.55,575.95,585.65
1532,50.03,570.85,576.35,585.95
1534,49.92,571.05,576.75,586.15
1536,49.80,571.35,577.05,586.35
1538,49.71,571.65,577.45,586.65
1540,49.59,571.95,577.85,586.95
1542,49.45,572.15,578.15,587.15
1544,49.35,572.45,578.55,587.45
1546,49.27,572.75,578.85,587.65
1548,49.10,572.95,579.15,587.95
1550,48.99,573.25,579.65,588.25
1552,48.93,573.55,579.95,588.45
1554,48.80,573.75,580.25,588.65
1556,48.68,574.15,580.65,588.95
1558,48.55,574.35,580.95,589.25
1560,48.52,574.65,581.35,589.45
1562,48.34,574.95,581.75,589.75
1564,48.25,575.15,582.05,589.95
1566,48.12,575.45,582.35,590.15
1568,47.99,575.75,582.75,590.45
1570,47.88,575.95,583.05,590.65
1572,47.77,576.25,583.35,590.95
1574,47.65,576.55,583.75,591.25
1576,47.52,576.75,584.05,591.45
1578,47.44,576.95,584.35,591.65
1580,47.31,577.25,584.75,591.95
1582,47.22,577.55,585.05,592.15
1584,47.09,577.75,585.35,592.45
1586,47.00,578.05,585.75,592.75
1588,46.91,578.25,586.05,592.95
1590,46.75,578.55,586.35,593.15
1592,46.63,578.85,586.65,593.45
1594,46.59,579.05,586.95,593.65
1596,46.44,579.25,587.25,593.85
1598,46.32,579.55,587.65,594.15
1600,46.24,579.75,587.95,594.35
1602,46.10,580.05,588.25,594.65
1604,46.01,580.35,588.65,594.85
1606,45.92,580.45,588.95,595.15
1608,45.81,580.65,589.25,595.35
1610,45.69,580.95,589.65,595.65
1612,45.54,581.25,589.85,595.85
1614,45.44,581.45,590.15,596.05
1616,45.34,581.75,590.55,596.35
1618,45.23,581.85,590.75,596.55
1620,45.09,582.05,591.05,596.75
1622,45.00,582.35,591.45,596.95
1624,44.88,582.55,591.75,597.15
1626,44.80,582.85,592.05,597.35
1628,44.69,583.05,592.35,597.65
1630,44.61,583.25,592.55,597.75
1632,44.48,583.45,592.85,597.95
1634,44.36,583.65,593.15,598.15
1636,44.24,583.95,593.35,598.35
1638,44.12,584.05,593.65,598.45
1640,44.01,584.35,593.95,598.65
1642,43.94,584.55,594.25,598.85
1644,43.81,584.75,594.45,599.05
1646,43.69,585.05,594.75,599.25
1648,43.63,585.15,595.05,599.35
1650,43.50,585.35,595.35,599.45
1652,43.39,585.65,595.65,599.75
1654,43.23,585.85,595.85,599.85
1656,43.16,586.05,596.15,600.05
1658,43.04,586.25,596.55,600.25
1660,42.94,586.45,596.75,600.35
1662,43.04,586.65,596.95,600.55
1664,42.78,586.85,597.25,600.75
1666,42.59,587.05,597.55,600.85
1668,42.48,587.25,597.75,601.05
1670,42.36,587.45,597.95,601.25
1672,42.26,587.65,598.25,601.35
1674,42.17,587.75,598.55,601.45
1676,42.08,587.95,598.75,601.65
1678,41.93,588.15,599.05,601.75
1680,41.85,588.35,599.25,601.85
1682,41.72,588.55,599.45,601.95
1684,41.60,588.75,599.65,602.05
1686,41.54,588.85,599.95,602.15
1688,41.42,589.05,600.25,602.25
1690,41.32,589.25,600.45,602.35
1692,41.23,589.35,600.65,602.35
1694,41.13,589.55,600.95,602.45
1696,41.00,589.75,601.15,602.55
1698,40.90,589.95,601.35,602.65
1700,40.83,590.15,601.45,602.65
1702,40.69,590.25,601.65,602.65
1704,40.60,590.45,601.75,602.75
1706,40.51,590.65,601.95,602.75
1708,40.40,590.75,601.95,602.85
1710,40.33,590.95,602.15,602.85
1712,40.22,591.05,602.25,602.95
1714,40.13,591.25,602.45,602.95
1716,40.04,591.45,602.55,603.05
1718,39.92,591.65,602.65,603.05
1720,39.83,591.75,602.75,603.05
1722,39.75,591.85,602.85,603.15
1724,39.66,592.05,602.95,603.15
1726,39.55,592.15,603.05,603.15
1728,39.48,592.25,603.05,603.25
1730,39.40,592.45,603.15,603.25
1732,39.10,592.65,603.25,603.35
1734,39.16,592.75,603.35,603.35
1736,39.10,592.95,603.45,603.45
1738,39.00,593.15,603.55,603.45
1740,38.93,593.25,603.55,603.45
1742,38.83,593.45,603.65,603.55
1744,38.73,593.55,603.75,603.65
1746,38.67,593.75,603.85,603.65
1748,38.52,593.95,603.95,603.75
1750,38.49,594.05,604.05,603.85
1752,38.39,594.15,604.15,603.85
1754,38.29,594.35,604.25,603.95
1756,38.21,594.55,604.25,604.05
1758,38.11,594.65,604.35,604.15
1760,38.02,594.85,604.45,604.15
1762,37.96,594.95,604.55,604.25
1764,37.85,595.15,604.65,604.25
1766,37.76,595.35,604.75,604.35
1768,37.64,595.45,604.75,604.45
1770,37.59,595.65,604.85,604.55
1772,37.48,595.85,604.95,604.65
1774,37.37,596.05,605.05,604.75
1776,37.30,596.15,605.15,604.85
1778,37.22,596.35,605.25,604.95
1780,37.15,596.55,605.45,605.05
1782,37.09,596.65,605.55,605.15
1784,36.99,596.95,605.65,605.25
1786,36.90,597.05,605.85,605.35
1788,36.84,597.25,605.95,605.45
1790,36.72,597.55,606.05,605.65
1792,36.65,597.75,606.25,605.65
1794,36.57,597.95,606.35,605.75
1796,36.53,598.15,606.45,605.95
1798,36.41,598.35,606.65,606.05
1800,36.35,598.45,606.75,606.25
1802,36.27,598.65,606.95,606.35
1804,36.22,598.85,607.15,606.45
1806,36.12,599.05,607.25,606.55
1808,36.05,599.25,607.45,606.75
1810,36.01,599.35,607.65,606.95
1812,35.91,599.55,607.75,607.05
1814,35.81,599.75,607.95,607.25
1816,35.77,599.85,608.15,607.45
1818,35.66,599.95,608.35,607.55
1820,35.60,600.25,608.65,607.75
1822,35.52,600.35,608.85,607.95
1824,35.45,600.55,609.05,608.15
1826,35.38,600.75,609.35,608.35
1828,35.33,600.95,609.55,608.55
1830,35.27,601.05,609.75,608.75
1832,35.18,601.25,610.05,608.95
1834,35.12,601.45,610.35,609.15
1836,35.02,601.55,610.45,609.25
1838,34.97,601.75,610.75,609.55
1840,34.92,601.95,610.95,609.75
1842,34.83,602.05,611.25,609.95
1844,34.78,602.25,611.55,610.25
1846,34.73,602.45,611.85,610.45
1848,34.66,602.65,612.05,610.65
1850,34.60,602.95,612.45,610.95
1852,34.52,603.05,612.75,611.15
1854,34.48,603.25,613.05,611.35
1856,34.39,603.55,613.45,611.75
1858,34.32,603.65,613.85,611.95
1860,34.28,603.85,614.15,612.15
1862,34.22,604.15,614.55,612.55
1864,34.12,604.35,614.85,612.85
1866,34.08,604.55,615.15,613.05
1868,34.03,604.75,615.55,613.45
1870,33.98,604.95,615.95,613.65
1872,33.92,605.15,616.25,613.95
1874,33.86,605.35,616.75,614.25
1876,33.78,605.65,623.15,614.55
1878,33.74,605.75,626.25,614.85
1880,33.63,605.95,627.85,615.15
1882,33.56,606.25,628.65,615.45
1884,33.54,606.45,629.25,615.75
1886,33.48,606.75,629.95,616.15
1888,33.40,606.95,630.35,616.45
1890,33.36,607.15,630.75,616.85
1892,33.29,607.45,631.25,617.25
1894,33.24,607.75,631.55,617.55
1896,33.17,607.95,631.85,617.85
1898,33.16,608.25,632.25,618.35
1900,33.11,608.45,632.55,618.65
1902,33.03,608.75,632.75,619.05
1904,32.99,609.05,633.25,619.45
1906,32.93,609.25,633.55,619.85
1908,32.90,609.55,633.85,620.15
1910,32.83,609.85,634.15,620.65
1912,32.80,610.15,634.45,621.05
1914,32.75,610.35,634.75,621.35
1916,32.70,610.75,635.15,621.85
1918,32.64,611.05,635.45,622.25
1920,32.62,611.25,635.75,622.65
1922,32.55,611.65,636.05,623.15
1924,32.53,611.95,636.25,623.55
1926,32.48,612.25,636.45,623.85
1928,32.45,612.55,636.95,624.45
1930,32.39,612.85,637.25,624.85
1932,32.35,613.15,637.45,625.25
1934,32.31,613.55,637.75,625.65
1936,32.27,613.85,637.95,626.05
1938,32.22,614.15,638.15,626.45
1940,32.20,614.55,638.35,627.05
1942,32.16,614.95,638.55,627.55
1944,32.09,615.25,638.75,627.95
1946,32.06,615.65,639.05,628.45
1948,32.02,615.95,639.15,628.85
1950,31.98,616.25,639.35,629.25
1952,31.94,616.65,639.65,629.75
1954,31.88,616.95,639.85,630.15
1956,31.88,617.25,640.05,630.45
1958,31.82,617.75,640.25,630.85
1960,31.78,618.05,640.45,631.25
1962,31.77,618.35,640.55,631.55
1964,31.74,618.85,640.75,631.95
1966,31.69,619.15,640.85,632.35
1968,31.68,619.45,641.05,632.55
1970,31.64,619.95,641.25,633.05
1972,31.60,620.35,641.25,633.25
1974,31.58,620.65,641.35,633.55
1976,31.55,621.15,641.55,633.85
1978,31.51,621.55,641.65,634.15
1980,31.48,621.95,641.75,634.35
1982,31.45,622.35,641.85,634.75
1984,31.40,622.75,641.85,634.95
1986,31.41,623.05,641.85,635.15
1988,31.38,623.55,641.95,635.35
1990,31.32,623.85,641.95,635.55
1992,31.32,624.25,641.95,635.65
1994,31.29,624.65,642.05,635.95
1996,31.25,625.05,642.05,636.05
1998,31.23,625.45,642.05,636.25
2000,31.22,625.95,642.15,636.45
2002,31.19,626.35,642.15,636.55
2004,31.17,626.65,642.15,636.75
2006,31.14,627.15,642.25,636.85
2008,31.08,627.55,642.15,636.95
2010,31.08,627.95,642.15,637.15
2012,31.04,628.45,642.15,637.35
2014,31.03,628.75,642.15,637.45
2016,31.01,629.15,642.15,637.55
2018,30.98,629.65,642.15,637.65
2020,30.96,630.05,642.15,637.75
2022,30.91,630.45,642.15,637.85
2024,30.90,630.85,642.05,637.95
2026,30.88,631.35,642.05,638.05
2028,30.84,631.65,642.05,638.15
2030,30.80,632.15,642.05,638.25
2032,30.80,632.55,642.15,638.35
2034,30.78,632.95,642.35,638.45
2036,30.75,633.55,642.45,638.55
2038,30.72,633.95,642.65,638.65
2040,30.68,634.35,642.75,638.75
2042,30.73,634.75,642.95,638.75
2044,30.65,635.15,643.05,638.85
2046,30.62,635.55,643.25,638.95
2048,30.62,636.05,643.35,638.95
2050,30.60,636.45,643.55,639.05
2052,30.57,636.85,643.65,639.05
2054,30.55,637.35,643.85,639.15
2056,30.56,637.65,643.95,639.25
2058,30.51,638.05,644.05,639.25
2060,30.50,638.55,644.25,639.35
2062,30.47,638.85,644.35,639.45
2064,30.47,639.25,644.45,639.45
2066,30.42,639.75,644.65,639.65
2068,30.39,640.05,644.85,639.65
2070,30.37,640.45,644.95,639.75
2072,30.36,640.85,645.05,639.75
2074,30.37,641.15,645.15,639.85
2076,30.34,641.45,645.25,639.85
2078,30.31,641.85,645.45,639.85
2080,30.30,642.25,645.45,639.85
2082,30.29,642.45,645.55,639.85
2084,30.26,642.85,645.75,639.85
2086,30.27,643.15,645.85,639.95
2088,30.24,643.45,645.95,639.95
2090,30.22,643.75,646.05,639.95
2092,30.21,643.95,646.15,640.05
2094,30.20,644.25,646.15,640.05
2096,30.19,644.55,646.25,640.15
2098,30.17,644.75,646.25,640.15
2100,30.17,644.95,646.25,640.15
2102,30.14,645.15,646.35,640.15
2104,30.13,645.35,646.45,640.15
2106,30.11,645.65,646.45,640.15
2108,30.11,645.85,646.55,640.15
2110,30.08,646.05,646.65,640.15
2112,30.07,646.25,646.65,640.15
2114,30.06,646.45,646.75,640.15
2116,30.03,646.55,646.75,640.15
2118,30.04,646.75,646.75,640.25
2120,30.02,646.85,646.85,640.25
2122,29.99,646.95,646.85,640.25
2124,30.00,647.05,646.85,640.15
2126,29.99,647.25,646.95,640.15
2128,29.97,647.35,646.95,640.15
2130,29.97,647.35,646.95,640.15
2132,29.97,647.55,647.05,640.15
2134,29.97,647.55,647.05,640.15
2136,29.91,647.65,647.05,640.15
2138,29.92,647.75,647.15,640.05
2140,29.91,647.75,647.15,640.05
2142,29.89,647.85,647.15,640.05
2144,29.90,647.85,647.15,640.05
2146,29.88,647.95,647.15,640.05
2148,29.87,647.95,647.15,640.05
2150,29.84,647.95,647.15,639.95
2152,29.86,647.95,647.15,639.95
2154,29.84,647.95,647.05,639.95
2156,29.81,647.95,647.05,639.95
2158,29.81,647.95,647.05,639.95
2160,29.82,647.95,647.05,639.95
2162,29.79,647.95,647.05,639.95
2164,29.79,647.95,647.05,639.95
2166,29.79,647.95,646.95,639.85
2168,29.75,647.95,646.95,639.85
2170,29.76,647.95,646.95,639.85
2172,29.74,647.95,646.95,639.85
2174,29.74,647.85,646.95,639.85
2176,29.73,647.85,646.95,639.85
2178,29.72,647.85,647.05,639.85
2180,29.72,647.85,647.05,639.85
2182,29.70,647.85,647.05,639.85
2184,29.69,647.85,647.05,639.75
2186,29.70,647.85,647.05,639.75
2188,29.67,647.75,646.95,639.65
2190,29.67,647.75,646.95,639.65
2192,29.66,647.65,646.85,639.65
2194,29.66,647.65,646.85,639.65
2196,29.66,647.55,646.85,639.55
2198,29.64,647.55,646.85,639.55
2200,29.62,647.55,646.85,639.55
2202,29.64,647.45,646.85,639.55
2204,29.61,647.35,646.75,639.55
2206,29.60,647.35,646.75,639.55
2208,29.59,647.25,646.75,639.55
2210,29.62,647.25,646.75,639.55
2212,29.57,647.25,646.65,639.55
2214,29.56,647.15,646.65,639.55
2216,29.57,647.15,646.65,639.45
2218,29.56,647.05,646.65,639.45
2220,29.55,647.05,646.55,639.45
2222,29.58,646.95,646.55,639.45
2224,29.58,646.85,646.55,639.45
2226,29.55,646.85,646.45,639.35
2228,29.53,646.75,646.45,639.35
2230,29.54,646.65,646.45,639.35
2232,29.53,646.65,646.45,639.35
2234,29.52,646.55,646.45,639.25
2236,29.49,646.45,646.35,639.25
2238,29.49,646.35,646.35,639.25
2240,29.50,646.25,646.25,639.25
2242,29.48,646.15,646.25,639.25
2244,29.49,646.15,646.15,639.25
2246,29.45,646.05,646.15,639.15
2248,29.44,645.95,646.15,639.15
2250,29.48,645.85,646.05,639.15
2252,29.45,645.85,645.95,639.15
2254,29.47,645.75,645.95,639.15
2256,29.46,645.75,645.95,639.15
2258,29.43,645.65,645.95,639.15
2260,29.42,645.65,645.95,639.05
2262,29.42,645.65,645.85,639.05
2264,29.42,645.55,645.85,638.95
2266,29.42,645.45,645.85,638.95
2268,29.41,645.45,645.75,638.95
2270,29.41,645.45,645.75,638.95
2272,29.38,645.35,645.75,638.95
2274,29.38,645.25,645.65,638.95
2276,29.39,645.25,645.65,638.95
2278,29.39,645.15,645.65,638.85
2280,29.36,645.05,645.65,638.85
2282,29.36,645.05,645.55,638.85
2284,29.34,644.95,645.45,638.75
2286,29.33,644.85,645.45,638.75
2288,29.36,644.75,645.35,638.75
2290,29.35,644.75,645.35,638.75
2292,29.35,644.65,645.25,638.75
2294,29.34,644.65,645.25,638.75
2296,29.33,644.55,645.25,638.65
2298,29.33,644.55,645.15,638.65
2300,29.31,644.45,645.15,638.55
2302,29.33,644.35,645.05,638.55
2304,29.32,644.35,645.05,638.55
2306,29.32,644.35,645.05,638.55
2308,29.29,644.35,645.05,638.55
2310,29.30,644.25,645.05,638.55
2312,29.29,644.15,645.05,638.55
2314,29.30,644.15,645.05,638.55
2316,29.30,644.15,645.05,638.55
2318,29.28,644.05,645.05,638.55
2320,29.26,643.95,644.95,638.55
2322,29.28,643.95,644.85,638.55
2324,29.26,643.85,644.85,638.55
2326,29.24,643.85,644.85,638.55
2328,29.26,643.85,644.75,638.45
2330,29.22,643.75,644.75,638.45
2332,29.25,643.65,644.75,638.45
2334,29.23,643.65,644.65,638.35
2336,29.21,643.65,644.65,638.35
2338,29.23,643.65,644.55,638.35
2340,29.23,643.55,644.55,638.35
2342,29.23,643.45,644.55,638.35
2344,29.24,643.45,644.55,638.35
2346,29.20,643.35,644.55,638.35
2348,29.23,643.35,644.45,638.35
2350,29.21,643.25,644.45,638.35
2352,29.21,643.25,644.45,638.35
2354,29.18,643.25,644.45,638.35
2356,29.18,643.25,644.35,638.25
2358,29.19,643.25,644.35,638.25
2360,29.17,643.15,644.35,638.25
2362,29.18,643.15,644.35,638.35
2364,29.15,643.05,644.25,638.35
2366,29.16,643.05,644.35,638.35
2368,29.15,643.05,644.35,638.35
2370,29.18,642.95,644.35,638.35
2372,29.16,642.95,644.15,638.35
2374,29.15,642.85,644.15,638.35
2376,29.15,642.85,644.05,638.25
2378,29.15,642.85,644.05,638.25
2380,29.13,642.85,643.95,638.25
2382,29.16,642.75,643.95,638.25
2384,29.14,642.75,643.95,638.25
2386,29.14,642.65,643.95,638.25
2388,29.13,642.75,643.95,638.15
2390,29.12,642.65,643.95,638.15
2392,29.12,642.65,644.05,638.15
2394,29.10,642.65,643.95,638.15
2396,29.11,642.55,643.95,638.15
2398,29.09,642.55,643.95,638.15
2400,29.09,642.45,643.85,638.15
2402,29.09,642.45,643.85,638.05
2404,29.07,642.35,643.85,638.05
2406,29.09,642.35,643.75,638.05
2408,29.09,642.35,643.85,638.05
2410,29.07,642.35,643.85,638.05
2412,29.07,642.35,643.85,638.05
2414,29.07,642.35,643.75,638.05
2416,29.06,642.25,643.75,637.95
2418,29.05,642.35,643.65,637.95
2420,29.06,642.25,643.65,637.95
2422,29.07,642.25,643.65,637.95
2424,29.06,642.25,643.55,637.95
2426,29.05,642.25,643.55,637.95
2428,29.03,642.15,643.55,637.95
2430,29.05,642.15,643.45,637.95
2432,29.04,642.15,643.55,637.95
2434,29.03,642.15,643.45,637.95
2436,29.01,642.15,643.45,637.95
2438,29.00,642.15,643.45,637.95
2440,29.03,642.05,643.45,637.95
2442,29.02,642.05,643.45,638.05
2444,28.98,642.05,643.45,638.05
2446,29.02,642.05,643.45,637.95
2448,29.00,641.95,643.35,637.95
2450,29.02,641.95,643.35,637.95
2452,29.02,641.95,643.25,637.95
2454,28.99,641.85,643.25,637.95
2456,29.01,641.85,643.25,637.95
2458,28.98,641.85,643.25,637.95
2460,28.99,641.85,643.25,638.05
2462,28.98,641.85,643.25,638.05
2464,28.98,641.85,643.15,638.05
2466,28.98,641.85,643.15,638.05
2468,28.96,641.75,643.25,637.95
2470,28.96,641.75,643.15,637.95
2472,28.95,641.75,643.15,637.95
2474,28.93,641.65,643.15,637.95
2476,28.95,641.65,643.15,637.85
2478,28.96,641.65,643.15,637.85
2480,28.93,641.65,643.15,637.85
2482,28.95,641.65,643.15,637.85
2484,28.95,641.65,643.15,637.85
2486,28.95,641.65,643.15,637.85
2488,28.96,641.65,643.15,637.95
2490,28.94,641.65,643.15,637.95
2492,28.91,641.65,643.15,637.95
2494,28.94,641.55,643.05,637.95