File: Wood/Calibration_Data/TIFP+UCT/TIFP+UCT_Gasification_hor_parallel_30kW_R1.csv
Time (s),Mass (g),TC back 1 (K),TC back 2 (K),TC back 3 (K)
0,92.16,298.65,297.65,298.35
3,91.70,298.85,297.65,298.45
6,91.51,299.15,297.75,298.65
9,91.36,299.45,297.75,298.85
12,91.24,299.75,297.85,299.15
15,91.14,299.95,297.85,299.35
18,91.08,300.25,297.95,299.65
21,91.01,300.55,298.05,299.95
24,90.89,300.75,298.15,300.15
27,90.84,301.15,298.25,300.35
30,90.77,301.35,298.35,300.65
33,90.65,301.65,298.45,300.95
36,90.51,301.95,298.55,301.25
39,90.44,302.25,298.65,301.55
42,90.32,302.55,298.75,301.85
45,90.19,302.85,298.85,302.05
48,90.05,303.15,298.95,302.35
51,89.97,303.45,299.15,302.65
54,89.89,303.75,299.25,302.95
57,89.74,304.05,299.35,303.15
60,89.62,304.35,299.45,303.45
63,89.52,304.65,299.65,303.75
66,89.41,304.95,299.75,304.05
69,89.30,305.25,299.95,304.35
72,89.19,305.55,300.05,304.65
75,89.08,305.85,300.25,304.95
78,88.95,306.15,300.35,305.25
81,88.83,306.55,300.45,305.55
84,88.72,306.85,300.65,305.85
87,88.62,307.15,300.85,306.15
90,88.48,307.55,300.95,306.45
93,88.37,307.85,301.15,306.75
96,88.27,308.15,301.25,307.15
99,88.17,308.55,301.45,307.45
102,88.09,308.85,301.65,307.75
105,87.96,309.25,301.85,308.05
108,87.88,309.65,302.05,308.35
111,87.78,309.95,302.25,308.65
114,87.70,310.35,302.45,309.05
117,87.61,310.75,302.65,309.35
120,87.53,311.15,302.85,309.65
123,87.44,311.45,303.05,310.05
126,87.38,311.85,303.25,310.35
129,87.30,312.25,303.45,310.75
132,87.21,312.65,303.65,311.05
135,87.14,313.05,303.95,311.45
138,87.05,313.45,304.15,311.75
141,86.95,313.95,304.35,312.15
144,86.86,314.35,304.65,312.55
147,86.78,314.75,304.85,312.85
150,86.71,315.15,305.15,313.25
153,86.61,315.65,305.35,313.65
156,86.54,316.05,305.65,314.05
159,86.45,316.55,305.95,314.35
162,86.37,316.95,306.15,314.75
165,86.30,317.45,306.45,315.15
168,86.23,317.95,306.75,315.55
171,86.14,318.35,307.05,316.05
174,86.06,318.85,307.35,316.35
177,85.98,319.35,307.65,316.85
180,85.91,319.85,307.95,317.25
183,85.85,320.25,308.25,317.65
186,85.78,320.75,308.65,318.05
189,85.69,321.35,308.95,318.45
192,85.62,321.75,309.25,318.95
195,85.54,322.35,309.65,319.35
198,85.47,322.75,309.95,319.85
201,85.40,323.35,310.35,320.35
204,85.35,323.85,310.65,320.75
207,85.28,324.35,310.95,321.25
210,85.20,324.85,311.35,321.65
213,85.14,325.45,311.75,322.15
216,85.06,325.95,312.15,322.65
219,85.01,326.55,312.55,323.15
222,84.94,327.05,312.95,323.55
225,84.89,327.65,313.35,324.05
228,84.80,328.15,313.75,324.55
231,84.74,328.75,314.15,325.05
234,84.66,329.25,314.45,325.55
237,84.59,329.85,314.95,326.05
240,84.52,330.45,315.35,326.55
243,84.46,330.95,315.75,327.15
246,84.40,331.55,316.15,327.65
249,84.33,332.15,316.65,328.15
252,84.25,332.65,317.05,328.65
255,84.18,333.25,317.55,329.15
258,84.13,333.85,317.95,329.75
261,84.07,334.35,318.45,330.25
264,83.99,334.95,318.95,330.85
267,83.93,335.55,319.35,331.35
270,83.86,336.15,319.85,331.85
273,83.80,336.75,320.35,332.45
276,83.74,337.35,320.75,332.95
279,83.66,337.95,321.25,333.45
282,83.60,338.55,321.75,334.05
285,83.54,339.15,322.25,334.65
288,83.48,339.75,322.75,335.15
291,83.40,340.25,323.25,335.65
294,83.34,340.85,323.75,336.25
297,83.28,341.45,324.25,336.75
300,83.22,342.05,324.75,337.35
303,83.15,342.65,325.25,337.95
306,83.09,343.25,325.75,338.45
309,83.01,343.85,326.25,339.05
312,82.95,344.45,326.75,339.55
315,82.87,345.05,327.25,340.15
318,82.81,345.55,327.85,340.75
321,82.75,346.25,328.35,341.25
324,82.68,346.85,328.85,341.85
327,82.63,347.35,329.35,342.35
330,82.54,347.95,329.95,342.95
333,82.49,348.55,330.45,343.55
336,82.42,349.15,330.95,344.05
339,82.36,349.75,331.45,344.65
342,82.30,350.35,332.05,345.15
345,82.22,350.95,332.55,345.75
348,82.17,351.45,333.15,346.25
351,82.10,352.05,333.65,346.85
354,82.03,352.65,334.15,347.35
357,81.96,353.25,334.75,347.95
360,81.90,353.75,335.25,348.45
363,81.85,354.35,335.85,348.95
366,81.79,354.85,336.35,349.55
369,81.71,355.45,336.95,350.05
372,81.64,355.95,337.45,350.65
375,81.58,356.55,338.05,351.15
378,81.51,357.05,338.55,351.65
381,81.46,357.65,339.15,352.25
384,81.39,358.15,339.65,352.75
387,81.33,358.65,340.25,353.25
390,81.25,359.25,340.85,353.85
393,81.18,359.75,341.35,354.35
396,81.13,360.25,341.95,354.85
399,81.06,360.85,342.45,355.35
402,80.99,361.25,343.05,355.95
405,80.93,361.85,343.65,356.45
408,80.87,362.35,344.15,356.95
411,80.80,362.85,344.75,357.45
414,80.74,363.25,345.35,357.95
417,80.67,363.85,345.85,358.45
420,80.61,364.25,346.45,358.95
423,80.54,364.75,346.95,359.45
426,80.47,365.25,347.55,359.95
429,80.43,365.65,348.15,360.45
432,80.35,366.15,348.65,360.95
435,80.29,366.55,349.25,361.45
438,80.21,367.05,349.85,361.95
441,80.14,367.45,350.45,362.35
444,80.09,367.85,350.95,362.85
447,80.02,368.35,351.55,363.35
450,79.97,368.75,352.05,363.85
453,79.90,369.15,352.65,364.25
456,79.82,369.65,353.25,364.75
459,79.76,370.05,353.85,365.15
462,79.71,370.45,354.35,365.65
465,79.63,370.85,354.95,366.05
468,79.58,371.25,355.45,366.45
471,79.51,371.65,356.05,366.95
474,79.45,372.05,356.65,367.35
477,79.39,372.45,357.25,367.75
480,79.33,372.85,357.75,368.15
483,79.25,373.25,358.35,368.55
486,79.19,373.55,358.85,369.05
489,79.13,373.95,359.45,369.45
492,79.07,374.35,359.95,369.85
495,78.99,374.75,360.55,370.25
498,78.94,375.05,361.15,370.65
501,78.88,375.45,361.65,371.05
504,78.81,375.75,362.15,371.45
507,78.74,376.15,362.75,371.85
510,78.68,376.55,363.25,372.15
513,78.62,376.85,363.85,372.55
516,78.56,377.25,364.35,372.95
519,78.51,377.55,364.85,373.35
522,78.44,377.85,365.35,373.65
525,78.38,378.25,365.95,374.05
528,78.31,378.65,366.45,374.35
531,78.25,378.95,366.95,374.75
534,78.19,379.25,367.45,375.05
537,78.13,379.55,367.95,375.45
540,78.05,379.85,368.55,375.75
543,78.00,380.25,369.05,376.15
546,77.94,380.55,369.55,376.55
549,77.87,380.85,370.05,376.85
552,77.81,381.15,370.55,377.15
555,77.75,381.45,370.95,377.45
558,77.68,381.75,371.45,377.75
561,77.63,382.05,371.95,378.15
564,77.57,382.35,372.45,378.45
567,77.49,382.65,372.95,378.75
570,77.43,382.95,373.35,379.05
573,77.37,383.25,373.85,379.35
576,77.31,383.55,374.15,379.65
579,77.25,383.85,374.55,380.05
582,77.15,384.15,374.85,380.25
585,77.09,384.35,375.05,380.55
588,77.03,384.65,375.35,380.85
591,76.95,384.85,375.65,381.05
594,76.90,385.05,375.95,381.35
597,76.84,385.25,376.25,381.65
600,76.78,385.55,376.55,381.85
603,76.70,385.75,376.85,382.15
606,76.65,385.95,377.15,382.35
609,76.59,386.15,377.35,382.65
612,76.53,386.35,377.65,382.85
615,76.46,386.65,377.85,383.15
618,76.39,386.85,378.15,383.35
621,76.33,387.05,378.35,383.65
624,76.27,387.25,378.65,383.85
627,76.21,387.45,378.85,384.15
630,76.14,387.65,379.05,384.35
633,76.07,387.85,379.25,384.55
636,76.01,388.05,379.55,384.75
639,75.95,388.25,379.75,385.05
642,75.88,388.45,379.95,385.25
645,75.82,388.55,380.15,385.45
648,75.75,388.75,380.35,385.65
651,75.69,388.95,380.55,385.85
654,75.63,389.15,380.75,386.05
657,75.57,389.35,380.95,386.25
660,75.52,389.55,381.15,386.55
663,75.44,389.75,381.35,386.75
666,75.39,389.95,381.45,386.85
669,75.34,390.15,381.65,387.05
672,75.28,390.35,381.85,387.35
675,75.20,390.45,382.05,387.55
678,75.14,390.65,382.15,387.65
681,75.08,390.85,382.35,387.85
684,75.01,391.05,382.55,388.05
687,74.95,391.25,382.65,388.25
690,74.88,391.45,382.85,388.45
693,74.81,391.55,382.95,388.65
696,74.77,391.75,383.15,388.85
699,74.70,391.95,383.35,389.05
702,74.64,392.15,383.45,389.15
705,74.59,392.35,383.65,389.45
708,74.51,392.45,383.75,389.55
711,74.45,392.65,383.85,389.75
714,74.40,392.85,384.05,389.95
717,74.33,393.05,384.15,390.05
720,74.27,393.15,384.35,390.25
723,74.21,393.35,384.45,390.45
726,74.15,393.55,384.65,390.65
729,74.09,393.75,384.75,390.85
732,74.04,393.85,384.95,390.95
735,73.97,394.15,385.05,391.15
738,73.92,394.25,385.25,391.35
741,73.86,394.45,385.35,391.55
744,73.81,394.65,385.45,391.65
747,73.75,394.75,385.65,391.85
750,73.68,394.95,385.75,392.05
753,73.63,395.15,385.95,392.15
756,73.56,395.35,386.05,392.35
759,73.49,395.55,386.25,392.55
762,73.46,395.75,386.35,392.75
765,73.39,395.95,386.45,392.85
768,73.32,396.15,386.65,393.05
771,73.27,396.25,386.75,393.25
774,73.21,396.45,386.85,393.35
777,73.15,396.65,387.05,393.55
780,73.09,396.85,387.15,393.75
783,73.03,397.05,387.35,393.85
786,72.97,397.15,387.45,394.05
789,72.91,397.35,387.55,394.25
792,72.84,397.55,387.75,394.45
795,72.79,397.75,387.85,394.55
798,72.73,397.95,387.95,394.75
801,72.67,398.15,388.15,394.95
804,72.60,398.35,388.25,395.15
807,72.55,398.55,388.45,395.25
810,72.50,398.65,388.55,395.45
813,72.43,398.85,388.65,395.65
816,72.38,399.05,388.85,395.85
819,72.32,399.25,388.95,396.05
822,72.25,399.45,389.15,396.15
825,72.21,399.65,389.25,396.35
828,72.15,399.75,389.35,396.55
831,72.09,399.95,389.55,396.65
834,72.03,400.25,389.65,396.85
837,71.98,400.45,389.85,397.05
840,71.93,400.55,389.95,397.25
843,71.87,400.75,390.05,397.35
846,71.81,400.95,390.25,397.55
849,71.75,401.15,390.35,397.75
852,71.69,401.35,390.45,397.95
855,71.64,401.55,390.65,398.15
858,71.58,401.75,390.85,398.35
861,71.53,401.95,390.95,398.45
864,71.46,402.15,391.05,398.65
867,71.41,402.35,391.25,398.85
870,71.36,402.55,391.35,399.05
873,71.29,402.75,391.55,399.25
876,71.24,402.95,391.65,399.45
879,71.18,403.15,391.85,399.65
882,71.12,403.45,391.95,399.75
885,71.08,403.65,392.05,399.95
888,71.02,403.85,392.25,400.15
891,70.96,404.05,392.45,400.35
894,70.90,404.25,392.55,400.55
897,70.85,404.45,392.65,400.75
900,70.79,404.65,392.85,400.95
903,70.74,404.95,392.95,401.15
906,70.69,405.15,393.15,401.35
909,70.64,405.35,393.25,401.55
912,70.57,405.55,393.45,401.75
915,70.51,405.85,393.55,401.95
918,70.46,406.05,393.75,402.15
921,70.41,406.25,393.85,402.35
924,70.36,406.45,394.05,402.55
927,70.30,406.75,394.25,402.75
930,70.25,406.95,394.35,402.95
933,70.19,407.15,394.55,403.15
936,70.13,407.45,394.65,403.35
939,70.09,407.65,394.85,403.55
942,70.02,407.85,394.95,403.85
945,69.97,408.15,395.15,404.05
948,69.93,408.35,395.35,404.25
951,69.88,408.65,395.45,404.45
954,69.81,408.85,395.65,404.75
957,69.76,409.05,395.75,404.95
960,69.71,409.35,395.95,405.15
963,69.66,409.55,396.05,405.35
966,69.60,409.75,396.25,405.65
969,69.55,410.05,396.45,405.85
972,69.48,410.35,396.55,406.05
975,69.44,410.55,396.75,406.25
978,69.38,410.75,396.85,406.55
981,69.34,411.05,397.05,406.75
984,69.28,411.25,397.25,407.05
987,69.23,411.55,397.45,407.25
990,69.16,411.75,397.55,407.45
993,69.11,412.05,397.75,407.75
996,69.06,412.25,397.95,407.95
999,69.01,412.55,398.05,408.25
1002,68.96,412.85,398.25,408.45
1005,68.90,413.05,398.45,408.75
1008,68.85,413.35,398.65,408.95
1011,68.81,413.65,398.85,409.25
1014,68.76,413.85,398.95,409.45
1017,68.70,414.15,399.15,409.75
1020,68.65,414.45,399.35,409.95
1023,68.60,414.75,399.55,410.25
1026,68.54,414.95,399.75,410.55
1029,68.49,415.25,399.95,410.75
1032,68.44,415.55,400.05,411.05
1035,68.39,415.85,400.25,411.35
1038,68.33,416.05,400.45,411.55
1041,68.29,416.35,400.65,411.85
1044,68.23,416.65,400.85,412.15
1047,68.17,416.95,401.05,412.45
1050,68.12,417.25,401.25,412.65
1053,68.07,417.55,401.45,412.95
1056,68.01,417.85,401.65,413.25
1059,67.97,418.15,401.85,413.45
1062,67.91,418.45,402.05,413.85
1065,67.86,418.75,402.25,414.05
1068,67.81,418.95,402.45,414.35
1071,67.75,419.25,402.65,414.65
1074,67.70,419.55,402.85,414.95
1077,67.65,419.95,403.15,415.25
1080,67.59,420.25,403.35,415.55
1083,67.54,420.55,403.55,415.85
1086,67.49,420.85,403.75,416.15
1089,67.44,421.15,403.95,416.45
1092,67.39,421.45,404.25,416.75
1095,67.35,421.85,404.45,417.15
1098,67.29,422.15,404.75,417.45
1101,67.24,422.45,404.95,417.75
1104,67.19,422.85,405.15,418.05
1107,67.13,423.15,405.45,418.35
1110,67.07,423.45,405.65,418.75
1113,67.03,423.85,405.85,418.95
1116,66.97,424.15,406.15,419.35
1119,66.94,424.55,406.35,419.65
1122,66.88,424.85,406.65,419.95
1125,66.83,425.15,406.85,420.35
1128,66.78,425.55,407.15,420.65
1131,66.72,425.85,407.45,421.05
1134,66.67,426.25,407.65,421.35
1137,66.62,426.55,407.95,421.75
1140,66.57,426.95,408.25,422.05
1143,66.51,427.25,408.45,422.45
1146,66.46,427.65,408.75,422.75
1149,66.40,428.05,409.05,423.15
1152,66.37,428.35,409.25,423.45
1155,66.32,428.75,409.55,423.85
1158,66.26,429.15,409.85,424.25
1161,66.19,429.45,410.15,424.65
1164,66.16,429.85,410.45,424.95
1167,66.10,430.25,410.75,425.35
1170,66.05,430.65,411.05,425.75
1173,66.00,431.05,411.35,426.15
1176,65.95,431.35,411.65,426.45
1179,65.90,431.75,411.95,426.85
1182,65.85,432.15,412.15,427.25
1185,65.80,432.55,412.55,427.65
1188,65.75,432.95,412.85,428.05
1191,65.70,433.25,413.15,428.45
1194,65.63,433.75,413.45,428.85
1197,65.60,434.05,413.75,429.25
1200,65.53,434.45,414.05,429.65
1203,65.49,434.85,414.45,430.05
1206,65.44,435.25,414.75,430.35
1209,65.39,435.65,415.05,430.85
1212,65.34,436.05,415.35,431.25
1215,65.29,436.45,415.75,431.65
1218,65.23,436.85,416.15,432.05
1221,65.19,437.25,416.45,432.45
1224,65.13,437.65,416.85,432.85
1227,65.08,438.05,417.15,433.25
1230,65.03,438.45,417.45,433.75
1233,64.98,438.95,417.85,434.15
1236,64.93,439.35,418.25,434.55
1239,64.89,439.75,418.65,434.95
1242,64.83,440.15,418.95,435.35
1245,64.76,440.55,419.35,435.75
1248,64.72,440.95,419.75,436.25
1251,64.69,441.45,420.15,436.65
1254,64.64,441.85,420.55,437.05
1257,64.58,442.25,420.95,437.45
1260,64.53,442.65,421.25,437.85
1263,64.47,443.05,421.65,438.35
1266,64.41,443.45,422.05,438.75
1269,64.36,443.95,422.55,439.25
1272,64.32,444.35,422.95,439.65
1275,64.27,444.85,423.35,440.05
1278,64.22,445.25,423.75,440.55
1281,64.16,445.65,424.25,440.95
1284,64.11,446.05,424.65,441.45
1287,64.06,446.55,425.05,441.85
1290,64.02,446.95,425.55,442.25
1293,63.95,447.35,425.95,442.75
1296,63.91,447.85,426.45,443.15
1299,63.86,448.25,426.85,443.55
1302,63.81,448.65,427.25,444.05
1305,63.76,449.15,427.75,444.45
1308,63.71,449.55,428.15,444.85
1311,63.66,449.95,428.65,445.35
1314,63.61,450.45,429.05,445.75
1317,63.56,450.85,429.55,446.25
1320,63.52,451.25,430.05,446.65
1323,63.46,451.75,430.45,447.15
1326,63.41,452.15,430.95,447.55
1329,63.36,452.65,431.45,448.05
1332,63.31,453.05,431.95,448.45
1335,63.26,453.45,432.45,448.95
1338,63.20,453.85,432.85,449.35
1341,63.15,454.35,433.35,449.85
1344,63.10,454.75,433.85,450.25
1347,63.04,455.25,434.35,450.75
1350,63.00,455.65,434.85,451.15
1353,62.94,456.15,435.35,451.65
1356,62.90,456.55,435.85,452.05
1359,62.84,456.95,436.35,452.45
1362,62.78,457.35,436.85,452.95
1365,62.74,457.85,437.35,453.35
1368,62.68,458.25,437.85,453.85
1371,62.63,458.65,438.35,454.25
1374,62.58,459.15,438.85,454.75
1377,62.54,459.55,439.35,455.15
1380,62.47,459.95,439.85,455.65
1383,62.43,460.35,440.35,456.05
1386,62.37,460.75,440.85,456.45
1389,62.32,461.25,441.35,456.95
1392,62.27,461.65,441.85,457.35
1395,62.22,462.15,442.35,457.85
1398,62.17,462.55,442.95,458.25
1401,62.12,462.95,443.45,458.65
1404,62.06,463.35,443.95,459.15
1407,62.01,463.75,444.45,459.55
1410,61.97,464.25,444.95,459.95
1413,61.91,464.65,445.45,460.45
1416,61.86,465.05,446.05,460.85
1419,61.79,465.55,446.55,461.35
1422,61.75,465.95,447.05,461.75
1425,61.71,466.35,447.55,462.15
1428,61.65,466.75,448.05,462.65
1431,61.59,467.15,448.55,463.05
1434,61.54,467.65,449.15,463.45
1437,61.48,468.05,449.65,463.85
1440,61.44,468.45,450.15,464.35
1443,61.37,468.85,450.65,464.75
1446,61.32,469.35,451.15,465.15
1449,61.28,469.75,451.75,465.55
1452,61.22,470.15,452.25,466.05
1455,61.16,470.55,452.75,466.45
1458,61.10,470.95,453.25,466.85
1461,61.05,471.35,453.75,467.25
1464,60.99,471.75,454.25,467.75
1467,60.93,472.25,454.85,468.15
1470,60.90,472.65,455.35,468.55
1473,60.84,473.05,455.85,468.95
1476,60.78,473.45,456.35,469.35
1479,60.74,473.85,456.85,469.85
1482,60.67,474.25,457.35,470.25
1485,60.63,474.65,457.85,470.65
1488,60.56,475.05,458.45,471.05
1491,60.50,475.45,458.95,471.45
1494,60.45,475.95,459.45,471.95
1497,60.40,476.25,459.95,472.35
1500,60.34,476.65,460.35,472.75
1503,60.28,477.05,460.85,473.15
1506,60.24,477.45,461.35,473.55
1509,60.17,477.85,461.85,473.95
1512,60.12,478.25,462.35,474.35
1515,60.06,478.65,462.85,474.75
1518,60.00,479.05,463.35,475.15
1521,59.95,479.45,463.85,475.55
1524,59.89,479.85,464.35,475.95
1527,59.84,480.25,464.85,476.35
1530,59.78,480.65,465.35,476.75
1533,59.71,481.05,465.85,477.15
1536,59.66,481.45,466.25,477.55
1539,59.61,481.85,466.75,477.95
1542,59.54,482.25,467.25,478.35
1545,59.48,482.65,467.75,478.75
1548,59.42,483.05,468.15,479.15
1551,59.37,483.45,468.65,479.55
1554,59.31,483.85,469.15,479.95
1557,59.25,484.25,469.65,480.35
1560,59.18,484.65,470.05,480.75
1563,59.12,484.95,470.55,481.15
1566,59.06,485.35,470.95,481.55
1569,58.99,485.75,471.45,481.95
1572,58.94,486.15,471.95,482.35
1575,58.88,486.55,472.35,482.75
1578,58.82,486.95,472.85,483.05
1581,58.77,487.25,473.25,483.45
1584,58.70,487.65,473.75,483.85
1587,58.64,488.05,474.15,484.25
1590,58.58,488.45,474.65,484.65
1593,58.52,488.75,475.15,485.05
1596,58.46,489.15,475.55,485.45
1599,58.41,489.55,476.05,485.85
1602,58.34,489.95,476.45,486.25
1605,58.26,490.35,476.95,486.55
1608,58.21,490.75,477.35,486.95
1611,58.16,491.05,477.85,487.35
1614,58.10,491.45,478.25,487.75
1617,58.04,491.85,478.75,488.15
1620,57.96,492.25,479.15,488.45
1623,57.91,492.55,479.65,488.85
1626,57.84,492.95,480.05,489.25
1629,57.75,493.35,480.55,489.65
1632,57.69,493.75,480.95,490.05
1635,57.63,494.05,481.35,490.45
1638,57.54,494.45,481.85,490.85
1641,57.50,494.85,482.25,491.15
1644,57.43,495.25,482.75,491.55
1647,57.37,495.65,483.15,491.95
1650,57.32,495.95,483.65,492.35
1653,57.25,496.35,484.05,492.75
1656,57.19,496.75,484.45,493.15
1659,57.11,497.05,484.95,493.45
1662,57.06,497.45,485.35,493.85
1665,56.99,497.85,485.85,494.25
1668,56.93,498.25,486.25,494.55
1671,56.86,498.55,486.75,494.95
1674,56.80,498.95,487.15,495.35
1677,56.73,499.25,487.55,495.75
1680,56.67,499.65,488.05,496.15
1683,56.62,500.05,488.45,496.45
1686,56.55,500.45,488.85,496.85
1689,56.48,500.85,489.35,497.25
1692,56.41,501.15,489.75,497.65
1695,56.36,501.45,490.25,497.95
1698,56.29,501.85,490.65,498.35
1701,56.21,502.25,491.05,498.75
1704,56.16,502.55,491.55,499.15
1707,56.10,502.95,491.95,499.55
1710,56.03,503.35,492.35,499.85
1713,55.97,503.65,492.85,500.25
1716,55.89,504.05,493.25,500.65
1719,55.82,504.45,493.65,501.05
1722,55.75,504.85,494.15,501.35
1725,55.68,505.15,494.55,501.75
1728,55.63,505.55,495.05,502.05
1731,55.54,505.85,495.45,502.45
1734,55.48,506.25,495.85,502.85
1737,55.40,506.65,496.25,503.25
1740,55.33,506.95,496.75,503.55
1743,55.27,507.35,497.15,503.95
1746,55.19,507.65,497.65,504.35
1749,55.13,508.05,498.05,504.65
1752,55.07,508.45,498.45,505.05
1755,55.00,508.75,498.95,505.45
1758,54.92,509.15,499.35,505.85
1761,54.85,509.45,499.75,506.15
1764,54.79,509.85,500.25,506.55
1767,54.71,510.15,500.65,506.95
1770,54.64,510.55,501.05,507.25
1773,54.56,510.85,501.55,507.65
1776,54.51,511.25,501.95,507.95
1779,54.41,511.55,502.35,508.35
1782,54.36,511.95,502.75,508.75
1785,54.12,512.25,503.25,509.15
1788,54.03,512.65,503.75,509.45
1791,53.96,512.95,504.15,509.85
1794,53.89,513.35,504.55,510.15
1797,53.81,513.65,505.05,510.55
1800,53.74,514.05,505.45,510.85
1803,53.67,514.45,505.85,511.25
1806,53.59,514.75,506.25,511.55
1809,53.52,515.05,506.75,511.95
1812,53.46,515.45,507.15,512.35
1815,53.37,515.75,507.55,512.65
1818,53.30,516.15,508.05,513.05
1821,53.23,516.45,508.45,513.45
1824,53.15,516.85,508.85,513.75
1827,53.08,517.15,509.35,514.05
1830,53.01,517.55,509.75,514.45
1833,52.93,517.85,510.15,514.75
1836,52.85,518.15,510.55,515.15
1839,52.78,518.55,511.05,515.55
1842,52.71,518.95,511.45,515.85
1845,52.63,519.25,511.85,516.25
1848,52.56,519.65,512.35,516.55
1851,52.48,519.95,512.75,516.95
1854,52.41,520.25,513.15,517.25
1857,52.33,520.65,513.55,517.65
1860,52.26,521.05,514.05,517.95
1863,52.19,521.35,514.45,518.35
1866,52.11,521.65,514.85,518.75
1869,52.03,522.05,515.25,519.05
1872,51.95,522.35,515.75,519.35
1875,51.89,522.75,516.15,519.75
1878,51.80,523.05,516.55,520.15
1881,51.72,523.45,516.95,520.45
1884,51.65,523.75,517.45,520.75
1887,51.57,524.15,517.85,521.15
1890,51.49,524.45,518.25,521.45
1893,51.41,524.85,518.65,521.85
1896,51.34,525.15,519.15,522.25
1899,51.26,525.55,519.55,522.55
1902,51.18,525.85,519.95,522.95
1905,51.11,526.25,520.35,523.25
1908,51.02,526.55,520.75,523.55
1911,50.96,526.95,521.25,523.95
1914,50.88,527.25,521.65,524.35
1917,50.81,527.65,522.15,524.65
1920,50.73,527.95,522.55,524.95
1923,50.66,528.25,522.95,525.35
1926,50.58,528.65,523.35,525.65
1929,50.50,528.95,523.75,526.05
1932,50.42,529.35,524.25,526.35
1935,50.36,529.65,524.65,526.75
1938,50.28,529.95,525.05,527.05
1941,50.20,530.35,525.45,527.45
1944,50.13,530.65,525.85,527.75
1947,50.05,531.05,526.35,528.15
1950,49.97,531.35,526.75,528.45
1953,49.90,531.75,527.15,528.85
1956,49.83,532.05,527.65,529.15
1959,49.76,532.35,528.05,529.55
1962,49.68,532.75,528.45,529.85
1965,49.60,533.15,528.85,530.15
1968,49.53,533.45,529.25,530.55
1971,49.43,533.75,529.65,530.95
1974,49.36,534.05,530.15,531.25
1977,49.27,534.45,530.55,531.55
1980,49.21,534.75,530.95,531.95
1983,49.13,535.15,531.35,532.25
1986,49.05,535.45,531.85,532.65
1989,48.98,535.75,532.25,532.95
1992,48.89,536.15,532.65,533.35
1995,48.80,536.45,533.05,533.65
1998,48.73,536.85,533.45,534.05
2001,48.64,537.15,533.85,534.35
2004,48.57,537.45,534.35,534.65
2007,48.49,537.85,534.75,535.05
2010,48.42,538.15,535.15,535.35
2013,48.32,538.55,535.65,535.65
2016,48.25,538.85,536.05,536.05
2019,48.17,539.15,536.45,536.35
2022,48.09,539.45,536.85,536.65
2025,48.01,539.85,537.35,537.05
2028,47.92,540.15,537.75,537.35
2031,47.84,540.55,538.15,537.75
2034,47.77,540.85,538.55,538.05
2037,47.68,541.15,538.95,538.45
2040,47.60,541.55,539.35,538.75
2043,47.52,541.85,539.75,539.05
2046,47.43,542.15,540.25,539.45
2049,47.35,542.55,540.65,539.75
2052,47.28,542.85,541.05,540.05
2055,47.18,543.15,541.45,540.45
2058,47.09,543.55,541.85,540.75
2061,47.01,543.95,542.35,541.05
2064,46.94,544.25,542.75,541.45
2067,46.86,544.55,543.15,541.75
2070,46.77,544.95,543.55,542.05
2073,46.68,545.25,543.95,542.45
2076,46.59,545.55,544.35,542.75
2079,46.51,545.95,544.85,543.05
2082,46.43,546.25,545.25,543.45
2085,46.35,546.55,545.65,543.75
2088,46.26,546.95,546.05,544.05
2091,46.18,547.25,546.45,544.35
2094,46.09,547.55,546.85,544.75
2097,46.01,547.85,547.25,545.05
2100,45.93,548.25,547.65,545.35
2103,45.85,548.55,548.05,545.75
2106,45.76,548.85,548.45,546.05
2109,45.66,549.25,548.95,546.35
2112,45.60,549.55,549.35,546.65
2115,45.52,549.85,549.75,546.95
2118,45.44,550.15,550.15,547.35
2121,45.35,550.55,550.55,547.65
2124,45.26,550.85,550.95,547.95
2127,45.17,551.15,551.35,548.25
2130,45.09,551.55,551.75,548.55
2133,45.01,551.85,552.15,548.95
2136,44.93,552.15,552.55,549.25
2139,44.85,552.45,552.95,549.55
2142,44.77,552.85,553.35,549.85
2145,44.67,553.15,553.75,550.15
2148,44.59,553.45,554.15,550.45
2151,44.51,553.85,554.55,550.75
2154,44.42,554.15,554.95,551.05
2157,44.35,554.45,555.25,551.35
2160,44.26,554.85,555.65,551.75
2163,44.18,555.15,556.05,551.95
2166,44.09,555.45,556.45,552.25
2169,43.99,555.75,556.85,552.55
2172,43.91,556.15,557.15,552.85
2175,43.85,556.45,557.55,553.15
2178,43.75,556.75,557.95,553.45
2181,43.68,557.15,558.35,553.75
2184,43.60,557.45,558.75,554.05
2187,43.52,557.75,559.15,554.35
2190,43.42,558.15,559.45,554.65
2193,43.34,558.45,559.85,554.95
2196,43.26,558.75,560.25,555.25
2199,43.17,559.05,560.55,555.55
2202,43.08,559.35,560.95,555.85
2205,43.00,559.65,561.35,556.15
2208,42.92,560.05,561.65,556.35
2211,42.84,560.35,562.05,556.65
2214,42.74,560.65,562.35,556.95
2217,42.66,560.95,562.75,557.25
2220,42.57,561.35,563.15,557.55
2223,42.49,561.65,563.45,557.85
2226,42.41,561.95,563.85,558.15
2229,42.33,562.25,564.15,558.35
2232,42.24,562.65,564.55,558.65
2235,42.17,562.95,564.85,558.95
2238,42.08,563.25,565.25,559.15
2241,42.00,563.55,565.55,559.45
2244,41.93,563.85,565.95,559.65
2247,41.84,564.15,566.25,559.95
2250,41.75,564.45,566.55,560.25
2253,41.68,564.85,566.95,560.45
2256,41.59,565.15,567.25,560.75
2259,41.52,565.45,567.55,561.05
2262,41.44,565.75,567.95,561.35
2265,41.34,565.95,568.25,561.55
2268,41.27,566.35,568.55,561.85
2271,41.20,566.55,568.85,562.05
2274,41.12,566.85,569.15,562.35
2277,41.04,567.15,569.45,562.55
2280,40.98,567.45,569.75,562.85
2283,40.90,567.75,570.05,563.15
2286,40.83,568.05,570.35,563.35
2289,40.75,568.25,570.65,563.65
2292,40.69,568.55,570.95,563.85
2295,40.59,568.85,571.25,564.15
2298,40.52,569.15,571.55,564.35
2301,40.45,569.35,571.85,564.65
2304,40.38,569.65,572.05,564.85
2307,40.30,569.85,572.35,565.05
2310,40.22,570.15,572.65,565.35
2313,40.15,570.45,572.95,565.55
2316,40.08,570.65,573.15,565.85
2319,40.00,570.95,573.45,566.05
2322,39.94,571.15,573.75,566.35
2325,39.86,571.45,574.05,566.55
2328,39.79,571.75,574.25,566.75
2331,39.73,571.95,574.55,567.05
2334,39.66,572.15,574.75,567.25
2337,39.57,572.45,575.05,567.45
2340,39.50,572.65,575.35,567.75
2343,39.43,572.95,575.55,567.95
2346,39.33,573.15,575.85,568.15
2349,39.27,573.45,576.05,568.45
2352,39.20,573.65,576.35,568.65
2355,39.13,573.85,576.55,568.85
2358,39.06,574.15,576.85,569.15
2361,39.00,574.35,577.15,569.35
2364,38.93,574.55,577.35,569.55
2367,38.87,574.85,577.65,569.75
2370,38.80,575.05,577.85,570.05
2373,38.74,575.25,578.15,570.25
2376,38.68,575.45,578.35,570.45
2379,38.59,575.75,578.55,570.65
2382,38.52,575.95,578.85,570.85
2385,38.46,576.15,579.05,571.05
2388,38.40,576.35,579.35,571.35
2391,38.33,576.65,579.55,571.55
2394,38.26,576.85,579.85,571.75
2397,38.19,577.05,580.05,571.95
2400,38.14,577.25,580.25,572.15
2403,38.09,577.45,580.55,572.35
2406,38.01,577.65,580.75,572.55
2409,37.96,577.85,580.95,572.85
2412,37.89,578.05,581.25,573.05
2415,37.85,578.25,581.45,573.25
2418,37.78,578.45,581.65,573.45
2421,37.73,578.65,581.85,573.65
2424,37.65,578.85,582.15,573.85
2427,37.59,579.05,582.35,574.05
2430,37.53,579.25,582.55,574.25
2433,37.47,579.45,582.85,574.45
2436,36.92,579.55,583.05,574.65
2439,36.83,579.75,583.35,574.95
2442,36.76,579.95,583.55,575.15
2445,36.69,580.15,583.75,575.35
2448,36.64,580.35,583.95,575.55
2451,36.56,580.55,584.15,575.75
2454,36.49,580.75,584.45,575.85
2457,36.42,580.95,584.65,576.05
2460,36.36,581.15,584.85,576.35
2463,36.29,581.25,585.05,576.45
2466,36.23,581.45,585.25,576.65
2469,36.16,581.65,585.45,576.85
2472,36.10,581.85,585.65,577.05
2475,36.03,582.05,585.85,577.25
2478,35.96,582.25,586.05,577.45
2481,35.91,582.45,586.25,577.65
2484,35.84,582.65,586.55,577.85
2487,35.76,582.85,586.65,578.05
2490,35.71,582.95,586.95,578.15
2493,35.64,583.15,587.05,578.45
2496,35.58,583.35,587.25,578.55
2499,35.52,583.55,587.45,578.75
2502,35.45,583.75,587.65,578.95
2505,35.39,583.95,587.85,579.15
2508,35.33,584.15,588.05,579.25
2511,35.26,584.25,588.25,579.45
2514,35.20,584.55,588.45,579.65
2517,35.14,584.65,588.65,579.85
2520,35.08,584.85,588.85,580.05
2523,35.02,585.05,588.95,580.15
2526,34.95,585.25,589.15,580.35
2529,34.89,585.45,589.35,580.55
2532,34.83,585.55,589.55,580.65
2535,34.76,585.75,589.75,580.85
2538,34.72,585.95,589.95,581.05
2541,34.65,586.15,590.05,581.15
2544,34.60,586.25,590.25,581.35
2547,34.52,586.45,590.45,581.45
2550,34.47,586.65,590.55,581.65
2553,34.40,586.85,590.75,581.75
2556,34.35,587.05,590.95,581.95
2559,34.30,587.15,591.05,582.15
2562,34.23,587.35,591.25,582.25
2565,34.18,587.55,591.45,582.35
2568,34.11,587.65,591.55,582.55
2571,34.06,587.85,591.75,582.65
2574,34.00,587.95,591.85,582.85
2577,33.93,588.15,592.05,582.95
2580,33.89,588.35,592.15,583.15
2583,33.83,588.45,592.35,583.25
2586,33.77,588.65,592.55,583.45
2589,33.72,588.85,592.65,583.55
2592,33.66,588.95,592.85,583.65
2595,33.61,589.15,592.95,583.85
2598,33.54,589.35,593.15,583.95
2601,33.49,589.45,593.25,584.05
2604,33.43,589.65,593.45,584.25
2607,33.37,589.85,593.55,584.45
2610,33.32,589.95,593.75,584.55
2613,33.27,590.15,593.85,584.65
2616,33.21,590.25,594.05,584.75
2619,33.16,590.45,594.15,584.95
2622,33.11,590.55,594.35,585.05
2625,33.04,590.75,594.45,585.15
2628,32.99,590.85,594.55,585.35
2631,32.94,591.05,594.75,585.45
2634,32.88,591.15,594.85,585.65
2637,32.82,591.35,595.05,585.75
2640,32.78,591.45,595.15,585.85
2643,32.73,591.65,595.35,585.95
2646,32.67,591.75,595.45,586.15
2649,32.62,591.95,595.55,586.25
2652,32.57,592.05,595.75,586.35
2655,32.51,592.25,595.95,586.55
2658,32.46,592.35,596.05,586.65
2661,32.42,592.45,596.15,586.75
2664,32.37,592.65,596.25,586.85
2667,32.31,592.75,596.45,587.05
2670,32.27,592.85,596.55,587.15
2673,32.21,593.05,596.65,587.25
2676,32.17,593.25,596.85,587.35
2679,32.11,593.35,596.95,587.55
2682,32.06,593.45,597.05,587.65
2685,32.02,593.55,597.25,587.75
2688,31.96,593.75,597.35,587.95
2691,31.92,593.85,597.45,588.05
2694,31.87,593.95,597.65,588.15
2697,31.81,594.15,597.75,588.25
2700,31.76,594.25,597.85,588.35
2703,31.72,594.35,597.95,588.55
2706,31.68,594.45,598.15,588.65
2709,31.63,594.65,598.25,588.75
2712,31.58,594.75,598.35,588.85
2715,31.53,594.85,598.45,588.95
2718,31.49,594.95,598.65,589.15
2721,31.44,595.15,598.75,589.25
2724,31.39,595.25,598.85,589.35
2727,31.34,595.35,598.95,589.55
2730,31.30,595.45,599.15,589.65
2733,31.26,595.65,599.25,589.75
2736,31.20,595.75,599.35,589.85
2739,31.16,595.85,599.45,589.95
2742,31.12,595.95,599.55,590.05
2745,31.08,596.15,599.75,590.25
2748,31.02,596.25,599.85,590.35
2751,30.98,596.35,599.95,590.45
2754,30.94,596.45,600.05,590.55
2757,30.89,596.55,600.15,590.65
2760,30.85,596.75,600.35,590.85
2763,30.81,596.85,600.45,590.95
2766,30.77,596.95,600.55,591.05
2769,30.72,597.05,600.65,591.25
2772,30.68,597.15,600.85,591.35
2775,30.63,597.25,600.95,591.45
2778,30.59,597.45,601.05,591.55
2781,30.56,597.55,601.15,591.65
2784,30.51,597.65,601.25,591.75
2787,30.47,597.75,601.45,591.95
2790,30.44,597.95,601.45,592.05
2793,30.39,598.05,601.55,592.15
2796,30.35,598.15,601.75,592.25
2799,30.32,598.25,601.85,592.35
2802,30.26,598.35,601.95,592.45
2805,30.24,598.45,602.05,592.65
2808,30.19,598.55,602.15,592.75
2811,30.15,598.65,602.25,592.85
2814,30.11,598.75,602.35,592.95
2817,30.09,598.95,602.45,593.05
2820,30.04,599.05,602.55,593.25
2823,29.99,599.15,602.65,593.35
2826,29.96,599.25,602.75,593.45
2829,29.92,599.45,602.85,593.55
2832,29.88,599.45,603.05,593.65
2835,29.85,599.65,603.05,593.75
2838,29.81,599.75,603.15,593.85
2841,29.77,599.85,603.25,594.05
2844,29.74,599.95,603.45,594.15
2847,29.70,600.05,603.55,594.25
2850,29.67,600.15,603.65,594.35
2853,29.64,600.35,603.75,594.45
2856,29.59,600.45,603.85,594.55
2859,29.57,600.55,603.95,594.75
2862,29.54,600.65,604.05,594.85
2865,29.50,600.75,604.15,594.95
2868,29.46,600.85,604.15,595.05
2871,29.44,600.95,604.25,595.15
2874,29.40,601.05,604.45,595.25
2877,29.36,601.15,604.45,595.45
2880,29.34,601.25,604.55,595.45
2883,29.31,601.35,604.65,595.55
2886,29.29,601.45,604.75,595.75
2889,29.25,601.55,604.85,595.85
2892,29.21,601.65,604.95,595.95
2895,29.19,601.75,605.05,596.05
2898,29.15,601.85,605.15,596.15
2901,29.12,602.05,605.25,596.25
2904,29.09,602.15,605.25,596.35
2907,29.06,602.25,605.35,596.45
2910,29.03,602.35,605.45,596.55
2913,29.00,602.45,605.55,596.65
2916,28.96,602.55,605.65,596.75
2919,28.94,602.65,605.75,596.85
2922,28.91,602.75,605.75,596.95
2925,28.88,602.85,605.85,597.05
2928,28.84,602.95,605.95,597.15
2931,28.81,603.05,606.05,597.15
2934,28.79,603.15,606.15,597.25
2937,28.76,603.25,606.25,597.35
2940,28.73,603.35,606.35,597.45
2943,28.71,603.45,606.35,597.55
2946,28.68,603.55,606.45,597.65
2949,28.66,603.65,606.55,597.75
2952,28.62,603.75,606.65,597.85
2955,28.59,603.85,606.65,597.95
2958,28.56,603.95,606.75,598.05
2961,28.54,604.05,606.85,598.05
2964,28.52,604.15,606.85,598.15
2967,28.51,604.15,606.95,598.25
2970,28.48,604.25,607.05,598.25
2973,28.44,604.45,607.15,598.35
2976,28.43,604.55,607.15,598.45
2979,28.41,604.65,607.25,598.55
2982,28.38,604.65,607.35,598.65
2985,28.36,604.75,607.45,598.65
2988,28.33,604.85,607.45,598.75
2991,28.31,604.95,607.55,598.85
2994,28.30,605.05,607.65,598.85
2997,28.27,605.15,607.65,598.95
3000,28.24,605.25,607.75,599.05
3003,28.23,605.35,607.85,599.05
3006,28.20,605.45,607.85,599.15
3009,28.18,605.55,607.95,599.25
3012,28.18,605.65,608.05,599.25
3015,28.14,605.65,608.05,599.35
3018,28.10,605.75,608.15,599.35
3021,28.09,605.85,608.25,599.45
3024,28.06,605.95,608.25,599.45
3027,28.05,606.05,608.35,599.55
3030,28.03,606.15,608.45,599.65
3033,28.00,606.25,608.45,599.65
3036,27.98,606.35,608.55,599.75
3039,27.95,606.45,608.55,599.75
3042,27.94,606.55,608.65,599.85
3045,27.91,606.65,608.65,599.85
3048,27.89,606.65,608.75,599.95
3051,27.85,606.75,608.85,600.05
3054,27.85,606.85,608.95,600.05
3057,27.84,606.95,608.95,600.15
3060,27.83,607.05,609.05,600.15
3063,27.81,607.05,609.05,600.25
3066,27.80,607.25,609.15,600.25
3069,27.77,607.25,609.15,600.35
3072,27.75,607.35,609.25,600.35
3075,27.73,607.45,609.25,600.45
3078,27.71,607.55,609.35,600.45
3081,27.70,607.65,609.45,600.55
3084,27.67,607.75,609.45,600.55
3087,27.66,607.75,609.55,600.65
3090,27.64,607.85,609.65,600.65
3093,27.61,607.95,609.65,600.75
3096,27.60,608.05,609.75,600.75
3099,27.58,608.05,609.75,600.85
3102,27.56,608.15,609.85,600.85
3105,27.55,608.25,609.85,600.95
3108,27.53,608.25,609.95,600.95
3111,27.52,608.45,609.95,601.05
3114,27.48,608.45,610.05,601.05
3117,27.48,608.55,610.05,601.15
3120,27.45,608.65,610.15,601.15
3123,27.44,608.65,610.15,601.15
3126,27.42,608.75,610.25,601.25
3129,27.41,608.95,610.25,601.35
3132,27.39,608.95,610.35,601.35
3135,27.37,609.05,610.35,601.35
3138,27.35,609.05,610.45,601.45
3141,27.33,609.15,610.55,601.45
3144,27.33,609.25,610.55,601.55
3147,27.30,609.35,610.65,601.65
3150,27.28,609.35,610.65,601.65
3153,27.27,609.45,610.65,601.75
3156,27.25,609.55,610.75,601.75
3159,27.23,609.65,610.85,601.85
3162,27.23,609.65,610.85,601.85
3165,27.21,609.75,610.95,601.95
3168,27.19,609.85,610.95,601.95
3171,27.17,609.85,611.05,601.95
3174,27.16,609.95,611.05,602.05
3177,27.14,610.05,611.15,602.05
3180,27.12,610.05,611.25,602.15
3183,27.11,610.15,611.25,602.15
3186,27.10,610.15,611.25,602.15
3189,27.09,610.25,611.25,602.25
3192,27.07,610.35,611.35,602.25
3195,27.06,610.35,611.45,602.35
3198,27.04,610.45,611.45,602.35
3201,27.02,610.45,611.45,602.35
3204,27.02,610.55,611.55,602.45
3207,26.99,610.65,611.55,602.45
3210,26.99,610.65,611.65,602.55
3213,26.96,610.75,611.65,602.55
3216,26.96,610.85,611.75,602.55
3219,26.94,610.85,611.75,602.65
3222,26.93,610.85,611.85,602.65
3225,26.91,610.95,611.85,602.65
3228,26.90,610.95,611.85,602.75
3231,26.89,611.05,611.95,602.75
3234,26.88,611.05,611.95,602.75
3237,26.87,611.15,612.05,602.85
3240,26.85,611.25,612.05,602.85
3243,26.84,611.25,612.15,602.95
3246,26.82,611.25,612.15,602.95
3249,26.81,611.35,612.15,602.95
3252,26.79,611.45,612.25,603.05
3255,26.78,611.45,612.25,603.05
3258,26.77,611.45,612.35,603.05
3261,26.75,611.55,612.35,603.15
3264,26.75,611.65,612.35,603.15
3267,26.74,611.65,612.45,603.25
3270,26.73,611.75,612.45,603.25
3273,26.71,611.75,612.55,603.35
3276,26.70,611.75,612.55,603.35
3279,26.69,611.75,612.55,603.35
3282,26.68,611.85,612.65,603.45
3285,26.66,611.95,612.65,603.45
3288,26.66,611.95,612.75,603.45
3291,26.64,611.95,612.75,603.55
3294,26.64,612.05,612.75,603.55
3297,26.62,612.05,612.85,603.55
3300,26.60,612.15,612.85,603.65
3303,26.60,612.15,612.85,603.65
3306,26.59,612.25,612.85,603.65
3309,26.57,612.25,612.95,603.75
3312,26.56,612.25,612.95,603.75
3315,26.55,612.35,612.95,603.85
3318,26.54,612.35,612.95,603.85
3321,26.53,612.35,613.05,603.85
3324,26.52,612.45,613.05,603.95
3327,26.51,612.45,613.05,603.95
3330,26.49,612.45,613.15,603.95
3333,26.49,612.55,613.15,604.05
3336,26.48,612.55,613.15,604.15
3339,26.47,612.65,613.15,604.25
3342,26.44,612.65,613.15,604.25
3345,26.44,612.65,613.25,604.35
3348,26.44,612.65,613.25,604.35
3351,26.42,612.75,613.25,604.35
3354,26.41,612.75,613.25,604.45
3357,26.41,612.75,613.25,604.45
3360,26.39,612.85,613.35,604.55
3363,26.38,612.85,613.35,604.55
3366,26.38,612.85,613.35,604.55
3369,26.37,612.85,613.35,604.65
3372,26.37,612.85,613.35,604.65
3375,26.34,612.85,613.45,604.65
3378,26.34,612.95,613.45,604.65
3381,26.32,612.95,613.45,604.65
3384,26.32,612.95,613.45,604.75
3387,26.31,612.95,613.45,604.75
3390,26.30,613.05,613.45,604.75
3393,26.29,613.05,613.45,604.85
3396,26.28,613.05,613.55,604.85
3399,26.27,613.05,613.55,604.85
3402,26.26,613.05,613.55,604.95
3405,26.25,613.15,613.55,604.95
3408,26.24,613.15,613.55,604.95
3411,26.24,613.15,613.55,605.05
3414,26.23,613.15,613.55,605.05
3417,26.22,613.25,613.65,605.05
3420,26.21,613.25,613.65,605.15
3423,26.20,613.25,613.65,605.15
3426,26.20,613.25,613.65,605.15
3429,26.19,613.25,613.65,605.25
3432,26.17,613.35,613.65,605.25
3435,26.17,613.35,613.75,605.25
3438,26.17,613.35,613.75,605.25
3441,26.15,613.35,613.75,605.35
3444,26.14,613.45,613.75,605.35
3447,26.13,613.45,613.75,605.45
3450,26.13,613.45,613.85,605.45
3453,26.12,613.45,613.85,605.45
3456,26.11,613.45,613.75,605.55
3459,26.10,613.45,613.85,605.55
3462,26.10,613.45,613.85,605.65
3465,26.09,613.45,613.85,605.65
3468,26.08,613.45,613.85,605.65
3471,26.07,613.45,613.85,605.75
3474,26.07,613.45,613.85,605.75
3477,26.06,613.45,613.85,605.75
3480,26.05,613.55,613.85,605.85
3483,26.04,613.55,613.85,605.85
3486,26.04,613.55,613.85,605.95
3489,26.03,613.55,613.95,605.95
3492,26.02,613.55,613.95,605.95
3495,26.01,613.55,613.95,606.05
3498,26.01,613.65,613.95,606.05
3500,25.99,613.65,613.95,606.05