File: Wood/Calibration_Data/TIFP+UCT/TIFP+UCT_STA_N2_5K_R4.csv
Time (s),Temperature (K),Mass (mg),Heat Flow Rate (W/g)
0,303.153,5.0882,-0.0111
6,303.157,5.0882,-0.0106
12,303.153,5.0867,-0.0105
18,303.16,5.0854,-0.0104
24,303.157,5.0852,-0.01
30,303.161,5.0842,-0.0098
36,303.164,5.0833,-0.0095
42,303.165,5.0829,-0.0094
48,303.166,5.0829,-0.0093
54,303.169,5.0816,-0.0091
60,303.171,5.0803,-0.0087
66,303.176,5.0813,-0.0088
72,303.175,5.0816,-0.0086
78,303.179,5.0803,-0.0081
84,303.179,5.0816,-0.0081
90,303.182,5.0803,-0.0081
96,303.183,5.0803,-0.008
102,303.183,5.0796,-0.0077
108,303.185,5.0788,-0.0077
114,303.188,5.0775,-0.0075
120,303.185,5.0788,-0.0072
126,303.185,5.0788,-0.0071
132,303.182,5.076,-0.007
138,303.185,5.0774,-0.007
144,303.182,5.0774,-0.007
150,303.183,5.076,-0.0068
156,303.181,5.0767,-0.0067
162,303.181,5.076,-0.0067
168,303.179,5.0753,-0.0066
174,303.178,5.0747,-0.0066
180,303.178,5.074,-0.0063
186,303.178,5.0733,-0.0064
192,303.175,5.0727,-0.0064
198,303.175,5.072,-0.0064
204,303.171,5.072,-0.0063
210,303.173,5.0717,-0.0064
216,303.173,5.0707,-0.0067
222,303.171,5.0707,-0.0064
228,303.17,5.0693,-0.0066
234,303.167,5.0693,-0.0065
240,303.166,5.0693,-0.0066
246,303.165,5.0693,-0.0066
252,303.165,5.068,-0.0065
258,303.163,5.068,-0.0066
264,303.163,5.068,-0.0065
270,303.159,5.0676,-0.0064
276,303.162,5.0676,-0.0066
282,303.16,5.0653,-0.0067
288,303.161,5.0653,-0.0065
294,303.158,5.0666,-0.0064
300,303.161,5.0653,-0.0066
306,303.16,5.0639,-0.0063
312,303.161,5.0646,-0.0065
318,303.173,5.0644,-0.0052
324,303.199,5.0643,-0.0032
330,303.247,5.0635,-0.0001
336,303.324,5.0636,0.0039
342,303.435,5.0629,0.0084
348,303.576,5.0633,0.0136
354,303.764,5.0637,0.0192
360,303.998,5.0632,0.0245
366,304.277,5.0626,0.0302
372,304.601,5.0639,0.0351
378,304.98,5.064,0.0404
384,305.41,5.0633,0.0453
390,305.881,5.0639,0.0499
396,306.402,5.0625,0.0539
402,306.965,5.0628,0.0579
408,307.567,5.0621,0.061
414,308.204,5.0625,0.0642
420,308.876,5.0633,0.0666
426,309.575,5.0624,0.0684
432,310.292,5.062,0.0699
438,311.03,5.0604,0.0707
444,311.777,5.0615,0.0712
450,312.536,5.0613,0.0713
456,313.297,5.0605,0.071
462,314.054,5.06,0.0704
468,314.813,5.0587,0.0699
474,315.562,5.06,0.0689
480,316.302,5.0587,0.0678
486,317.029,5.0577,0.0664
492,317.744,5.058,0.0653
498,318.445,5.057,0.064
504,319.126,5.0573,0.0622
510,319.792,5.0563,0.0607
516,320.442,5.0567,0.0586
522,321.077,5.056,0.0574
528,321.695,5.0533,0.056
534,322.294,5.0547,0.0543
540,322.882,5.0533,0.0531
546,323.452,5.0523,0.0518
552,324.012,5.0523,0.0508
558,324.559,5.0516,0.0496
564,325.095,5.051,0.0486
570,325.621,5.051,0.0475
576,326.142,5.051,0.0467
582,326.651,5.0496,0.0462
588,327.155,5.0483,0.0457
594,327.657,5.0483,0.0451
600,328.157,5.0483,0.0448
606,328.648,5.0469,0.0443
612,329.139,5.0469,0.0437
618,329.628,5.0469,0.0439
624,330.117,5.0469,0.0437
630,330.606,5.0469,0.0435
636,331.096,5.0443,0.0435
642,331.582,5.0456,0.0434
648,332.069,5.0443,0.0435
654,332.559,5.0443,0.0435
660,333.049,5.0443,0.0436
666,333.543,5.0429,0.0439
672,334.033,5.0429,0.0438
678,334.528,5.0429,0.0439
684,335.021,5.0419,0.0439
690,335.516,5.0416,0.0438
696,336.009,5.0416,0.0441
702,336.505,5.0406,0.0439
708,337.0,5.0402,0.0443
714,337.498,5.0402,0.0441
720,337.994,5.0402,0.0446
726,338.491,5.0402,0.0448
732,338.988,5.0416,0.0452
738,339.482,5.0392,0.0454
744,339.98,5.0389,0.046
750,340.476,5.0389,0.0463
756,340.974,5.0382,0.0468
762,341.473,5.0389,0.0471
768,341.966,5.0362,0.0476
774,342.463,5.0362,0.048
780,342.958,5.0362,0.0486
786,343.454,5.0361,0.0494
792,343.953,5.0361,0.05
798,344.446,5.0361,0.0505
804,344.943,5.0358,0.0511
810,345.437,5.0334,0.052
816,345.934,5.0348,0.0531
822,346.43,5.0348,0.0537
828,346.923,5.0334,0.0544
834,347.421,5.0331,0.0552
840,347.919,5.0331,0.0561
846,348.416,5.0321,0.057
852,348.912,5.0324,0.0579
858,349.412,5.0314,0.059
864,349.909,5.0321,0.0601
870,350.409,5.0314,0.0606
876,350.908,5.0307,0.0617
882,351.41,5.0294,0.0626
888,351.907,5.0304,0.0639
894,352.412,5.0281,0.0645
900,352.913,5.0281,0.0657
906,353.416,5.0281,0.0662
912,353.915,5.0281,0.0669
918,354.418,5.0284,0.0683
924,354.92,5.0281,0.0691
930,355.42,5.0294,0.0699
936,355.922,5.0281,0.0708
942,356.425,5.0281,0.0717
948,356.927,5.0274,0.0726
954,357.433,5.0264,0.0736
960,357.936,5.0267,0.0743
966,358.437,5.0267,0.0754
972,358.94,5.0267,0.0758
978,359.441,5.0267,0.0767
984,359.949,5.0254,0.0779
990,360.453,5.0254,0.0788
996,360.953,5.0254,0.0795
1002,361.457,5.024,0.08
1008,361.96,5.024,0.0811
1014,362.466,5.024,0.0818
1020,362.969,5.024,0.0822
1026,363.473,5.024,0.0832
1032,363.975,5.0227,0.0838
1038,364.482,5.024,0.0846
1044,364.985,5.0237,0.0847
1050,365.49,5.0227,0.0855
1056,365.992,5.0227,0.0859
1062,366.495,5.0227,0.0867
1068,367.003,5.0227,0.0873
1074,367.503,5.0227,0.088
1080,368.005,5.0227,0.0886
1086,368.508,5.0214,0.089
1092,369.009,5.0214,0.0897
1098,369.514,5.02,0.09
1104,370.013,5.02,0.0908
1110,370.516,5.02,0.0911
1116,371.017,5.02,0.0916
1122,371.518,5.02,0.092
1128,372.022,5.0197,0.0927
1134,372.523,5.0183,0.0932
1140,373.024,5.018,0.0935
1146,373.527,5.0187,0.0939
1152,374.027,5.0187,0.0941
1158,374.531,5.0187,0.0946
1164,375.032,5.0173,0.0952
1170,375.53,5.016,0.0957
1176,376.033,5.0173,0.096
1182,376.531,5.0173,0.0964
1188,377.034,5.0173,0.0967
1194,377.535,5.018,0.0976
1200,378.036,5.0173,0.0978
1206,378.537,5.0167,0.098
1212,379.037,5.016,0.0988
1218,379.54,5.0156,0.0992
1224,380.041,5.0157,0.0995
1230,380.541,5.016,0.0998
1236,381.044,5.016,0.1004
1242,381.545,5.0157,0.1012
1248,382.051,5.016,0.1016
1254,382.55,5.016,0.102
1260,383.056,5.0136,0.1026
1266,383.556,5.015,0.103
1272,384.06,5.0146,0.1037
1278,384.563,5.0133,0.1043
1284,385.066,5.012,0.1047
1290,385.566,5.0133,0.1052
1296,386.071,5.012,0.1054
1302,386.575,5.013,0.1059
1308,387.078,5.012,0.1063
1314,387.577,5.012,0.1067
1320,388.083,5.0106,0.1068
1326,388.582,5.012,0.1072
1332,389.085,5.0106,0.1076
1338,389.588,5.0093,0.1079
1344,390.09,5.0106,0.108
1350,390.588,5.0093,0.1082
1356,391.09,5.0089,0.1086
1362,391.588,5.0089,0.1089
1368,392.091,5.0079,0.109
1374,392.591,5.0079,0.1095
1380,393.092,5.0079,0.1096
1386,393.594,5.0079,0.1098
1392,394.092,5.0079,0.11
1398,394.592,5.0069,0.11
1404,395.092,5.0079,0.1104
1410,395.594,5.0079,0.1108
1416,396.097,5.0066,0.1109
1422,396.597,5.0063,0.1114
1428,397.097,5.0066,0.1118
1434,397.599,5.0053,0.1118
1440,398.102,5.0066,0.1122
1446,398.602,5.0052,0.1125
1452,399.105,5.0039,0.1127
1458,399.608,5.0039,0.1133
1464,400.11,5.0049,0.1128
1470,400.611,5.0053,0.1132
1476,401.113,5.0053,0.1134
1482,401.617,5.0039,0.1133
1488,402.118,5.0039,0.1136
1494,402.623,5.0053,0.1134
1500,403.126,5.0039,0.1138
1506,403.63,5.0019,0.1141
1512,404.131,5.0032,0.1139
1518,404.635,5.0026,0.1138
1524,405.141,5.0026,0.1138
1530,405.643,5.0012,0.1138
1536,406.143,5.0026,0.114
1542,406.648,5.0026,0.114
1548,407.153,5.0026,0.114
1554,407.656,5.0012,0.1139
1560,408.159,5.0022,0.1141
1566,408.662,4.9999,0.1141
1572,409.168,4.9999,0.114
1578,409.671,5.0006,0.1141
1584,410.176,4.9999,0.1138
1590,410.676,4.9999,0.1141
1596,411.18,4.9985,0.1139
1602,411.686,4.9985,0.1138
1608,412.189,4.9999,0.1139
1614,412.69,4.9985,0.114
1620,413.194,4.9985,0.1138
1626,413.697,4.9972,0.114
1632,414.201,4.9972,0.1139
1638,414.702,4.9972,0.1142
1644,415.205,4.9969,0.114
1650,415.707,4.9949,0.114
1656,416.209,4.9945,0.114
1662,416.712,4.9945,0.114
1668,417.213,4.9959,0.1136
1674,417.712,4.9945,0.1135
1680,418.212,4.9959,0.1136
1686,418.714,4.9932,0.1136
1692,419.215,4.9935,0.1137
1698,419.716,4.9932,0.1136
1704,420.217,4.9918,0.1134
1710,420.719,4.9918,0.1132
1716,421.22,4.9932,0.1131
1722,421.723,4.9918,0.1133
1728,422.221,4.9918,0.1134
1734,422.72,4.9905,0.1131
1740,423.221,4.9898,0.1133
1746,423.72,4.9898,0.1132
1752,424.224,4.9885,0.1132
1758,424.721,4.9892,0.1129
1764,425.221,4.9898,0.1129
1770,425.719,4.9898,0.1128
1776,426.222,4.9882,0.1129
1782,426.721,4.9878,0.1131
1788,427.219,4.9875,0.1129
1794,427.718,4.9861,0.1133
1800,428.218,4.9855,0.1134
1806,428.717,4.9858,0.1132
1812,429.219,4.9848,0.1132
1818,429.714,4.9848,0.1132
1824,430.217,4.9851,0.1134
1830,430.71,4.9953,0.1142
1836,431.209,4.9953,0.1149
1842,431.703,4.9933,0.1155
1848,432.207,4.9926,0.1159
1854,432.707,4.9906,0.1161
1860,433.205,4.9899,0.1162
1866,433.706,4.9873,0.1164
1872,434.204,4.9849,0.1163
1878,434.707,4.9836,0.1165
1884,435.204,4.9836,0.1162
1890,435.705,4.9832,0.1162
1896,436.205,4.9805,0.1163
1902,436.708,4.9805,0.1162
1908,437.206,4.9805,0.1161
1914,437.708,4.9782,0.116
1920,438.207,4.9772,0.116
1926,438.706,4.9765,0.116
1932,439.207,4.9765,0.1162
1938,439.708,4.9738,0.1162
1944,440.207,4.9738,0.1162
1950,440.708,4.9725,0.1162
1956,441.209,4.9725,0.1164
1962,441.709,4.9722,0.1161
1968,442.208,4.9712,0.1163
1974,442.708,4.9698,0.1164
1980,443.207,4.9685,0.1162
1986,443.705,4.9685,0.1163
1992,444.203,4.9671,0.1164
1998,444.701,4.9661,0.1165
2004,445.199,4.9661,0.1163
2010,445.698,4.9661,0.1165
2016,446.199,4.9661,0.1166
2022,446.697,4.9655,0.1166
2028,447.192,4.9645,0.1166
2034,447.691,4.9631,0.1167
2040,448.187,4.9631,0.1166
2046,448.687,4.9631,0.1167
2052,449.18,4.9608,0.1165
2058,449.677,4.9611,0.117
2064,450.176,4.9653,0.1175
2070,450.672,4.964,0.118
2076,451.168,4.9613,0.1182
2082,451.67,4.96,0.1183
2088,452.166,4.9586,0.1182
2094,452.666,4.9573,0.1182
2100,453.165,4.956,0.1183
2106,453.663,4.9533,0.1182
2112,454.161,4.9526,0.1182
2118,454.66,4.9519,0.118
2124,455.157,4.9492,0.1179
2130,455.659,4.9476,0.1179
2136,456.159,4.9466,0.1176
2142,456.659,4.9452,0.1173
2148,457.156,4.9439,0.1168
2154,457.657,4.9425,0.1166
2160,458.157,4.9399,0.1162
2166,458.657,4.9392,0.1159
2172,459.159,4.9385,0.1162
2178,459.658,4.9372,0.1171
2184,460.157,4.9372,0.118
2190,460.656,4.9345,0.1186
2196,461.156,4.9338,0.1187
2202,461.654,4.9331,0.1192
2208,462.156,4.9318,0.1192
2214,462.656,4.9305,0.1195
2220,463.155,4.9273,0.1193
2226,463.653,4.925,0.1195
2232,464.152,4.9236,0.1195
2238,464.651,4.9236,0.1196
2244,465.152,4.921,0.1194
2250,465.651,4.9206,0.1197
2256,466.148,4.92,0.1195
2262,466.646,4.9196,0.1199
2268,467.143,4.9196,0.12
2274,467.642,4.9178,0.1202
2280,468.142,4.9145,0.1204
2286,468.642,4.9138,0.1207
2292,469.139,4.9101,0.1208
2298,469.636,4.9111,0.1209
2304,470.135,4.9084,0.1212
2310,470.634,4.9071,0.1213
2316,471.134,4.9068,0.1211
2322,471.631,4.9041,0.1215
2328,472.132,4.9027,0.1216
2334,472.63,4.8999,0.1219
2340,473.131,4.8986,0.122
2346,473.629,4.8973,0.1221
2352,474.132,4.8949,0.1223
2358,474.632,4.8946,0.1228
2364,475.13,4.8919,0.1229
2370,475.632,4.8909,0.1233
2376,476.133,4.8892,0.1237
2382,476.634,4.8862,0.1238
2388,477.136,4.8842,0.1238
2394,477.636,4.8835,0.124
2400,478.136,4.8798,0.1242
2406,478.636,4.8795,0.1245
2412,479.136,4.8781,0.1245
2418,479.638,4.8755,0.1247
2424,480.136,4.8735,0.125
2430,480.636,4.8714,0.1251
2436,481.135,4.8704,0.1254
2442,481.633,4.8688,0.1255
2448,482.13,4.8654,0.1252
2454,482.629,4.8617,0.1249
2460,483.131,4.859,0.1249
2466,483.629,4.859,0.1249
2472,484.126,4.8573,0.125
2478,484.623,4.8563,0.1249
2484,485.121,4.8523,0.125
2490,485.62,4.852,0.1252
2496,486.118,4.8474,0.1251
2502,486.615,4.8444,0.1254
2508,487.112,4.843,0.1255
2514,487.613,4.843,0.1259
2520,488.11,4.839,0.1261
2526,488.61,4.8377,0.1258
2532,489.105,4.8363,0.1258
2538,489.606,4.834,0.1262
2544,490.101,4.831,0.1265
2550,490.602,4.8283,0.1267
2556,491.102,4.8246,0.1265
2562,491.599,4.8229,0.1266
2568,492.097,4.8216,0.1268
2574,492.597,4.8188,0.1273
2580,493.093,4.8161,0.1273
2586,493.591,4.8134,0.1274
2592,494.092,4.8107,0.1276
2598,494.592,4.8067,0.1276
2604,495.092,4.8051,0.1278
2610,495.592,4.8003,0.1275
2616,496.091,4.7977,0.1276
2622,496.589,4.795,0.1274
2628,497.089,4.7936,0.1275
2634,497.587,4.7906,0.1277
2640,498.085,4.7883,0.1274
2646,498.582,4.7863,0.1277
2652,499.078,4.7836,0.1277
2658,499.576,4.7789,0.128
2664,500.076,4.7779,0.1278
2670,500.572,4.7744,0.1277
2676,501.068,4.7702,0.1278
2682,501.566,4.7675,0.1277
2688,502.064,4.7648,0.128
2694,502.563,4.7621,0.1279
2700,503.065,4.747,0.127
2706,503.565,4.7358,0.1257
2712,504.066,4.7345,0.125
2718,504.566,4.7321,0.1248
2724,505.065,4.7305,0.1243
2730,505.565,4.7291,0.1242
2736,506.063,4.7264,0.1244
2742,506.562,4.7238,0.1246
2748,507.061,4.7207,0.1249
2754,507.561,4.7187,0.1251
2760,508.061,4.7174,0.1255
2766,508.559,4.712,0.1257
2772,509.059,4.7051,0.1257
2778,509.558,4.7005,0.1256
2784,510.059,4.6971,0.1254
2790,510.561,4.6945,0.1259
2796,511.058,4.6917,0.126
2802,511.561,4.6874,0.1265
2808,512.059,4.6847,0.1267
2814,512.561,4.6805,0.1267
2820,513.058,4.6765,0.1271
2826,513.559,4.673,0.1274
2832,514.058,4.6686,0.1275
2838,514.558,4.6646,0.1277
2844,515.057,4.6601,0.1279
2850,515.56,4.6549,0.128
2856,516.06,4.6495,0.128
2862,516.559,4.6469,0.1283
2868,517.06,4.6427,0.1285
2874,517.559,4.6366,0.1284
2880,518.059,4.6323,0.1286
2886,518.559,4.6283,0.1286
2892,519.061,4.6211,0.1289
2898,519.56,4.6181,0.1289
2904,520.061,4.613,0.1289
2910,520.562,4.6075,0.1291
2916,521.061,4.6019,0.1289
2922,521.561,4.596,0.1286
2928,522.056,4.5909,0.1284
2934,522.558,4.5865,0.1286
2940,523.059,4.5816,0.1284
2946,523.557,4.5759,0.1284
2952,524.054,4.5704,0.1286
2958,524.554,4.5655,0.1284
2964,525.053,4.56,0.1285
2970,525.549,4.5542,0.1288
2976,526.052,4.5482,0.1287
2982,526.546,4.5424,0.1288
2988,527.047,4.5368,0.1289
2994,527.547,4.5321,0.1292
3000,528.044,4.5264,0.1294
3006,528.545,4.5204,0.1298
3012,529.044,4.5148,0.1302
3018,529.546,4.5101,0.131
3024,530.044,4.5024,0.1305
3030,530.544,4.4965,0.1312
3036,531.045,4.4907,0.1316
3042,531.544,4.4855,0.132
3048,532.045,4.4801,0.1322
3054,532.546,4.4735,0.1325
3060,533.049,4.4673,0.1331
3066,533.546,4.4617,0.1333
3072,534.046,4.4569,0.1336
3078,534.545,4.4488,0.134
3084,535.043,4.4441,0.1338
3090,535.545,4.4372,0.1345
3096,536.043,4.431,0.1348
3102,536.542,4.4245,0.1352
3108,537.039,4.417,0.1354
3114,537.542,4.4116,0.1359
3120,538.039,4.4064,0.1359
3126,538.536,4.3983,0.1364
3132,539.035,4.3913,0.1367
3138,539.537,4.3845,0.137
3144,540.033,4.3799,0.1374
3150,540.531,4.3736,0.1379
3156,541.031,4.3656,0.1384
3162,541.531,4.3594,0.1391
3168,542.031,4.3515,0.1398
3174,542.533,4.3457,0.1404
3180,543.034,4.3391,0.1408
3186,543.534,4.3319,0.1415
3192,544.036,4.3249,0.142
3198,544.538,4.3199,0.1429
3204,545.038,4.3126,0.143
3210,545.54,4.3053,0.1437
3216,546.038,4.2983,0.1439
3222,546.539,4.2899,0.1442
3228,547.038,4.284,0.1445
3234,547.538,4.2776,0.1449
3240,548.037,4.2707,0.1454
3246,548.533,4.2631,0.1456
3252,549.033,4.2551,0.1458
3258,549.532,4.2482,0.1464
3264,550.031,4.2417,0.1467
3270,550.53,4.2343,0.1472
3276,551.028,4.2276,0.1476
3282,551.527,4.22,0.1482
3288,552.027,4.2136,0.1488
3294,552.526,4.2055,0.1493
3300,553.025,4.1968,0.1497
3306,553.524,4.1897,0.1501
3312,554.022,4.1838,0.1505
3318,554.523,4.1763,0.151
3324,555.023,4.1684,0.1515
3330,555.52,4.1601,0.1522
3336,556.022,4.1531,0.1522
3342,556.523,4.1447,0.1524
3348,557.02,4.1367,0.1534
3354,557.522,4.1291,0.1535
3360,558.021,4.1233,0.154
3366,558.521,4.1151,0.1542
3372,559.02,4.1051,0.1546
3378,559.522,4.0978,0.1546
3384,560.022,4.0902,0.155
3390,560.522,4.0804,0.1552
3396,561.023,4.0725,0.1552
3402,561.524,4.0649,0.1552
3408,562.024,4.0559,0.1555
3414,562.523,4.0474,0.1556
3420,563.023,4.0401,0.1554
3426,563.52,4.032,0.1557
3432,564.023,4.0237,0.1557
3438,564.522,4.0128,0.1557
3444,565.023,4.0049,0.156
3450,565.522,3.9953,0.1555
3456,566.021,3.9875,0.1556
3462,566.522,3.979,0.1557
3468,567.023,3.9695,0.1554
3474,567.522,3.9598,0.1555
3480,568.022,3.9503,0.1552
3486,568.519,3.94,0.1549
3492,569.019,3.9326,0.1549
3498,569.515,3.9225,0.1548
3504,570.015,3.9121,0.1542
3510,570.514,3.9023,0.1542
3516,571.009,3.8917,0.1538
3522,571.507,3.8825,0.1536
3528,572.003,3.8726,0.1534
3534,572.5,3.8621,0.1534
3540,573.001,3.8518,0.1532
3546,573.5,3.8427,0.1529
3552,573.999,3.8314,0.1529
3558,574.501,3.8206,0.1528
3564,575.004,3.8101,0.1527
3570,575.502,3.7992,0.1526
3576,576.004,3.7885,0.1526
3582,576.506,3.7762,0.1527
3588,577.007,3.7637,0.1523
3594,577.51,3.7533,0.152
3600,578.011,3.7431,0.1518
3606,578.512,3.7307,0.1512
3612,579.015,3.7194,0.1514
3618,579.516,3.7077,0.151
3624,580.017,3.6962,0.1509
3630,580.521,3.6849,0.1501
3636,581.021,3.6711,0.15
3642,581.521,3.6587,0.1493
3648,582.021,3.6473,0.1487
3654,582.525,3.6348,0.1482
3660,583.025,3.6206,0.1478
3666,583.528,3.6077,0.1472
3672,584.028,3.5956,0.1468
3678,584.526,3.5837,0.1462
3684,585.026,3.5711,0.1454
3690,585.526,3.5582,0.1451
3696,586.026,3.5421,0.1445
3702,586.524,3.5288,0.1439
3708,587.022,3.5156,0.1436
3714,587.523,3.5022,0.1432
3720,588.021,3.4889,0.1427
3726,588.52,3.4752,0.1427
3732,589.019,3.4604,0.1421
3738,589.52,3.4472,0.1416
3744,590.016,3.4327,0.1415
3750,590.514,3.4189,0.1414
3756,591.013,3.4046,0.1408
3762,591.511,3.3902,0.1409
3768,592.01,3.375,0.1407
3774,592.508,3.3619,0.1412
3780,593.008,3.348,0.1411
3786,593.509,3.3331,0.1409
3792,594.008,3.3166,0.141
3798,594.509,3.3022,0.1411
3804,595.011,3.2876,0.1414
3810,595.512,3.2734,0.1414
3816,596.012,3.2577,0.1413
3822,596.513,3.2429,0.1411
3828,597.013,3.227,0.1414
3834,597.515,3.2119,0.1416
3840,598.013,3.1975,0.1416
3846,598.514,3.1808,0.1416
3852,599.013,3.1666,0.1415
3858,599.513,3.1488,0.1417
3864,600.012,3.134,0.1415
3870,600.512,3.1189,0.1416
3876,601.014,3.104,0.1419
3882,601.511,3.0894,0.1418
3888,602.012,3.0728,0.142
3894,602.508,3.0569,0.1417
3900,603.01,3.0404,0.1416
3906,603.508,3.0237,0.1417
3912,604.005,3.0099,0.1413
3918,604.503,2.9931,0.1412
3924,605.002,2.9775,0.141
3930,605.5,2.9616,0.1406
3936,605.997,2.9453,0.1405
3942,606.495,2.9283,0.1404
3948,606.993,2.9124,0.14
3954,607.493,2.897,0.1399
3960,607.992,2.8799,0.1399
3966,608.491,2.8638,0.1393
3972,608.99,2.8471,0.1392
3978,609.491,2.831,0.1387
3984,609.989,2.8139,0.1384
3990,610.491,2.7955,0.138
3996,610.992,2.7799,0.1378
4002,611.492,2.7624,0.1374
4008,611.993,2.7458,0.1368
4014,612.495,2.7304,0.1365
4020,612.997,2.7134,0.136
4026,613.498,2.6958,0.1354
4032,613.999,2.6767,0.1345
4038,614.5,2.6588,0.1335
4044,615.004,2.6406,0.1327
4050,615.504,2.6231,0.1315
4056,616.007,2.6051,0.1306
4062,616.507,2.5862,0.129
4068,617.008,2.5677,0.1279
4074,617.511,2.55,0.1264
4080,618.01,2.5417,0.1263
4086,618.51,2.5153,0.1249
4092,619.012,2.4951,0.1232
4098,619.512,2.4726,0.1217
4104,620.01,2.453,0.1196
4110,620.508,2.4325,0.118
4116,621.009,2.4119,0.1161
4122,621.508,2.3925,0.1144
4128,622.004,2.372,0.113
4134,622.501,2.3522,0.1114
4140,622.999,2.3298,0.1098
4146,623.498,2.3087,0.1083
4152,623.996,2.2878,0.1077
4158,624.495,2.2668,0.1066
4164,624.993,2.2472,0.1054
4170,625.491,2.2252,0.1047
4176,625.99,2.2032,0.1037
4182,626.488,2.1821,0.1033
4188,626.987,2.1627,0.1028
4194,627.487,2.1423,0.1029
4200,627.989,2.1197,0.1028
4206,628.489,2.0988,0.103
4212,628.988,2.0761,0.1033
4218,629.49,2.0527,0.1038
4224,629.993,2.0311,0.1042
4230,630.496,2.0097,0.1051
4236,630.998,1.9853,0.1061
4242,631.498,1.9643,0.1072
4248,632.0,1.941,0.1084
4254,632.502,1.9188,0.1099
4260,633.003,1.8964,0.1116
4266,633.507,1.874,0.1137
4272,634.006,1.8529,0.1161
4278,634.509,1.8309,0.1186
4284,635.004,1.8106,0.1222
4290,635.507,1.7883,0.1253
4296,636.005,1.7665,0.1289
4302,636.505,1.7463,0.1331
4308,637.003,1.7267,0.138
4314,637.504,1.7053,0.1431
4320,637.999,1.6858,0.1485
4326,638.496,1.667,0.1546
4332,638.995,1.6478,0.1606
4338,639.493,1.6305,0.1672
4344,639.992,1.6128,0.1744
4350,640.49,1.5953,0.1819
4356,640.987,1.5785,0.1897
4362,641.486,1.5623,0.1982
4368,641.982,1.5464,0.2062
4374,642.481,1.5328,0.2152
4380,642.98,1.5192,0.2238
4386,643.478,1.5078,0.2329
4392,643.976,1.4939,0.2423
4398,644.475,1.482,0.2515
4404,644.974,1.4705,0.2607
4410,645.474,1.4607,0.2696
4416,645.975,1.4523,0.279
4422,646.475,1.4426,0.2878
4428,646.976,1.4249,0.2961
4434,647.481,1.4193,0.3039
4440,647.983,1.4106,0.3115
4446,648.481,1.4049,0.319
4452,648.984,1.4,0.3265
4458,649.485,1.3941,0.3334
4464,649.986,1.3912,0.34
4470,650.488,1.3861,0.3466
4476,650.989,1.383,0.3522
4482,651.49,1.3796,0.3575
4488,651.99,1.3755,0.3619
4494,652.492,1.3721,0.3662
4500,652.993,1.3694,0.3699
4506,653.493,1.3656,0.3731
4512,653.996,1.363,0.3761
4518,654.495,1.36,0.3786
4524,654.999,1.3527,0.3807
4530,655.498,1.3501,0.3821
4536,655.996,1.3494,0.3838
4542,656.497,1.3488,0.385
4548,656.995,1.3461,0.3867
4554,657.492,1.3441,0.388
4560,657.993,1.3434,0.3895
4566,658.489,1.3421,0.3904
4572,658.989,1.3384,0.3917
4578,659.484,1.337,0.3929
4584,659.985,1.337,0.3943
4590,660.484,1.333,0.3954
4596,660.983,1.3317,0.3967
4602,661.483,1.331,0.398
4608,661.984,1.3283,0.3991
4614,662.485,1.3263,0.4004
4620,662.985,1.3246,0.4014
4626,663.486,1.3233,0.4024
4632,663.985,1.3206,0.4036
4638,664.486,1.3192,0.4042
4644,664.987,1.3162,0.4049
4650,665.489,1.3162,0.4061
4656,665.988,1.3136,0.4071
4662,666.487,1.3122,0.4077
4668,666.986,1.3095,0.4084
4674,667.485,1.3082,0.4093
4680,667.983,1.3068,0.4104
4686,668.482,1.3055,0.4115
4692,668.981,1.3017,0.4124
4698,669.48,1.3004,0.4127
4704,669.981,1.2987,0.4137
4710,670.475,1.2973,0.4148
4716,670.97,1.2946,0.4154
4722,671.468,1.2923,0.4166
4728,671.964,1.2906,0.4174
4734,672.465,1.2893,0.4184
4740,672.962,1.2856,0.4198
4746,673.458,1.2853,0.4206
4752,673.957,1.2825,0.4214
4758,674.453,1.2811,0.4227
4764,674.953,1.2798,0.4236
4770,675.453,1.2774,0.4249
4776,675.953,1.2761,0.426
4782,676.45,1.2734,0.4272
4788,676.953,1.2721,0.4285
4794,677.452,1.2707,0.4299
4800,677.954,1.2691,0.4306
4806,678.453,1.2667,0.4322
4812,678.959,1.2654,0.4332
4818,679.457,1.264,0.4341
4824,679.96,1.2623,0.4352
4830,680.462,1.2613,0.4366
4836,680.968,1.2587,0.4377
4842,681.47,1.2478,0.4378
4848,681.975,1.2446,0.4381
4854,682.477,1.2432,0.4388
4860,682.98,1.2432,0.4395
4866,683.481,1.2432,0.4407
4872,683.983,1.2422,0.4415
4878,684.484,1.2405,0.4424
4884,684.985,1.2405,0.4432
4890,685.483,1.2392,0.4442
4896,685.984,1.2379,0.4452
4902,686.485,1.2365,0.4467
4908,686.985,1.2338,0.4472
4914,687.482,1.2325,0.4484
4920,687.983,1.2312,0.4493
4926,688.481,1.2298,0.4497
4932,688.978,1.2285,0.4511
4938,689.477,1.2258,0.4521
4944,689.979,1.2244,0.4531
4950,690.476,1.2231,0.454
4956,690.973,1.2218,0.4552
4962,691.474,1.2194,0.4559
4968,691.976,1.2177,0.4569
4974,692.473,1.2154,0.4576
4980,692.974,1.2141,0.4586
4986,693.473,1.2141,0.4595
4992,693.972,1.212,0.4603
4998,694.472,1.2092,0.4608
5004,694.974,1.2072,0.4616
5010,695.473,1.2059,0.4624
5016,695.972,1.2046,0.4632
5022,696.469,1.2032,0.4641
5028,696.971,1.2019,0.4647
5034,697.469,1.2005,0.4654
5040,697.968,1.1992,0.466
5046,698.468,1.1962,0.4666
5052,698.965,1.1952,0.4673
5058,699.463,1.1928,0.4678
5064,699.961,1.1928,0.4687
5070,700.46,1.1905,0.4698
5076,700.961,1.1891,0.4702
5082,701.458,1.1868,0.4711
5088,701.959,1.1851,0.472
5094,702.459,1.1834,0.4725
5100,702.962,1.1821,0.4736
5106,703.461,1.1807,0.4744
5112,703.961,1.1794,0.4749
5118,704.461,1.1781,0.4756
5124,704.963,1.1754,0.4763
5130,705.464,1.174,0.4771
5136,705.964,1.1727,0.4777
5142,706.466,1.1713,0.4782
5148,706.967,1.1707,0.479
5154,707.47,1.168,0.4794
5160,707.972,1.1663,0.48
5166,708.473,1.165,0.4806
5172,708.972,1.1636,0.4807
5178,709.472,1.1623,0.4812
5184,709.973,1.1609,0.4818
5190,710.475,1.1596,0.4821
5196,710.973,1.1583,0.4824
5202,711.47,1.1559,0.4825
5208,711.967,1.1556,0.4826
5214,712.464,1.1542,0.483
5220,712.96,1.1529,0.4834
5226,713.457,1.1516,0.484
5232,713.952,1.1516,0.4844
5238,714.451,1.1489,0.4846
5244,714.95,1.1475,0.4854
5250,715.449,1.1469,0.4858
5256,715.945,1.1452,0.4868
5262,716.442,1.1462,0.4874
5268,716.943,1.1442,0.488
5274,717.44,1.1428,0.4884
5280,717.94,1.1412,0.4893
5286,718.438,1.1395,0.4897
5292,718.937,1.1388,0.4906
5298,719.436,1.1375,0.4911
5304,719.939,1.1375,0.492
5310,720.438,1.1348,0.4927
5316,720.941,1.1338,0.4933
5322,721.443,1.1321,0.4938
5328,721.944,1.1308,0.4947
5334,722.445,1.1308,0.4952
5340,722.947,1.1288,0.4955
5346,723.451,1.1274,0.4964
5352,723.953,1.1271,0.4969
5358,724.455,1.1254,0.4975
5364,724.955,1.1241,0.4982
5370,725.457,1.1234,0.4988
5376,725.961,1.122,0.4989
5382,726.461,1.1207,0.4997
5388,726.962,1.1207,0.5002
5394,727.462,1.1194,0.5008
5400,727.964,1.1194,0.501
5406,728.465,1.1167,0.5019
5412,728.963,1.117,0.5026
5418,729.466,1.1153,0.5028
5424,729.964,1.114,0.5031
5430,730.464,1.114,0.5038
5436,730.965,1.1127,0.5044
5442,731.461,1.1113,0.5052
5448,731.964,1.11,0.5054
5454,732.461,1.1106,0.506
5460,732.96,1.1093,0.5067
5466,733.46,1.108,0.5072
5472,733.958,1.1066,0.5076
5478,734.458,1.1053,0.5081
5484,734.959,1.1053,0.5083
5490,735.457,1.1039,0.5088
5496,735.956,1.1033,0.5096
5502,736.452,1.1036,0.5102
5508,736.951,1.1016,0.5108
5514,737.449,1.1002,0.5114
5520,737.948,1.1002,0.5119
5526,738.446,1.0989,0.513
5532,738.944,1.0976,0.5137
5538,739.444,1.0962,0.5145
5544,739.943,1.0952,0.5154
5550,740.443,1.0952,0.5156
5556,740.942,1.0935,0.5166
5562,741.44,1.0935,0.517
5568,741.94,1.0935,0.5179
5574,742.439,1.0922,0.5191
5580,742.941,1.0922,0.5197
5586,743.443,1.0909,0.5208
5592,743.938,1.0905,0.5212
5598,744.44,1.0878,0.5219
5604,744.942,1.0878,0.5228
5610,745.441,1.0872,0.5236
5616,745.941,1.0865,0.5239
5622,746.439,1.0852,0.5249
5628,746.939,1.0841,0.5258
5634,747.438,1.0838,0.5265
5640,747.938,1.0831,0.5269
5646,748.435,1.0825,0.5282
5652,748.939,1.0818,0.5289
5658,749.436,1.0805,0.5296
5664,749.935,1.0791,0.5305
5670,750.434,1.0778,0.5315
5676,750.935,1.0788,0.5324
5682,751.435,1.0781,0.533
5688,751.932,1.0761,0.5341
5694,752.433,1.0761,0.5349
5700,752.933,1.0754,0.5363
5706,753.435,1.0748,0.5372
5712,753.937,1.0734,0.5384
5718,754.44,1.0734,0.5392
5724,754.943,1.0707,0.5398
5730,755.447,1.0704,0.5411
5736,755.946,1.0704,0.5418
5742,756.448,1.0704,0.5426
5748,756.949,1.0677,0.5436
5754,757.451,1.0677,0.5442
5760,757.953,1.0677,0.5451
5766,758.457,1.0677,0.5462
5772,758.955,1.0664,0.547
5778,759.456,1.0664,0.5471
5784,759.956,1.067,0.5476
5790,760.455,1.0657,0.5479
5796,760.953,1.0634,0.5488
5802,761.455,1.0634,0.5498
5808,761.955,1.063,0.5506
5814,762.453,1.0627,0.5514
5820,762.954,1.0627,0.5523
5826,763.457,1.06,0.5536
5832,763.956,1.0587,0.5542
5838,764.454,1.0587,0.5556
5844,764.955,1.0597,0.5565
5850,765.455,1.0587,0.5576
5856,765.954,1.0573,0.5585
5862,766.457,1.0587,0.5595
5868,766.956,1.0573,0.5602
5874,767.456,1.056,0.5616
5880,767.958,1.056,0.5627
5886,768.456,1.055,0.5639
5892,768.96,1.0546,0.5646
5898,769.461,1.0533,0.5662
5904,769.965,1.0533,0.5668
5910,770.468,1.0523,0.5685
5916,770.969,1.051,0.5692
5922,771.468,1.0503,0.5699
5928,771.969,1.0516,0.571
5934,772.471,1.0496,0.572
5940,772.971,1.0483,0.5729
5946,773.472,1.0483,0.5742
5952,773.973,1.0469,0.5753
5958,774.474,1.0469,0.5761
5964,774.976,1.0459,0.5774
5970,775.476,1.0456,0.578
5976,775.979,1.0442,0.5789
5982,776.479,1.0442,0.5796
5988,776.978,1.0449,0.5806
5994,777.479,1.0439,0.5814
6000,777.979,1.0439,0.5829
6006,778.482,1.0422,0.5834
6012,778.98,1.0402,0.5846
6018,779.479,1.0402,0.5851
6024,779.981,1.0389,0.5861
6030,780.479,1.0389,0.5865
6036,780.977,1.0395,0.5873
6042,781.478,1.0402,0.5877
6048,781.974,1.0389,0.5887
6054,782.474,1.0389,0.5895
6060,782.969,1.0382,0.5899
6066,783.466,1.0362,0.5909
6072,783.964,1.0349,0.5919
6078,784.461,1.0362,0.593
6084,784.958,1.0362,0.594
6090,785.455,1.0349,0.5948
6096,785.953,1.0349,0.5956
6102,786.447,1.0349,0.5967
6108,786.948,1.0335,0.5976
6114,787.448,1.0335,0.5991
6120,787.95,1.0322,0.5998
6126,788.449,1.0335,0.6008
6132,788.95,1.0322,0.602
6138,789.451,1.0308,0.6027
6144,789.951,1.0308,0.6032
6150,790.453,1.0308,0.6039
6156,790.955,1.0295,0.6044
6162,791.455,1.0281,0.6053
6168,791.957,1.0281,0.6058
6174,792.459,1.0281,0.6066
6180,792.959,1.0268,0.6077
6186,793.462,1.0271,0.6084
6192,793.961,1.0261,0.6089
6198,794.462,1.0231,0.6096
6204,794.962,1.0234,0.6108
6210,795.466,1.0234,0.6116
6216,795.966,1.0234,0.6127
6222,796.466,1.0231,0.6132
6228,796.968,1.0231,0.6143
6234,797.47,1.0245,0.6156
6240,797.972,1.0231,0.6165
6246,798.473,1.0221,0.6175
6252,798.974,1.0218,0.6183
6258,799.474,1.0218,0.619
6264,799.971,1.0204,0.6198
6270,800.472,1.0204,0.6211
6276,800.971,1.0194,0.6214
6282,801.472,1.0194,0.6221
6288,801.969,1.0191,0.6233
6294,802.469,1.0181,0.6237
6300,802.965,1.0181,0.6245
6306,803.466,1.0174,0.6251
6312,803.964,1.0164,0.6264
6318,804.463,1.0164,0.6271
6324,804.965,1.0141,0.6278
6330,805.463,1.0151,0.6291
6336,805.965,1.0137,0.6301
6342,806.466,1.0137,0.6312
6348,806.965,1.0137,0.6317
6354,807.466,1.0124,0.6323
6360,807.968,1.0117,0.6335
6366,808.471,1.011,0.6342
6372,808.97,1.011,0.635
6378,809.472,1.0104,0.6356
6384,809.972,1.011,0.6369
6390,810.474,1.01,0.6377
6396,810.973,1.0087,0.6384
6402,811.475,1.0087,0.6395
6408,811.975,1.007,0.6399
6414,812.476,1.008,0.6409
6420,812.978,1.008,0.642
6426,813.479,1.006,0.6427
6432,813.976,1.006,0.6438
6438,814.479,1.0053,0.6445
6444,814.982,1.0053,0.6449
6450,815.482,1.0053,0.6459
6456,815.981,1.004,0.6469
6462,816.479,1.0043,0.6474
6468,816.98,1.0037,0.6483
6474,817.481,1.0037,0.6488
6480,817.981,1.0037,0.6496
6486,818.48,1.0023,0.6507
6492,818.978,1.0023,0.6516
6498,819.479,1.0013,0.6525
6504,819.978,1.0,0.653
6510,820.474,1.0013,0.6543
6516,820.971,1.0003,0.6555
6522,821.473,1.0003,0.6565
6528,821.973,1.0003,0.658
6534,822.474,1.0003,0.6592
6540,822.975,0.999,0.6601
6546,823.476,0.9976,0.6611
6552,823.977,0.9976,0.6623
6558,824.479,0.999,0.6631
6564,824.98,0.9976,0.6627
6570,825.48,0.9966,0.6631
6576,825.979,0.9959,0.6629
6582,826.482,0.997,0.6623
6588,826.98,0.9956,0.6621
6594,827.478,0.9956,0.6623
6600,827.976,0.9956,0.6628
6606,828.476,0.9956,0.6629
6612,828.974,0.9956,0.663
6618,829.473,0.9945,0.6638
6624,829.97,0.9928,0.6646
6630,830.466,0.9942,0.6652
6636,830.966,0.9931,0.6663
6642,831.465,0.9931,0.667
6648,831.963,0.9932,0.6674
6654,832.462,0.9918,0.6685
6660,832.96,0.9905,0.6697
6666,833.459,0.9905,0.6708
6672,833.957,0.9918,0.6718
6678,834.458,0.9918,0.6727
6684,834.957,0.9905,0.6737
6690,835.459,0.9891,0.6749
6696,835.961,0.9881,0.6759
6702,836.463,0.9881,0.6772
6708,836.965,0.9891,0.678
6714,837.464,0.9878,0.6791
6720,837.966,0.9864,0.6795
6726,838.468,0.9864,0.6808
6732,838.967,0.9861,0.6818
6738,839.468,0.9861,0.6831
6744,839.969,0.9861,0.684
6750,840.471,0.9858,0.6852
6756,840.974,0.9844,0.6855
6762,841.474,0.9858,0.6866
6768,841.978,0.9838,0.6878
6774,842.481,0.9838,0.6889
6780,842.981,0.9838,0.69
6786,843.484,0.9838,0.6908
6792,843.985,0.9824,0.6916
6798,844.484,0.9814,0.6926
6804,844.986,0.9814,0.6935
6810,845.486,0.9814,0.6943
6816,845.984,0.9804,0.6956
6822,846.485,0.9794,0.696
6828,846.987,0.9794,0.6971
6834,847.487,0.9804,0.6982
6840,847.986,0.9791,0.6987
6846,848.488,0.9777,0.6997
6852,848.987,0.9791,0.7007
6858,849.487,0.9784,0.7015
6864,849.988,0.9764,0.7031
6870,850.488,0.9777,0.7043
6876,850.99,0.9777,0.7053
6882,851.49,0.9764,0.7062
6888,851.992,0.9764,0.7068
6894,852.491,0.975,0.7077
6900,852.991,0.975,0.7086
6906,853.489,0.9757,0.7093
6912,853.991,0.9733,0.7106
6918,854.488,0.9699,0.7113
6924,854.991,0.9699,0.7122
6930,855.489,0.9706,0.7136
6936,855.988,0.9702,0.715
6942,856.486,0.9699,0.7165
6948,856.984,0.9702,0.7178
6954,857.487,0.9712,0.7204
6960,857.985,0.9716,0.7224
6966,858.486,0.9716,0.7235
6972,858.984,0.9702,0.7253
6978,859.484,0.9689,0.727
6984,859.983,0.9699,0.7278
6990,860.482,0.9712,0.7298
6996,860.983,0.9699,0.7307
7002,861.481,0.9699,0.7316
7008,861.981,0.9689,0.733
7014,862.482,0.9689,0.7342
7020,862.981,0.9675,0.7355
7026,863.479,0.9686,0.7362
7032,863.979,0.9676,0.7375
7038,864.474,0.9682,0.7383
7044,864.97,0.9662,0.7393
7050,865.471,0.9676,0.7399
7056,865.967,0.9676,0.7418
7062,866.466,0.9662,0.7427
7068,866.961,0.9662,0.744
7074,867.458,0.9669,0.7448
7080,867.957,0.9669,0.7459
7086,868.455,0.9645,0.7472
7092,868.953,0.9645,0.7477
7098,869.45,0.9669,0.747
7104,869.947,0.9655,0.7457
7110,870.445,0.9655,0.7438
7116,870.943,0.9642,0.7417
7122,871.445,0.9642,0.7405
7128,871.944,0.9655,0.7399
7134,872.444,0.9642,0.7396
7140,872.946,0.9629,0.7398
7146,873.447,0.9629,0.7403
7152,873.944,0.9629,0.7436
7158,874.448,0.9625,0.7441
7164,874.947,0.9615,0.7455
7170,875.451,0.9615,0.7468
7176,875.95,0.9602,0.748
7182,876.45,0.9602,0.7497
7188,876.954,0.9605,0.7517
7194,877.459,0.9598,0.7537
7200,877.961,0.9592,0.7562
7206,878.461,0.9592,0.7579
7212,878.966,0.9592,0.7598
7218,879.466,0.9592,0.7619
7224,879.968,0.9578,0.7635
7230,880.47,0.9588,0.7651
7236,880.968,0.9575,0.7673
7242,881.469,0.9568,0.7687
7248,881.969,0.9568,0.7706
7254,882.471,0.9568,0.7724
7260,882.968,0.9555,0.7739
7266,883.468,0.9555,0.7764
7272,883.968,0.9555,0.7782
7278,884.467,0.9555,0.7803
7284,884.966,0.9555,0.7816
7290,885.466,0.9555,0.7839
7296,885.965,0.9551,0.7856
7302,886.463,0.9551,0.7879
7308,886.963,0.9528,0.7896
7314,887.461,0.9541,0.7918
7320,887.962,0.9531,0.7934
7326,888.459,0.9531,0.7955
7332,888.963,0.9531,0.7975
7338,889.461,0.9528,0.7997
7344,889.962,0.9514,0.8016
7350,890.465,0.9514,0.8044
7356,890.966,0.9528,0.8061
7362,891.465,0.9508,0.8083
7368,891.967,0.9498,0.8108
7374,892.47,0.9498,0.8126
7380,892.973,0.9511,0.8149
7386,893.475,0.9498,0.8171
7392,893.975,0.9498,0.8197
7398,894.476,0.9498,0.8222
7404,894.976,0.9484,0.8247
7410,895.479,0.9498,0.8268
7416,895.977,0.9498,0.8288
7422,896.476,0.9484,0.8314
7428,896.974,0.9484,0.8331
7434,897.473,0.9494,0.8355
7440,897.973,0.9494,0.8382
7446,898.47,0.9491,0.84
7452,898.972,0.9478,0.8419
7458,899.472,0.9478,0.8444
7464,899.974,0.9468,0.8466
7470,900.475,0.9468,0.8487
7476,900.976,0.9468,0.851
7482,901.475,0.9464,0.854
7488,901.974,0.9464,0.8561
7494,902.475,0.9451,0.8599
7500,902.974,0.9458,0.8627
7506,903.474,0.9471,0.8647
7512,903.973,0.9473,0.8687
7518,904.473,0.9501,0.8722
7524,904.974,0.9488,0.875
7530,905.478,0.9461,0.8776
7536,905.978,0.9447,0.8806
7542,906.481,0.9461,0.883
7548,906.984,0.9461,0.8857
7554,907.485,0.9447,0.8885
7560,907.986,0.9434,0.8908
7566,908.492,0.9434,0.8933
7572,908.99,0.9434,0.8958
7578,909.49,0.9447,0.8987
7584,909.99,0.9447,0.9016
7590,910.491,0.9437,0.9034
7596,910.992,0.9424,0.9066
7602,911.49,0.9411,0.9095
7608,911.988,0.9411,0.9121
7614,912.488,0.9424,0.915
7620,912.987,0.9411,0.9172
7626,913.488,0.9411,0.9198
7632,913.987,0.9424,0.9219
7638,914.485,0.9417,0.9251
7644,914.984,0.94,0.9279
7650,915.481,0.94,0.9314
7656,915.982,0.939,0.9344
7662,916.479,0.939,0.9375
7668,916.978,0.939,0.9406
7674,917.479,0.9387,0.9442
7680,917.979,0.9387,0.9469
7686,918.481,0.9387,0.9503
7692,918.981,0.9387,0.9531
7698,919.481,0.9374,0.9562
7704,919.984,0.9387,0.9594
7710,920.485,0.9384,0.9626
7716,920.987,0.9384,0.9655
7722,921.488,0.9374,0.9689
7728,921.989,0.936,0.973
7734,922.49,0.9374,0.9756
7740,922.993,0.9374,0.979
7746,923.493,0.936,0.9828
7752,923.992,0.936,0.9859
7758,924.493,0.936,0.9894
7764,924.995,0.9367,0.9928
7770,925.491,0.9354,0.996
7776,925.993,0.9354,0.9994
7782,926.491,0.934,1.0031
7788,926.993,0.9327,1.006
7794,927.492,0.9344,1.0096
7800,927.989,0.9344,1.013
7806,928.489,0.933,1.0161
7812,928.989,0.9317,1.0199
7818,929.487,0.933,1.0237
7824,929.989,0.933,1.0277
7830,930.49,0.933,1.031
7836,930.986,0.932,1.0345
7842,931.488,0.931,1.0385
7848,931.989,0.9323,1.0417
7854,932.487,0.9323,1.0453
7860,932.988,0.9317,1.0483
7866,933.489,0.9307,1.0524
7872,933.991,0.9307,1.0553
7878,934.491,0.9307,1.0587
7884,934.989,0.9307,1.0622
7890,935.49,0.9307,1.0663
7896,935.99,0.9307,1.0696
7902,936.49,0.9307,1.0732
7908,936.989,0.9307,1.0773
7914,937.488,0.93,1.0807
7920,937.989,0.9293,1.0848
7926,938.489,0.9293,1.0888
7932,938.989,0.9293,1.0925
7938,939.49,0.9293,1.0971
7944,939.99,0.928,1.1011
7950,940.49,0.9293,1.1052
7956,940.99,0.9286,1.1091
7962,941.492,0.928,1.1128
7968,941.992,0.9266,1.1166
7974,942.494,0.929,1.1204
7980,942.995,0.9293,1.1243
7986,943.498,0.9276,1.1279
7992,943.999,0.9273,1.1321
7998,944.501,0.926,1.1363
8004,944.998,0.927,1.1399
8010,945.499,0.927,1.1445
8016,945.999,0.9256,1.1484
8022,946.496,0.927,1.1521
8028,946.996,0.927,1.1564
8034,947.497,0.9263,1.1608
8040,947.997,0.9263,1.1645
8046,948.493,0.9253,1.1688
8052,948.995,0.9266,1.1727
8058,949.495,0.9253,1.1772
8064,949.992,0.9263,1.1809
8070,950.491,0.925,1.1848
8076,950.989,0.925,1.1892
8082,951.489,0.925,1.1932
8088,951.99,0.927,1.1976
8094,952.489,0.9256,1.2019
8100,952.989,0.9256,1.2062
8106,953.49,0.9256,1.2101
8112,953.991,0.9243,1.2136
8118,954.49,0.9243,1.2182
8124,954.991,0.9256,1.2227
8130,955.491,0.9243,1.2271
8136,955.991,0.9243,1.2316
8142,956.491,0.9256,1.2362
8148,956.991,0.9256,1.2405
8154,957.493,0.9256,1.2448
8160,957.993,0.9243,1.2496
8166,958.492,0.9256,1.253
8172,958.992,0.9256,1.2573
8178,959.494,0.9256,1.2621
8184,959.992,0.925,1.2663
8190,960.49,0.925,1.2711
8196,960.994,0.926,1.2764
8202,961.493,0.926,1.2807
8208,961.992,0.9246,1.2852
8214,962.489,0.9253,1.2894
8220,962.989,0.9226,1.2937
8226,963.487,0.9239,1.299
8232,963.985,0.9253,1.3032
8238,964.485,0.9226,1.3076
8244,964.984,0.924,1.3116
8250,965.482,0.924,1.3166
8256,965.981,0.9226,1.3204
8262,966.482,0.9226,1.3247
8268,966.982,0.9236,1.3298
8274,967.481,0.9236,1.3348
8280,967.984,0.9223,1.3404
8286,968.48,0.9233,1.3451
8292,968.986,0.9226,1.3502
8298,969.487,0.9226,1.3549
8304,969.986,0.9226,1.3596
8310,970.489,0.9223,1.3642
8316,970.993,0.9213,1.3693
8322,971.492,0.9209,1.3736
8328,971.994,0.9209,1.3791
8334,972.493,0.9196,1.3839
8340,972.992,0.9209,1.3888
8343,973.194,0.9219,1.3902