File: Wood/Calibration_Data/TIFP+UCT/TIFP+UCT_STA_N2_5K_R3.csv
Time (s),Temperature (K),Mass (mg),Heat Flow Rate (W/g)
0,303.163,5.1073,-0.0091
6,303.165,5.106,-0.009
12,303.168,5.1045,-0.0089
18,303.173,5.1045,-0.0088
24,303.17,5.1032,-0.0088
30,303.176,5.1032,-0.0085
36,303.177,5.1022,-0.0084
42,303.181,5.1032,-0.0085
48,303.183,5.1018,-0.0084
54,303.181,5.1018,-0.0083
60,303.187,5.1005,-0.0081
66,303.19,5.1005,-0.0082
72,303.192,5.1005,-0.0079
78,303.192,5.1005,-0.0077
84,303.193,5.1005,-0.0077
90,303.195,5.0991,-0.0077
96,303.196,5.0991,-0.0076
102,303.197,5.0985,-0.0074
108,303.198,5.0977,-0.0073
114,303.197,5.0977,-0.0072
120,303.193,5.0977,-0.007
126,303.193,5.0963,-0.0069
132,303.192,5.0963,-0.0067
138,303.191,5.0963,-0.0066
144,303.189,5.0963,-0.0064
150,303.186,5.095,-0.0064
156,303.185,5.095,-0.0065
162,303.179,5.0937,-0.0064
168,303.177,5.093,-0.0065
174,303.175,5.095,-0.0065
180,303.173,5.094,-0.0063
186,303.169,5.0937,-0.0063
192,303.168,5.093,-0.0064
198,303.165,5.0923,-0.0064
204,303.162,5.0927,-0.0062
210,303.16,5.092,-0.0063
216,303.158,5.091,-0.0064
222,303.158,5.091,-0.0064
228,303.154,5.0896,-0.0062
234,303.15,5.0896,-0.0063
240,303.152,5.0896,-0.0062
246,303.149,5.0896,-0.0061
252,303.15,5.0883,-0.0061
258,303.152,5.087,-0.0059
264,303.152,5.0883,-0.0059
270,303.15,5.0883,-0.0055
276,303.155,5.088,-0.0057
282,303.155,5.0869,-0.0058
288,303.158,5.087,-0.0054
294,303.158,5.087,-0.0054
300,303.1648,5.0865,-0.0053
306,303.1622,5.0856,-0.0051
312,303.1709,5.0856,-0.0052
318,303.1848,5.0847,-0.0051
324,303.2128,5.0842,-0.0046
330,303.2624,5.0853,-0.0043
336,303.3409,5.0853,-0.0042
342,303.4509,5.0844,-0.0038
348,303.5956,5.0848,-0.004
354,303.7805,5.0846,-0.0041
360,304.0158,5.0837,-0.0048
366,304.2926,5.084,-0.0058
372,304.6202,5.0863,-0.007
378,304.9967,5.0864,-0.0082
384,305.4233,5.0853,-0.0099
390,305.8976,5.0851,-0.0118
396,306.4128,5.084,-0.0138
402,306.9744,5.0841,-0.0155
408,307.5757,5.0831,-0.0178
414,308.2089,5.0838,-0.02
420,308.8783,5.0837,-0.022
426,309.5711,5.0828,-0.0243
432,310.2862,5.0835,-0.0266
438,311.0219,5.082,-0.0287
444,311.7677,5.0834,-0.0308
450,312.5229,5.0815,-0.0325
456,313.2769,5.0805,-0.0341
462,314.0387,5.0812,-0.0358
468,314.7919,5.0816,-0.0368
474,315.5427,5.0816,-0.0381
480,316.2808,5.0803,-0.0385
486,317.0071,5.0803,-0.0392
492,317.7219,5.0803,-0.0398
498,318.422,5.0789,-0.04
504,319.1035,5.0802,-0.0398
510,319.7706,5.0792,-0.0399
516,320.4209,5.0783,-0.0401
522,321.054,5.0776,-0.0396
528,321.6739,5.0762,-0.0395
534,322.274,5.0772,-0.0391
540,322.8609,5.0749,-0.0392
546,323.4333,5.0749,-0.0388
552,323.9926,5.0735,-0.0385
558,324.5417,5.0743,-0.0384
564,325.0795,5.0735,-0.0381
570,325.6105,5.0729,-0.0379
576,326.1259,5.0729,-0.0378
582,326.6408,5.0715,-0.038
588,327.1468,5.0715,-0.0377
594,327.6462,5.0702,-0.0379
600,328.1468,5.0702,-0.0379
606,328.6407,5.0702,-0.0379
612,329.132,5.0689,-0.0384
618,329.6219,5.0689,-0.0384
624,330.11,5.0675,-0.0388
630,330.5988,5.0675,-0.0393
636,331.0881,5.0669,-0.0395
642,331.5752,5.0675,-0.0399
648,332.065,5.0662,-0.0403
654,332.5541,5.0654,-0.0409
660,333.0484,5.0648,-0.0413
666,333.5361,5.0638,-0.0416
672,334.0282,5.0648,-0.0419
678,334.5228,5.0648,-0.0425
684,335.0187,5.0639,-0.0427
690,335.5128,5.0631,-0.0434
696,336.0078,5.0635,-0.0433
702,336.5021,5.0626,-0.0437
708,336.9988,5.0622,-0.0439
714,337.4959,5.0621,-0.0443
720,337.9927,5.0621,-0.0445
726,338.4888,5.0621,-0.0447
732,338.9897,5.0621,-0.0446
738,339.484,5.0612,-0.0449
744,339.981,5.0595,-0.0446
750,340.4779,5.0595,-0.0446
756,340.9758,5.0608,-0.0444
762,341.4736,5.0608,-0.0441
768,341.968,5.0581,-0.0439
774,342.4618,5.0581,-0.0436
780,342.958,5.0581,-0.0434
786,343.4529,5.058,-0.0428
792,343.9488,5.058,-0.0425
798,344.4441,5.0573,-0.042
804,344.9408,5.0563,-0.0417
810,345.435,5.0567,-0.0413
816,345.9338,5.0553,-0.0402
822,346.4272,5.0553,-0.04
828,346.9238,5.0553,-0.0394
834,347.4209,5.0553,-0.0388
840,347.9189,5.055,-0.0381
846,348.4159,5.054,-0.037
852,348.9149,5.054,-0.0366
858,349.4116,5.054,-0.0359
864,349.9148,5.0526,-0.0351
870,350.4128,5.0526,-0.0346
876,350.9129,5.0526,-0.0336
882,351.4139,5.0514,-0.0331
888,351.9146,5.051,-0.0323
894,352.4167,5.05,-0.0316
900,352.9161,5.05,-0.0311
906,353.4189,5.05,-0.0304
912,353.9218,5.05,-0.0299
918,354.4238,5.0502,-0.0288
924,354.924,5.0495,-0.028
930,355.426,5.05,-0.0276
936,355.9307,5.05,-0.0269
942,356.4348,5.05,-0.0258
948,356.9358,5.0493,-0.0254
954,357.4389,5.0483,-0.0244
960,357.9417,5.0486,-0.0237
966,358.4428,5.0486,-0.023
972,358.9447,5.0473,-0.0226
978,359.4458,5.0473,-0.022
984,359.9498,5.0473,-0.0212
990,360.4498,5.0459,-0.0206
996,360.9549,5.0459,-0.02
1002,361.453,5.0446,-0.0195
1008,361.9548,5.0446,-0.0189
1014,362.4596,5.0446,-0.0184
1020,362.9607,5.0446,-0.0178
1026,363.4617,5.0432,-0.0172
1032,363.961,5.0419,-0.0168
1038,364.4629,5.0446,-0.0162
1044,364.9688,5.0436,-0.016
1050,365.4708,5.0433,-0.0155
1056,365.9721,5.0433,-0.0153
1062,366.4767,5.0432,-0.0148
1068,366.98,5.0432,-0.0143
1074,367.4831,5.0419,-0.0139
1080,367.9887,5.0432,-0.0134
1086,368.4921,5.0432,-0.0129
1092,368.998,5.0419,-0.0127
1098,369.5017,5.0419,-0.0122
1104,370.0029,5.0406,-0.0118
1110,370.5097,5.0406,-0.0115
1116,371.0118,5.0419,-0.011
1122,371.515,5.0419,-0.0107
1128,372.0196,5.0406,-0.01
1134,372.5238,5.0402,-0.0097
1140,373.0249,5.0405,-0.0096
1146,373.5278,5.0406,-0.0091
1152,374.0288,5.0392,-0.0091
1158,374.529,5.0392,-0.0086
1164,375.0307,5.0379,-0.0083
1170,375.5339,5.0379,-0.0079
1176,376.0357,5.0392,-0.0078
1182,376.5359,5.0392,-0.0075
1188,377.0358,5.0379,-0.007
1194,377.5358,5.0392,-0.0066
1200,378.0378,5.0379,-0.0063
1206,378.5378,5.0365,-0.0062
1212,379.036,5.0365,-0.0058
1218,379.5407,5.0365,-0.0052
1224,380.0408,5.0362,-0.005
1230,380.5398,5.0365,-0.0047
1236,381.0428,5.0365,-0.0042
1242,381.5447,5.0365,-0.0037
1248,382.0476,5.0379,-0.0034
1254,382.5506,5.0365,-0.0031
1260,383.0521,5.0352,-0.0026
1266,383.5546,5.0352,-0.0024
1272,384.0568,5.0339,-0.002
1278,384.5549,5.0339,-0.0013
1284,385.0588,5.0325,-0.001
1290,385.5608,5.0339,-0.001
1296,386.0617,5.0332,-0.0006
1302,386.5658,5.0335,-0.0004
1308,387.0668,5.0325,0.0
1314,387.5648,5.0325,0.0001
1320,388.0679,5.0312,0.0004
1326,388.568,5.0325,0.0005
1332,389.0708,5.0312,0.001
1338,389.5708,5.0312,0.0011
1344,390.0725,5.0312,0.0012
1350,390.5748,5.0311,0.0009
1356,391.0748,5.0298,0.0015
1362,391.5777,5.0308,0.0015
1368,392.0787,5.0299,0.0017
1374,392.5781,5.0298,0.0018
1380,393.079,5.0298,0.0019
1386,393.5796,5.0285,0.0021
1392,394.0819,5.0298,0.0023
1398,394.583,5.0285,0.002
1404,395.0869,5.0272,0.0023
1410,395.5896,5.0285,0.0022
1416,396.0898,5.0272,0.0024
1422,396.5899,5.0272,0.0026
1428,397.0949,5.0272,0.0026
1434,397.595,5.0267,0.0023
1440,398.0988,5.0272,0.0024
1446,398.6018,5.0258,0.0028
1452,399.103,5.0258,0.0027
1458,399.6078,5.0258,0.0026
1464,400.1109,5.0255,0.0022
1470,400.6137,5.0258,0.0023
1476,401.1177,5.0271,0.0021
1482,401.619,5.0258,0.0021
1488,402.1209,5.0258,0.0018
1494,402.6266,5.0245,0.0015
1500,403.1299,5.0245,0.0015
1506,403.6358,5.0238,0.0014
1512,404.1396,5.0238,0.0009
1518,404.6399,5.0245,0.0006
1524,405.1449,5.0231,0.0003
1530,405.6481,5.0218,0.0
1536,406.152,5.0228,-0.0003
1542,406.6538,5.0231,-0.0005
1548,407.1578,5.0218,-0.0007
1554,407.6591,5.0215,-0.0012
1560,408.1619,5.0215,-0.0014
1566,408.6628,5.0204,-0.0016
1572,409.1648,5.0204,-0.0021
1578,409.6649,5.0201,-0.0023
1584,410.1698,5.0198,-0.0029
1590,410.6699,5.0188,-0.0029
1596,411.1718,5.0191,-0.0032
1602,411.6749,5.0191,-0.0037
1608,412.1758,5.0191,-0.0039
1614,412.6769,5.0178,-0.004
1620,413.1798,5.0191,-0.0045
1626,413.6828,5.0178,-0.0046
1632,414.1846,5.0167,-0.0049
1638,414.6887,5.0167,-0.0046
1644,415.1908,5.0167,-0.005
1650,415.6948,5.0158,-0.0052
1656,416.1968,5.0151,-0.0054
1662,416.6998,5.0151,-0.0056
1668,417.2019,5.0151,-0.0062
1674,417.7095,5.0151,-0.0061
1680,418.208,5.0154,-0.0063
1686,418.7118,5.0141,-0.0068
1692,419.2159,5.0134,-0.0066
1698,419.7179,5.0121,-0.0069
1704,420.2188,5.0121,-0.0076
1710,420.7236,5.0121,-0.0078
1716,421.2239,5.0134,-0.008
1722,421.7259,5.0121,-0.008
1728,422.2231,5.0121,-0.0085
1734,422.724,5.0107,-0.0089
1740,423.2259,5.0107,-0.0091
1746,423.7259,5.0094,-0.0092
1752,424.2298,5.0081,-0.0096
1758,424.7277,5.0087,-0.0099
1764,425.2288,5.0087,-0.01
1770,425.7278,5.0087,-0.0103
1776,426.2249,5.0077,-0.0107
1782,426.7228,5.0077,-0.0109
1788,427.2248,5.0074,-0.0112
1794,427.7228,5.006,-0.011
1800,428.2217,5.0061,-0.0114
1806,428.7187,5.005,-0.0115
1812,429.216,5.004,-0.0119
1818,429.7159,5.004,-0.012
1824,430.2158,5.004,-0.0122
1830,430.7128,5.0049,-0.0121
1836,431.2073,5.0152,-0.0116
1842,431.7088,5.0143,-0.0111
1848,432.2067,5.0126,-0.0108
1854,432.7047,5.0099,-0.0109
1860,433.2008,5.0086,-0.0111
1866,433.7026,5.0059,-0.0111
1872,434.2028,5.005,-0.0117
1878,434.6979,5.0036,-0.0116
1884,435.1997,5.0022,-0.0122
1890,435.6999,5.0019,-0.0126
1896,436.1969,5.0005,-0.0128
1902,436.6998,4.9992,-0.0131
1908,437.1978,4.9992,-0.0135
1914,437.6961,4.9975,-0.014
1920,438.195,4.9952,-0.0145
1926,438.6967,4.9938,-0.015
1932,439.1938,4.9938,-0.0151
1938,439.6947,4.9925,-0.0155
1944,440.1948,4.9925,-0.0157
1950,440.6918,4.9911,-0.0161
1956,441.1901,4.9898,-0.0164
1962,441.6907,4.9895,-0.0167
1968,442.1879,4.9885,-0.0169
1974,442.6878,4.9885,-0.017
1980,443.1869,4.9878,-0.0174
1986,443.6878,4.9865,-0.0177
1992,444.1868,4.9845,-0.0177
1998,444.6878,4.9844,-0.018
2004,445.1876,4.9834,-0.0185
2010,445.685,4.9834,-0.0185
2016,446.1848,4.9831,-0.0189
2022,446.6838,4.9814,-0.019
2028,447.1838,4.9808,-0.0192
2034,447.6818,4.9791,-0.0192
2040,448.18,4.9785,-0.0198
2046,448.6818,4.9781,-0.02
2052,449.1799,4.9771,-0.0203
2058,449.6788,4.9767,-0.0203
2064,450.1777,4.9764,-0.0205
2070,450.6761,4.9737,-0.0207
2076,451.1749,4.9737,-0.0211
2082,451.6728,4.9724,-0.0212
2088,452.1718,4.971,-0.0215
2094,452.6668,4.9751,-0.0218
2100,453.1667,4.9742,-0.0216
2106,453.6658,4.9715,-0.0219
2112,454.1628,4.9721,-0.0224
2118,454.6627,4.9701,-0.0229
2124,455.1579,4.9662,-0.0233
2130,455.6541,4.9645,-0.0238
2136,456.1548,4.9634,-0.0242
2142,456.6538,4.9622,-0.0248
2148,457.1538,4.9621,-0.0252
2154,457.653,4.9594,-0.0255
2160,458.1517,4.9588,-0.0258
2166,458.6517,4.9567,-0.026
2172,459.1538,4.9561,-0.0265
2178,459.6538,4.954,-0.0265
2184,460.1546,4.9527,-0.0265
2190,460.6539,4.9501,-0.0269
2196,461.1532,4.95,-0.0273
2202,461.6568,4.9487,-0.0274
2208,462.1543,4.9487,-0.0279
2214,462.6578,4.946,-0.0279
2220,463.1597,4.946,-0.0286
2226,463.6589,4.9423,-0.0288
2232,464.1578,4.941,-0.0292
2238,464.6589,4.9397,-0.0294
2244,465.1588,4.9367,-0.0296
2250,465.6608,4.9366,-0.0297
2256,466.1607,4.9346,-0.0302
2262,466.6599,4.9329,-0.0303
2268,467.1588,4.9316,-0.0305
2274,467.6618,4.9299,-0.0308
2280,468.1619,4.9292,-0.0311
2286,468.6639,4.9269,-0.0312
2292,469.1628,4.9245,-0.0315
2298,469.6638,4.9245,-0.0322
2304,470.1599,4.9206,-0.0323
2310,470.6628,4.9205,-0.0328
2316,471.1619,4.9201,-0.0334
2322,471.6607,4.9174,-0.0337
2328,472.1583,4.9144,-0.034
2334,472.6589,4.9121,-0.0342
2340,473.1588,4.9111,-0.0345
2346,473.6597,4.9107,-0.0349
2352,474.1567,4.9084,-0.0353
2358,474.6559,4.9066,-0.0355
2364,475.1549,4.9053,-0.0361
2370,475.651,4.903,-0.0364
2376,476.1489,4.9013,-0.0368
2382,476.6448,4.8984,-0.0372
2388,477.1438,4.8972,-0.0378
2394,477.64,4.8967,-0.0382
2400,478.1388,4.8931,-0.0385
2406,478.6311,4.8927,-0.0388
2412,479.1298,4.8913,-0.0391
2418,479.6269,4.8887,-0.0395
2424,480.1219,4.8877,-0.0398
2430,480.618,4.8846,-0.04
2436,481.1148,4.8833,-0.0401
2442,481.6146,4.8819,-0.0406
2448,482.1089,4.8779,-0.041
2454,482.6079,4.8766,-0.0415
2460,483.1039,4.8752,-0.0418
2466,483.5998,4.8724,-0.042
2472,484.0987,4.8711,-0.0422
2478,484.5938,4.8697,-0.0428
2484,485.092,4.8671,-0.0431
2490,485.5878,4.8657,-0.0434
2496,486.0879,4.8568,-0.0443
2502,486.5847,4.8514,-0.0453
2508,487.0856,4.8514,-0.046
2514,487.583,4.8521,-0.0463
2520,488.0819,4.8492,-0.0468
2526,488.5799,4.8474,-0.0471
2532,489.0779,4.8474,-0.0474
2538,489.5778,4.8437,-0.0475
2544,490.0749,4.842,-0.0478
2550,490.574,4.8407,-0.048
2556,491.0737,4.8384,-0.0482
2562,491.5708,4.8354,-0.0484
2568,492.0708,4.8353,-0.0485
2574,492.5698,4.8326,-0.0486
2580,493.067,4.83,-0.0488
2586,493.5669,4.8273,-0.0493
2592,494.0651,4.8239,-0.0495
2598,494.5676,4.8219,-0.0498
2604,495.0627,4.8206,-0.0501
2610,495.5608,4.8191,-0.0504
2616,496.0617,4.8164,-0.0508
2622,496.56,4.8137,-0.0511
2628,497.0582,4.8109,-0.0516
2634,497.5597,4.8069,-0.0517
2640,498.0598,4.8042,-0.0522
2646,498.5578,4.8014,-0.0525
2652,499.056,4.798,-0.0532
2658,499.5578,4.7933,-0.0535
2664,500.0578,4.7864,-0.0547
2670,500.5598,4.7818,-0.0558
2676,501.0578,4.7791,-0.0565
2682,501.5591,4.7778,-0.0573
2688,502.0589,4.7764,-0.0576
2694,502.5607,4.7737,-0.0583
2700,503.059,4.7697,-0.0589
2706,503.5599,4.7668,-0.0596
2712,504.0609,4.7641,-0.0597
2718,504.5629,4.7611,-0.0601
2724,505.0638,4.7575,-0.0608
2730,505.5638,4.7547,-0.0609
2736,506.0638,4.752,-0.0614
2742,506.5658,4.7493,-0.0617
2748,507.067,4.7435,-0.062
2754,507.5697,4.7409,-0.0626
2760,508.0681,4.7377,-0.0632
2766,508.5679,4.7332,-0.0635
2772,509.0708,4.7294,-0.0639
2778,509.57,4.7242,-0.0645
2784,510.069,4.7208,-0.0653
2790,510.5718,4.7175,-0.0655
2796,511.0727,4.7137,-0.0661
2802,511.5709,4.7087,-0.0668
2808,512.0718,4.7045,-0.0674
2814,512.5709,4.6988,-0.0681
2820,513.0708,4.6957,-0.0686
2826,513.569,4.6914,-0.0692
2832,514.0719,4.6873,-0.07
2838,514.5709,4.6809,-0.0704
2844,515.0709,4.6764,-0.071
2850,515.5678,4.6708,-0.0717
2856,516.0678,4.6674,-0.0725
2862,516.564,4.6644,-0.0729
2868,517.0657,4.658,-0.0738
2874,517.5638,4.652,-0.0746
2880,518.0611,4.6481,-0.0754
2886,518.5608,4.644,-0.0756
2892,519.0598,4.6388,-0.0764
2898,519.5588,4.633,-0.077
2904,520.0578,4.6274,-0.0778
2910,520.5559,4.6216,-0.0787
2916,521.0568,4.6171,-0.0794
2922,521.5558,4.612,-0.0799
2928,522.0538,4.6075,-0.0807
2934,522.5528,4.6033,-0.0807
2940,523.0508,4.5971,-0.0817
2946,523.5489,4.592,-0.0822
2952,524.0478,4.5863,-0.0828
2958,524.546,4.581,-0.0833
2964,525.0478,4.5768,-0.0837
2970,525.5438,4.5706,-0.0843
2976,526.0438,4.5648,-0.0848
2982,526.5419,4.5601,-0.0851
2988,527.0425,4.5553,-0.0858
2994,527.5408,4.5498,-0.0861
3000,528.0407,4.5429,-0.0866
3006,528.5398,4.5381,-0.0867
3012,529.038,4.5329,-0.0867
3018,529.5379,4.5274,-0.087
3024,530.0398,4.5197,-0.0877
3030,530.5389,4.5142,-0.0877
3036,531.0407,4.509,-0.0881
3042,531.539,4.5025,-0.0885
3048,532.0399,4.496,-0.0887
3054,532.5399,4.4912,-0.0891
3060,533.0409,4.4837,-0.0891
3066,533.5456,4.4804,-0.0892
3072,534.044,4.4744,-0.0893
3078,534.5477,4.4668,-0.0894
3084,535.0479,4.4615,-0.0896
3090,535.5458,4.4545,-0.0899
3096,536.0488,4.4496,-0.0898
3102,536.5489,4.4435,-0.0904
3108,537.0498,4.4364,-0.0907
3114,537.5489,4.4308,-0.0909
3120,538.0498,4.4264,-0.091
3126,538.5488,4.4178,-0.0914
3132,539.047,4.4108,-0.0916
3138,539.5469,4.4031,-0.092
3144,540.0458,4.3978,-0.0922
3150,540.5457,4.3922,-0.0926
3156,541.043,4.3858,-0.0929
3162,541.539,4.3784,-0.0934
3168,542.0396,4.3715,-0.094
3174,542.5349,4.3649,-0.0944
3180,543.0338,4.3581,-0.0945
3186,543.5309,4.3524,-0.0949
3192,544.0269,4.3446,-0.095
3198,544.5269,4.3386,-0.0951
3204,545.0239,4.3323,-0.0954
3210,545.523,4.3236,-0.0955
3216,546.0227,4.3169,-0.0958
3222,546.5207,4.3116,-0.0957
3228,547.0159,4.304,-0.0961
3234,547.5177,4.2968,-0.0963
3240,548.0129,4.289,-0.0962
3246,548.5139,4.2829,-0.0965
3252,549.0128,4.2756,-0.0965
3258,549.5129,4.2686,-0.0965
3264,550.0128,4.2606,-0.0965
3270,550.5121,4.2542,-0.0965
3276,551.0137,4.2476,-0.0967
3282,551.513,4.2395,-0.0967
3288,552.0178,4.2325,-0.0969
3294,552.5186,4.2237,-0.0969
3300,553.0179,4.2166,-0.0971
3306,553.517,4.2094,-0.0974
3312,554.0189,4.2032,-0.0974
3318,554.5201,4.1962,-0.0974
3324,555.0218,4.1874,-0.0976
3330,555.522,4.1801,-0.0979
3336,556.0238,4.1728,-0.0983
3342,556.5239,4.1654,-0.0987
3348,557.0249,4.1566,-0.0987
3354,557.5269,4.1495,-0.0991
3360,558.0287,4.1424,-0.0997
3366,558.5289,4.1347,-0.1002
3372,559.0289,4.1261,-0.1005
3378,559.5309,4.1189,-0.1008
3384,560.0327,4.1101,-0.1015
3390,560.5328,4.1007,-0.1022
3396,561.032,4.0923,-0.1028
3402,561.5349,4.0856,-0.1036
3408,562.0348,4.0758,-0.104
3414,562.5349,4.0676,-0.1048
3420,563.0349,4.0589,-0.1057
3426,563.5339,4.0505,-0.1062
3432,564.0357,4.0411,-0.1071
3438,564.5347,4.0325,-0.1079
3444,565.0358,4.0238,-0.1087
3450,565.5366,4.0161,-0.1096
3456,566.0339,4.0074,-0.1104
3462,566.533,3.9986,-0.1112
3468,567.0328,3.9897,-0.1122
3474,567.5318,3.98,-0.1129
3480,568.0317,3.9698,-0.1137
3486,568.5289,3.961,-0.1147
3492,569.0289,3.9524,-0.1158
3498,569.5239,3.942,-0.1168
3504,570.0228,3.932,-0.1178
3510,570.5238,3.9227,-0.1185
3516,571.022,3.9138,-0.1195
3522,571.5227,3.9032,-0.1206
3528,572.0191,3.8915,-0.1216
3534,572.5198,3.882,-0.1226
3540,573.0178,3.8712,-0.1234
3546,573.5169,3.8625,-0.1245
3552,574.0159,3.8524,-0.1256
3558,574.5129,3.8406,-0.1265
3564,575.0147,3.8304,-0.1278
3570,575.5138,3.8187,-0.1288
3576,576.0108,3.807,-0.1299
3582,576.5108,3.7956,-0.1308
3588,577.0079,3.7838,-0.1322
3594,577.5069,3.7733,-0.1332
3600,578.0077,3.7628,-0.1346
3606,578.5049,3.7505,-0.1358
3612,579.0029,3.7389,-0.1368
3618,579.5038,3.7263,-0.1379
3624,580.0018,3.7165,-0.1392
3630,580.499,3.7024,-0.1404
3636,580.9989,3.6899,-0.1418
3642,581.4998,3.6781,-0.143
3648,582.0009,3.6659,-0.1445
3654,582.4988,3.654,-0.1456
3660,582.9986,3.6392,-0.1467
3666,583.4978,3.6282,-0.1478
3672,583.9959,3.615,-0.1491
3678,584.4959,3.602,-0.1502
3684,584.9968,3.5904,-0.1514
3690,585.4959,3.578,-0.1525
3696,585.9977,3.5632,-0.1534
3702,586.4959,3.5497,-0.1549
3708,586.9978,3.537,-0.1557
3714,587.4989,3.5231,-0.1565
3720,587.9982,3.5095,-0.1579
3726,588.5018,3.4959,-0.1587
3732,589.0028,3.4805,-0.1597
3738,589.5029,3.4668,-0.1607
3744,590.0049,3.4533,-0.1617
3750,590.5059,3.4391,-0.1625
3756,591.0097,3.425,-0.1637
3762,591.5098,3.4116,-0.1644
3768,592.0128,3.3954,-0.1653
3774,592.5139,3.3815,-0.166
3780,593.0159,3.3686,-0.167
3786,593.5178,3.3537,-0.1677
3792,594.0188,3.3374,-0.1686
3798,594.5209,3.3231,-0.1696
3804,595.021,3.3078,-0.1706
3810,595.5198,3.2943,-0.1714
3816,596.0218,3.2778,-0.1726
3822,596.5209,3.2622,-0.1734
3828,597.0209,3.2488,-0.1744
3834,597.5183,3.2332,-0.1749
3840,598.0188,3.2174,-0.1759
3846,598.5188,3.202,-0.1769
3852,599.0198,3.1866,-0.1774
3858,599.5168,3.1695,-0.1783
3864,600.0159,3.1548,-0.1791
3870,600.5158,3.1398,-0.1797
3876,601.0179,3.1238,-0.1801
3882,601.5178,3.1096,-0.1809
3888,602.0179,3.0927,-0.1817
3894,602.5169,3.0772,-0.1824
3900,603.0161,3.0621,-0.1833
3906,603.5169,3.046,-0.1841
3912,604.0159,3.0301,-0.185
3918,604.5168,3.0148,-0.1862
3924,605.014,2.9982,-0.1868
3930,605.5166,2.9826,-0.1879
3936,606.0123,2.9664,-0.1887
3942,606.5147,2.9487,-0.1898
3948,607.0129,2.9322,-0.191
3954,607.5128,2.9165,-0.1919
3960,608.0138,2.9008,-0.193
3966,608.5101,2.884,-0.1945
3972,609.0108,2.867,-0.1957
3978,609.5119,2.8496,-0.1972
3984,610.0089,2.833,-0.1986
3990,610.5069,2.8156,-0.1999
3996,611.0039,2.8006,-0.201
4002,611.5058,2.7824,-0.2029
4008,612.0038,2.7649,-0.2044
4014,612.5038,2.7489,-0.2059
4020,613.0028,2.7318,-0.2074
4026,613.502,2.7132,-0.209
4032,614.0048,2.6962,-0.2107
4038,614.5028,2.678,-0.2124
4044,615.0037,2.6591,-0.2143
4050,615.5049,2.6422,-0.2162
4056,616.0047,2.6235,-0.2183
4062,616.5039,2.6046,-0.2203
4068,617.0088,2.5877,-0.2222
4074,617.5077,2.567,-0.2246
4080,618.0069,2.5493,-0.2265
4086,618.5088,2.5306,-0.2287
4092,619.008,2.5118,-0.2312
4098,619.5098,2.4914,-0.2336
4104,620.0087,2.4723,-0.2362
4110,620.5058,2.4525,-0.2384
4116,621.0059,2.4338,-0.2406
4122,621.5076,2.4118,-0.2429
4128,622.0066,2.3915,-0.2447
4134,622.504,2.3715,-0.2466
4140,623.0028,2.3502,-0.2489
4146,623.5001,2.3297,-0.2511
4152,623.9989,2.3099,-0.2528
4158,624.4987,2.2896,-0.2552
4164,624.9957,2.2699,-0.2572
4170,625.4929,2.2472,-0.259
4176,625.9909,2.2247,-0.2607
4182,626.4888,2.2036,-0.2624
4188,626.9869,2.1822,-0.264
4194,627.4857,2.1609,-0.2654
4200,627.9829,2.1399,-0.2663
4206,628.4828,2.1175,-0.2672
4212,628.9799,2.0952,-0.2679
4218,629.4799,2.0737,-0.2686
4224,629.9819,2.0533,-0.2686
4230,630.4818,2.0313,-0.2686
4236,630.981,2.0107,-0.2681
4242,631.481,1.9879,-0.2674
4248,631.9837,1.9714,-0.2662
4254,632.483,1.9528,-0.2646
4260,632.9858,1.9215,-0.2636
4266,633.4859,1.8955,-0.2626
4272,633.9888,1.8718,-0.2618
4278,634.4888,1.8504,-0.2602
4284,634.9908,1.8296,-0.2575
4290,635.49,1.8089,-0.2552
4296,635.9927,1.7875,-0.2522
4302,636.4917,1.7698,-0.2485
4308,636.9917,1.7493,-0.2439
4314,637.4898,1.7292,-0.239
4320,637.9889,1.7094,-0.234
4326,638.4898,1.69,-0.2283
4332,638.9879,1.6721,-0.2224
4338,639.4879,1.6543,-0.2163
4344,639.9859,1.6352,-0.2096
4350,640.4847,1.6192,-0.2021
4356,640.9848,1.5998,-0.1953
4362,641.4858,1.583,-0.1872
4368,641.9839,1.5681,-0.1795
4374,642.4837,1.5535,-0.171
4380,642.9848,1.5393,-0.1622
4386,643.4839,1.5275,-0.1533
4392,643.9859,1.5138,-0.1438
4398,644.4849,1.502,-0.1349
4404,644.9868,1.491,-0.126
4410,645.4878,1.4801,-0.117
4416,645.986,1.4708,-0.1079
4422,646.4867,1.4623,-0.0992
4428,646.9867,1.4521,-0.0908
4434,647.4868,1.4448,-0.0827
4440,647.9858,1.4373,-0.0751
4446,648.4859,1.4309,-0.0677
4452,648.9877,1.4253,-0.0605
4458,649.4887,1.4172,-0.0536
4464,649.9879,1.4123,-0.0477
4470,650.4899,1.4052,-0.042
4476,650.9938,1.3935,-0.0374
4482,651.4978,1.3891,-0.0335
4488,651.9989,1.3865,-0.0298
4494,652.4998,1.3842,-0.0264
4500,653.0008,1.3826,-0.0231
4506,653.499,1.3795,-0.0206
4512,653.9999,1.3772,-0.0185
4518,654.5,1.3758,-0.0165
4524,655.0017,1.3716,-0.0148
4530,655.4998,1.3702,-0.0135
4536,655.9989,1.3681,-0.0125
4542,656.4978,1.3682,-0.012
4548,656.9977,1.3647,-0.0116
4554,657.4949,1.3634,-0.0112
4560,657.9939,1.3611,-0.0108
4566,658.4927,1.3594,-0.0109
4572,658.9897,1.3556,-0.0106
4578,659.4888,1.3542,-0.0106
4584,659.9869,1.3529,-0.0107
4590,660.4839,1.3493,-0.0109
4596,660.9811,1.3475,-0.0107
4602,661.481,1.3469,-0.0108
4608,661.978,1.3455,-0.0109
4614,662.4749,1.3422,-0.0109
4620,662.9758,1.3405,-0.0111
4626,663.4729,1.3391,-0.0112
4632,663.9699,1.3365,-0.0113
4638,664.467,1.3351,-0.0118
4644,664.9659,1.3334,-0.012
4650,665.4648,1.3321,-0.0118
4656,665.9627,1.3294,-0.0117
4662,666.4609,1.3268,-0.0121
4668,666.9589,1.3254,-0.0119
4674,667.4598,1.3225,-0.012
4680,667.9609,1.3198,-0.0123
4686,668.4599,1.3185,-0.0121
4692,668.9626,1.3162,-0.012
4698,669.4628,1.3148,-0.0125
4704,669.9628,1.3131,-0.0124
4710,670.4638,1.3118,-0.0121
4716,670.9656,1.3091,-0.0121
4722,671.4659,1.3077,-0.012
4728,671.9661,1.3064,-0.0119
4734,672.4708,1.3035,-0.0123
4740,672.971,1.3008,-0.012
4746,673.4718,1.3008,-0.0121
4752,673.9729,1.2968,-0.0121
4758,674.4728,1.2968,-0.0123
4764,674.9731,1.2954,-0.0126
4770,675.4731,1.2931,-0.0126
4776,675.9768,1.2918,-0.0125
4782,676.4796,1.2904,-0.0128
4788,676.9808,1.2877,-0.0128
4794,677.4819,1.2864,-0.0129
4800,677.9809,1.285,-0.0136
4806,678.4789,1.2824,-0.0136
4812,678.9817,1.281,-0.0142
4818,679.4808,1.2788,-0.0148
4824,679.9781,1.277,-0.0152
4830,680.4771,1.2757,-0.0157
4836,680.9778,1.2743,-0.016
4842,681.4779,1.272,-0.0161
4848,681.9768,1.27,-0.0164
4854,682.4739,1.268,-0.0169
4860,682.9709,1.2659,-0.0174
4866,683.4718,1.2646,-0.0176
4872,683.9687,1.2629,-0.0178
4878,684.4679,1.2602,-0.018
4884,684.9669,1.2592,-0.0186
4890,685.4659,1.2579,-0.0187
4896,685.9669,1.2565,-0.019
4902,686.4676,1.251,-0.0198
4908,686.9649,1.2468,-0.0204
4914,687.4638,1.2455,-0.0208
4920,687.963,1.2455,-0.0216
4926,688.4639,1.2438,-0.022
4932,688.9638,1.2428,-0.0219
4938,689.4638,1.2421,-0.0218
4944,689.9658,1.2414,-0.0221
4950,690.4667,1.2377,-0.0226
4956,690.9697,1.2357,-0.0228
4962,691.4669,1.2333,-0.023
4968,691.9689,1.2329,-0.023
4974,692.4706,1.2306,-0.0238
4980,692.9709,1.2293,-0.0244
4986,693.4718,1.2286,-0.0251
4992,693.9738,1.2279,-0.0257
4998,694.4758,1.2259,-0.0262
5004,694.9748,1.2226,-0.0269
5010,695.4758,1.2212,-0.0279
5016,695.9749,1.2199,-0.0286
5022,696.4738,1.2185,-0.0293
5028,696.9739,1.2172,-0.0302
5034,697.4718,1.2159,-0.0311
5040,697.969,1.2132,-0.0317
5046,698.4699,1.2108,-0.0326
5052,698.9689,1.2092,-0.0334
5058,699.4679,1.2075,-0.0341
5064,699.9689,1.2068,-0.0347
5070,700.4669,1.2044,-0.0354
5076,700.9657,1.2031,-0.0367
5082,701.4648,1.2018,-0.0374
5088,701.9619,1.2004,-0.0382
5094,702.4627,1.1975,-0.0391
5100,702.9599,1.1961,-0.0397
5106,703.4588,1.1947,-0.0404
5112,703.9568,1.1934,-0.0415
5118,704.4587,1.1934,-0.0422
5124,704.9577,1.1907,-0.0432
5130,705.455,1.1887,-0.0441
5136,705.957,1.188,-0.0448
5142,706.458,1.1853,-0.0461
5148,706.9599,1.184,-0.0465
5154,707.4579,1.182,-0.0477
5160,707.9609,1.1803,-0.0486
5166,708.4619,1.179,-0.0494
5172,708.9629,1.1776,-0.0505
5178,709.4649,1.1763,-0.0517
5184,709.965,1.1749,-0.0526
5190,710.466,1.1736,-0.0537
5196,710.9659,1.1722,-0.0549
5202,711.4669,1.171,-0.0562
5208,711.9696,1.1696,-0.0577
5214,712.4659,1.1682,-0.0591
5220,712.9668,1.1669,-0.0603
5226,713.4649,1.1655,-0.0616
5232,713.9658,1.1655,-0.0627
5238,714.4649,1.1629,-0.0641
5244,714.9647,1.1615,-0.0655
5250,715.4639,1.1602,-0.0668
5256,715.9638,1.1589,-0.0676
5262,716.4619,1.1602,-0.0686
5268,716.9618,1.1569,-0.0699
5274,717.4609,1.1562,-0.071
5280,717.9635,1.1541,-0.0723
5286,718.4599,1.1528,-0.0735
5292,718.9589,1.1515,-0.0746
5298,719.4598,1.1515,-0.0759
5304,719.9589,1.1501,-0.0773
5310,720.4531,1.1488,-0.0785
5316,720.9529,1.1474,-0.08
5322,721.4528,1.1468,-0.0815
5328,721.948,1.1451,-0.0827
5334,722.4458,1.1447,-0.0839
5340,722.9418,1.1427,-0.0853
5346,723.4408,1.1414,-0.086
5352,723.938,1.14,-0.0873
5358,724.4368,1.1387,-0.0882
5364,724.9378,1.1387,-0.089
5370,725.4358,1.1374,-0.09
5376,725.9367,1.136,-0.0909
5382,726.4396,1.1347,-0.0914
5388,726.9392,1.1347,-0.0923
5394,727.4425,1.1333,-0.0932
5400,727.9457,1.1327,-0.0943
5406,728.4468,1.1307,-0.095
5412,728.9508,1.1317,-0.0961
5418,729.4529,1.1293,-0.097
5424,729.9559,1.1293,-0.0982
5430,730.4609,1.128,-0.0994
5436,730.9638,1.1266,-0.1008
5442,731.4638,1.1254,-0.1018
5448,731.9649,1.1253,-0.1034
5454,732.4659,1.1246,-0.1046
5460,732.9669,1.1246,-0.1058
5466,733.4669,1.1219,-0.1072
5472,733.9669,1.1199,-0.109
5478,734.4669,1.1199,-0.1104
5484,734.9659,1.1179,-0.1123
5490,735.4628,1.117,-0.1136
5496,735.9619,1.1169,-0.1147
5502,736.4591,1.1163,-0.1164
5508,736.9628,1.1156,-0.1174
5514,737.4599,1.1143,-0.1187
5520,737.9589,1.1142,-0.1199
5526,738.4589,1.1129,-0.1211
5532,738.9579,1.1115,-0.1225
5538,739.4588,1.1106,-0.1239
5544,739.9578,1.1105,-0.1252
5550,740.455,1.1102,-0.1264
5556,740.9558,1.1089,-0.1274
5562,741.4548,1.1082,-0.1286
5568,741.9538,1.1075,-0.1299
5574,742.4529,1.1062,-0.1308
5580,742.9558,1.1049,-0.1324
5586,743.4557,1.1048,-0.1337
5592,743.9539,1.1032,-0.1349
5598,744.4509,1.1032,-0.1364
5604,744.9519,1.1018,-0.1374
5610,745.45,1.1018,-0.1387
5616,745.9491,1.1008,-0.1402
5622,746.447,1.1001,-0.1413
5628,746.9479,1.0991,-0.1418
5634,747.4488,1.0981,-0.1433
5640,747.9498,1.0971,-0.1445
5646,748.4489,1.0964,-0.1453
5652,748.9505,1.0971,-0.1465
5658,749.4498,1.0944,-0.1474
5664,749.9518,1.0944,-0.1488
5670,750.4537,1.0931,-0.1501
5676,750.9519,1.0921,-0.1508
5682,751.4519,1.0921,-0.1523
5688,751.9547,1.0918,-0.1533
5694,752.4529,1.0904,-0.1546
5700,752.9519,1.0891,-0.1556
5706,753.4538,1.0891,-0.1567
5712,753.9529,1.0878,-0.158
5718,754.4547,1.0877,-0.1594
5724,754.9529,1.0854,-0.1606
5730,755.4528,1.0861,-0.1616
5736,755.9529,1.0847,-0.1629
5742,756.4567,1.0834,-0.1642
5748,756.9568,1.082,-0.1651
5754,757.4579,1.0834,-0.1663
5760,757.9608,1.082,-0.167
5766,758.4608,1.082,-0.1685
5772,758.9618,1.0807,-0.1697
5778,759.462,1.0807,-0.1712
5784,759.9619,1.08,-0.1726
5790,760.4609,1.08,-0.1742
5796,760.9609,1.0777,-0.1759
5802,761.4608,1.0777,-0.1775
5808,761.959,1.0773,-0.1784
5814,762.459,1.0773,-0.1797
5820,762.9589,1.077,-0.1809
5826,763.4598,1.0743,-0.1815
5832,763.9588,1.0743,-0.1832
5838,764.4588,1.0743,-0.184
5844,764.9589,1.0743,-0.1853
5850,765.4625,1.073,-0.1866
5856,765.9608,1.0716,-0.1881
5862,766.4591,1.0723,-0.1895
5868,766.959,1.072,-0.1912
5874,767.4609,1.072,-0.1923
5880,767.9619,1.0716,-0.1937
5886,768.4619,1.0703,-0.195
5892,768.9609,1.069,-0.1968
5898,769.4628,1.069,-0.1976
5904,769.9619,1.0676,-0.1997
5910,770.4636,1.0676,-0.2005
5916,770.9638,1.0653,-0.2018
5922,771.4638,1.064,-0.2029
5928,771.9638,1.0653,-0.2041
5934,772.462,1.0639,-0.2053
5940,772.9659,1.0639,-0.2069
5946,773.4659,1.0626,-0.2079
5952,773.9659,1.0626,-0.2092
5958,774.4677,1.0612,-0.2104
5964,774.9706,1.0612,-0.2114
5970,775.4689,1.0609,-0.213
5976,775.971,1.0599,-0.2143
5982,776.4698,1.0599,-0.2159
5988,776.969,1.0592,-0.2178
5994,777.468,1.0596,-0.2192
6000,777.9689,1.0596,-0.2206
6006,778.4678,1.0579,-0.2221
6012,778.9671,1.0572,-0.2234
6018,779.4659,1.0559,-0.225
6024,779.9678,1.0545,-0.2262
6030,780.4649,1.0545,-0.2277
6036,780.9649,1.0552,-0.2291
6042,781.4608,1.0558,-0.2308
6048,781.961,1.0545,-0.2322
6054,782.4601,1.0535,-0.2335
6060,782.9589,1.0535,-0.2352
6066,783.4599,1.0535,-0.2363
6072,783.9588,1.0519,-0.2378
6078,784.458,1.0519,-0.2391
6084,784.9587,1.0519,-0.2399
6090,785.4608,1.0505,-0.241
6096,785.9618,1.0505,-0.2423
6102,786.464,1.0505,-0.2433
6108,786.965,1.0492,-0.2445
6114,787.467,1.0478,-0.2452
6120,787.973,1.0478,-0.2465
6126,788.4758,1.0482,-0.2475
6132,788.9768,1.0468,-0.2486
6138,789.479,1.0458,-0.25
6144,789.9818,1.0458,-0.2512
6150,790.4848,1.0458,-0.2527
6156,790.986,1.0455,-0.2546
6162,791.4878,1.0455,-0.2562
6168,791.988,1.0441,-0.2577
6174,792.4896,1.0441,-0.2594
6180,792.988,1.0418,-0.261
6186,793.4889,1.0431,-0.2628
6192,793.9898,1.0431,-0.2651
6198,794.4888,1.0404,-0.2665
6204,794.9869,1.0404,-0.2678
6210,795.4849,1.0404,-0.2696
6216,795.984,1.0404,-0.2711
6222,796.481,1.0404,-0.2729
6228,796.9807,1.0391,-0.2745
6234,797.4795,1.0391,-0.2754
6240,797.9768,1.0378,-0.2763
6246,798.476,1.0378,-0.2777
6252,798.9768,1.0371,-0.2786
6258,799.4795,1.0364,-0.2797
6264,799.978,1.0351,-0.2808
6270,800.4797,1.0351,-0.2821
6276,800.9817,1.0342,-0.2842
6282,801.4818,1.0338,-0.2864
6288,801.9821,1.0324,-0.2885
6294,802.4838,1.0314,-0.2907
6300,802.9817,1.0314,-0.2925
6306,803.4819,1.0314,-0.2949
6312,803.98,1.0311,-0.299
6318,804.4819,1.0297,-0.3002
6324,804.9821,1.0297,-0.3016
6330,805.4809,1.0284,-0.3027
6336,805.9791,1.0287,-0.3037
6342,806.4799,1.0284,-0.3047
6348,806.9838,1.0284,-0.3056
6354,807.4848,1.0284,-0.3069
6360,807.9878,1.027,-0.3076
6366,808.4909,1.027,-0.3089
6372,808.9948,1.027,-0.3104
6378,809.4958,1.027,-0.3115
6384,809.9959,1.027,-0.3127
6390,810.4989,1.0251,-0.3143
6396,811.0027,1.0247,-0.3158
6402,811.5049,1.0247,-0.3171
6408,812.0051,1.023,-0.3191
6414,812.5103,1.024,-0.3203
6420,813.0099,1.024,-0.3224
6426,813.508,1.0233,-0.3242
6432,814.0069,1.0233,-0.326
6438,814.503,1.0213,-0.3284
6444,815.0028,1.0213,-0.3307
6450,815.5008,1.0213,-0.3323
6456,815.9989,1.0186,-0.3342
6462,816.4921,1.0197,-0.3359
6468,816.9902,1.0197,-0.3374
6474,817.4928,1.0197,-0.339
6480,817.988,1.0183,-0.3406
6486,818.4857,1.0183,-0.3421
6492,818.9849,1.017,-0.3433
6498,819.4847,1.016,-0.3447
6504,819.9827,1.016,-0.3461
6510,820.4797,1.0173,-0.3472
6516,820.9789,1.0173,-0.3488
6522,821.4778,1.016,-0.3503
6528,821.9777,1.0153,-0.3521
6534,822.4768,1.0153,-0.3537
6540,822.9758,1.0136,-0.3555
6546,823.4749,1.0136,-0.3566
6552,823.9729,1.0136,-0.3581
6558,824.4729,1.0136,-0.3592
6564,824.9729,1.0123,-0.3607
6570,825.4721,1.0116,-0.3618
6576,825.9777,1.0116,-0.3632
6582,826.476,1.0116,-0.3649
6588,826.9779,1.0103,-0.3668
6594,827.4809,1.0089,-0.3683
6600,827.9798,1.0089,-0.3699
6606,828.4829,1.0103,-0.3717
6612,828.9829,1.0092,-0.3736
6618,829.4839,1.0103,-0.3754
6624,829.9848,1.0076,-0.3771
6630,830.486,1.0089,-0.3791
6636,830.9869,1.0079,-0.3806
6642,831.486,1.0079,-0.3828
6648,831.9838,1.0079,-0.3851
6654,832.483,1.0066,-0.3871
6660,832.9801,1.0052,-0.3886
6666,833.4809,1.0052,-0.3907
6672,833.9809,1.0066,-0.3923
6678,834.4798,1.0066,-0.3942
6684,834.9797,1.0052,-0.3957
6690,835.4768,1.0039,-0.3975
6696,835.9789,1.0039,-0.3995
6702,836.4749,1.0039,-0.4011
6708,836.976,1.0039,-0.4029
6714,837.4768,1.0039,-0.4047
6720,837.9728,1.0022,-0.4065
6726,838.4709,1.0022,-0.4079
6732,838.9717,1.0029,-0.4094
6738,839.4738,1.0022,-0.4108
6744,839.9718,1.0022,-0.4131
6750,840.4718,1.0005,-0.414
6756,840.9719,0.9999,-0.4159
6762,841.4729,1.0012,-0.418
6768,841.9749,1.0005,-0.4202
6774,842.4787,0.9992,-0.4235
6780,842.9798,0.9992,-0.4267
6786,843.4808,0.9992,-0.4301
6792,843.9809,0.9989,-0.4336
6798,844.4817,0.9982,-0.4364
6804,844.9818,0.9982,-0.4395
6810,845.4827,0.9982,-0.4421
6816,845.9798,0.9972,-0.4443
6822,846.4798,0.9961,-0.4467
6828,846.9798,0.9962,-0.4488
6834,847.4789,0.9972,-0.4503
6840,847.9777,0.9945,-0.4527
6846,848.476,0.9932,-0.4545
6852,848.9748,0.9958,-0.4565
6858,849.4748,0.9952,-0.4579
6864,849.9722,0.9932,-0.4595
6870,850.4729,0.9945,-0.4609
6876,850.9689,0.9932,-0.4629
6882,851.4679,0.9932,-0.465
6888,851.9659,0.9932,-0.4665
6894,852.4659,0.9918,-0.468
6900,852.9657,0.9918,-0.4693
6906,853.4656,0.9925,-0.471
6912,853.9648,0.9925,-0.4723
6918,854.4638,0.9911,-0.4734
6924,854.9609,0.9911,-0.4749
6930,855.4628,0.9911,-0.476
6936,855.9628,0.9895,-0.4776
6942,856.4637,0.9895,-0.4786
6948,856.9609,0.9895,-0.4799
6954,857.4609,0.9905,-0.4811
6960,857.9627,0.9891,-0.4824
6966,858.4639,0.9891,-0.4843
6972,858.9658,0.9878,-0.4852
6978,859.4648,0.9878,-0.4865
6984,859.9678,0.9878,-0.488
6990,860.4697,0.9891,-0.4891
6996,860.9709,0.9878,-0.4907
7002,861.4718,0.9878,-0.4918
7008,861.9759,0.9868,-0.4933
7014,862.4768,0.9854,-0.4948
7020,862.9798,0.9854,-0.496
7026,863.481,0.9865,-0.4976
7032,863.983,0.9851,-0.4986
7038,864.4878,0.9845,-0.5001
7044,864.9907,0.9838,-0.5018
7050,865.4919,0.9851,-0.5039
7056,865.9931,0.9841,-0.5057
7062,866.4947,0.9841,-0.5077
7068,866.9939,0.9841,-0.5096
7074,867.4957,0.9838,-0.512
7080,867.9957,0.9838,-0.5136
7086,868.4929,0.9814,-0.5153
7092,868.9919,0.9814,-0.5171
7098,869.4927,0.9815,-0.5186
7104,869.9919,0.9814,-0.52
7110,870.489,0.9814,-0.522
7116,870.989,0.9814,-0.5243
7122,871.4869,0.9804,-0.5279
7128,871.985,0.9804,-0.5313
7134,872.4827,0.9801,-0.5347
7140,872.9807,0.9801,-0.5379
7146,873.4788,0.9791,-0.5407
7152,873.9778,0.9791,-0.5402
7158,874.4748,0.9791,-0.5424
7164,874.973,0.9791,-0.5443
7170,875.4728,0.9787,-0.5454
7176,875.9738,0.9774,-0.5467
7182,876.4728,0.9774,-0.5473
7188,876.9738,0.9777,-0.5483
7194,877.4747,0.9764,-0.5471
7200,877.973,0.9764,-0.547
7206,878.4739,0.9764,-0.5473
7212,878.9747,0.9764,-0.548
7218,879.4738,0.9764,-0.5485
7224,879.974,0.9758,-0.5484
7230,880.4759,0.976,-0.5491
7236,880.9769,0.9747,-0.5491
7242,881.4799,0.9754,-0.55
7248,881.981,0.974,-0.5508
7254,882.4808,0.974,-0.5519
7260,882.9809,0.974,-0.5531
7266,883.4808,0.973,-0.5542
7272,883.9799,0.973,-0.5547
7278,884.477,0.973,-0.5552
7284,884.9769,0.973,-0.5563
7290,885.4788,0.9727,-0.557
7296,885.976,0.9714,-0.5572
7302,886.4761,0.9714,-0.5573
7308,886.978,0.97,-0.5578
7314,887.4779,0.97,-0.5582
7320,887.9778,0.971,-0.5589
7326,888.476,0.971,-0.5595
7332,888.9768,0.9697,-0.5606
7338,889.475,0.971,-0.5617
7344,889.9749,0.97,-0.5639
7350,890.4727,0.9697,-0.5662
7356,890.9706,0.9683,-0.5682
7362,891.4689,0.9677,-0.5696
7368,891.9669,0.9677,-0.5706
7374,892.4668,0.9677,-0.571
7380,892.964,0.9663,-0.5716
7386,893.4659,0.9663,-0.5715
7392,893.9677,0.9663,-0.5715
7398,894.4668,0.9663,-0.5713
7404,894.9698,0.9663,-0.5709
7410,895.4718,0.965,-0.5707
7416,895.9767,0.965,-0.5704
7422,896.4809,0.965,-0.5705
7428,896.9819,0.9663,-0.5704
7434,897.4827,0.965,-0.5706
7440,897.9841,0.965,-0.5701
7446,898.4877,0.9633,-0.5704
7452,898.986,0.9633,-0.5708
7458,899.4859,0.9647,-0.571
7464,899.9869,0.9636,-0.5716
7470,900.4849,0.9636,-0.5727
7476,900.9799,0.9633,-0.5694
7482,901.478,0.9633,-0.5653
7488,901.976,0.9633,-0.5637
7494,902.4748,0.9633,-0.5616
7500,902.9718,0.9626,-0.5601
7506,903.4709,0.9626,-0.5595
7512,903.9697,0.9613,-0.5579
7518,904.4718,0.9626,-0.5566
7524,904.9688,0.9613,-0.552
7530,905.4698,0.9628,-0.55
7536,905.9727,0.9614,-0.5483
7542,906.4699,0.9614,-0.5468
7548,906.9709,0.9624,-0.5451
7554,907.4776,0.9611,-0.5441
7560,907.9786,0.9601,-0.543
7566,908.4791,0.9601,-0.5415
7572,908.9817,0.9597,-0.5405
7578,909.4819,0.9611,-0.5392
7584,909.9846,0.9597,-0.5381
7590,910.4821,0.9587,-0.5375
7596,910.9839,0.9587,-0.536
7602,911.4839,0.9587,-0.5342
7608,911.986,0.9587,-0.533
7614,912.485,0.9588,-0.5318
7620,912.9879,0.9575,-0.5305
7626,913.4859,0.9575,-0.5293
7632,913.9859,0.9588,-0.5281
7638,914.486,0.9594,-0.5261
7644,914.9858,0.9572,-0.5242
7650,915.4868,0.9572,-0.5231
7656,915.9859,0.9572,-0.5216
7662,916.4848,0.9558,-0.5196
7668,916.9848,0.9568,-0.5185
7674,917.481,0.9558,-0.5164
7680,917.981,0.9558,-0.5153
7686,918.4789,0.9545,-0.5136
7692,918.9788,0.9558,-0.512
7698,919.4789,0.9558,-0.5102
7704,919.9777,0.9545,-0.5085
7710,920.4759,0.9555,-0.5068
7716,920.9749,0.9555,-0.5059
7722,921.4737,0.9531,-0.5039
7728,921.9739,0.9531,-0.5016
7734,922.4729,0.9545,-0.4999
7740,922.9738,0.9545,-0.4979
7746,923.4719,0.9525,-0.4954
7752,923.9727,0.9518,-0.493
7758,924.4748,0.9528,-0.4909
7764,924.9739,0.9535,-0.4887
7770,925.474,0.9521,-0.4867
7776,925.9769,0.9521,-0.485
7782,926.4778,0.9515,-0.4823
7788,926.979,0.9501,-0.4805
7794,927.4819,0.9511,-0.4778
7800,927.9829,0.9505,-0.4759
7806,928.4859,0.9498,-0.4737
7812,928.987,0.9484,-0.4709
7818,929.4927,0.9498,-0.4687
7824,929.9919,0.9495,-0.4668
7830,930.4929,0.9491,-0.4654
7836,930.9919,0.9468,-0.4639
7842,931.4918,0.9481,-0.4614
7848,931.9926,0.9481,-0.4592
7854,932.4899,0.9481,-0.4573
7860,932.9898,0.9481,-0.455
7866,933.4908,0.9481,-0.4518
7872,933.991,0.9474,-0.4496
7878,934.4909,0.9474,-0.4475
7884,934.9938,0.9474,-0.4449
7890,935.4938,0.9474,-0.4421
7896,935.994,0.9468,-0.4403
7902,936.4959,0.9468,-0.4383
7908,936.9948,0.9454,-0.436
7914,937.4949,0.9461,-0.4338
7920,937.9899,0.9474,-0.4321
7926,938.4897,0.9461,-0.4303
7932,938.982,0.9461,-0.4278
7938,939.4769,0.9461,-0.4246
7944,939.9735,0.9441,-0.4221
7950,940.468,0.9454,-0.4195
7956,940.9668,0.9448,-0.417
7962,941.4628,0.9448,-0.414
7968,941.9582,0.9448,-0.411
7974,942.457,0.9454,-0.4085
7980,942.958,0.9441,-0.405
7986,943.4608,0.944,-0.402
7992,943.9617,0.9441,-0.3976
7998,944.4639,0.9427,-0.3949
8004,944.9668,0.9437,-0.3911
8010,945.4688,0.9425,-0.3879
8016,945.9758,0.9411,-0.3848
8022,946.4799,0.9437,-0.3821
8028,946.9859,0.9427,-0.3789
8034,947.487,0.9421,-0.3755
8040,947.9928,0.9421,-0.3732
8046,948.4958,0.9417,-0.37
8052,948.9979,0.9431,-0.3677
8058,949.4978,0.9404,-0.3657
8064,949.9999,0.9417,-0.363
8070,950.5007,0.9417,-0.3604
8076,951.0001,0.9417,-0.358
8082,951.498,0.9404,-0.3552
8088,951.9999,0.9411,-0.3529
8094,952.4978,0.9411,-0.3503
8100,952.9969,0.9411,-0.3478
8106,953.4957,0.9411,-0.3452
8112,953.9928,0.9384,-0.3436
8118,954.4879,0.9411,-0.3405
8124,954.9842,0.9411,-0.3376
8130,955.4799,0.9411,-0.3345
8136,955.9778,0.9411,-0.3312
8142,956.472,0.9397,-0.3276
8148,956.9728,0.9397,-0.3242
8154,957.471,0.9411,-0.3205
8160,957.9699,0.9397,-0.3164
8166,958.471,0.9397,-0.314
8172,958.9738,0.9397,-0.3103
8178,959.4757,0.9397,-0.3067
8184,959.9759,0.9397,-0.3035
8190,960.4788,0.9397,-0.2997
8196,960.9819,0.9394,-0.2954
8202,961.4848,0.9394,-0.2922
8208,961.9877,0.9385,-0.2886
8214,962.4898,0.9394,-0.2859
8220,962.9935,0.9381,-0.2832
8226,963.4939,0.9374,-0.28
8232,963.9959,0.9387,-0.2774
8238,964.4979,0.9374,-0.2739
8244,964.9978,0.9387,-0.2713
8250,965.499,0.9387,-0.2684
8256,965.9989,0.9367,-0.2652
8262,966.501,0.938,-0.262
8268,967.0019,0.937,-0.2592
8274,967.5049,0.937,-0.256
8280,968.0079,0.9357,-0.2527
8286,968.5081,0.937,-0.2495
8292,969.0108,0.9367,-0.247
8298,969.5089,0.9354,-0.2437
8304,970.01,0.9347,-0.2408
8310,970.5099,0.936,-0.2381
8316,971.0108,0.936,-0.2348
8322,971.5079,0.9347,-0.2329
8328,972.0077,0.9347,-0.23
8334,972.503,0.932,-0.2266
8340,973.0018,0.9347,-0.2234
8343,973.203,0.9347,-0.2228