File: Wood/Calibration_Data/TIFP+UCT/TIFP+UCT_Gasification_hor_parallel_60kW_R3.csv
Time (s),Mass (g),TC back 1 (K),TC back 2 (K),TC back 3 (K)
0,94.71,303.95,302.35,303.25
2,94.52,304.35,302.75,303.85
4,93.89,304.85,303.15,304.35
6,93.66,305.45,303.55,305.05
8,93.58,305.95,303.85,305.65
10,93.46,306.45,304.25,306.15
12,93.35,307.15,304.65,306.85
14,93.20,307.65,304.95,307.45
16,93.01,308.05,305.25,307.95
18,92.80,308.65,305.75,308.65
20,92.57,309.15,306.05,309.15
22,92.34,309.65,306.35,309.65
24,92.12,310.25,306.75,310.35
26,91.89,310.65,307.05,310.85
28,91.67,311.15,307.45,311.45
30,91.47,311.85,307.85,312.15
32,91.26,312.35,308.15,312.65
34,91.07,312.75,308.55,313.15
36,90.85,313.45,308.95,313.85
38,90.65,313.95,309.25,314.45
40,90.46,314.35,309.65,314.95
42,90.23,315.05,310.05,315.55
44,90.07,315.55,310.35,316.05
46,89.85,315.95,310.65,316.65
48,89.68,316.65,311.15,317.25
50,89.52,317.15,311.45,317.85
52,89.29,317.55,311.75,318.25
54,89.11,318.25,312.15,318.95
56,88.94,318.75,312.45,319.45
58,88.82,319.15,312.85,319.95
60,88.59,319.75,313.25,320.65
62,88.41,320.25,313.65,321.15
64,88.24,320.65,313.95,321.65
66,88.08,321.35,314.35,322.35
68,87.93,321.75,314.65,322.85
70,87.76,322.25,314.95,323.35
72,87.59,322.85,315.35,324.05
74,87.43,323.35,315.75,324.55
76,87.26,323.75,316.05,325.05
78,87.11,324.35,316.45,325.75
80,86.95,324.85,316.75,326.25
82,86.79,325.35,317.05,326.75
84,86.64,325.95,317.55,327.55
86,86.48,326.35,317.85,328.05
88,86.32,326.85,318.15,328.55
90,86.17,327.45,318.55,329.25
92,86.02,327.95,318.85,329.85
94,85.85,328.35,319.25,330.35
96,85.71,328.95,319.65,331.05
98,85.57,329.45,320.05,331.65
100,85.43,329.85,320.35,332.15
102,85.27,330.45,320.75,332.85
104,85.12,330.95,321.05,333.45
106,84.97,331.35,321.45,333.95
108,84.84,331.95,321.85,334.75
110,84.68,332.45,322.15,335.35
112,84.56,332.95,322.55,335.85
114,84.40,333.55,322.95,336.65
116,84.27,333.95,323.35,337.25
118,84.12,334.45,323.65,337.85
120,83.98,335.05,324.05,338.55
122,83.84,335.45,324.45,339.15
124,83.69,335.95,324.75,339.75
126,83.57,336.55,325.25,340.55
128,83.41,336.95,325.55,341.15
130,83.27,337.45,325.95,341.75
132,83.14,338.05,326.45,342.55
134,83.00,338.45,326.75,343.15
136,82.87,338.95,327.15,343.75
138,82.73,339.55,327.65,344.65
140,82.60,340.05,327.95,345.15
142,82.44,340.45,328.35,345.85
144,82.32,341.15,328.75,346.65
146,82.16,341.55,329.15,347.25
148,82.03,342.05,329.55,347.85
150,81.91,342.65,330.05,348.65
152,81.77,343.05,330.45,349.35
154,81.64,343.55,330.85,349.95
156,81.51,344.15,331.35,350.75
158,81.37,344.65,331.75,351.45
160,81.24,345.05,332.15,352.05
162,81.12,345.75,332.65,352.95
164,80.99,346.15,333.05,353.55
166,80.85,346.65,333.45,354.15
168,80.72,347.25,333.95,355.05
170,80.61,347.75,334.35,355.65
172,80.48,348.25,334.75,356.35
174,80.33,348.85,335.25,357.15
176,80.21,349.35,335.65,357.85
178,80.08,349.75,336.05,358.45
180,79.96,350.45,336.65,359.25
182,79.86,350.85,337.05,359.95
184,79.72,351.35,337.45,360.55
186,79.57,352.05,338.05,361.35
188,79.47,352.55,338.55,361.95
190,79.33,352.95,338.95,362.55
192,79.22,353.65,339.55,363.35
194,79.09,354.05,339.95,363.95
196,78.97,354.55,340.45,364.65
198,78.84,355.15,340.95,365.45
200,78.72,355.65,341.45,365.95
202,78.59,356.15,341.85,366.55
204,78.47,356.85,342.45,367.35
206,78.35,357.35,342.85,367.85
208,78.24,357.75,343.35,368.45
210,78.12,358.45,343.95,369.25
212,77.99,358.95,344.45,369.85
214,77.85,359.35,344.95,370.35
216,77.75,360.05,345.55,371.05
218,77.60,360.55,346.05,371.55
220,77.50,361.05,346.45,372.15
222,77.38,361.65,347.15,372.85
224,77.24,362.15,347.55,373.25
226,77.14,362.65,348.05,373.85
228,77.01,363.25,348.75,374.45
230,76.90,363.75,349.25,374.95
232,76.78,364.25,349.75,375.45
234,76.67,364.85,350.35,376.05
236,76.56,365.35,350.95,376.55
238,76.45,365.85,351.45,377.05
240,76.31,366.45,352.15,377.65
242,76.20,366.95,352.65,378.15
244,76.08,367.35,353.25,378.55
246,75.95,367.95,354.05,379.05
248,75.84,368.45,354.55,379.35
250,75.72,368.95,355.15,379.65
252,75.60,369.55,355.85,380.15
254,75.47,370.05,356.45,380.55
256,75.37,370.45,357.05,380.95
258,75.27,371.05,357.75,381.45
260,75.15,371.45,358.25,381.85
262,75.04,371.95,358.85,382.25
264,74.92,372.55,359.55,382.75
266,74.81,372.95,360.15,383.15
268,74.70,373.45,360.65,383.55
270,74.58,374.05,361.35,384.05
272,74.45,374.45,361.95,384.45
274,74.34,374.85,362.55,384.85
276,74.23,375.45,363.25,385.35
278,74.13,375.85,363.85,385.75
280,73.99,376.25,364.35,386.05
282,73.88,376.85,365.15,386.55
284,73.77,377.25,365.65,386.95
286,73.68,377.65,366.25,387.25
288,73.56,378.25,366.95,387.75
290,73.44,378.65,367.55,388.15
292,73.33,379.05,368.05,388.55
294,73.22,379.55,368.75,389.05
296,73.11,379.95,369.35,389.45
298,73.00,380.35,369.85,389.75
300,72.89,380.85,370.55,390.25
302,72.76,381.25,371.05,390.65
304,72.66,381.55,371.55,390.95
306,72.56,382.05,372.25,391.45
308,72.44,382.45,372.75,391.75
310,72.33,382.75,373.35,392.15
312,72.23,383.25,374.05,392.65
314,72.11,383.65,374.55,392.95
316,72.00,383.95,375.05,393.35
318,71.91,384.45,375.75,393.85
320,71.79,384.75,376.25,394.15
322,71.68,385.15,376.65,394.55
324,71.58,385.55,377.35,394.95
326,71.47,385.95,377.75,395.35
328,71.36,386.25,378.25,395.75
330,71.24,386.65,378.95,396.15
332,71.15,386.95,379.35,396.55
334,71.04,387.25,379.85,396.85
336,70.93,387.75,380.45,397.35
338,70.83,388.05,380.85,397.75
340,70.72,388.35,381.25,398.05
342,70.60,388.75,381.75,398.55
344,70.51,388.95,382.25,398.85
346,70.40,389.25,382.65,399.25
348,70.28,389.65,383.15,399.65
350,70.18,389.95,383.45,400.05
352,70.06,390.15,383.85,400.35
354,69.96,390.55,384.25,400.85
356,69.86,390.75,384.55,401.25
358,69.75,391.05,384.95,401.65
360,69.65,391.35,385.35,402.05
362,69.54,391.65,385.65,402.45
364,69.43,391.85,385.95,402.75
366,69.34,392.25,386.25,403.25
368,69.23,392.45,386.55,403.55
370,69.12,392.75,386.85,403.95
372,69.01,393.05,387.15,404.45
374,68.92,393.25,387.45,404.85
376,68.82,393.55,387.65,405.15
378,68.71,393.85,387.95,405.85
380,68.59,394.05,388.25,406.15
382,68.46,394.35,388.55,406.45
384,68.35,394.55,388.85,406.95
386,68.25,394.85,389.15,407.25
388,68.14,395.05,389.35,407.55
390,68.04,395.35,389.65,408.05
392,67.93,395.55,389.85,408.35
394,67.83,395.85,390.15,408.65
396,67.73,396.15,390.45,409.15
398,67.64,396.35,390.65,409.45
400,67.52,396.55,390.95,409.85
402,67.42,396.85,391.25,410.25
404,67.33,397.15,391.45,410.55
406,67.23,397.35,391.65,410.85
408,67.12,397.65,392.05,411.25
410,67.00,397.85,392.25,411.65
412,66.91,398.05,392.45,411.95
414,66.80,398.35,392.75,412.45
416,66.71,398.55,392.95,412.75
418,66.61,398.85,393.25,413.05
420,66.50,399.15,393.55,413.45
422,66.39,399.35,393.75,413.85
424,66.28,399.65,394.05,414.15
426,66.18,399.95,394.35,414.55
428,66.08,400.15,394.55,414.95
430,65.97,400.45,394.85,415.25
432,65.87,400.65,395.15,415.65
434,65.76,400.95,395.35,415.95
436,65.66,401.15,395.65,416.25
438,65.56,401.45,395.95,416.75
440,65.45,401.65,396.15,417.05
442,65.37,401.95,396.45,417.35
444,65.28,402.25,396.75,417.85
446,65.17,402.45,396.95,418.15
448,65.06,402.65,397.15,418.45
450,64.95,402.95,397.45,418.95
452,64.86,403.25,397.75,419.15
454,64.77,403.45,397.95,419.55
456,64.66,403.75,398.25,419.95
458,64.54,404.05,398.45,420.35
460,64.44,404.25,398.65,420.65
462,64.35,404.55,398.95,421.15
464,64.25,404.85,399.25,421.45
466,64.14,405.05,399.45,421.75
468,64.04,405.35,399.75,422.25
470,63.94,405.65,399.95,422.55
472,63.84,405.85,400.15,422.85
474,63.74,406.15,400.45,423.35
476,63.63,406.45,400.65,423.65
478,63.53,406.65,400.95,424.05
480,63.43,406.95,401.15,424.45
482,63.34,407.15,401.45,424.75
484,63.24,407.45,401.65,425.15
486,63.15,407.75,401.95,425.55
488,63.04,407.95,402.15,425.95
490,62.93,408.25,402.35,426.25
492,62.84,408.55,402.65,426.75
494,62.75,408.75,402.85,427.05
496,62.62,408.95,403.05,427.45
498,62.53,409.35,403.35,427.85
500,62.45,409.55,403.55,428.25
502,62.34,409.85,403.75,428.55
504,62.25,410.15,404.05,429.05
506,62.14,410.35,404.25,429.45
508,62.05,410.55,404.45,429.85
510,61.95,410.85,404.75,430.35
512,61.86,411.15,404.95,430.65
514,61.76,411.35,405.15,430.95
516,61.66,411.65,405.45,431.45
518,61.55,411.85,405.65,431.85
520,61.47,412.15,405.85,432.15
522,61.38,412.45,406.15,432.65
524,61.27,412.65,406.35,433.05
526,61.17,412.95,406.65,433.35
528,61.07,413.25,406.85,433.95
530,60.97,413.45,407.15,434.25
532,60.88,413.75,407.35,434.65
534,60.77,414.05,407.65,435.15
536,60.67,414.25,407.85,435.45
538,60.57,414.55,408.05,435.85
540,60.48,414.85,408.35,436.35
542,60.39,415.05,408.55,436.75
544,60.28,415.35,408.75,437.05
546,60.20,415.65,409.05,437.65
548,60.09,415.85,409.25,437.95
550,60.00,416.15,409.55,438.35
552,59.90,416.45,409.85,438.85
554,59.80,416.75,410.05,439.25
556,59.70,416.95,410.25,439.65
558,59.61,417.25,410.55,440.15
560,59.53,417.55,410.75,440.55
562,59.43,417.75,410.95,440.95
564,59.33,418.05,411.25,441.45
566,59.24,418.35,411.45,441.85
568,59.15,418.55,411.65,442.25
570,59.05,418.85,411.95,442.85
572,58.96,419.15,412.15,443.25
574,58.86,419.35,412.35,443.55
576,58.76,419.75,412.65,444.15
578,58.67,419.95,412.85,444.55
580,58.58,420.25,413.15,444.95
582,58.48,420.55,413.45,445.45
584,58.38,420.85,413.65,445.85
586,58.29,421.15,413.85,446.25
588,58.21,421.55,414.15,446.85
590,58.10,421.75,414.45,447.25
592,58.00,422.05,414.65,447.65
594,57.92,422.35,414.95,448.25
596,57.84,422.65,415.15,448.65
598,57.73,422.85,415.45,449.05
600,57.63,423.25,415.75,449.65
602,57.55,423.45,415.95,450.05
604,57.43,423.75,416.15,450.45
606,57.35,424.15,416.45,451.05
608,57.27,424.35,416.75,451.45
610,57.18,424.65,416.95,451.95
612,57.09,425.05,417.25,452.45
614,56.98,425.35,417.45,452.95
616,56.88,425.55,417.65,453.35
618,56.79,425.95,418.05,454.05
620,56.70,426.25,418.25,454.45
622,56.60,426.55,418.45,454.95
624,56.52,426.85,418.75,455.45
626,56.42,427.15,419.05,455.95
628,56.31,427.35,419.25,456.35
630,56.22,427.75,419.55,457.05
632,56.14,428.05,419.85,457.45
634,56.04,428.35,420.05,457.95
636,55.96,428.75,420.45,458.55
638,55.86,428.95,420.65,459.05
640,55.77,429.25,420.95,459.55
642,55.67,429.65,421.25,460.15
644,55.57,429.95,421.55,460.55
646,55.48,430.25,421.75,461.05
648,55.40,430.65,422.05,461.75
650,55.30,430.95,422.35,462.25
652,55.20,431.25,422.65,462.75
654,55.12,431.65,422.95,463.45
656,55.02,431.95,423.15,463.95
658,54.92,432.25,423.45,464.45
660,54.83,432.65,423.85,465.15
662,54.76,432.95,424.05,465.65
664,54.67,433.25,424.35,466.15
666,54.57,433.65,424.65,466.85
668,54.49,433.95,424.95,467.25
670,54.38,434.25,425.25,467.85
672,54.29,434.65,425.65,468.45
674,54.20,434.95,425.85,468.95
676,54.10,435.25,426.15,469.45
678,54.02,435.65,426.45,470.15
680,53.92,435.95,426.75,470.65
682,53.83,436.35,427.05,471.25
684,53.73,436.75,427.35,471.95
686,53.64,437.05,427.65,472.45
688,53.56,437.35,427.95,473.05
690,53.46,437.75,428.35,473.75
692,53.36,438.05,428.55,474.25
694,53.27,438.45,428.85,474.85
696,53.15,438.85,429.25,475.55
698,53.07,439.15,429.55,476.15
700,52.98,439.55,429.85,476.65
702,52.90,439.95,430.15,477.45
704,52.83,440.25,430.45,477.95
706,52.72,440.55,430.75,478.55
708,52.60,441.05,431.15,479.25
710,52.51,441.35,431.45,479.85
712,52.43,441.75,431.75,480.45
714,52.32,442.25,431.95,481.15
716,52.24,442.55,432.25,481.75
718,52.13,442.95,432.45,482.35
720,52.04,443.35,432.85,483.05
722,51.97,443.75,433.15,483.65
724,51.84,444.15,433.45,484.25
726,51.74,444.55,433.85,485.05
728,51.66,444.95,434.15,485.55
730,51.58,445.35,434.45,486.15
732,51.48,445.85,434.85,486.95
734,51.40,446.15,435.15,487.55
736,51.30,446.55,435.45,488.05
738,51.21,447.05,435.85,488.85
740,51.12,447.45,436.15,489.45
742,51.02,447.85,436.45,490.05
744,50.93,448.35,436.85,490.85
746,50.84,448.75,437.25,491.45
748,50.73,449.15,437.55,492.05
750,50.65,449.65,438.05,492.85
752,50.55,450.05,438.35,493.45
754,50.44,450.45,438.65,494.05
756,50.37,451.05,439.05,494.85
758,50.27,451.35,439.45,495.45
760,50.17,451.75,439.85,496.05
762,50.08,452.35,440.25,496.85
764,49.98,452.75,440.65,497.45
766,49.89,453.15,440.95,498.05
768,49.79,453.75,441.45,498.85
770,49.69,454.25,441.75,499.45
772,49.59,454.65,442.15,500.05
774,49.50,455.15,442.65,500.85
776,49.40,455.65,442.95,501.45
778,49.31,456.05,443.35,502.05
780,49.22,456.65,443.85,502.85
782,49.11,457.05,444.25,503.45
784,49.02,457.55,444.55,504.15
786,48.92,458.15,445.05,504.95
788,48.83,458.55,445.45,505.55
790,48.72,458.95,445.85,506.15
792,48.64,459.65,446.35,506.95
794,48.54,460.05,446.75,507.55
796,48.44,460.55,447.15,508.15
798,48.33,461.15,447.75,508.95
800,48.25,461.55,448.15,509.55
802,48.14,462.05,448.55,510.15
804,48.04,462.75,449.15,510.95
806,47.94,463.15,449.55,511.55
808,47.84,463.65,449.95,512.25
810,47.77,464.35,450.55,513.05
812,47.65,464.85,450.95,513.65
814,47.55,465.35,451.45,514.25
816,47.46,465.95,451.95,515.05
818,47.37,466.45,452.45,515.65
820,47.27,466.95,452.85,516.35
822,47.15,467.65,453.55,517.05
824,47.05,468.15,453.95,517.75
826,46.96,468.75,454.45,518.35
828,46.86,469.35,455.05,519.15
830,46.76,469.85,455.55,519.75
832,46.67,470.45,456.05,520.35
834,46.55,471.15,456.65,521.15
836,46.46,471.65,457.15,521.75
838,46.36,472.15,457.65,522.35
840,46.27,472.85,458.35,523.25
842,46.16,473.35,458.85,523.85
844,46.06,473.95,459.35,524.45
846,45.96,474.65,460.05,525.25
848,45.86,475.15,460.55,525.85
850,45.76,475.75,461.05,526.55
852,45.67,476.45,461.75,527.35
854,45.56,476.95,462.35,527.95
856,45.46,477.55,462.85,528.55
858,45.35,478.35,463.55,529.35
860,45.24,478.85,464.15,529.95
862,45.14,479.45,464.65,530.65
864,45.05,480.15,465.45,531.45
866,44.95,480.75,466.05,532.05
868,44.85,481.25,466.65,532.65
870,44.74,482.05,467.35,533.55
872,44.63,482.65,467.95,534.15
874,44.53,483.15,468.65,534.75
876,44.43,483.95,469.35,535.65
878,44.33,484.55,469.95,536.25
880,44.23,485.05,470.55,536.85
882,44.13,485.85,471.35,537.65
884,44.04,486.45,472.05,538.35
886,43.94,487.05,472.65,538.95
888,43.83,487.85,473.45,539.75
890,43.73,488.45,474.05,540.45
892,43.62,488.95,474.75,541.05
894,43.52,489.75,475.55,541.85
896,43.42,490.35,476.15,542.45
898,43.32,490.95,476.85,543.05
900,43.21,491.75,477.65,543.95
902,43.10,492.35,478.35,544.55
904,42.99,492.95,478.95,545.15
906,42.89,493.75,479.85,546.05
908,42.79,494.35,480.55,546.65
910,42.69,494.95,481.15,547.25
912,42.57,495.75,482.05,548.15
914,42.48,496.35,482.65,548.75
916,42.35,496.95,483.35,549.45
918,42.26,497.75,484.25,550.25
920,42.15,498.35,484.95,550.85
922,42.05,498.95,485.55,551.55
924,41.94,499.75,486.45,552.35
926,41.84,500.45,487.15,552.95
928,41.72,501.05,487.85,553.65
930,41.62,501.85,488.75,554.45
932,41.50,502.45,489.45,555.05
934,41.39,503.05,490.15,555.75
936,41.28,503.85,491.05,556.55
938,41.16,504.45,491.75,557.15
940,41.07,505.15,492.45,557.85
942,40.94,505.95,493.35,558.65
944,40.84,506.55,494.05,559.25
946,40.74,507.15,494.75,559.95
948,40.62,508.05,495.75,560.75
950,40.49,508.55,496.35,561.35
952,40.41,509.25,497.15,562.05
954,40.29,510.05,498.05,562.85
956,40.18,510.65,498.75,563.45
958,40.06,511.25,499.45,564.15
960,39.95,512.05,500.35,564.95
962,39.83,512.65,501.05,565.55
964,39.71,513.35,501.75,566.15
966,39.61,514.05,502.65,567.05
968,39.50,514.75,503.45,567.65
970,39.40,515.35,504.15,568.25
972,39.27,516.15,505.05,569.15
974,39.15,516.75,505.75,569.75
976,39.05,517.35,506.55,570.35
978,38.93,518.15,507.45,571.15
980,38.81,518.75,508.15,571.75
982,38.69,519.35,508.85,572.35
984,38.57,520.25,509.75,573.15
986,38.46,520.75,510.45,573.75
988,38.35,521.35,511.15,574.35
990,38.23,522.25,512.05,575.25
992,38.12,522.85,512.75,575.85
994,38.00,523.45,513.45,576.45
996,37.88,524.25,514.35,577.25
998,37.77,524.85,515.05,577.85
1000,37.66,525.55,515.75,578.45
1002,37.53,526.35,516.65,579.25
1004,37.42,526.95,517.35,579.85
1006,37.28,527.55,518.05,580.45
1008,37.17,528.45,518.95,581.25
1010,37.06,529.05,519.65,581.95
1012,36.94,529.65,520.35,582.55
1014,36.82,530.45,521.25,583.35
1016,36.70,531.05,521.95,583.95
1018,36.57,531.75,522.55,584.55
1020,36.45,532.55,523.55,585.35
1022,36.34,533.15,524.25,585.95
1024,36.23,533.85,524.95,586.55
1026,36.10,534.65,525.85,587.35
1028,35.98,535.25,526.55,587.95
1030,35.85,535.95,527.15,588.55
1032,35.74,536.75,528.15,589.35
1034,35.60,537.45,528.85,589.95
1036,35.49,538.15,529.55,590.55
1038,35.37,538.95,530.45,591.35
1040,35.26,539.55,531.15,591.95
1042,35.14,540.15,531.85,592.55
1044,35.02,541.05,532.75,593.35
1046,34.89,541.65,533.45,593.95
1048,34.77,542.35,534.15,594.55
1050,34.65,543.15,535.15,595.35
1052,34.53,543.75,535.85,595.85
1054,34.39,544.45,536.55,596.55
1056,34.29,545.25,537.45,597.25
1058,34.17,545.75,538.15,597.85
1060,34.05,546.45,538.85,598.45
1062,33.92,547.25,539.85,599.25
1064,33.81,547.85,540.55,599.85
1066,33.67,548.45,541.25,600.45
1068,33.53,549.25,542.25,601.25
1070,33.41,549.85,542.95,601.85
1072,33.30,550.45,543.65,602.45
1074,33.16,551.25,544.55,603.15
1076,33.05,551.85,545.35,603.75
1078,32.93,552.45,546.05,604.35
1080,32.80,553.35,547.05,605.15
1082,32.69,553.95,547.85,605.75
1084,32.55,554.55,548.55,606.25
1086,32.43,555.35,549.55,607.05
1088,32.29,555.95,550.35,607.65
1090,32.17,556.55,551.05,608.25
1092,32.05,557.35,552.05,608.95
1094,31.92,557.95,552.85,609.55
1096,31.81,558.55,553.55,610.15
1098,31.67,559.45,554.65,610.95
1100,31.54,560.05,555.35,611.55
1102,31.41,560.65,556.15,612.05
1104,31.30,561.45,557.15,612.85
1106,31.17,562.05,558.05,613.45
1108,31.05,562.65,558.75,613.95
1110,30.92,563.55,559.85,614.75
1112,30.79,564.15,560.55,615.25
1114,30.67,564.75,561.45,615.85
1116,30.56,565.55,562.45,616.55
1118,30.42,566.25,563.25,617.15
1120,30.31,566.85,564.05,617.65
1122,30.19,567.65,565.05,618.35
1124,30.06,568.25,565.85,618.95
1126,29.92,568.85,566.65,619.45
1128,29.79,569.75,567.75,620.15
1130,29.67,570.35,568.45,620.75
1132,29.54,570.95,569.25,621.25
1134,29.41,571.75,570.25,621.95
1136,29.30,572.35,571.05,622.45
1138,29.19,572.95,571.85,623.05
1140,29.05,573.75,572.75,623.65
1142,28.94,574.35,573.65,624.15
1144,28.81,574.95,574.35,624.65
1146,28.68,575.85,575.35,625.35
1148,28.54,576.45,576.15,625.85
1150,28.43,577.05,576.95,626.35
1152,28.30,577.85,577.95,626.95
1154,28.18,578.55,578.75,627.45
1156,28.05,579.05,579.55,627.95
1158,27.93,579.95,580.65,628.55
1160,27.81,580.55,581.35,629.05
1162,27.67,581.15,582.25,629.55
1164,27.56,581.95,583.25,630.15
1166,27.46,582.65,584.15,630.65
1168,27.33,583.25,584.95,631.15
1170,27.21,584.05,586.05,631.85
1172,27.08,584.65,586.85,632.35
1174,26.96,585.25,587.65,632.95
1176,26.82,586.15,588.75,633.65
1178,26.72,586.75,589.55,634.25
1180,26.59,587.35,590.35,634.85
1182,26.46,588.25,591.45,635.55
1184,26.34,588.85,592.25,636.15
1186,26.22,589.45,593.05,637.05
1188,26.09,590.35,594.15,638.05
1190,25.99,590.95,594.95,638.65
1192,25.87,591.55,595.75,639.25
1194,25.76,592.45,596.75,640.45
1196,25.63,593.05,597.55,641.25
1198,25.50,593.75,598.35,641.85
1200,25.37,594.55,599.35,642.45
1202,25.25,595.15,600.15,643.05
1204,25.15,595.75,600.95,643.75
1206,25.01,596.65,601.95,644.75
1208,24.89,597.25,602.85,645.45
1210,24.77,597.85,603.55,646.15
1212,24.66,598.65,604.65,647.15
1214,24.54,599.25,605.45,647.95
1216,24.41,599.85,606.25,648.75
1218,24.28,600.75,607.45,649.95
1220,24.18,601.35,608.25,650.95
1222,24.07,601.95,609.05,651.95
1224,23.93,602.85,610.15,653.35
1226,23.84,603.45,610.95,654.45
1228,23.72,604.05,611.75,655.45
1230,23.59,604.85,612.85,656.85
1232,23.48,605.45,613.65,658.05
1234,23.36,606.05,614.45,659.45
1236,23.26,606.85,615.55,661.45
1238,23.16,607.45,616.35,662.95
1240,23.04,608.15,617.15,664.55
1242,22.93,608.95,618.15,666.65
1244,22.83,609.55,618.95,668.55
1246,22.72,610.15,619.75,670.75
1248,22.60,610.95,620.85,673.65
1250,22.48,611.55,621.65,675.75
1252,22.38,612.25,622.35,678.05
1254,22.28,613.05,623.35,681.15
1256,22.17,613.65,624.05,683.55
1258,22.06,614.25,624.75,685.95
1260,21.96,615.05,625.65,688.95
1262,21.85,615.75,626.25,691.05
1264,21.75,616.45,626.95,693.05
1266,21.64,617.35,627.65,695.55
1268,21.53,618.05,628.25,697.35
1270,21.43,618.65,628.75,699.05
1272,21.33,619.45,629.55,701.25
1274,21.26,620.15,630.25,703.05
1276,21.17,620.75,630.85,704.75
1278,21.09,621.55,631.65,707.25
1280,20.98,622.05,632.35,709.25
1282,20.89,622.55,632.95,711.55
1284,20.80,623.05,633.75,712.05
1286,20.72,623.55,634.45,712.95
1288,20.65,624.05,635.15,713.95
1290,20.56,624.85,636.05,714.95
1292,20.48,625.45,636.75,715.75
1294,20.38,626.05,637.45,716.55
1296,20.28,626.95,638.45,717.65
1298,20.19,627.55,639.15,718.45
1300,20.10,628.25,639.85,719.15
1302,20.01,629.25,640.85,720.05
1304,19.93,630.05,641.55,720.75
1306,19.85,630.75,642.35,721.55
1308,19.75,631.75,643.45,722.45
1310,19.65,632.55,644.45,723.45
1312,19.56,633.35,645.35,724.75
1314,19.49,634.25,646.55,724.45
1316,19.44,634.85,647.55,724.85
1318,19.37,635.55,648.55,725.45
1320,19.32,636.55,649.95,726.35
1322,19.24,637.25,651.05,727.15
1324,19.17,637.95,652.15,727.95
1326,19.09,638.95,653.85,729.25
1328,19.03,639.65,655.15,730.45
1330,18.96,640.35,656.45,731.85
1332,18.90,641.35,658.35,733.75
1334,18.84,642.05,660.05,734.95
1336,18.78,642.75,661.95,736.55
1338,18.74,643.55,664.55,738.95
1340,18.69,644.25,666.75,740.75
1342,18.63,644.85,669.15,742.35
1344,18.59,645.85,672.75,744.25
1346,18.55,646.15,675.75,744.95
1348,18.49,645.85,679.25,743.15
1350,18.45,645.95,683.05,741.65
1352,18.39,646.25,685.65,741.75
1354,18.35,646.75,688.45,742.05
1356,18.30,647.65,692.85,742.55
1358,18.25,648.45,696.15,742.95
1360,18.18,649.45,700.05,743.05
1362,18.12,651.15,705.45,743.35
1364,18.08,652.35,709.55,743.85
1366,18.02,653.65,713.85,744.35
1368,17.97,655.45,719.45,745.25
1370,17.91,656.85,723.55,746.05
1372,17.85,658.25,727.45,746.95
1374,17.81,660.15,732.35,748.25
1376,17.78,661.65,735.85,749.35
1378,17.75,663.25,738.95,750.55
1380,17.71,665.75,742.75,752.15
1382,17.66,667.65,745.35,753.35
1384,17.62,669.75,747.55,754.25
1386,17.55,673.05,750.15,755.55
1388,17.50,675.85,751.75,756.35
1390,17.46,678.65,753.15,757.25
1392,17.45,682.85,755.05,758.45
1394,17.42,686.05,756.25,759.35
1396,17.37,689.45,757.45,760.15
1398,17.34,693.95,758.85,761.05
1400,17.30,697.35,759.85,761.75
1402,17.28,700.55,760.65,762.25
1404,17.24,704.75,761.75,762.95
1406,17.19,708.05,762.55,763.45
1408,17.16,711.25,763.45,763.95
1410,17.16,715.35,764.55,764.65
1412,17.13,718.25,765.45,765.15
1414,17.09,721.05,766.45,765.75
1416,17.06,724.75,767.65,766.45
1418,17.03,727.35,768.65,767.05
1420,16.98,729.75,769.75,767.75
1422,16.95,732.95,771.35,768.75
1424,16.93,735.15,772.55,769.45
1426,16.90,737.25,773.95,770.15
1428,16.88,739.85,775.65,771.25
1430,16.84,741.55,777.05,771.95
1432,16.80,743.25,778.45,772.65
1434,16.78,745.25,780.35,773.65
1436,16.76,746.55,781.75,774.35
1438,16.77,747.85,783.15,775.15
1440,16.75,749.55,785.25,776.15
1442,16.72,750.65,786.65,776.95
1444,16.67,751.65,787.95,777.55
1446,16.67,752.95,789.35,778.35
1448,16.65,753.95,790.35,778.85
1450,16.64,754.75,791.45,779.35
1452,16.63,755.85,792.65,780.05
1454,16.61,756.65,793.55,780.45
1456,16.59,757.45,794.55,781.05
1458,16.60,758.45,795.45,781.65
1460,16.58,759.15,796.15,782.05
1462,16.54,759.85,796.85,782.45
1464,16.55,760.65,797.65,782.95
1466,16.54,761.25,798.25,783.35
1468,16.53,761.85,798.65,783.65
1470,16.51,762.65,799.35,784.15
1472,16.50,763.25,799.75,784.45
1474,16.49,763.75,800.15,784.75
1476,16.48,764.45,800.65,785.15
1478,16.49,765.05,800.95,785.45
1480,16.49,765.55,801.25,785.65
1482,16.47,766.15,801.75,786.05
1484,16.49,766.65,802.05,786.25
1486,16.45,767.05,802.55,786.65
1488,16.44,767.65,802.85,786.95
1490,16.43,768.05,803.05,787.15
1492,16.43,768.55,803.35,787.35
1494,16.42,769.05,803.65,787.55
1496,16.41,769.45,803.95,787.85
1498,16.38,769.85,804.25,788.05
1500,16.37,770.35,804.45,788.25
1502,16.36,770.75,804.65,788.45
1504,16.35,771.15,804.95,788.65
1506,16.34,771.65,805.25,789.05
1508,16.34,771.95,805.35,789.25
1510,16.35,772.35,805.65,789.45
1512,16.33,772.85,805.95,789.75
1514,16.33,773.15,806.05,789.85
1516,16.32,773.45,806.35,790.05
1518,16.31,773.75,806.55,790.35
1520,16.32,774.05,806.65,790.45
1522,16.30,774.35,806.85,790.65
1524,16.31,774.75,807.15,790.95
1526,16.30,775.05,807.25,791.05
1528,16.27,775.25,807.35,791.15
1530,16.27,775.65,807.55,791.45
1532,16.27,775.95,807.75,791.55
1534,16.27,776.15,807.95,791.75
1536,16.24,776.45,808.15,791.95
1538,16.24,776.75,808.25,792.05
1540,16.24,776.95,808.45,792.25
1542,16.22,777.25,808.65,792.45
1544,16.20,777.55,808.95,792.65
1546,16.20,777.75,808.95,792.75
1548,16.20,778.05,809.15,792.95
1550,16.19,778.25,809.25,793.05
1552,16.19,778.45,809.35,793.15
1554,16.20,778.75,809.55,793.35
1556,16.18,778.95,809.85,793.45
1558,16.16,779.15,809.95,793.65
1560,16.16,779.45,810.15,793.85
1562,16.16,779.75,810.35,794.05
1564,16.17,779.95,810.45,794.15
1566,16.15,780.15,810.75,794.35
1568,16.15,780.35,810.85,794.45
1570,16.15,780.55,810.95,794.55
1572,16.15,780.75,811.15,794.75
1574,16.15,780.95,811.15,794.85
1576,16.14,781.15,811.25,794.95
1578,16.13,781.35,811.45,795.05
1580,16.13,781.55,811.65,795.25
1582,16.13,781.65,811.75,795.35
1584,16.11,781.85,811.95,795.55
1586,16.11,782.05,812.05,795.65
1588,16.11,782.25,812.15,795.85
1590,16.11,782.45,812.35,795.95
1592,16.11,782.65,812.45,796.15
1594,16.10,782.75,812.55,796.25
1596,16.10,782.95,812.75,796.35
1598,16.09,783.15,812.75,796.45
1600,16.09,783.25,812.85,796.55