File: Wood/Calibration_Data/TIFP+UCT/TIFP+UCT_Gasification_hor_parallel_60kW_R2.csv
Time (s),Mass (g),TC back 1 (K),TC back 2 (K),TC back 3 (K)
0,111.07,305.25,303.75,304.45
2,110.73,305.65,303.85,304.65
4,110.61,306.25,304.05,304.95
6,110.46,306.75,304.15,305.35
8,110.32,307.25,304.35,305.65
10,110.07,307.95,304.65,306.15
12,109.84,308.45,304.95,306.55
14,109.19,308.95,305.25,306.85
16,108.91,309.65,305.55,307.45
18,108.65,310.15,305.85,307.85
20,108.39,310.55,306.15,308.25
22,108.15,311.25,306.45,308.85
24,107.92,311.65,306.75,309.25
26,107.67,312.15,307.05,309.65
28,107.45,312.85,307.35,310.25
30,107.21,313.35,307.65,310.65
32,106.99,313.75,307.85,311.05
34,106.76,314.45,308.25,311.55
36,106.50,314.95,308.55,312.05
38,106.32,315.45,308.85,312.45
40,106.12,316.15,309.15,312.95
42,105.90,316.65,309.45,313.45
44,105.71,317.05,309.65,313.85
46,105.50,317.75,310.05,314.45
48,105.31,318.15,310.25,314.85
50,105.12,318.65,310.55,315.25
52,104.93,319.25,310.85,315.85
54,104.71,319.65,311.05,316.25
56,104.53,320.05,311.35,316.65
58,104.35,320.65,311.65,317.25
60,104.16,321.15,311.85,317.65
62,103.98,321.55,312.15,318.05
64,103.80,322.15,312.45,318.65
66,103.63,322.65,312.75,319.05
68,103.44,323.05,312.95,319.45
70,103.27,323.65,313.35,320.05
72,103.09,324.05,313.55,320.45
74,102.90,324.55,313.85,320.85
76,102.74,325.15,314.15,321.45
78,102.58,325.55,314.45,321.85
80,102.42,325.95,314.65,322.35
82,102.26,326.55,315.05,322.85
84,102.08,327.05,315.25,323.35
86,101.93,327.45,315.55,323.75
88,101.75,328.05,315.85,324.25
90,101.61,328.55,316.15,324.65
92,101.46,328.95,316.45,325.15
94,101.28,329.55,316.75,325.65
96,101.14,330.05,317.05,326.15
98,100.99,330.45,317.35,326.55
100,100.83,331.05,317.65,327.15
102,100.66,331.45,317.95,327.55
104,100.51,331.95,318.15,327.95
106,100.36,332.55,318.55,328.55
108,100.21,332.95,318.85,328.95
110,100.06,333.45,319.05,329.45
112,99.93,334.05,319.45,329.95
114,99.77,334.45,319.75,330.45
116,99.62,334.85,320.05,330.85
118,99.48,335.45,320.45,331.45
120,99.33,335.95,320.65,331.85
122,99.18,336.35,320.95,332.35
124,99.04,337.05,321.35,332.95
126,98.90,337.45,321.65,333.35
128,98.75,337.95,321.95,333.75
130,98.61,338.55,322.25,334.35
132,98.45,338.95,322.55,334.85
134,98.31,339.45,322.85,335.35
136,98.18,340.05,323.25,335.85
138,98.04,340.45,323.55,336.35
140,97.89,340.95,323.85,336.75
142,97.75,341.65,324.25,337.45
144,97.62,342.05,324.55,337.85
146,97.47,342.55,324.95,338.35
148,97.33,343.25,325.35,338.95
150,97.19,343.65,325.65,339.45
152,97.07,344.15,325.95,339.85
154,96.90,344.85,326.35,340.55
156,96.77,345.25,326.65,340.95
158,96.63,345.75,326.95,341.45
160,96.49,346.45,327.45,342.15
162,96.37,346.85,327.75,342.65
164,96.22,347.35,328.05,343.05
166,96.08,348.05,328.45,343.75
168,95.95,348.55,328.85,344.15
170,95.82,349.05,329.15,344.75
172,95.69,349.75,329.65,345.35
174,95.55,350.25,329.95,345.85
176,95.41,350.65,330.25,346.35
178,95.26,351.35,330.75,346.95
180,95.13,351.95,331.05,347.45
182,94.99,352.45,331.45,347.95
184,94.87,353.15,331.85,348.65
186,94.73,353.65,332.25,349.15
188,94.59,354.25,332.65,349.65
190,94.46,354.85,333.05,350.25
192,94.32,355.45,333.45,350.75
194,94.20,355.95,333.75,351.35
196,94.06,356.65,334.25,352.05
198,93.92,357.15,334.65,352.55
200,93.78,357.75,335.05,353.15
202,93.66,358.45,335.45,353.85
204,93.52,358.95,335.85,354.35
206,93.40,359.45,336.25,354.95
208,93.26,360.25,336.75,355.65
210,93.13,360.75,337.15,356.25
212,93.00,361.25,337.55,356.75
214,92.86,361.95,338.05,357.55
216,92.73,362.45,338.45,358.05
218,92.60,362.95,338.85,358.65
220,92.45,363.65,339.35,359.35
222,92.33,364.15,339.75,359.95
224,92.22,364.65,340.15,360.45
226,92.08,365.35,340.65,361.25
228,91.96,365.85,341.05,361.75
230,91.83,366.45,341.45,362.35
232,91.69,367.05,342.05,363.05
234,91.57,367.55,342.45,363.65
236,91.43,368.05,342.85,364.15
238,91.30,368.75,343.45,364.95
240,91.17,369.25,343.85,365.45
242,91.05,369.65,344.25,365.95
244,90.93,370.25,344.85,366.65
246,90.80,370.75,345.25,367.25
248,90.67,371.25,345.65,367.75
250,90.53,371.85,346.25,368.45
252,90.41,372.25,346.75,369.05
254,90.29,372.65,347.15,369.55
256,90.16,373.25,347.75,370.15
258,90.03,373.65,348.15,370.65
260,89.90,374.05,348.65,371.15
262,89.79,374.65,349.15,371.85
264,89.66,375.05,349.65,372.35
266,89.53,375.45,350.15,372.75
268,89.40,375.95,350.75,373.45
270,89.27,376.35,351.15,373.85
272,89.15,376.75,351.65,374.35
274,89.03,377.25,352.25,374.95
276,88.90,377.55,352.75,375.35
278,88.77,377.95,353.25,375.75
280,88.65,378.35,353.85,376.35
282,88.54,378.75,354.35,376.75
284,88.39,379.15,354.85,377.15
286,88.27,379.55,355.55,377.65
288,88.15,379.95,356.05,378.05
290,88.02,380.25,356.55,378.45
292,87.90,380.75,357.15,378.95
294,87.77,381.05,357.65,379.35
296,87.66,381.45,358.15,379.75
298,87.54,381.85,358.85,380.15
300,87.43,382.15,359.45,380.55
302,87.28,382.55,359.95,380.85
304,87.14,382.95,360.65,381.35
306,87.05,383.25,361.15,381.65
308,86.89,383.55,361.65,381.95
310,86.77,383.95,362.35,382.45
312,86.65,384.25,362.85,382.75
314,86.53,384.55,363.35,383.05
316,86.39,384.95,364.15,383.45
318,86.29,385.25,364.65,383.65
320,86.17,385.55,365.25,383.95
322,86.05,385.95,365.95,384.35
324,85.93,386.25,366.55,384.55
326,85.79,386.55,367.15,384.85
328,85.66,386.85,367.95,385.15
330,85.55,387.15,368.55,385.35
332,85.42,387.45,369.25,385.65
334,85.30,387.85,370.05,386.05
336,85.16,388.05,370.85,386.25
338,85.04,388.35,371.55,386.45
340,84.92,388.75,372.65,386.75
342,84.81,388.95,373.25,386.95
344,84.69,389.25,373.95,387.25
346,84.55,389.55,374.75,387.55
348,84.43,389.85,375.35,387.75
350,84.29,390.15,375.85,387.95
352,84.18,390.45,376.55,388.25
354,84.05,390.75,377.05,388.55
356,83.92,391.05,377.45,388.75
358,83.81,391.35,378.05,389.05
360,83.70,391.65,378.45,389.35
362,83.57,391.85,378.75,389.55
364,83.44,392.15,379.25,389.85
366,83.33,392.45,379.55,390.05
368,83.19,392.75,379.85,390.25
370,83.08,393.05,380.15,390.55
372,82.95,393.25,380.35,390.75
374,82.83,393.55,380.65,391.05
376,82.70,393.85,380.85,391.35
378,82.58,394.15,381.15,391.55
380,82.46,394.45,381.35,391.85
382,82.33,394.75,381.65,392.05
384,82.21,395.05,381.75,392.35
386,82.09,395.25,381.95,392.55
388,81.97,395.55,382.25,392.85
390,81.85,395.85,382.45,393.15
392,81.72,396.15,382.55,393.35
394,81.61,396.45,382.85,393.65
396,81.47,396.65,383.05,393.85
398,81.36,396.95,383.25,394.15
400,81.23,397.25,383.55,394.45
402,81.11,397.55,383.75,394.65
404,80.98,397.85,383.95,394.95
406,80.86,398.25,384.15,395.25
408,80.74,398.55,384.35,395.45
410,80.62,398.75,384.55,395.75
412,80.51,399.15,384.85,396.05
414,80.37,399.35,385.05,396.35
416,80.26,399.65,385.25,396.55
418,80.12,400.05,385.55,396.85
420,80.00,400.35,385.75,397.15
422,79.87,400.55,385.95,397.35
424,79.76,400.95,386.15,397.65
426,79.65,401.25,386.35,397.95
428,79.52,401.45,386.65,398.15
430,79.40,401.85,386.85,398.55
432,79.28,402.15,387.15,398.75
434,79.15,402.35,387.35,399.05
436,79.04,402.75,387.65,399.35
438,78.90,403.05,387.85,399.65
440,78.81,403.35,388.05,399.85
442,78.68,403.75,388.35,400.15
444,78.54,403.95,388.55,400.45
446,78.44,404.25,388.75,400.65
448,78.32,404.65,389.05,401.05
450,78.18,404.95,389.35,401.25
452,78.07,405.25,389.55,401.45
454,77.95,405.65,389.85,401.85
456,77.83,405.95,390.05,402.15
458,77.72,406.25,390.25,402.35
460,77.59,406.55,390.55,402.75
462,77.46,406.95,390.75,402.95
464,77.35,407.25,391.05,403.25
466,77.22,407.65,391.25,403.65
468,77.11,407.95,391.55,403.85
470,76.99,408.25,391.75,404.15
472,76.88,408.65,392.05,404.45
474,76.75,408.95,392.25,404.75
476,76.62,409.15,392.45,405.05
478,76.50,409.65,392.75,405.35
480,76.37,409.95,392.95,405.55
482,76.26,410.25,393.15,405.85
484,76.15,410.55,393.45,406.25
486,76.03,410.95,393.75,406.45
488,75.89,411.15,393.95,406.75
490,75.79,411.55,394.25,407.15
492,75.68,411.85,394.45,407.35
494,75.54,412.15,394.65,407.65
496,75.42,412.55,394.85,408.05
498,75.29,412.85,395.15,408.25
500,75.16,413.15,395.35,408.55
502,75.05,413.55,395.65,408.95
504,74.92,413.85,395.85,409.15
506,74.82,414.15,396.05,409.45
508,74.68,414.55,396.35,409.75
510,74.57,414.85,396.55,410.05
512,74.45,415.15,396.75,410.25
514,74.33,415.55,397.05,410.65
516,74.20,415.85,397.25,410.85
518,74.11,416.15,397.45,411.15
520,73.98,416.55,397.75,411.45
522,73.86,416.95,397.95,411.75
524,73.74,417.25,398.15,412.05
526,73.63,417.65,398.45,412.35
528,73.51,417.95,398.65,412.65
530,73.38,418.25,398.85,412.85
532,73.26,418.65,399.15,413.25
534,73.14,419.05,399.45,413.55
536,73.03,419.35,399.65,413.75
538,72.91,419.75,399.85,414.15
540,72.79,420.05,400.15,414.45
542,72.67,420.35,400.35,414.65
544,72.55,420.85,400.65,415.05
546,72.42,421.15,400.85,415.25
548,72.31,421.45,401.05,415.55
550,72.19,421.95,401.35,415.95
552,72.07,422.25,401.55,416.15
554,71.96,422.65,401.85,416.45
556,71.84,423.05,402.05,416.75
558,71.72,423.45,402.25,417.05
560,71.59,423.75,402.55,417.35
562,71.48,424.15,402.85,417.65
564,71.34,424.55,403.05,417.95
566,71.23,424.85,403.25,418.25
568,71.12,425.25,403.55,418.55
570,71.00,425.65,403.75,418.85
572,70.87,425.95,403.95,419.15
574,70.76,426.45,404.25,419.45
576,70.63,426.85,404.55,419.75
578,70.52,427.15,404.75,420.05
580,70.40,427.55,405.05,420.45
582,70.28,427.95,405.25,420.75
584,70.16,428.35,405.45,421.05
586,70.04,428.75,405.75,421.45
588,69.93,429.15,405.95,421.75
590,69.80,429.45,406.25,421.95
592,69.67,429.95,406.55,422.45
594,69.57,430.25,406.75,422.65
596,69.44,430.65,406.95,423.05
598,69.34,431.05,407.25,423.35
600,69.21,431.45,407.45,423.65
602,69.08,431.85,407.75,423.95
604,68.97,432.25,408.05,424.35
606,68.86,432.65,408.25,424.65
608,68.74,433.05,408.45,424.95
610,68.61,433.65,408.85,425.35
612,68.50,434.05,409.05,425.65
614,68.37,434.35,409.25,425.95
616,68.26,434.95,409.55,426.35
618,68.14,435.25,409.85,426.65
620,68.01,435.65,410.05,426.95
622,67.89,436.25,410.35,427.35
624,67.76,436.55,410.55,427.75
626,67.63,436.95,410.85,428.05
628,67.51,437.45,411.15,428.45
630,67.39,437.85,411.45,428.75
632,67.27,438.35,411.65,429.05
634,67.14,438.85,411.95,429.55
636,67.03,439.25,412.15,429.85
638,66.90,439.75,412.45,430.15
640,66.77,440.25,412.75,430.65
642,66.65,440.75,412.95,430.95
644,66.53,441.15,413.25,431.25
646,66.41,441.75,413.55,431.75
648,66.29,442.15,413.85,432.05
650,66.17,442.55,414.05,432.35
652,66.05,443.15,414.45,432.85
654,65.92,443.65,414.65,433.15
656,65.80,444.05,414.95,433.45
658,65.66,444.65,415.25,433.95
660,65.54,445.05,415.55,434.25
662,65.41,445.55,415.75,434.65
664,65.29,446.15,416.15,435.15
666,65.17,446.55,416.35,435.45
668,65.04,447.05,416.65,435.85
670,64.91,447.75,417.05,436.35
672,64.79,448.15,417.25,436.65
674,64.67,448.65,417.55,437.05
676,64.54,449.25,417.95,437.55
678,64.41,449.75,418.25,437.85
680,64.28,450.25,418.45,438.25
682,64.15,450.95,418.85,438.65
684,64.03,451.45,419.15,439.05
686,63.91,451.95,419.45,439.45
688,63.78,452.65,419.85,439.95
690,63.65,453.15,420.15,440.25
692,63.51,453.65,420.35,440.65
694,63.38,454.35,420.85,441.15
696,63.25,454.95,421.15,441.55
698,63.12,455.45,421.45,441.95
700,62.99,456.15,421.85,442.55
702,62.86,456.75,422.15,442.95
704,62.73,457.25,422.45,443.35
706,62.59,457.95,422.95,443.95
708,62.48,458.55,423.25,444.35
710,62.33,459.05,423.55,444.75
712,62.21,459.85,424.05,445.35
714,62.08,460.35,424.35,445.75
716,61.94,460.95,424.65,446.15
718,61.81,461.65,425.15,446.75
720,61.67,462.25,425.45,447.15
722,61.53,462.85,425.75,447.65
724,61.40,463.55,426.25,448.15
726,61.27,464.15,426.55,448.65
728,61.15,464.75,426.95,449.05
730,61.01,465.55,427.35,449.65
732,60.88,466.15,427.75,450.05
734,60.75,466.75,428.05,450.55
736,60.60,467.55,428.55,451.15
738,60.47,468.25,428.95,451.65
740,60.35,468.75,429.35,452.15
742,60.21,469.55,429.75,452.75
744,60.07,470.25,430.15,453.25
746,59.94,470.85,430.55,453.75
748,59.80,471.65,431.05,454.35
750,59.67,472.25,431.35,454.85
752,59.53,472.95,431.75,455.35
754,59.40,473.75,432.25,456.05
756,59.27,474.45,432.65,456.55
758,59.16,475.05,433.05,457.05
760,58.99,475.95,433.55,457.75
762,58.86,476.55,433.95,458.25
764,58.72,477.25,434.35,458.75
766,58.61,478.15,434.95,459.45
768,58.46,478.85,435.35,460.05
770,58.32,479.45,435.75,460.55
772,58.19,480.35,436.35,461.25
774,58.05,481.05,436.75,461.75
776,57.92,481.65,437.15,462.35
778,57.79,482.55,437.75,463.15
780,57.65,483.25,438.15,463.65
782,57.52,483.95,438.65,464.25
784,57.38,484.85,439.25,464.95
786,57.25,485.55,439.65,465.55
788,57.11,486.25,440.15,466.15
790,56.96,487.25,440.65,466.85
792,56.83,487.85,441.15,467.45
794,56.71,488.65,441.65,468.05
796,56.55,489.55,442.25,468.85
798,56.43,490.25,442.75,469.45
800,56.29,490.95,443.25,470.05
802,56.15,491.95,443.85,470.85
804,56.02,492.65,444.35,471.45
806,55.88,493.35,444.85,472.05
808,55.74,494.25,445.55,472.85
810,55.61,494.95,445.95,473.45
812,55.48,495.75,446.45,474.05
814,55.33,496.75,447.15,474.85
816,55.19,497.45,447.75,475.55
818,55.05,498.25,448.25,476.15
820,54.92,499.25,448.95,477.05
822,54.78,499.95,449.45,477.65
824,54.65,500.65,449.95,478.25
826,54.51,501.65,450.75,479.15
828,54.37,502.35,451.25,479.85
830,54.24,503.05,451.85,480.45
832,54.10,504.05,452.55,481.35
834,53.97,504.85,453.15,482.05
836,53.84,505.55,453.75,482.65
838,53.69,506.55,454.45,483.55
840,53.55,507.35,455.05,484.25
842,53.42,508.15,455.65,484.95
844,53.28,509.15,456.45,485.85
846,53.16,509.85,457.05,486.45
848,53.02,510.55,457.65,487.15
850,52.87,511.65,458.45,488.05
852,52.74,512.45,459.05,488.75
854,52.60,513.15,459.75,489.35
856,52.47,514.15,460.55,490.35
858,52.33,514.85,461.15,490.95
860,52.19,515.65,461.85,491.65
862,52.05,516.65,462.65,492.55
864,51.91,517.35,463.35,493.25
866,51.78,518.05,463.95,493.95
868,51.64,519.15,464.85,494.85
870,51.50,519.85,465.55,495.55
872,51.37,520.65,466.25,496.25
874,51.24,521.55,467.05,497.15
876,51.10,522.35,467.75,497.85
878,50.95,523.05,468.45,498.45
880,50.83,524.05,469.35,499.45
882,50.69,524.85,470.05,500.15
884,50.54,525.55,470.75,500.85
886,50.40,526.55,471.75,501.65
888,50.27,527.25,472.45,502.35
890,50.13,527.95,473.15,503.05
892,49.99,528.95,474.05,503.95
894,49.85,529.65,474.75,504.75
896,49.72,530.35,475.45,505.35
898,49.58,531.35,476.45,506.35
900,49.44,532.05,477.15,507.05
902,49.31,532.75,477.95,507.75
904,49.18,533.75,478.85,508.65
906,49.03,534.45,479.65,509.35
908,48.89,535.15,480.35,509.95
910,48.75,536.05,481.35,510.95
912,48.62,536.85,482.15,511.55
914,48.48,537.55,482.85,512.25
916,48.35,538.45,483.95,513.15
918,48.20,539.15,484.65,513.85
920,48.07,539.85,485.45,514.55
922,47.92,540.85,486.45,515.55
924,47.78,541.45,487.25,516.15
926,47.64,542.15,488.05,516.95
928,47.51,543.15,489.05,517.85
930,47.37,543.85,489.85,518.45
932,47.22,544.55,490.65,519.15
934,47.09,545.45,491.75,520.15
936,46.96,546.25,492.55,520.85
938,46.82,546.95,493.35,521.45
940,46.68,547.85,494.35,522.45
942,46.54,548.55,495.15,523.15
944,46.39,549.25,495.95,523.85
946,46.26,550.25,497.05,524.75
948,46.12,550.95,497.85,525.45
950,45.98,551.75,498.65,526.15
952,45.84,552.65,499.75,527.15
954,45.71,553.45,500.55,527.85
956,45.57,554.05,501.35,528.55
958,45.42,555.05,502.35,529.45
960,45.28,555.75,503.15,530.15
962,45.15,556.45,503.95,530.95
964,45.01,557.45,505.05,531.85
966,44.87,558.15,505.85,532.55
968,44.74,558.85,506.65,533.35
970,44.59,559.85,507.75,534.25
972,44.45,560.55,508.55,535.05
974,44.31,561.35,509.35,535.75
976,44.17,562.25,510.35,536.65
978,44.02,563.05,511.15,537.45
980,43.89,563.75,511.95,538.15
982,43.76,564.75,512.95,539.05
984,43.62,565.35,513.75,539.85
986,43.48,566.15,514.55,540.55
988,43.35,567.05,515.55,541.55
990,43.20,567.85,516.35,542.25
992,43.06,568.55,517.15,542.95
994,42.92,569.55,518.15,543.95
996,42.77,570.25,518.95,544.75
998,42.63,570.95,519.75,545.45
1000,42.50,571.95,520.75,546.45
1002,42.35,572.65,521.45,547.25
1004,42.21,573.35,522.25,547.95
1006,42.07,574.35,523.25,548.95
1008,41.93,575.15,523.95,549.65
1010,41.78,575.85,524.75,550.45
1012,41.65,576.85,525.75,551.55
1014,41.52,577.55,526.55,552.25
1016,41.37,578.35,527.35,553.05
1018,41.23,579.35,528.35,554.05
1020,41.09,580.05,529.05,554.85
1022,40.94,580.85,529.85,555.65
1024,40.80,581.85,530.85,556.65
1026,40.65,582.55,531.55,557.45
1028,40.52,583.35,532.35,558.25
1030,40.38,584.35,533.35,559.35
1032,40.24,585.15,534.15,560.15
1034,40.09,585.85,534.95,560.85
1036,39.95,586.85,535.95,561.95
1038,39.81,587.55,536.75,562.75
1040,39.66,588.35,537.55,563.55
1042,39.52,589.35,538.65,564.55
1044,39.38,590.15,539.45,565.35
1046,39.25,590.85,540.25,566.15
1048,39.10,591.85,541.25,567.25
1050,38.95,592.65,542.05,568.05
1052,38.81,593.35,542.85,568.85
1054,38.67,594.35,543.95,569.95
1056,38.53,595.05,544.75,570.75
1058,38.39,595.85,545.55,571.55
1060,38.30,596.95,546.55,572.55
1062,38.16,597.65,547.25,573.35
1064,38.01,598.35,547.95,574.25
1066,37.87,599.35,548.85,575.35
1068,37.74,600.05,549.65,576.15
1070,37.60,600.85,550.35,576.95
1072,37.46,601.75,551.35,578.15
1074,37.32,602.55,552.05,578.95
1076,37.19,603.25,552.75,579.85
1078,37.04,604.15,553.75,580.95
1080,36.87,604.95,554.55,581.85
1082,36.74,605.65,555.25,582.65
1084,36.60,606.55,556.25,583.85
1086,36.46,607.35,557.05,584.65
1088,36.32,608.05,557.85,585.45
1090,36.18,608.95,559.05,586.65
1092,36.03,609.75,559.85,587.45
1094,35.89,610.55,560.75,588.35
1096,35.75,611.65,561.95,589.45
1098,35.61,612.45,562.85,590.35
1100,35.48,613.15,563.85,591.25
1102,35.33,614.25,565.05,592.45
1104,35.20,614.95,565.95,593.25
1106,35.05,615.75,566.95,594.25
1108,34.91,616.75,568.15,595.35
1110,34.78,617.45,569.05,596.25
1112,34.63,618.25,569.95,597.15
1114,34.49,619.25,571.15,598.35
1116,34.36,620.05,572.05,599.25
1118,34.21,620.85,573.05,600.15
1120,34.07,621.85,574.35,601.35
1122,33.91,622.65,575.25,602.25
1124,33.78,623.35,576.35,603.15
1126,33.64,624.45,577.65,604.35
1128,33.49,625.25,578.65,605.25
1130,33.35,625.95,579.65,606.15
1132,33.22,626.95,581.05,607.35
1134,33.07,627.65,582.05,608.25
1136,32.92,628.45,583.05,609.15
1138,32.79,629.45,584.45,610.35
1140,32.65,630.25,585.55,611.25
1142,32.51,630.95,586.55,612.05
1144,32.38,631.85,587.85,613.15
1146,32.24,632.55,588.95,614.05
1148,32.10,633.35,589.95,614.95
1150,31.97,634.25,591.35,616.05
1152,31.82,634.95,592.35,616.85
1154,31.68,635.65,593.35,617.75
1156,31.55,636.65,594.75,618.85
1158,31.40,637.35,595.75,619.65
1160,31.26,638.05,596.85,620.55
1162,31.12,638.95,598.25,621.65
1164,30.98,639.75,599.25,622.45
1166,30.86,640.55,600.35,623.35
1168,30.73,641.65,601.65,624.45
1170,30.60,642.35,602.75,625.35
1172,30.46,642.95,603.75,626.15
1174,30.32,643.95,605.15,627.35
1176,30.20,644.55,606.25,628.25
1178,30.06,645.25,607.35,629.05
1180,29.91,646.15,608.75,630.25
1182,29.79,646.95,609.85,631.05
1184,29.65,647.65,610.95,631.85
1186,29.52,648.65,612.45,632.95
1188,29.40,649.45,613.55,633.75
1190,29.26,650.15,614.65,634.55
1192,29.13,651.15,616.15,635.55
1194,29.00,651.95,617.25,636.35
1196,28.89,652.65,618.35,637.05
1198,28.76,653.65,619.85,638.05
1200,28.64,654.35,620.95,638.85
1202,28.51,655.05,621.95,639.55
1204,28.40,655.95,623.25,640.55
1206,28.29,656.55,624.25,641.25
1208,28.14,657.35,625.15,641.95
1210,28.02,658.45,626.35,642.85
1212,27.90,659.25,627.35,643.65
1214,27.78,660.15,628.25,644.35
1216,27.66,661.35,629.55,645.35
1218,27.53,662.35,630.45,646.05
1220,27.45,663.35,631.35,646.85
1222,27.31,664.65,632.65,647.95
1224,27.20,665.75,633.65,648.75
1226,27.09,666.95,634.55,649.55
1228,26.98,668.65,635.75,650.55
1230,26.86,670.05,636.65,651.45
1232,26.76,671.45,637.55,652.55
1234,26.64,673.25,640.85,653.65
1236,26.54,674.25,643.95,654.85
1238,26.44,675.55,645.05,655.95
1240,26.32,677.05,646.15,657.35
1242,26.23,678.35,646.75,658.45
1244,26.16,680.05,647.35,659.45
1246,26.07,685.05,649.35,660.95
1248,25.96,690.65,650.85,662.15
1250,25.87,692.75,652.15,663.35
1252,25.78,695.15,654.25,665.05
1254,25.65,696.85,655.35,666.35
1256,25.62,699.25,656.95,667.65
1258,25.53,701.65,658.25,669.55
1260,25.44,703.45,657.35,671.05
1262,25.35,706.15,657.35,672.45
1264,25.27,708.65,657.95,674.45
1266,25.19,710.15,659.95,676.05
1268,25.11,711.55,662.85,677.75
1270,25.05,713.25,666.65,680.25
1272,24.97,714.45,666.95,682.25
1274,24.89,715.75,664.35,684.45
1276,24.83,718.35,662.95,687.85
1278,24.74,719.65,662.85,690.35
1280,24.65,720.95,663.25,692.95
1282,24.58,722.45,663.85,696.45
1284,24.49,724.25,664.45,699.15
1286,24.41,726.55,665.35,702.05
1288,24.40,728.45,666.95,706.05
1290,24.30,723.25,667.65,709.05
1292,24.20,724.15,668.65,712.15
1294,24.15,726.35,670.35,716.35
1296,24.07,728.05,671.75,719.45
1298,24.00,729.85,673.35,722.65
1300,23.93,732.05,675.65,726.85
1302,23.88,734.45,677.75,730.15
1304,23.84,737.55,680.15,733.45
1306,23.90,743.15,682.65,738.25
1308,23.83,736.15,684.35,741.15
1310,23.77,735.75,686.95,744.05
1312,23.69,736.85,690.95,747.55
1314,23.63,736.75,694.25,750.05
1316,23.69,736.45,697.25,751.95
1318,23.65,737.15,701.55,753.85
1320,23.62,738.05,705.25,755.25
1322,23.57,738.95,709.25,756.55
1324,23.50,740.15,715.25,758.15
1326,23.45,741.05,720.05,759.35
1328,23.38,741.85,725.35,760.45
1330,23.31,742.95,732.95,761.95
1332,23.29,743.55,738.95,762.95
1334,23.26,744.55,745.15,763.95
1336,23.25,745.95,753.25,764.75
1338,23.21,747.05,759.05,765.35
1340,23.18,748.05,764.05,766.05
1342,23.16,749.35,768.75,766.85
1344,23.12,750.25,770.65,767.55
1346,23.09,751.15,771.75,768.15
1348,23.07,752.25,772.15,768.95
1350,23.05,753.05,772.25,769.65
1352,23.03,753.75,772.15,770.15
1354,23.00,754.75,772.05,770.85
1356,22.98,755.55,771.95,771.45
1358,22.98,756.15,772.05,772.05
1360,22.95,756.95,771.95,772.75
1362,22.93,757.55,771.95,773.25
1364,22.93,758.15,772.05,773.75
1366,22.89,758.85,772.15,774.45
1368,22.89,759.35,772.35,774.95
1370,22.88,759.95,772.55,775.45
1372,22.86,760.65,772.85,776.15
1374,22.85,761.75,773.05,776.75
1376,22.84,762.75,773.35,777.15
1378,22.80,763.85,773.75,777.85
1380,22.79,764.65,774.05,778.35
1382,22.77,765.45,774.45,778.95
1384,22.77,766.65,774.85,779.55
1386,22.74,767.65,775.15,779.95
1388,22.74,768.45,775.55,780.45
1390,22.73,769.45,775.95,781.05
1392,22.71,770.35,776.35,781.55
1394,22.70,771.15,776.75,782.05
1396,22.68,772.15,777.35,782.75
1398,22.67,772.85,777.85,783.25
1400,22.66,773.55,778.25,783.65
1402,22.65,774.55,778.75,784.25
1404,22.63,775.25,779.25,784.75
1406,22.62,775.95,779.65,785.15
1408,22.60,776.75,780.25,785.85
1410,22.60,777.55,780.65,786.25
1412,22.59,778.15,781.15,786.65
1414,22.58,779.15,781.75,787.35
1416,22.56,779.85,782.25,787.85
1418,22.55,780.45,782.65,788.25
1420,22.54,781.25,783.35,788.95
1422,22.53,781.95,783.75,789.25
1424,22.52,782.55,784.15,789.75
1426,22.51,783.25,784.75,790.25
1428,22.50,783.85,785.25,790.65
1430,22.50,784.35,785.65,791.05
1432,22.48,785.05,786.25,791.65
1434,22.48,785.65,786.65,792.05
1436,22.46,786.15,787.15,792.45
1438,22.45,786.85,787.65,792.95
1440,22.45,787.35,788.15,793.35
1442,22.43,787.85,788.55,793.75
1444,22.43,788.45,789.15,794.25
1446,22.41,788.95,789.55,794.65
1448,22.40,789.45,790.05,795.05
1450,22.39,790.05,790.65,795.55
1452,22.38,790.55,791.05,795.95
1454,22.38,791.05,791.45,796.35
1456,22.37,791.65,792.05,796.85
1458,22.36,792.15,792.45,797.15
1460,22.34,792.65,792.85,797.55
1462,22.33,793.35,793.45,797.95
1464,22.34,793.75,793.85,798.35
1466,22.32,794.25,794.25,798.65
1468,22.32,794.95,794.75,799.15
1470,22.32,795.35,795.15,799.45
1472,22.31,795.75,795.55,799.75
1474,22.29,796.35,796.05,800.15
1476,22.28,796.75,796.35,800.55
1478,22.27,797.25,796.75,800.85
1480,22.25,797.95,797.35,801.35
1482,22.26,798.35,797.75,801.65
1484,22.25,798.75,798.05,801.95
1486,22.25,799.35,798.55,802.35
1488,22.24,799.65,798.85,802.65
1490,22.22,800.05,799.25,802.95
1492,22.23,800.65,799.75,803.35
1494,22.21,800.95,800.05,803.65
1496,22.21,801.35,800.35,803.95
1498,22.21,801.85,800.85,804.35
1500,22.20,802.15,801.15,804.65
1502,22.20,802.55,801.45,804.95
1504,22.19,803.05,801.85,805.35
1506,22.17,803.45,802.25,805.65
1508,22.16,803.85,802.55,805.95
1510,22.16,804.35,803.05,806.25
1512,22.16,804.65,803.25,806.45
1514,22.16,805.05,803.65,806.75
1516,22.15,805.45,803.95,807.05
1518,22.14,805.75,804.25,807.35
1520,22.14,806.05,804.55,807.55
1522,22.12,806.35,804.95,807.95
1524,22.12,806.55,805.25,808.15
1526,22.11,806.95,805.55,808.45
1528,22.10,807.35,805.95,808.75
1530,22.10,807.65,806.25,808.85
1532,22.07,807.85,806.45,809.15
1534,22.08,808.25,806.85,809.35
1536,22.08,808.45,807.05,809.65
1538,22.08,808.65,807.35,809.75
1540,22.07,809.05,807.65,810.05
1542,22.05,809.35,807.95,810.35
1544,22.05,809.55,808.15,810.55
1546,22.04,809.95,808.45,810.85
1548,22.04,810.15,808.75,811.05
1550,22.03,810.35,808.95,811.25
1552,22.02,810.75,809.25,811.55
1554,22.02,810.95,809.55,811.75
1556,22.00,811.25,809.75,812.05
1558,22.00,811.65,810.15,812.25
1560,22.00,811.85,810.35,812.45
1562,21.99,812.05,810.55,812.65
1564,21.99,812.45,810.95,812.95
1566,21.99,812.75,811.15,813.15
1568,21.99,812.95,811.35,813.35
1570,21.97,813.25,811.65,813.65
1572,21.97,813.55,811.95,813.85
1574,21.97,813.85,812.15,814.05
1576,21.96,814.15,812.45,814.35
1578,21.96,814.45,812.65,814.45
1580,21.94,814.55,812.85,814.65
1582,21.94,814.85,813.15,814.85
1584,21.93,815.05,813.35,815.05
1586,21.93,815.35,813.55,815.25
1588,21.93,815.55,813.85,815.55
1590,21.93,815.85,814.05,815.65
1592,21.93,816.05,814.25,815.85
1593,21.93,816.15,814.35,815.95