File: Wood/Calibration_Data/TIFP+UCT/TIFP+UCT_STA_N2_20K_R2.csv
Time (s),Temperature (K),Mass (mg),Heat Flow Rate (W/g)
0,303.147,5.112,-0.0015
2,303.1467,5.1109,-0.0013
4,303.147,5.1109,-0.0014
6,303.151,5.1099,-0.0013
8,303.149,5.1104,-0.0014
10,303.1487,5.1108,-0.0016
12,303.146,5.1113,-0.0013
14,303.149,5.1109,-0.0014
16,303.148,5.1118,-0.0013
18,303.152,5.1113,-0.0013
20,303.152,5.1116,-0.0011
22,303.1517,5.1117,-0.0013
24,303.152,5.1113,-0.0013
26,303.153,5.112,-0.0014
28,303.153,5.1111,-0.0014
30,303.158,5.1107,-0.0015
32,303.1533,5.1108,-0.0013
34,303.154,5.1102,-0.0012
36,303.157,5.1107,-0.0012
38,303.1563,5.1092,-0.0013
40,303.1583,5.1101,-0.0013
42,303.157,5.1106,-0.0014
44,303.1597,5.1105,-0.0014
46,303.1603,5.11,-0.0015
48,303.161,5.1094,-0.0015
50,303.164,5.1095,-0.0015
52,303.1623,5.11,-0.0014
54,303.162,5.1104,-0.0015
56,303.164,5.1107,-0.0014
58,303.164,5.1097,-0.0016
60,303.166,5.11,-0.0015
62,303.1643,5.1103,-0.0016
64,303.1647,5.1103,-0.0017
66,303.166,5.1097,-0.0017
68,303.166,5.1103,-0.0016
70,303.1673,5.1094,-0.0015
72,303.167,5.1093,-0.0015
74,303.1683,5.1098,-0.0017
76,303.1693,5.109,-0.0016
78,303.167,5.1087,-0.0016
80,303.1707,5.109,-0.0018
82,303.173,5.1103,-0.0017
84,303.173,5.109,-0.0019
86,303.171,5.1089,-0.002
88,303.1697,5.1086,-0.0018
90,303.172,5.1088,-0.0017
92,303.1697,5.1078,-0.0018
94,303.1717,5.1088,-0.0016
96,303.173,5.1088,-0.0017
98,303.172,5.1088,-0.0018
100,303.1727,5.1074,-0.0019
102,303.173,5.1081,-0.0021
104,303.173,5.1079,-0.002
106,303.1733,5.1091,-0.0019
108,303.172,5.109,-0.0019
110,303.1727,5.1094,-0.0018
112,303.1747,5.1102,-0.0019
114,303.176,5.109,-0.0018
116,303.1763,5.1094,-0.0018
118,303.174,5.1088,-0.0019
120,303.176,5.109,-0.0021
122,303.1743,5.109,-0.0019
124,303.175,5.1085,-0.0018
126,303.175,5.109,-0.0017
128,303.175,5.1083,-0.0017
130,303.176,5.1085,-0.0019
132,303.176,5.109,-0.0019
134,303.1767,5.109,-0.0019
136,303.1753,5.1089,-0.0019
138,303.176,5.1077,-0.0016
140,303.1783,5.1085,-0.0016
142,303.1767,5.1079,-0.0017
144,303.175,5.109,-0.0018
146,303.179,5.1086,-0.0019
148,303.1757,5.1083,-0.0017
150,303.177,5.1076,-0.0017
152,303.1763,5.109,-0.0016
154,303.1733,5.1076,-0.0015
156,303.177,5.1076,-0.0016
158,303.1757,5.1077,-0.0017
160,303.1723,5.1081,-0.0017
162,303.177,5.1087,-0.0015
164,303.1743,5.1089,-0.0015
166,303.1743,5.1082,-0.0015
168,303.173,5.109,-0.0015
170,303.176,5.1083,-0.0014
172,303.1743,5.1085,-0.0015
174,303.175,5.1076,-0.0014
176,303.1733,5.1076,-0.0015
178,303.1717,5.1076,-0.0016
180,303.17,5.109,-0.0015
182,303.172,5.1078,-0.0014
184,303.1707,5.1085,-0.0013
186,303.171,5.1077,-0.0014
188,303.171,5.1077,-0.0014
190,303.1687,5.1077,-0.0014
192,303.169,5.1083,-0.0011
194,303.1703,5.1077,-0.0012
196,303.17,5.109,-0.0014
198,303.167,5.109,-0.0013
200,303.1667,5.1085,-0.0013
202,303.1687,5.1076,-0.0014
204,303.165,5.109,-0.0014
206,303.165,5.108,-0.0014
208,303.1663,5.109,-0.0015
210,303.165,5.1079,-0.0013
212,303.1653,5.1082,-0.0012
214,303.1647,5.1075,-0.0011
216,303.162,5.1075,-0.0011
218,303.163,5.1075,-0.0012
220,303.165,5.1066,-0.0013
222,303.165,5.1075,-0.0014
224,303.1627,5.1076,-0.0012
226,303.1607,5.1067,-0.0014
228,303.163,5.1073,-0.0013
230,303.1627,5.1064,-0.0013
232,303.1647,5.1072,-0.0014
234,303.161,5.1063,-0.0015
236,303.16,5.1073,-0.0013
238,303.161,5.1073,-0.0014
240,303.161,5.1077,-0.0015
242,303.1617,5.1074,-0.0014
244,303.1613,5.1063,-0.0015
246,303.161,5.1077,-0.0015
248,303.1607,5.1072,-0.0015
250,303.1607,5.1063,-0.0013
252,303.16,5.1056,-0.0015
254,303.16,5.105,-0.0015
256,303.1623,5.1059,-0.0012
258,303.159,5.105,-0.0014
260,303.1623,5.1062,-0.0015
262,303.163,5.105,-0.0015
264,303.161,5.106,-0.0016
266,303.1637,5.1063,-0.0015
268,303.1627,5.1054,-0.0015
270,303.164,5.1063,-0.0014
272,303.1637,5.1063,-0.0015
274,303.1627,5.1056,-0.0015
276,303.163,5.1063,-0.0016
278,303.1633,5.1063,-0.0016
280,303.1607,5.1064,-0.0015
282,303.161,5.1063,-0.0014
284,303.1597,5.1063,-0.0016
286,303.1627,5.1052,-0.0017
288,303.162,5.1063,-0.0015
290,303.162,5.1054,-0.0015
292,303.162,5.1051,-0.0016
294,303.159,5.105,-0.0016
296,303.1607,5.1051,-0.0016
298,303.161,5.105,-0.0016
300,303.161,5.1059,-0.0016
302,303.1615,5.1063,-0.0015
304,303.1605,5.105,-0.0017
306,303.1602,5.105,-0.0017
308,303.1645,5.106,-0.0016
310,303.1682,5.1054,-0.0019
312,303.1758,5.1049,-0.0021
314,303.1865,5.106,-0.0025
316,303.2022,5.1066,-0.0023
318,303.2252,5.1067,-0.0029
320,303.253,5.1063,-0.0031
322,303.291,5.1067,-0.004
324,303.3352,5.106,-0.0046
326,303.3925,5.1047,-0.0053
328,303.4577,5.1049,-0.0064
330,303.5388,5.1048,-0.0081
332,303.633,5.105,-0.0099
334,303.7363,5.1076,-0.0118
336,303.8598,5.1066,-0.0146
338,304.001,5.1051,-0.0175
340,304.1518,5.1052,-0.0211
342,304.3277,5.1065,-0.0247
344,304.519,5.1051,-0.0289
346,304.7322,5.1054,-0.0336
348,304.963,5.1054,-0.0391
350,305.2185,5.1055,-0.0447
352,305.4949,5.1062,-0.051
354,305.7914,5.1068,-0.0573
356,306.115,5.1055,-0.0646
358,306.461,5.1061,-0.0719
360,306.829,5.1055,-0.0797
362,307.2255,5.106,-0.088
364,307.644,5.1058,-0.0963
366,308.0897,5.1067,-0.1054
368,308.5605,5.1066,-0.1146
370,309.0557,5.1064,-0.1239
372,309.5774,5.1059,-0.1333
374,310.1251,5.1051,-0.1432
376,310.6939,5.1033,-0.1528
378,311.2919,5.1053,-0.1631
380,311.9141,5.1045,-0.173
382,312.5609,5.1046,-0.1836
384,313.2311,5.1049,-0.1939
386,313.9246,5.1054,-0.2043
388,314.6404,5.105,-0.2146
390,315.3801,5.1054,-0.225
392,316.1381,5.1048,-0.2354
394,316.9212,5.1058,-0.246
396,317.7217,5.1057,-0.2562
398,318.5431,5.1054,-0.2664
400,319.3834,5.1047,-0.2769
402,320.2421,5.105,-0.2868
404,321.1176,5.1046,-0.2967
406,322.0084,5.1061,-0.3063
408,322.9163,5.1048,-0.3159
410,323.8331,5.1049,-0.3246
412,324.7684,5.1054,-0.3339
414,325.7173,5.1051,-0.3427
416,326.6746,5.1045,-0.3507
418,327.6444,5.1035,-0.3586
420,328.6219,5.1029,-0.3666
422,329.6131,5.1032,-0.3739
424,330.6104,5.1035,-0.3808
426,331.6166,5.1031,-0.3869
428,332.6251,5.1039,-0.3938
430,333.6424,5.1046,-0.3995
432,334.6646,5.1038,-0.4046
434,335.6911,5.103,-0.4102
436,336.7199,5.1032,-0.4145
438,337.7511,5.1032,-0.4184
440,338.7836,5.1021,-0.4227
442,339.8168,5.1032,-0.4257
444,340.8519,5.1043,-0.43
446,341.8881,5.1041,-0.4326
448,342.9171,5.1036,-0.4355
450,343.9513,5.1036,-0.4381
452,344.9781,5.1023,-0.4402
454,346.0041,5.1015,-0.4423
456,347.0264,5.1018,-0.4443
458,348.0476,5.1015,-0.4463
460,349.0624,5.1011,-0.4475
462,350.0719,5.1007,-0.4492
464,351.0756,5.0994,-0.4502
466,352.0749,5.0999,-0.4512
468,353.0673,5.1005,-0.4523
470,354.0556,5.0998,-0.4527
472,355.0336,5.0991,-0.4529
474,356.0084,5.0991,-0.4529
476,356.9746,5.0988,-0.4524
478,357.9328,5.0981,-0.4521
480,358.8819,5.0979,-0.4509
482,359.8256,5.0967,-0.4499
484,360.7586,5.0963,-0.448
486,361.6839,5.0954,-0.4458
488,362.6051,5.0954,-0.4434
490,363.5163,5.0953,-0.4406
492,364.4159,5.094,-0.4373
494,365.3101,5.0937,-0.4337
496,366.1936,5.094,-0.4296
498,367.0691,5.094,-0.4253
500,367.9371,5.0937,-0.4206
502,368.7974,5.0927,-0.4154
504,369.6478,5.092,-0.4097
506,370.4881,5.0918,-0.4037
508,371.3246,5.0911,-0.3978
510,372.1487,5.0896,-0.3912
512,372.9681,5.0897,-0.3844
514,373.7782,5.0902,-0.3775
516,374.5812,5.0895,-0.3703
518,375.3751,5.0888,-0.3631
520,376.1634,5.089,-0.3557
522,376.9417,5.0894,-0.3479
524,377.7156,5.0879,-0.34
526,378.4807,5.0876,-0.3321
528,379.2422,5.0875,-0.3241
530,379.9916,5.0861,-0.3162
532,380.7387,5.0861,-0.3082
534,381.4787,5.0875,-0.3003
536,382.2121,5.0861,-0.2927
538,382.9404,5.0861,-0.2847
540,383.6627,5.0876,-0.2774
542,384.3796,5.0874,-0.2699
544,385.0921,5.0861,-0.2624
546,385.7994,5.0865,-0.2551
548,386.5006,5.0861,-0.2483
550,387.1986,5.0861,-0.2416
552,387.8907,5.0848,-0.2355
554,388.5806,5.0857,-0.2292
556,389.2671,5.0847,-0.2231
558,389.9489,5.0851,-0.2172
560,390.6276,5.0847,-0.2114
562,391.3019,5.0861,-0.206
564,391.9771,5.0847,-0.2005
566,392.6441,5.0857,-0.1955
568,393.3119,5.0847,-0.1905
570,393.9786,5.0847,-0.1857
572,394.6376,5.0837,-0.1813
574,395.2966,5.0834,-0.177
576,395.9572,5.0847,-0.1728
578,396.6116,5.0847,-0.1688
580,397.2682,5.0834,-0.1647
582,397.9214,5.0834,-0.1611
584,398.5721,5.0844,-0.1579
586,399.2251,5.0844,-0.1542
588,399.8742,5.0834,-0.1511
590,400.5246,5.0831,-0.1481
592,401.1709,5.0831,-0.1451
594,401.8231,5.0834,-0.1422
596,402.4706,5.0834,-0.1396
598,403.1179,5.0834,-0.1368
600,403.7656,5.0834,-0.1343
602,404.4146,5.0827,-0.1323
604,405.0614,5.0821,-0.1299
606,405.7092,5.0821,-0.1277
608,406.3591,5.0821,-0.1253
610,407.0049,5.0831,-0.1234
612,407.6562,5.0821,-0.1216
614,408.3061,5.0817,-0.1197
616,408.9559,5.0817,-0.1178
618,409.6049,5.0818,-0.1159
620,410.2561,5.0807,-0.1146
622,410.9094,5.0817,-0.1128
624,411.5632,5.0817,-0.1111
626,412.2181,5.0817,-0.1098
628,412.8726,5.0807,-0.1077
630,413.5284,5.082,-0.1062
632,414.1856,5.082,-0.1047
634,414.8431,5.082,-0.1035
636,415.5027,5.0797,-0.1024
638,416.1616,5.0797,-0.1011
640,416.8237,5.0808,-0.0998
642,417.4872,5.0804,-0.0992
644,418.1481,5.081,-0.0983
646,418.8127,5.081,-0.0972
648,419.4776,5.0797,-0.0962
650,420.1436,5.0795,-0.0953
652,420.8116,5.0784,-0.0946
654,421.4777,5.0797,-0.0936
656,422.1481,5.0784,-0.0929
658,422.8169,5.0784,-0.0925
660,423.4881,5.077,-0.0919
662,424.1601,5.0784,-0.0915
664,424.8316,5.077,-0.091
666,425.5036,5.077,-0.0906
668,426.1776,5.0757,-0.0904
670,426.8537,5.0767,-0.0903
672,427.5281,5.077,-0.0902
674,428.2051,5.076,-0.0897
676,428.8817,5.0763,-0.0893
678,429.5557,5.0757,-0.0892
680,430.2351,5.0757,-0.0884
682,430.9132,5.0757,-0.0877
684,431.5916,5.0746,-0.0878
686,432.2711,5.0757,-0.0874
688,432.9497,5.0757,-0.087
690,433.6262,5.0754,-0.0866
692,434.3076,5.0743,-0.0861
694,434.9872,5.0743,-0.0859
696,435.6672,5.0734,-0.0851
698,436.3466,5.073,-0.0851
700,437.0252,5.073,-0.0843
702,437.7061,5.0717,-0.0837
704,438.3861,5.0717,-0.0833
706,439.0652,5.0721,-0.0824
708,439.7461,5.073,-0.082
710,440.4266,5.0718,-0.0814
712,441.1042,5.0703,-0.0808
714,441.7847,5.069,-0.0801
716,442.4606,5.069,-0.0792
718,443.1422,5.069,-0.0788
720,443.8204,5.0703,-0.0777
722,444.4986,5.0703,-0.0769
724,445.1767,5.0682,-0.0762
726,445.8522,5.0676,-0.0755
728,446.5286,5.0676,-0.0743
730,447.2052,5.0676,-0.0734
732,447.8794,5.0676,-0.0726
734,448.5556,5.0663,-0.0712
736,449.2307,5.0649,-0.0706
738,449.9041,5.0649,-0.0698
740,450.5771,5.0649,-0.069
742,451.2507,5.0649,-0.0683
744,451.9259,5.0649,-0.0677
746,452.5946,5.0639,-0.0668
748,453.2687,5.0636,-0.0662
750,453.9409,5.0636,-0.0652
752,454.6126,5.0623,-0.0644
754,455.2836,5.0609,-0.0641
756,455.9517,5.0604,-0.0636
758,456.6206,5.0596,-0.0633
760,457.2887,5.0596,-0.0632
762,457.9554,5.0582,-0.0637
764,458.6236,5.0579,-0.0645
766,459.2926,5.0566,-0.0666
768,459.9564,5.0566,-0.0677
770,460.6241,5.0556,-0.0674
772,461.2894,5.0542,-0.0654
774,461.9532,5.0542,-0.0626
776,462.6161,5.0542,-0.0601
778,463.2799,5.0515,-0.0577
780,463.9427,5.0503,-0.0556
782,464.6071,5.0502,-0.0536
784,465.2687,5.0497,-0.0517
786,465.9286,5.0488,-0.0498
788,466.5901,5.0475,-0.048
790,467.2507,5.0462,-0.0462
792,467.9126,5.0448,-0.0446
794,468.5741,5.0448,-0.0433
796,469.2331,5.0435,-0.0418
798,469.8916,5.0419,-0.0405
800,470.5496,5.0407,-0.0395
802,471.2094,5.0392,-0.0379
804,471.8669,5.0379,-0.0368
806,472.5256,5.0367,-0.0356
808,473.1839,5.0365,-0.0342
810,473.8419,5.0338,-0.033
812,474.4991,5.0322,-0.0317
814,475.1567,5.0309,-0.0308
816,475.8142,5.0295,-0.0294
818,476.4706,5.0286,-0.0284
820,477.1277,5.0279,-0.0272
822,477.7829,5.0262,-0.0263
824,478.4396,5.0237,-0.0249
826,479.0954,5.0224,-0.0239
828,479.7517,5.0208,-0.0226
830,480.4076,5.0179,-0.0212
832,481.0624,5.0164,-0.0202
834,481.7212,5.0149,-0.0188
836,482.3756,5.0132,-0.0177
838,483.0326,5.0116,-0.0162
840,483.6897,5.0107,-0.0149
842,484.3456,5.0093,-0.0138
844,485.0012,5.0081,-0.0124
846,485.6581,5.0049,-0.0115
848,486.3156,5.003,-0.0102
850,486.9722,5.001,-0.0089
852,487.6286,4.9994,-0.0075
854,488.2851,4.997,-0.0059
856,488.9426,4.9947,-0.0049
858,489.6012,4.9919,-0.0033
860,490.2581,4.9906,-0.0018
862,490.9141,4.9891,-0.0008
864,491.5724,4.9861,0.001
866,492.2316,4.9842,0.0021
868,492.8879,4.9817,0.0038
870,493.5482,4.9799,0.0057
872,494.2056,4.9772,0.0072
874,494.8637,4.9747,0.0086
876,495.5234,4.9729,0.0106
878,496.1821,4.9709,0.0119
880,496.8417,4.9681,0.0137
882,497.5016,4.9651,0.0155
884,498.1611,4.9637,0.0171
886,498.8197,4.9619,0.019
888,499.4797,4.9594,0.0206
890,500.1396,4.9563,0.0222
892,500.8004,4.9533,0.0241
894,501.4604,4.9509,0.0259
896,502.1211,4.9485,0.0278
898,502.7827,4.9464,0.0293
900,503.4452,4.9419,0.0312
902,504.1076,4.9393,0.033
904,504.7684,4.9377,0.0346
906,505.4306,4.9354,0.0363
908,506.0926,4.9321,0.0381
910,506.7559,4.93,0.0398
912,507.4194,4.9278,0.0415
914,508.0816,4.9245,0.0432
916,508.7441,4.9219,0.0447
918,509.4076,4.9174,0.0468
920,510.0721,4.9154,0.0479
922,510.7354,4.9128,0.0496
924,511.3996,4.91,0.0513
926,512.0631,4.9064,0.053
928,512.7266,4.9022,0.0542
930,513.3906,4.8989,0.0558
932,514.0551,4.8962,0.0572
934,514.7187,4.8933,0.0588
936,515.3827,4.8897,0.0602
938,516.0491,4.887,0.0613
940,516.7129,4.8833,0.0628
942,517.3779,4.8787,0.064
944,518.0441,4.8758,0.0652
946,518.7069,4.8721,0.0662
948,519.3722,4.8689,0.0675
950,520.0401,4.866,0.0687
952,520.7026,4.862,0.0696
954,521.3704,4.8585,0.0708
956,522.0346,4.8531,0.0717
958,522.6977,4.8486,0.0727
960,523.3637,4.8441,0.0737
962,524.0291,4.8402,0.0743
964,524.6956,4.8369,0.075
966,525.3606,4.8329,0.0757
968,526.0266,4.8277,0.0763
970,526.6936,4.8233,0.0775
972,527.3574,4.8178,0.0774
974,528.0231,4.8131,0.0786
976,528.6896,4.8088,0.079
978,529.3536,4.804,0.0795
980,530.0191,4.7995,0.08
982,530.6846,4.7961,0.0805
984,531.3507,4.7907,0.0809
986,532.0161,4.7849,0.0811
988,532.6816,4.7796,0.0819
990,533.3462,4.7746,0.0824
992,534.0131,4.7703,0.082
994,534.6789,4.7657,0.0824
996,535.3422,4.7595,0.0831
998,536.0101,4.7523,0.083
1000,536.6729,4.7475,0.0828
1002,537.3399,4.742,0.083
1004,538.0051,4.7356,0.0834
1006,538.6704,4.7301,0.0831
1008,539.3362,4.7254,0.0831
1010,540.0016,4.7195,0.083
1012,540.6669,4.714,0.0828
1014,541.3326,4.7074,0.0823
1016,541.9976,4.7012,0.0824
1018,542.6627,4.6951,0.0817
1020,543.3284,4.6886,0.0811
1022,543.9931,4.6825,0.0811
1024,544.6571,4.6752,0.0807
1026,545.3216,4.6692,0.0795
1028,545.9856,4.6628,0.0791
1030,546.6512,4.6555,0.0789
1032,547.3161,4.6488,0.0779
1034,547.9801,4.6429,0.0773
1036,548.6446,4.6369,0.0767
1038,549.3096,4.6286,0.0761
1040,549.9736,4.6207,0.0754
1042,550.6366,4.6136,0.0748
1044,551.3022,4.6058,0.0741
1046,551.9671,4.5989,0.0739
1048,552.6299,4.5918,0.0729
1050,553.2939,4.5841,0.0721
1052,553.9586,4.577,0.0718
1054,554.6216,4.5699,0.0707
1056,555.2866,4.5616,0.0704
1058,555.9471,4.5545,0.0698
1060,556.6132,4.5455,0.069
1062,557.2749,4.5365,0.0684
1064,557.9406,4.529,0.0676
1066,558.6037,4.5197,0.0671
1068,559.2686,4.5112,0.0668
1070,559.9306,4.5034,0.0664
1072,560.5929,4.4954,0.0658
1074,561.2567,4.4864,0.0654
1076,561.9221,4.479,0.0649
1078,562.5846,4.4698,0.0645
1080,563.2464,4.46,0.0639
1082,563.9106,4.4511,0.0639
1084,564.5749,4.4424,0.0633
1086,565.2376,4.4341,0.0629
1088,565.9031,4.4249,0.0628
1090,566.5649,4.4156,0.0628
1092,567.2287,4.4062,0.0622
1094,567.8941,4.3978,0.0622
1096,568.5571,4.3885,0.0619
1098,569.2206,4.3793,0.0623
1100,569.8866,4.3698,0.0619
1102,570.5486,4.3608,0.0621
1104,571.2127,4.3504,0.062
1106,571.8761,4.3414,0.062
1108,572.5406,4.3312,0.0621
1110,573.2074,4.3216,0.0625
1112,573.8721,4.3125,0.0625
1114,574.5356,4.3038,0.0627
1116,575.1994,4.2933,0.0629
1118,575.8636,4.2842,0.0628
1120,576.5294,4.2738,0.0632
1122,577.1926,4.262,0.0633
1124,577.8586,4.2523,0.0634
1126,578.5232,4.2427,0.0639
1128,579.1886,4.2317,0.0641
1130,579.8526,4.2218,0.0641
1132,580.5179,4.2106,0.064
1134,581.1829,4.2004,0.0645
1136,581.8476,4.1906,0.0639
1138,582.5139,4.1802,0.0642
1140,583.1787,4.1683,0.0644
1142,583.8436,4.1579,0.064
1144,584.5076,4.1471,0.0639
1146,585.1752,4.1368,0.0634
1148,585.8401,4.1254,0.0628
1150,586.5072,4.1144,0.0623
1152,587.1707,4.1035,0.062
1154,587.8366,4.0927,0.0612
1156,588.5039,4.0806,0.0606
1158,589.1686,4.0693,0.0593
1160,589.8366,4.0576,0.0585
1162,590.5009,4.0459,0.0576
1164,591.1669,4.0326,0.056
1166,591.8336,4.0214,0.0546
1168,592.4999,4.0091,0.0529
1170,593.1674,3.997,0.0511
1172,593.8336,3.9843,0.0491
1174,594.4999,3.9725,0.0469
1176,595.1646,3.9581,0.0448
1178,595.8321,3.9446,0.0422
1180,596.4997,3.932,0.0399
1182,597.1647,3.9195,0.0373
1184,597.8331,3.9057,0.0343
1186,598.4987,3.892,0.0313
1188,599.1661,3.878,0.0283
1190,599.8306,3.8653,0.0249
1192,600.4977,3.8504,0.0216
1194,601.1632,3.8362,0.0179
1196,601.8296,3.8221,0.0146
1198,602.4956,3.8071,0.0106
1200,603.1604,3.7917,0.007
1202,603.8276,3.777,0.003
1204,604.4929,3.7611,-0.0012
1206,605.1609,3.7464,-0.0054
1208,605.8246,3.731,-0.0094
1210,606.4907,3.7161,-0.0142
1212,607.1579,3.6996,-0.0184
1214,607.8226,3.6843,-0.0227
1216,608.4879,3.6673,-0.0275
1218,609.1536,3.6503,-0.0317
1220,609.8186,3.6321,-0.0363
1222,610.4857,3.6168,-0.0407
1224,611.1522,3.6003,-0.0454
1226,611.8161,3.5841,-0.0498
1228,612.4799,3.5656,-0.0543
1230,613.1447,3.5486,-0.0591
1232,613.8126,3.5317,-0.0631
1234,614.4792,3.5141,-0.0676
1236,615.1432,3.4956,-0.0721
1238,615.8081,3.4787,-0.0769
1240,616.4732,3.4603,-0.081
1242,617.1386,3.4414,-0.0851
1244,617.8046,3.4231,-0.0896
1246,618.4704,3.4055,-0.0937
1248,619.1349,3.3871,-0.0978
1250,619.7996,3.3681,-0.1017
1252,620.4639,3.3497,-0.1055
1254,621.1279,3.3311,-0.1095
1256,621.7941,3.3122,-0.1136
1258,622.4594,3.2946,-0.1176
1260,623.1229,3.2745,-0.1211
1262,623.7876,3.2562,-0.1252
1264,624.4537,3.2349,-0.1291
1266,625.1182,3.2152,-0.1332
1268,625.7831,3.1964,-0.1373
1270,626.4457,3.1769,-0.1413
1272,627.1111,3.1562,-0.1452
1274,627.7751,3.1369,-0.1497
1276,628.4371,3.1161,-0.1537
1278,629.1024,3.0965,-0.1583
1280,629.7686,3.0769,-0.163
1282,630.4329,3.0587,-0.1678
1284,631.0949,3.0374,-0.1725
1286,631.7606,3.0181,-0.1775
1288,632.4262,2.9971,-0.183
1290,633.0892,2.9769,-0.1887
1292,633.7526,2.956,-0.1949
1294,634.4166,2.9361,-0.2013
1296,635.0812,2.9144,-0.2081
1298,635.7446,2.8937,-0.2149
1300,636.4069,2.8724,-0.2219
1302,637.0719,2.8516,-0.2292
1304,637.7361,2.8291,-0.2374
1306,638.3987,2.8088,-0.2459
1308,639.0636,2.7861,-0.2542
1310,639.7266,2.7643,-0.2632
1312,640.3899,2.7416,-0.2727
1314,641.0527,2.7186,-0.2825
1316,641.7206,2.6958,-0.2926
1318,642.3826,2.6741,-0.3029
1320,643.0459,2.6509,-0.314
1322,643.7101,2.6288,-0.3254
1324,644.3757,2.6045,-0.337
1326,645.0377,2.5824,-0.3486
1328,645.7011,2.5589,-0.3609
1330,646.3654,2.5351,-0.3733
1332,647.0302,2.5089,-0.3864
1334,647.6936,2.4848,-0.3995
1336,648.3564,2.4595,-0.4129
1338,649.0214,2.434,-0.4261
1340,649.6821,2.4082,-0.4396
1342,650.3471,2.384,-0.453
1344,651.0124,2.3577,-0.4663
1346,651.6766,2.3324,-0.4797
1348,652.3396,2.3056,-0.4931
1350,653.0024,2.2798,-0.5057
1352,653.6661,2.2529,-0.5189
1354,654.3302,2.2259,-0.5315
1356,654.9917,2.1976,-0.5435
1358,655.6576,2.1719,-0.5554
1360,656.3186,2.144,-0.567
1362,656.9836,2.1164,-0.5775
1364,657.6461,2.0885,-0.587
1366,658.3099,2.0622,-0.5955
1368,658.9737,2.0337,-0.6031
1370,659.6371,2.0067,-0.609
1372,660.2996,1.9783,-0.6136
1374,660.9634,1.9515,-0.6174
1376,661.6291,1.9247,-0.619
1378,662.2907,1.899,-0.6198
1380,662.9564,1.8718,-0.6178
1382,663.6196,1.8464,-0.6141
1384,664.2826,1.818,-0.6086
1386,664.9464,1.7928,-0.6012
1388,665.6111,1.7677,-0.5911
1390,666.2759,1.7448,-0.5793
1392,666.9411,1.7199,-0.5652
1394,667.6051,1.6967,-0.5486
1396,668.2697,1.6729,-0.53
1398,668.9354,1.6518,-0.5083
1400,669.5991,1.6307,-0.4859
1402,670.2659,1.6115,-0.4605
1404,670.9307,1.5922,-0.4334
1406,671.5946,1.5751,-0.4052
1408,672.2601,1.5571,-0.3747
1410,672.9257,1.5413,-0.3435
1412,673.5921,1.5262,-0.3106
1414,674.2586,1.5122,-0.2774
1416,674.9244,1.4986,-0.2445
1418,675.5901,1.4858,-0.2108
1420,676.2584,1.4748,-0.1777
1422,676.9242,1.4651,-0.1444
1424,677.5901,1.4558,-0.112
1426,678.2559,1.448,-0.0808
1428,678.9232,1.44,-0.0516
1430,679.5926,1.4338,-0.023
1432,680.2586,1.4286,0.0029
1434,680.9252,1.4221,0.028
1436,681.5931,1.4171,0.0503
1438,682.2609,1.4117,0.0712
1440,682.9267,1.4065,0.0898
1442,683.5956,1.4024,0.1071
1444,684.2637,1.3993,0.1224
1446,684.9304,1.3952,0.1359
1448,685.5976,1.3921,0.1479
1450,686.2659,1.3891,0.1586
1452,686.9322,1.3857,0.168
1454,687.5991,1.3838,0.1761
1456,688.2664,1.3806,0.1836
1458,688.9336,1.3778,0.1898
1460,689.5996,1.3738,0.1951
1462,690.2641,1.3715,0.2002
1464,690.9316,1.3694,0.2046
1466,691.5981,1.3667,0.2085
1468,692.2639,1.3645,0.2116
1470,692.9336,1.3615,0.2148
1472,693.5986,1.3589,0.2177
1474,694.2659,1.3553,0.2195
1476,694.9316,1.353,0.2217
1478,695.5991,1.3509,0.2239
1480,696.2629,1.3482,0.2257
1482,696.9304,1.3464,0.2279
1484,697.5956,1.3437,0.2292
1486,698.2616,1.3409,0.2306
1488,698.9256,1.3384,0.2324
1490,699.5911,1.3364,0.234
1492,700.2584,1.333,0.2355
1494,700.9227,1.3307,0.237
1496,701.5876,1.3284,0.2381
1498,702.2527,1.3252,0.2397
1500,702.9186,1.3214,0.2413
1502,703.5836,1.3193,0.2423
1504,704.2467,1.3172,0.2437
1506,704.9149,1.3157,0.2448
1508,705.5771,1.3141,0.2456
1510,706.2407,1.3116,0.2467
1512,706.9067,1.3092,0.2474
1514,707.5706,1.3076,0.2479
1516,708.2367,1.3049,0.2483
1518,708.9004,1.3026,0.2489
1520,709.5646,1.2998,0.2494
1522,710.2297,1.2971,0.2499
1524,710.8926,1.2944,0.2502
1526,711.5576,1.2927,0.2503
1528,712.2234,1.291,0.2505
1530,712.8866,1.2886,0.2506
1532,713.5511,1.2861,0.2513
1534,714.2176,1.2838,0.2509
1536,714.8806,1.2814,0.2511
1538,715.5451,1.2796,0.2506
1540,716.2097,1.2775,0.2505
1542,716.8746,1.2749,0.25
1544,717.5406,1.2734,0.2498
1546,718.2037,1.2719,0.2492
1548,718.8689,1.2696,0.2487
1550,719.5336,1.2675,0.2483
1552,720.1996,1.2659,0.2477
1554,720.8631,1.2641,0.2474
1556,721.5291,1.2611,0.2469
1558,722.1937,1.2589,0.2454
1560,722.8587,1.2564,0.2447
1562,723.5251,1.2554,0.2439
1564,724.1897,1.2541,0.243
1566,724.8534,1.251,0.2418
1568,725.5211,1.2494,0.2402
1570,726.1856,1.2475,0.2388
1572,726.8512,1.2457,0.2373
1574,727.5161,1.2439,0.2364
1576,728.1807,1.2405,0.235
1578,728.8462,1.2389,0.2339
1580,729.5121,1.2375,0.2326
1582,730.1777,1.2362,0.2312
1584,730.8416,1.2346,0.2291
1586,731.5086,1.2331,0.2275
1588,732.1739,1.2312,0.2259
1590,732.8377,1.2293,0.2239
1592,733.5031,1.2271,0.2224
1594,734.1696,1.2253,0.2206
1596,734.8347,1.222,0.2185
1598,735.5006,1.2204,0.2168
1600,736.1666,1.2187,0.2152
1602,736.8307,1.217,0.2133
1604,737.4976,1.2154,0.2117
1606,738.1617,1.2141,0.2093
1608,738.8294,1.2123,0.2075
1610,739.4936,1.2107,0.2059
1612,740.1592,1.2089,0.2035
1614,740.8232,1.2069,0.2015
1616,741.4881,1.2046,0.1994
1618,742.1524,1.2032,0.1979
1620,742.8166,1.2017,0.196
1622,743.4821,1.2,0.1936
1624,744.1467,1.1986,0.1915
1626,744.8134,1.1972,0.1894
1628,745.4786,1.1957,0.1873
1630,746.1424,1.1945,0.1847
1632,746.8086,1.1927,0.1827
1634,747.4736,1.191,0.1802
1636,748.1387,1.1897,0.1773
1638,748.8044,1.1894,0.1747
1640,749.4706,1.1881,0.1714
1642,750.1364,1.1868,0.1689
1644,750.8012,1.1854,0.1662
1646,751.4671,1.184,0.1628
1648,752.1307,1.1816,0.1607
1650,752.7966,1.1808,0.1579
1652,753.4621,1.18,0.1552
1654,754.1297,1.1783,0.1528
1656,754.7952,1.1763,0.1502
1658,755.4591,1.1748,0.1475
1660,756.1282,1.1729,0.1452
1662,756.7909,1.1711,0.1427
1664,757.4576,1.1696,0.1403
1666,758.1236,1.1688,0.138
1668,758.7911,1.1681,0.1359
1670,759.4566,1.1668,0.1336
1672,760.1219,1.1654,0.1318
1674,760.7892,1.1654,0.1298
1676,761.4531,1.1641,0.1275
1678,762.1189,1.163,0.1257
1680,762.7859,1.1628,0.1228
1682,763.4526,1.1612,0.1199
1684,764.1161,1.1599,0.1179
1686,764.7821,1.1599,0.116
1688,765.4486,1.1584,0.1146
1690,766.1161,1.1568,0.1128
1692,766.7834,1.1556,0.1115
1694,767.4481,1.1555,0.1104
1696,768.1144,1.1541,0.1087
1698,768.7814,1.1522,0.1076
1700,769.4466,1.1515,0.1067
1702,770.1126,1.1504,0.105
1704,770.7802,1.1501,0.1038
1706,771.4466,1.1487,0.1022
1708,772.1129,1.1473,0.1011
1710,772.7816,1.1476,0.0997
1712,773.4471,1.1472,0.098
1714,774.1124,1.1454,0.0966
1716,774.7806,1.1435,0.0955
1718,775.4486,1.1428,0.094
1720,776.1147,1.1416,0.0927
1722,776.7814,1.1402,0.0913
1724,777.4496,1.1388,0.0901
1726,778.1176,1.1388,0.0885
1728,778.7827,1.1366,0.0867
1730,779.4511,1.1361,0.0853
1732,780.1169,1.1351,0.0842
1734,780.7863,1.1354,0.0827
1736,781.4536,1.1345,0.0814
1738,782.1222,1.1334,0.0799
1740,782.7906,1.1331,0.0785
1742,783.4591,1.1326,0.0775
1744,784.1266,1.1318,0.0763
1746,784.7932,1.1304,0.0747
1748,785.4626,1.1304,0.073
1750,786.1318,1.129,0.0719
1752,786.7987,1.1264,0.07
1754,787.4676,1.1263,0.069
1756,788.1365,1.125,0.0671
1758,788.8056,1.1244,0.0654
1760,789.4741,1.1235,0.0634
1762,790.1421,1.1222,0.0614
1764,790.8114,1.1209,0.0595
1766,791.4806,1.1208,0.0578
1768,792.1491,1.1207,0.0556
1770,792.8182,1.1195,0.0543
1772,793.4866,1.1195,0.0524
1774,794.1567,1.1194,0.0507
1776,794.8253,1.1182,0.0489
1778,795.4931,1.1168,0.0472
1780,796.1607,1.1161,0.0458
1782,796.8295,1.1145,0.0441
1784,797.4976,1.1145,0.0426
1786,798.1659,1.1134,0.0411
1788,798.8329,1.1128,0.0402
1790,799.5051,1.1114,0.0396
1792,800.1725,1.1101,0.0388
1794,800.8404,1.1101,0.0379
1796,801.5086,1.1096,0.0373
1798,802.1777,1.1088,0.0371
1800,802.8462,1.1088,0.0364
1802,803.5136,1.1074,0.0356
1804,804.1819,1.1074,0.0351
1806,804.8502,1.1061,0.0349
1808,805.5201,1.1061,0.0342
1810,806.1852,1.1047,0.0337
1812,806.8566,1.1047,0.0333
1814,807.5246,1.1034,0.0324
1816,808.1937,1.1021,0.0318
1818,808.8622,1.1021,0.0309
1820,809.5306,1.1021,0.0302
1822,810.1994,1.0994,0.0291
1824,810.8676,1.0994,0.0276
1826,811.5356,1.098,0.0258
1828,812.2047,1.0972,0.0234
1830,812.8724,1.0967,0.0207
1832,813.5411,1.0953,0.0177
1834,814.2134,1.0953,0.0148
1836,814.8786,1.094,0.0122
1838,815.548,1.094,0.0089
1840,816.2162,1.0927,0.0062
1842,816.8847,1.0927,0.0033
1844,817.5541,1.0927,-0.0001
1846,818.2212,1.0927,-0.0023
1848,818.892,1.0904,-0.0055
1850,819.5591,1.09,-0.0081
1852,820.2282,1.0895,-0.0108
1854,820.8954,1.0886,-0.0129
1856,821.5661,1.0875,-0.0151
1858,822.2316,1.0873,-0.0182
1860,822.8986,1.087,-0.0211
1862,823.5671,1.086,-0.0224
1864,824.2355,1.0855,-0.024
1866,824.9046,1.0846,-0.0259
1868,825.5726,1.0846,-0.0281
1870,826.2391,1.0825,-0.0296
1872,826.9074,1.0819,-0.0312
1874,827.5751,1.0806,-0.033
1876,828.2439,1.0806,-0.0343
1878,828.9105,1.0797,-0.0361
1880,829.5796,1.0792,-0.0387
1882,830.2477,1.0779,-0.0411
1884,830.9161,1.0776,-0.0435
1886,831.5826,1.0772,-0.0465
1888,832.2517,1.0772,-0.0491
1890,832.9192,1.0772,-0.0516
1892,833.5866,1.0759,-0.0549
1894,834.2539,1.0759,-0.0576
1896,834.9239,1.0759,-0.0608
1898,835.5916,1.0754,-0.0639
1900,836.2569,1.0745,-0.0673
1902,836.9239,1.0745,-0.0704
1904,837.5885,1.0719,-0.073
1906,838.2549,1.0719,-0.0758
1908,838.9206,1.0719,-0.0788
1910,839.5845,1.0705,-0.0818
1912,840.2485,1.0704,-0.0845
1914,840.9129,1.0692,-0.0873
1916,841.5746,1.0692,-0.0905
1918,842.2382,1.0678,-0.0934
1920,842.8996,1.0678,-0.0965
1922,843.5596,1.0665,-0.0998
1924,844.2223,1.0665,-0.1033
1926,844.8864,1.0662,-0.1066
1928,845.5481,1.0652,-0.1102
1930,846.2077,1.0652,-0.115
1932,846.8712,1.0649,-0.1211
1934,847.5321,1.0638,-0.1281
1936,848.1929,1.063,-0.1358
1938,848.8551,1.0625,-0.1436
1940,849.5186,1.0623,-0.1515
1942,850.1826,1.0611,-0.1593
1944,850.8437,1.0598,-0.1671
1946,851.5056,1.0598,-0.1747
1948,852.1671,1.0585,-0.1827
1950,852.8316,1.0571,-0.1902
1952,853.4931,1.0579,-0.1976
1954,854.1556,1.0584,-0.2052
1956,854.8202,1.0579,-0.2118
1958,855.4811,1.0571,-0.219
1960,856.1456,1.0571,-0.2262
1962,856.8094,1.0558,-0.2336
1964,857.4721,1.0558,-0.2402
1966,858.1339,1.0544,-0.2477
1968,858.7959,1.0544,-0.2548
1970,859.4606,1.0544,-0.2616
1972,860.1235,1.0536,-0.2691
1974,860.7892,1.0531,-0.276
1976,861.4516,1.0531,-0.2832
1978,862.1147,1.0531,-0.2903
1980,862.7804,1.0518,-0.2978
1982,863.4436,1.0517,-0.3044
1984,864.1064,1.0493,-0.3113
1986,864.7712,1.0491,-0.3185
1988,865.4366,1.0482,-0.3254
1990,866.0989,1.0477,-0.3323
1992,866.7616,1.0464,-0.339
1994,867.4295,1.0464,-0.3456
1996,868.0945,1.0477,-0.352
1998,868.7581,1.0477,-0.3586
2000,869.4231,1.0464,-0.3653
2002,870.089,1.0464,-0.372
2004,870.7536,1.0464,-0.378
2006,871.4181,1.0444,-0.3838
2008,872.0826,1.044,-0.3897
2010,872.7484,1.044,-0.3967
2012,873.4131,1.0427,-0.4034
2014,874.0789,1.0427,-0.4088
2016,874.7432,1.0414,-0.4149
2018,875.4081,1.0414,-0.4203
2020,876.0735,1.0414,-0.4261
2022,876.7391,1.04,-0.4316
2024,877.4031,1.04,-0.4366
2026,878.0691,1.04,-0.4418
2028,878.7337,1.04,-0.447
2030,879.4001,1.0393,-0.4472
2032,880.0649,1.04,-0.4454
2034,880.7314,1.04,-0.4409
2036,881.3976,1.0388,-0.4332
2038,882.0619,1.0373,-0.4246
2040,882.7264,1.0361,-0.4137
2042,883.3936,1.036,-0.4009
2044,884.0589,1.0352,-0.3875
2046,884.7247,1.0346,-0.3732
2048,885.3911,1.0346,-0.3593
2050,886.0589,1.0333,-0.3446
2052,886.7229,1.0333,-0.3311
2054,887.3911,1.0333,-0.3193
2056,888.0584,1.0333,-0.3079
2058,888.7226,1.032,-0.2974
2060,889.3906,1.032,-0.2882
2062,890.0566,1.032,-0.2795
2064,890.7197,1.032,-0.2718
2066,891.3866,1.0306,-0.2649
2068,892.0504,1.0306,-0.2586
2070,892.715,1.0306,-0.2528
2072,893.3811,1.0301,-0.2483
2074,894.0469,1.0293,-0.2442
2076,894.7117,1.028,-0.2395
2078,895.3791,1.0279,-0.2362
2080,896.0425,1.0269,-0.2335
2082,896.7092,1.0266,-0.2314
2084,897.3731,1.0264,-0.2291
2086,898.0387,1.0253,-0.2287
2088,898.7045,1.0253,-0.228
2090,899.3721,1.0253,-0.2276
2092,900.0399,1.0239,-0.2287
2094,900.7044,1.0239,-0.2294
2096,901.3706,1.0239,-0.2298
2098,902.0392,1.0235,-0.2309
2100,902.7062,1.0226,-0.2315
2102,903.3741,1.0226,-0.2328
2104,904.0399,1.0226,-0.2341
2106,904.7084,1.0213,-0.2359
2108,905.3761,1.0212,-0.237
2110,906.0447,1.0212,-0.2382
2112,906.7104,1.02,-0.2397
2114,907.3806,1.0189,-0.242
2116,908.0477,1.0188,-0.2434
2118,908.7172,1.0173,-0.2452
2120,909.3846,1.0172,-0.2474
2122,910.0547,1.0172,-0.2493
2124,910.7234,1.0159,-0.2509
2126,911.3926,1.0159,-0.252
2128,912.0586,1.0151,-0.2548
2130,912.7264,1.0145,-0.2578
2132,913.3951,1.0145,-0.26
2134,914.0604,1.0145,-0.2637
2136,914.7316,1.0145,-0.2664
2138,915.3981,1.0133,-0.2687
2140,916.0647,1.0145,-0.2724
2142,916.7351,1.0142,-0.2751
2144,917.4006,1.0132,-0.2785
2146,918.0706,1.0132,-0.281
2148,918.7354,1.0132,-0.2838
2150,919.4041,1.0132,-0.2863
2152,920.0718,1.0118,-0.2889
2154,920.7401,1.0109,-0.2917
2156,921.4075,1.0105,-0.2944
2158,922.074,1.0105,-0.2966
2160,922.7427,1.0094,-0.2993
2162,923.4085,1.0105,-0.3018
2164,924.077,1.0092,-0.3044
2166,924.7439,1.0092,-0.3067
2168,925.41,1.0092,-0.309
2170,926.0769,1.0078,-0.311
2172,926.7434,1.0078,-0.3133
2174,927.4131,1.0078,-0.3155
2176,928.0806,1.0078,-0.3171
2178,928.7467,1.0066,-0.3195
2180,929.4146,1.0065,-0.3217
2182,930.0831,1.0065,-0.3233
2184,930.7498,1.0065,-0.3255
2186,931.4195,1.0065,-0.3272
2188,932.0887,1.0065,-0.329
2190,932.7537,1.0051,-0.3307
2192,933.423,1.0051,-0.334
2194,934.0899,1.0041,-0.3353
2196,934.7554,1.0038,-0.3374
2198,935.4256,1.0038,-0.3393
2200,936.0928,1.0024,-0.3413
2202,936.7609,1.0024,-0.3437
2204,937.4251,1.0024,-0.3451
2206,938.0947,1.0024,-0.3467
2208,938.7632,1.0018,-0.3497
2210,939.4306,1.0011,-0.3528
2212,940.0969,1.0011,-0.3557
2214,940.7659,1.0024,-0.3595
2216,941.432,1.0024,-0.3629
2218,942.1016,1.0011,-0.3668
2220,942.7667,1.0011,-0.3707
2222,943.4366,1.0003,-0.3745
2224,944.1037,0.9994,-0.3777
2226,944.7712,0.9994,-0.3809
2228,945.4406,0.9994,-0.3844
2230,946.1077,0.9981,-0.3877
2232,946.7744,0.9981,-0.3902
2234,947.4426,0.9981,-0.3931
2236,948.1107,0.9981,-0.3954
2238,948.7814,0.9981,-0.3976
2240,949.4496,0.9981,-0.3994
2242,950.1176,0.9981,-0.4026
2244,950.7854,0.9972,-0.4044
2246,951.4536,0.9967,-0.4061
2248,952.1224,0.9967,-0.4079
2250,952.7894,0.9954,-0.4094
2252,953.4596,0.9954,-0.4113
2254,954.1266,0.9954,-0.4134
2256,954.7954,0.9951,-0.4157
2258,955.4641,0.9952,-0.4177
2260,956.1319,0.9954,-0.4194
2262,956.8014,0.9954,-0.4216
2264,957.4706,0.9954,-0.4241
2266,958.1367,0.9947,-0.4265
2268,958.8081,0.9941,-0.4289
2270,959.4751,0.9941,-0.4322
2272,960.1441,0.9941,-0.4348
2274,960.8106,0.9928,-0.4374
2276,961.4811,0.9927,-0.44
2278,962.1479,0.9927,-0.4434
2280,962.8164,0.9927,-0.4462
2282,963.4866,0.9934,-0.449
2284,964.1542,0.9934,-0.4529
2286,964.8216,0.9931,-0.4567
2288,965.4896,0.9921,-0.4606
2290,966.1557,0.991,-0.4649
2292,966.8242,0.9907,-0.4697
2294,967.4926,0.9894,-0.4743
2296,968.1595,0.9894,-0.4788
2298,968.8274,0.9906,-0.4831
2300,969.4966,0.9907,-0.4875
2302,970.1646,0.9907,-0.4913
2304,970.8324,0.9895,-0.495
2306,971.5001,0.9894,-0.4988
2308,972.1671,0.9894,-0.503
2310,972.8363,0.9894,-0.5063
2312,973.5033,0.9894,-0.5104
2314,974.1712,0.9887,-0.5143
2316,974.8307,0.988,-0.5212
2318,975.4826,0.988,-0.5311
2320,976.1187,0.988,-0.5451
2322,976.7396,0.9867,-0.562
2324,977.3379,0.9867,-0.5841
2326,977.9133,0.9865,-0.6098
2328,978.4664,0.9854,-0.6406
2330,978.9883,0.9864,-0.6769
2332,979.485,0.9867,-0.7169
2334,979.9574,0.9854,-0.7613
2336,980.3904,0.9853,-0.811
2338,980.797,0.9853,-0.8638
2340,981.1748,0.9853,-0.9209
2342,981.5174,0.9847,-0.9817
2344,981.8338,0.984,-1.0445
2346,982.1171,0.984,-1.1102
2348,982.3661,0.984,-1.1782
2350,982.5866,0.9842,-1.2484
2352,982.7794,0.985,-1.3197
2354,982.935,0.9842,-1.3929
2356,983.0656,0.985,-1.4668
2357,983.113,0.985,-1.4982