File: Wood/Calibration_Data/TIFP+UCT/TIFP+UCT_STA_N2_5K_R1.csv
Time (s),Temperature (K),Mass (mg),Heat Flow Rate (W/g)
0,303.167,4.9303,-0.0072
6,303.17,4.9318,-0.0072
12,303.171,4.9318,-0.0073
18,303.176,4.9319,-0.0073
24,303.18,4.9319,-0.0072
30,303.183,4.9319,-0.0072
36,303.186,4.9312,-0.007
42,303.187,4.9319,-0.0072
48,303.191,4.9319,-0.007
54,303.19,4.9329,-0.0066
60,303.195,4.9319,-0.0067
66,303.196,4.9332,-0.0068
72,303.2,4.9332,-0.0065
78,303.203,4.9339,-0.0065
84,303.199,4.9347,-0.0064
90,303.204,4.9343,-0.0064
96,303.202,4.936,-0.0063
102,303.204,4.9367,-0.0061
108,303.203,4.9359,-0.006
114,303.199,4.9359,-0.0059
120,303.199,4.9359,-0.0058
126,303.198,4.9372,-0.0055
132,303.196,4.9371,-0.0053
138,303.193,4.9371,-0.0053
144,303.194,4.9385,-0.005
150,303.193,4.9385,-0.0048
156,303.19,4.9385,-0.005
162,303.186,4.9385,-0.0049
168,303.186,4.9391,-0.0048
174,303.185,4.9398,-0.0049
180,303.184,4.9405,-0.0046
186,303.181,4.9398,-0.0046
192,303.181,4.9405,-0.0047
198,303.179,4.9398,-0.0045
204,303.178,4.9398,-0.0046
210,303.176,4.9408,-0.0045
216,303.178,4.9398,-0.0047
222,303.171,4.9411,-0.0044
228,303.172,4.9398,-0.0044
234,303.172,4.9412,-0.0043
240,303.168,4.9411,-0.0048
246,303.167,4.9421,-0.0043
252,303.165,4.9411,-0.0045
258,303.163,4.9412,-0.0044
264,303.162,4.9425,-0.0045
270,303.157,4.9425,-0.0042
276,303.158,4.9421,-0.0046
282,303.161,4.9425,-0.0045
288,303.161,4.9426,-0.0044
294,303.162,4.9439,-0.0044
300,303.1604,4.9439,-0.0045
306,303.1628,4.9427,-0.004
312,303.167,4.9433,-0.0043
318,303.1807,4.9448,-0.0045
324,303.2085,4.9449,-0.0047
330,303.2595,4.9453,-0.0052
336,303.3382,4.9449,-0.0063
342,303.4528,4.9448,-0.0078
348,303.6055,4.9462,-0.0096
354,303.7992,4.9467,-0.0116
360,304.0378,4.9468,-0.0144
366,304.3235,4.9467,-0.0172
372,304.658,4.9482,-0.0207
378,305.0444,4.9483,-0.0239
384,305.477,4.9474,-0.0276
390,305.9586,4.9465,-0.0314
396,306.4834,4.9466,-0.0354
402,307.0531,4.9464,-0.0386
408,307.6589,4.9477,-0.0426
414,308.2997,4.9466,-0.0461
420,308.9714,4.9481,-0.0492
426,309.6699,4.9479,-0.0521
432,310.3881,4.9478,-0.0553
438,311.12,4.9465,-0.0579
444,311.8658,4.9473,-0.0605
450,312.6187,4.9473,-0.0627
456,313.3709,4.9476,-0.0645
462,314.1244,4.9469,-0.0663
468,314.8737,4.947,-0.0676
474,315.6112,4.9467,-0.0691
480,316.3439,4.9472,-0.07
486,317.0621,4.9478,-0.0712
492,317.77,4.9482,-0.0722
498,318.4534,4.9468,-0.0726
504,319.1314,4.9482,-0.0732
510,319.7907,4.9485,-0.0735
516,320.4296,4.9462,-0.0744
522,321.051,4.9468,-0.0745
528,321.6609,4.9455,-0.0746
534,322.2543,4.9478,-0.0749
540,322.8343,4.9465,-0.0748
546,323.3966,4.9465,-0.0749
552,323.9544,4.9465,-0.0749
558,324.4958,4.9462,-0.0752
564,325.0325,4.9469,-0.075
570,325.5547,4.9469,-0.0755
576,326.0725,4.9469,-0.0755
582,326.5822,4.9469,-0.0758
588,327.0871,4.9468,-0.076
594,327.5909,4.9455,-0.0762
600,328.0888,4.9468,-0.0766
606,328.5858,4.9455,-0.077
612,329.0807,4.9459,-0.0776
618,329.573,4.9469,-0.0779
624,330.065,4.9469,-0.0785
630,330.5532,4.9468,-0.0791
636,331.0508,4.9456,-0.0797
642,331.5419,4.9472,-0.0803
648,332.035,4.9469,-0.0807
654,332.5327,4.9469,-0.0812
660,333.0257,4.9469,-0.082
666,333.5197,4.9456,-0.0823
672,334.013,4.9458,-0.0829
678,334.5135,4.9469,-0.0833
684,335.0099,4.9459,-0.0837
690,335.5077,4.9469,-0.0844
696,336.0069,4.9468,-0.0845
702,336.5018,4.9459,-0.0853
708,337.002,4.9456,-0.0857
714,337.5018,4.9469,-0.0861
720,338.0018,4.9469,-0.0863
726,338.4998,4.9468,-0.0865
732,338.9988,4.9468,-0.0864
738,339.4986,4.9472,-0.0868
744,339.9938,4.9469,-0.0867
750,340.4947,4.9469,-0.0867
756,340.989,4.9478,-0.0865
762,341.4828,4.9468,-0.0866
768,341.9789,4.9456,-0.0861
774,342.4739,4.9456,-0.0863
780,342.9718,4.947,-0.0858
786,343.4639,4.9455,-0.0857
792,343.9627,4.9464,-0.0856
798,344.4548,4.9461,-0.0851
804,344.9538,4.9465,-0.0847
810,345.4479,4.9455,-0.0843
816,345.9428,4.9455,-0.0834
822,346.4369,4.9468,-0.0829
828,346.9338,4.9461,-0.0825
834,347.4298,4.9455,-0.0822
840,347.9298,4.9452,-0.0818
846,348.4228,4.9442,-0.0811
852,348.9267,4.9446,-0.0808
858,349.4228,4.9455,-0.0799
864,349.9188,4.9455,-0.0794
870,350.4217,4.9451,-0.0791
876,350.9196,4.9442,-0.0783
882,351.4188,4.9432,-0.0778
888,351.9171,4.9452,-0.0769
894,352.4198,4.9442,-0.0764
900,352.9204,4.9442,-0.0759
906,353.419,4.9454,-0.0755
912,353.9228,4.9442,-0.0752
918,354.4238,4.9445,-0.0744
924,354.9251,4.9442,-0.0738
930,355.4308,4.9455,-0.0734
936,355.933,4.9455,-0.0728
942,356.4398,4.9455,-0.0722
948,356.9416,4.9449,-0.0718
954,357.4478,4.9461,-0.0712
960,357.9487,4.9469,-0.0706
966,358.4508,4.9468,-0.07
972,358.9538,4.9468,-0.0697
978,359.4569,4.9455,-0.0692
984,359.9608,4.947,-0.0685
990,360.4628,4.947,-0.0681
996,360.9649,4.9456,-0.0676
1002,361.4696,4.9459,-0.0673
1008,361.97,4.9456,-0.0667
1014,362.4728,4.9456,-0.0665
1020,362.9758,4.9456,-0.0661
1026,363.4797,4.9449,-0.0658
1032,363.9826,4.9452,-0.0653
1038,364.4829,4.9456,-0.065
1044,364.9829,4.9466,-0.0649
1050,365.487,4.9469,-0.0644
1056,365.9877,4.9457,-0.0643
1062,366.4919,4.9456,-0.064
1068,366.9929,4.9456,-0.0638
1074,367.494,4.9456,-0.0634
1080,367.9968,4.947,-0.0635
1086,368.4959,4.947,-0.063
1092,368.9993,4.947,-0.063
1098,369.5047,4.947,-0.0629
1104,370.0058,4.9456,-0.0626
1110,370.5068,4.9456,-0.0627
1116,371.008,4.9476,-0.0626
1122,371.5107,4.947,-0.0625
1128,372.0128,4.947,-0.0622
1134,372.5139,4.947,-0.0621
1140,373.0149,4.947,-0.0623
1146,373.5168,4.9483,-0.0621
1152,374.0149,4.9483,-0.062
1158,374.5168,4.9483,-0.0619
1164,375.0178,4.947,-0.0617
1170,375.5159,4.9469,-0.0618
1176,376.0179,4.947,-0.0616
1182,376.5198,4.947,-0.0617
1188,377.0168,4.947,-0.0616
1194,377.5188,4.9483,-0.0615
1200,378.0218,4.9483,-0.0614
1206,378.5191,4.947,-0.0614
1212,379.021,4.947,-0.0612
1218,379.5229,4.9456,-0.0611
1224,380.0237,4.9466,-0.0609
1230,380.5276,4.947,-0.0611
1236,381.0281,4.9479,-0.0608
1242,381.5298,4.9483,-0.0609
1248,382.0348,4.9483,-0.0607
1254,382.5366,4.9483,-0.0609
1260,383.0398,4.9456,-0.0606
1266,383.5428,4.947,-0.0605
1272,384.0478,4.947,-0.0605
1278,384.5496,4.947,-0.0602
1284,385.0508,4.947,-0.0603
1290,385.5528,4.9483,-0.0603
1296,386.056,4.947,-0.0601
1302,386.5615,4.948,-0.0602
1308,387.0644,4.947,-0.0599
1314,387.566,4.9482,-0.06
1320,388.0688,4.947,-0.06
1326,388.5711,4.9483,-0.0601
1332,389.0747,4.947,-0.0598
1338,389.5768,4.947,-0.0598
1344,390.0814,4.947,-0.06
1350,390.5809,4.947,-0.0602
1356,391.083,4.9482,-0.0598
1362,391.587,4.9483,-0.06
1368,392.091,4.9474,-0.0601
1374,392.5938,4.947,-0.0601
1380,393.0968,4.947,-0.0602
1386,393.5966,4.947,-0.0603
1392,394.098,4.9483,-0.0604
1398,394.6026,4.947,-0.0606
1404,395.1009,4.947,-0.0606
1410,395.6029,4.9483,-0.0606
1416,396.1058,4.9483,-0.0609
1422,396.6058,4.947,-0.0607
1428,397.1059,4.947,-0.061
1434,397.6068,4.947,-0.0612
1440,398.1098,4.9483,-0.0612
1446,398.6089,4.947,-0.0613
1452,399.1109,4.9463,-0.0615
1458,399.6144,4.9483,-0.0617
1464,400.1128,4.948,-0.0621
1470,400.6121,4.947,-0.0625
1476,401.1147,4.9483,-0.0628
1482,401.6178,4.947,-0.063
1488,402.115,4.9462,-0.0632
1494,402.621,4.947,-0.0637
1500,403.1236,4.947,-0.0641
1506,403.6238,4.9463,-0.0646
1512,404.1257,4.9476,-0.065
1518,404.6287,4.9483,-0.0656
1524,405.1318,4.9473,-0.066
1530,405.6359,4.947,-0.0665
1536,406.1378,4.947,-0.0669
1542,406.6437,4.9476,-0.0673
1548,407.1477,4.947,-0.0675
1554,407.6524,4.947,-0.0683
1560,408.1546,4.947,-0.0684
1566,408.6571,4.9466,-0.0688
1572,409.1646,4.947,-0.0693
1578,409.6668,4.9476,-0.0698
1584,410.1729,4.947,-0.0702
1590,410.676,4.947,-0.0705
1596,411.1788,4.9456,-0.071
1602,411.6838,4.9456,-0.0715
1608,412.1868,4.9463,-0.0717
1614,412.6899,4.9456,-0.0721
1620,413.1938,4.947,-0.0726
1626,413.6976,4.9456,-0.0729
1632,414.1988,4.9446,-0.0732
1638,414.699,4.9446,-0.0734
1644,415.2019,4.9456,-0.0739
1650,415.7059,4.945,-0.0742
1656,416.2051,4.9443,-0.0745
1662,416.7098,4.9443,-0.0749
1668,417.2098,4.9455,-0.0757
1674,417.7126,4.9443,-0.0757
1680,418.2113,4.9443,-0.0762
1686,418.7119,4.9443,-0.0766
1692,419.2148,4.9443,-0.0767
1698,419.7111,4.9429,-0.0772
1704,420.2138,4.9416,-0.0778
1710,420.7129,4.9429,-0.0781
1716,421.213,4.9429,-0.0787
1722,421.7119,4.9429,-0.0788
1728,422.2088,4.9429,-0.0792
1734,422.709,4.9416,-0.0801
1740,423.2098,4.9416,-0.0804
1746,423.709,4.9416,-0.0808
1752,424.2099,4.9403,-0.0812
1758,424.7091,4.9415,-0.0818
1764,425.2079,4.9416,-0.082
1770,425.7069,4.9416,-0.0824
1776,426.2067,4.9406,-0.083
1782,426.7058,4.9416,-0.0829
1788,427.2019,4.9416,-0.0833
1794,427.7047,4.9416,-0.0834
1800,428.2039,4.941,-0.0838
1806,428.7038,4.9402,-0.0841
1812,429.2029,4.9392,-0.0844
1818,429.7047,4.9392,-0.0847
1824,430.2027,4.9392,-0.0849
1830,430.704,4.9389,-0.0851
1836,431.2029,4.9389,-0.0854
1842,431.7038,4.9402,-0.0857
1848,432.2027,4.9389,-0.0858
1854,432.7029,4.9376,-0.0862
1860,433.2048,4.9389,-0.0865
1866,433.7047,4.9376,-0.0866
1872,434.2041,4.938,-0.0871
1878,434.7049,4.9366,-0.0871
1884,435.2038,4.9366,-0.0876
1890,435.7077,4.9376,-0.0881
1896,436.2068,4.9359,-0.0884
1902,436.7059,4.9349,-0.0887
1908,437.206,4.9362,-0.0893
1914,437.7069,4.9346,-0.0897
1920,438.2069,4.9335,-0.0902
1926,438.7039,4.9335,-0.0908
1932,439.2057,4.9325,-0.0911
1938,439.7058,4.9326,-0.0916
1944,440.2039,4.9325,-0.0921
1950,440.7009,4.9312,-0.0926
1956,441.1998,4.9312,-0.0929
1962,441.6989,4.9309,-0.0937
1968,442.1996,4.9298,-0.094
1974,442.6968,4.9298,-0.0943
1980,443.193,4.9298,-0.0951
1986,443.6946,4.9285,-0.0956
1992,444.1947,4.9272,-0.0959
1998,444.6919,4.9258,-0.0964
2004,445.1899,4.9268,-0.0971
2010,445.687,4.9268,-0.0973
2016,446.1877,4.9268,-0.0978
2022,446.685,4.9262,-0.098
2028,447.1858,4.9242,-0.0987
2034,447.6842,4.9228,-0.0985
2040,448.1857,4.9241,-0.0991
2046,448.6838,4.9228,-0.0996
2052,449.1839,4.9219,-0.1
2058,449.6828,4.9208,-0.1001
2064,450.1838,4.9208,-0.1004
2070,450.6818,4.9194,-0.1006
2076,451.1827,4.9194,-0.1012
2082,451.677,4.9194,-0.1017
2088,452.1788,4.9174,-0.1019
2094,452.6777,4.9174,-0.1025
2100,453.1758,4.9174,-0.1029
2106,453.6757,4.9148,-0.1033
2112,454.1729,4.9154,-0.1039
2118,454.6719,4.9148,-0.1046
2124,455.1689,4.9121,-0.1053
2130,455.6661,4.9107,-0.1059
2136,456.1649,4.9107,-0.1069
2142,456.6648,4.9094,-0.1081
2148,457.1609,4.9081,-0.1093
2154,457.6598,4.9067,-0.1109
2160,458.1569,4.9067,-0.113
2166,458.6528,4.9067,-0.1149
2172,459.1518,4.906,-0.116
2178,459.6489,4.904,-0.1152
2184,460.147,4.904,-0.1134
2190,460.6468,4.9013,-0.1122
2196,461.1429,4.9013,-0.1118
2202,461.6438,4.9013,-0.1114
2208,462.1448,4.9,-0.1113
2214,462.6418,4.8973,-0.1114
2220,463.14,4.8973,-0.112
2226,463.6418,4.8963,-0.1121
2232,464.1437,4.895,-0.1123
2238,464.6428,4.8937,-0.1127
2244,465.1418,4.892,-0.113
2250,465.6418,4.8906,-0.1132
2256,466.1448,4.89,-0.1138
2262,466.6368,4.8883,-0.1141
2268,467.1359,4.8869,-0.1144
2274,467.6377,4.886,-0.1149
2280,468.1349,4.8846,-0.1152
2286,468.634,4.8839,-0.1154
2292,469.1339,4.8815,-0.1159
2298,469.6328,4.8826,-0.1164
2304,470.133,4.8803,-0.1166
2310,470.6328,4.8785,-0.1173
2316,471.1327,4.8783,-0.1178
2322,471.6309,4.8769,-0.1182
2328,472.1308,4.8752,-0.1187
2334,472.6308,4.8728,-0.1188
2340,473.1298,4.8725,-0.1194
2346,473.6299,4.8715,-0.12
2352,474.1298,4.8683,-0.1203
2358,474.6288,4.8662,-0.1206
2364,475.1279,4.8661,-0.1213
2370,475.626,4.8642,-0.1214
2376,476.1259,4.8634,-0.1217
2382,476.6259,4.8615,-0.1222
2388,477.1239,4.8581,-0.1227
2394,477.6257,4.8591,-0.1232
2400,478.1238,4.8568,-0.1233
2406,478.6248,4.8551,-0.124
2412,479.1211,4.8537,-0.1244
2418,479.6209,4.8524,-0.1249
2424,480.1206,4.8504,-0.1248
2430,480.6189,4.8484,-0.1255
2436,481.118,4.847,-0.1257
2442,481.6159,4.8457,-0.1261
2448,482.1138,4.843,-0.1268
2454,482.6099,4.8416,-0.1277
2460,483.1117,4.8403,-0.128
2466,483.6069,4.8383,-0.1283
2472,484.1057,4.8363,-0.1286
2478,484.6046,4.8349,-0.1293
2484,485.1029,4.8322,-0.1298
2490,485.5988,4.8309,-0.1303
2496,486.0998,4.8282,-0.1305
2502,486.5978,4.825,-0.1312
2508,487.0939,4.8236,-0.1315
2514,487.5929,4.8232,-0.1319
2520,488.0919,4.8205,-0.1326
2526,488.59,4.8189,-0.1331
2532,489.0878,4.8165,-0.1337
2538,489.5887,4.8141,-0.1341
2544,490.0848,4.8111,-0.1345
2550,490.5838,4.8098,-0.135
2556,491.0828,4.8075,-0.1357
2562,491.5819,4.8044,-0.1362
2568,492.0818,4.8028,-0.1365
2574,492.5789,4.8004,-0.1366
2580,493.0779,4.799,-0.1373
2586,493.5769,4.7958,-0.1377
2592,494.0787,4.7931,-0.1383
2598,494.5779,4.7897,-0.1384
2604,495.0788,4.7897,-0.139
2610,495.5798,4.7869,-0.1396
2616,496.0799,4.7842,-0.14
2622,496.5808,4.7815,-0.1403
2628,497.0809,4.7792,-0.1411
2634,497.5828,4.7755,-0.1415
2640,498.0831,4.7735,-0.1424
2646,498.5849,4.7708,-0.1428
2652,499.0867,4.7681,-0.1434
2658,499.5897,4.7641,-0.1439
2664,500.0926,4.7631,-0.1446
2670,500.5918,4.761,-0.1454
2676,501.0929,4.757,-0.1458
2682,501.5919,4.7542,-0.1469
2688,502.0929,4.7505,-0.1475
2694,502.5938,4.7487,-0.1481
2700,503.0909,4.7447,-0.1491
2706,503.5889,4.7401,-0.1499
2712,504.0898,4.7375,-0.1506
2718,504.5877,4.7336,-0.1515
2724,505.0842,4.7306,-0.1525
2730,505.582,4.7264,-0.1531
2736,506.0788,4.7237,-0.1541
2742,506.5762,4.7195,-0.1548
2748,507.0758,4.7152,-0.1554
2754,507.5729,4.7122,-0.1562
2760,508.0709,4.7098,-0.1572
2766,508.5679,4.7045,-0.1578
2772,509.0649,4.7014,-0.1585
2778,509.562,4.6978,-0.1594
2784,510.0617,4.6928,-0.1602
2790,510.5578,4.6884,-0.1607
2796,511.054,4.6856,-0.1615
2802,511.5538,4.6819,-0.162
2808,512.0538,4.6785,-0.1627
2814,512.5538,4.673,-0.1635
2820,513.0527,4.6689,-0.1638
2826,513.5519,4.6643,-0.1647
2832,514.0564,4.661,-0.1653
2838,514.5538,4.6555,-0.1658
2844,515.0519,4.6515,-0.1665
2850,515.5538,4.6477,-0.1671
2856,516.0539,4.6421,-0.168
2862,516.554,4.6386,-0.1686
2868,517.0558,4.6345,-0.1693
2874,517.5568,4.629,-0.1702
2880,518.0568,4.6245,-0.1708
2886,518.5568,4.6202,-0.1716
2892,519.055,4.615,-0.1724
2898,519.5568,4.6114,-0.1732
2904,520.055,4.6059,-0.1738
2910,520.5548,4.6014,-0.1747
2916,521.0538,4.596,-0.1757
2922,521.5548,4.591,-0.1765
2928,522.0556,4.5867,-0.1775
2934,522.5548,4.5824,-0.1779
2940,523.0538,4.5782,-0.1788
2946,523.5538,4.5713,-0.1796
2952,524.0519,4.567,-0.1803
2958,524.5528,4.5619,-0.1811
2964,525.0527,4.5572,-0.182
2970,525.5499,4.5515,-0.1827
2976,526.0519,4.5463,-0.1837
2982,526.5499,4.541,-0.1843
2988,527.0479,4.5355,-0.1852
2994,527.5468,4.5314,-0.1858
3000,528.0458,4.5242,-0.1867
3006,528.5459,4.5189,-0.1871
3012,529.0458,4.513,-0.1877
3018,529.5458,4.5085,-0.1882
3024,530.0456,4.5024,-0.1891
3030,530.5466,4.4974,-0.1896
3036,531.0466,4.4913,-0.1901
3042,531.5469,4.4865,-0.1907
3048,532.046,4.4809,-0.1914
3054,532.5467,4.4751,-0.1919
3060,533.0498,4.4686,-0.1922
3066,533.5498,4.4631,-0.193
3072,534.0498,4.4581,-0.1935
3078,534.5499,4.4506,-0.1943
3084,535.0481,4.4461,-0.195
3090,535.5498,4.4406,-0.1954
3096,536.0477,4.4344,-0.1961
3102,536.5467,4.4294,-0.1965
3108,537.0439,4.4221,-0.1973
3114,537.5439,4.4157,-0.1979
3120,538.0411,4.4124,-0.1986
3126,538.5419,4.4046,-0.1992
3132,539.0419,4.3987,-0.1996
3138,539.5419,4.3918,-0.2001
3144,540.0399,4.3865,-0.2008
3150,540.5389,4.381,-0.2013
3156,541.0378,4.3735,-0.2018
3162,541.535,4.3673,-0.2025
3168,542.0349,4.36,-0.2031
3174,542.532,4.3547,-0.2038
3180,543.0339,4.3475,-0.2043
3186,543.5301,4.3409,-0.2049
3192,544.0301,4.3351,-0.2055
3198,544.5289,4.3298,-0.2057
3204,545.0278,4.3237,-0.2064
3210,545.5296,4.3164,-0.2069
3216,546.0278,4.3099,-0.2072
3222,546.5297,4.3033,-0.2076
3228,547.0287,4.2966,-0.2084
3234,547.5271,4.2892,-0.2088
3240,548.0289,4.2831,-0.2091
3246,548.5318,4.2773,-0.2097
3252,549.0347,4.2693,-0.2101
3258,549.5348,4.2624,-0.2103
3264,550.0357,4.2554,-0.2109
3270,550.5368,4.2503,-0.2113
3276,551.0379,4.2435,-0.2123
3282,551.5417,4.237,-0.2126
3288,552.0419,4.2296,-0.2131
3294,552.5428,4.2207,-0.2137
3300,553.042,4.2145,-0.2144
3306,553.5429,4.2077,-0.2151
3312,554.0438,4.2013,-0.2157
3318,554.5439,4.1952,-0.2164
3324,555.0428,4.187,-0.217
3330,555.5428,4.1797,-0.218
3336,556.0408,4.1722,-0.2188
3342,556.5388,4.1662,-0.2201
3348,557.0387,4.1568,-0.2204
3354,557.5367,4.1492,-0.2217
3360,558.0338,4.1433,-0.2224
3366,558.5329,4.1366,-0.2233
3372,559.0336,4.1281,-0.2242
3378,559.5318,4.1205,-0.225
3384,560.0307,4.1125,-0.226
3390,560.5298,4.1031,-0.2271
3396,561.027,4.097,-0.2284
3402,561.525,4.0902,-0.2297
3408,562.0258,4.0809,-0.2303
3414,562.5209,4.0726,-0.2314
3420,563.0229,4.0649,-0.2328
3426,563.5178,4.0573,-0.2338
3432,564.0169,4.0482,-0.235
3438,564.5148,4.0389,-0.2363
3444,565.0166,4.031,-0.2373
3450,565.5129,4.0227,-0.2388
3456,566.0128,4.0153,-0.2398
3462,566.5108,4.0066,-0.241
3468,567.0109,3.9975,-0.2422
3474,567.5109,3.9894,-0.2433
3480,568.0099,3.9808,-0.2447
3486,568.5108,3.9716,-0.2461
3492,569.0118,3.9623,-0.2474
3498,569.5082,3.954,-0.2486
3504,570.0127,3.9435,-0.2501
3510,570.5099,3.9345,-0.2513
3516,571.0145,3.9261,-0.2526
3522,571.5159,3.9163,-0.2541
3528,572.015,3.9051,-0.2553
3534,572.5199,3.8953,-0.2569
3540,573.0228,3.8866,-0.2583
3546,573.5219,3.878,-0.26
3552,574.0229,3.8672,-0.2616
3558,574.5237,3.857,-0.2633
3564,575.0236,3.8467,-0.2651
3570,575.522,3.8363,-0.2668
3576,576.0201,3.8252,-0.2683
3582,576.5229,3.8143,-0.2702
3588,577.018,3.8034,-0.2722
3594,577.5189,3.7935,-0.2739
3600,578.0188,3.7826,-0.276
3606,578.5148,3.773,-0.2778
3612,579.0139,3.7623,-0.2793
3618,579.5118,3.7494,-0.2813
3624,580.0099,3.7386,-0.2832
3630,580.5079,3.7271,-0.2855
3636,581.0059,3.7148,-0.2872
3642,581.5068,3.7026,-0.2891
3648,582.003,3.6928,-0.2912
3654,582.5039,3.68,-0.2927
3660,583.0038,3.6665,-0.2948
3666,583.5038,3.6536,-0.2968
3672,584.0049,3.6439,-0.2987
3678,584.5028,3.6308,-0.3002
3684,585.002,3.6198,-0.3022
3690,585.5038,3.6075,-0.3039
3696,586.0019,3.5931,-0.3054
3702,586.5018,3.5807,-0.3072
3708,587.0029,3.5678,-0.3089
3714,587.5038,3.5552,-0.3103
3720,588.0009,3.542,-0.3124
3726,588.504,3.5293,-0.3141
3732,589.003,3.515,-0.3156
3738,589.5047,3.5007,-0.3172
3744,590.0031,3.4869,-0.3188
3750,590.5039,3.474,-0.3204
3756,591.0049,3.4609,-0.3222
3762,591.5068,3.4468,-0.3237
3768,592.006,3.4318,-0.3254
3774,592.5078,3.4186,-0.3269
3780,593.0069,3.4055,-0.3285
3786,593.508,3.3899,-0.3302
3792,594.0088,3.3758,-0.3315
3798,594.5108,3.3626,-0.333
3804,595.0099,3.3485,-0.334
3810,595.5108,3.3343,-0.3355
3816,596.0158,3.3186,-0.337
3822,596.5139,3.3047,-0.3384
3828,597.0168,3.2893,-0.3396
3834,597.5168,3.2736,-0.3409
3840,598.0207,3.2605,-0.3422
3846,598.5217,3.2468,-0.3437
3852,599.0237,3.2305,-0.345
3858,599.5248,3.2148,-0.3463
3864,600.0258,3.1999,-0.3477
3870,600.526,3.1843,-0.3489
3876,601.0258,3.1695,-0.3504
3882,601.5278,3.1558,-0.3518
3888,602.025,3.1396,-0.353
3894,602.5249,3.123,-0.3545
3900,603.0238,3.1072,-0.3562
3906,603.5209,3.0925,-0.3576
3912,604.0188,3.0764,-0.3594
3918,604.5159,3.0617,-0.3614
3924,605.0128,3.0459,-0.3625
3930,605.5107,3.0297,-0.3643
3936,606.005,3.0141,-0.3659
3942,606.5031,2.9981,-0.3677
3948,606.9979,2.9823,-0.3692
3954,607.496,2.9661,-0.3706
3960,607.9938,2.9507,-0.372
3966,608.4938,2.9348,-0.3738
3972,608.9927,2.9188,-0.3754
3978,609.489,2.9017,-0.3769
3984,609.9888,2.8854,-0.3784
3990,610.4859,2.8688,-0.3803
3996,610.9867,2.8526,-0.382
4002,611.4839,2.8347,-0.384
4008,611.9837,2.8181,-0.3859
4014,612.485,2.8029,-0.3874
4020,612.9868,2.786,-0.3895
4026,613.4868,2.7681,-0.3912
4032,613.9878,2.7515,-0.3933
4038,614.4909,2.7349,-0.3954
4044,614.9919,2.7177,-0.3973
4050,615.4927,2.6999,-0.3994
4056,615.994,2.6821,-0.402
4062,616.4961,2.6644,-0.4046
4068,616.9998,2.6455,-0.4067
4074,617.5019,2.627,-0.4098
4080,618.0059,2.6095,-0.4123
4086,618.5048,2.5918,-0.415
4092,619.004,2.5747,-0.4177
4098,619.5049,2.5542,-0.4204
4104,620.0049,2.5352,-0.4235
4110,620.5058,2.517,-0.4262
4116,621.0039,2.4983,-0.4288
4122,621.5039,2.4789,-0.4317
4128,622.0028,2.4597,-0.4341
4134,622.5019,2.4397,-0.4369
4140,623.0009,2.4187,-0.4398
4146,623.5008,2.3991,-0.4422
4152,623.9987,2.379,-0.4443
4158,624.4977,2.3592,-0.4466
4164,624.9938,2.3396,-0.4489
4170,625.4958,2.3188,-0.4509
4176,625.9938,2.2988,-0.4531
4182,626.4919,2.2785,-0.4551
4188,626.9908,2.2569,-0.4571
4194,627.4907,2.2362,-0.4587
4200,627.986,2.216,-0.4603
4206,628.487,2.1947,-0.4618
4212,628.9876,2.1735,-0.4631
4218,629.4848,2.1527,-0.4643
4224,629.9847,2.1301,-0.4654
4230,630.4819,2.1089,-0.4662
4236,630.9789,2.087,-0.4667
4242,631.4779,2.0663,-0.467
4248,631.9779,2.0446,-0.4669
4254,632.476,2.0234,-0.4668
4260,632.9759,2.0024,-0.4659
4266,633.4757,1.9813,-0.4651
4272,633.9739,1.9603,-0.4635
4278,634.4739,1.9383,-0.4622
4284,634.9746,1.9189,-0.4599
4290,635.4748,1.898,-0.4573
4296,635.9748,1.8765,-0.4549
4302,636.475,1.8577,-0.4514
4308,636.9768,1.8379,-0.4476
4314,637.4789,1.8181,-0.4436
4320,637.977,1.7977,-0.4391
4326,638.4788,1.7792,-0.4341
4332,638.9789,1.7608,-0.4287
4338,639.4809,1.743,-0.4231
4344,639.9818,1.7248,-0.4168
4350,640.4848,1.7081,-0.4098
4356,640.9842,1.6909,-0.4024
4362,641.4879,1.6761,-0.3945
4368,641.9917,1.6593,-0.387
4374,642.4938,1.6445,-0.3783
4380,642.9959,1.6291,-0.3696
4386,643.4969,1.6152,-0.3603
4392,643.9998,1.6025,-0.3507
4398,644.4999,1.5898,-0.3417
4404,645.002,1.5783,-0.3326
4410,645.5055,1.5661,-0.3231
4416,646.0079,1.5554,-0.3138
4422,646.5089,1.5467,-0.3046
4428,647.0079,1.5362,-0.2954
4434,647.5086,1.5285,-0.2865
4440,648.0079,1.5196,-0.2786
4446,648.5079,1.5125,-0.2706
4452,649.005,1.5065,-0.2627
4458,649.5058,1.498,-0.2556
4464,650.0028,1.4929,-0.2491
4470,650.4999,1.4871,-0.2426
4476,650.9989,1.4832,-0.2369
4482,651.4953,1.4772,-0.2319
4488,651.993,1.4744,-0.2274
4494,652.4918,1.4699,-0.2236
4500,652.9899,1.4655,-0.2197
4506,653.4889,1.4619,-0.2168
4512,653.9917,1.4601,-0.2141
4518,654.4898,1.4569,-0.2119
4524,654.9888,1.4538,-0.2097
4530,655.4869,1.451,-0.2084
4536,655.9878,1.4489,-0.207
4542,656.484,1.4468,-0.2065
4548,656.9841,1.4441,-0.2057
4554,657.4875,1.4415,-0.2048
4560,657.9859,1.4401,-0.2043
4566,658.4859,1.4374,-0.2042
4572,658.9859,1.4351,-0.2041
4578,659.4848,1.4325,-0.204
4584,659.9848,1.431,-0.2043
4590,660.483,1.4296,-0.2045
4596,660.9818,1.4269,-0.2045
4602,661.4829,1.4263,-0.205
4608,661.9817,1.4249,-0.2052
4614,662.477,1.4216,-0.2057
4620,662.976,1.4185,-0.2061
4626,663.4749,1.4172,-0.2064
4632,663.9729,1.4159,-0.2068
4638,664.4718,1.4145,-0.2075
4644,664.9699,1.4128,-0.2079
4650,665.4689,1.4102,-0.2081
4656,665.9661,1.4088,-0.2084
4662,666.4622,1.4072,-0.2091
4668,666.9638,1.4052,-0.2092
4674,667.4628,1.4035,-0.2096
4680,667.9601,1.4021,-0.21
4686,668.4628,1.4008,-0.2102
4692,668.9609,1.3972,-0.2104
4698,669.462,1.3957,-0.2112
4704,669.9638,1.3947,-0.2114
4710,670.4638,1.3931,-0.2116
4716,670.9619,1.39,-0.212
4722,671.4639,1.3887,-0.2122
4728,671.9678,1.3873,-0.2126
4734,672.4678,1.3846,-0.2131
4740,672.9678,1.3819,-0.2131
4746,673.4699,1.3805,-0.2137
4752,673.9727,1.3786,-0.214
4758,674.4749,1.3778,-0.2142
4764,674.9769,1.3765,-0.2148
4770,675.4797,1.3738,-0.2152
4776,675.981,1.3715,-0.2155
4782,676.4829,1.3701,-0.216
4788,676.9856,1.3685,-0.2166
4794,677.4859,1.3675,-0.2171
4800,677.9879,1.3661,-0.2178
4806,678.4898,1.3634,-0.2183
4812,678.9898,1.3621,-0.2192
4818,679.4879,1.3607,-0.2201
4824,679.9887,1.3581,-0.2204
4830,680.4898,1.3581,-0.2213
4836,680.9878,1.3554,-0.2217
4842,681.4859,1.3551,-0.2225
4848,681.9851,1.3524,-0.2228
4854,682.4866,1.351,-0.2238
4860,682.9849,1.3483,-0.2248
4866,683.4829,1.347,-0.2251
4872,683.982,1.3453,-0.2257
4878,684.4808,1.343,-0.2265
4884,684.9809,1.3416,-0.2274
4890,685.4769,1.3403,-0.228
4896,685.976,1.3389,-0.2288
4902,686.474,1.3376,-0.2295
4908,686.9749,1.3337,-0.2304
4914,687.472,1.3336,-0.2308
4920,687.9706,1.331,-0.2319
4926,688.4642,1.3296,-0.233
4932,688.9659,1.3282,-0.2335
4938,689.4638,1.3269,-0.2341
4944,689.96,1.3242,-0.2346
4950,690.4589,1.3228,-0.2358
4956,690.9579,1.3215,-0.2362
4962,691.4568,1.3191,-0.2371
4968,691.9567,1.3188,-0.2377
4974,692.453,1.3151,-0.2384
4980,692.9531,1.3138,-0.2393
4986,693.452,1.3138,-0.24
4992,693.9548,1.3125,-0.2407
4998,694.4529,1.3104,-0.2416
5004,694.9541,1.3084,-0.2423
5010,695.4567,1.3058,-0.2429
5016,695.9578,1.3044,-0.2437
5022,696.4588,1.3031,-0.2443
5028,696.9619,1.3017,-0.2451
5034,697.4628,1.3004,-0.2461
5040,697.9638,1.299,-0.2473
5046,698.4649,1.2967,-0.2482
5052,698.9659,1.294,-0.2493
5058,699.4678,1.2927,-0.2504
5064,699.9668,1.2927,-0.2517
5070,700.4638,1.2903,-0.2528
5076,700.9619,1.2877,-0.2543
5082,701.4609,1.2876,-0.2554
5088,701.9579,1.2863,-0.2568
5094,702.4548,1.284,-0.2581
5100,702.9539,1.2833,-0.2592
5106,703.4498,1.2819,-0.2604
5112,703.9449,1.2793,-0.2621
5118,704.4437,1.2779,-0.2632
5124,704.9409,1.2766,-0.2647
5130,705.4388,1.2752,-0.2659
5136,705.9339,1.2752,-0.2671
5142,706.4338,1.2739,-0.2686
5148,706.9329,1.2722,-0.2696
5154,707.4328,1.2696,-0.2711
5160,707.9338,1.2689,-0.2721
5166,708.4328,1.2675,-0.2732
5172,708.9338,1.2648,-0.2746
5178,709.4359,1.2635,-0.276
5184,709.9378,1.2635,-0.277
5190,710.4389,1.2618,-0.2781
5196,710.9417,1.2595,-0.2792
5202,711.4428,1.2581,-0.2808
5208,711.9459,1.2581,-0.2822
5214,712.4496,1.2568,-0.2836
5220,712.9508,1.2554,-0.2847
5226,713.4538,1.2541,-0.2862
5232,713.9558,1.2541,-0.2872
5238,714.4577,1.2514,-0.2888
5244,714.9581,1.2501,-0.2901
5250,715.4627,1.2487,-0.2917
5256,715.963,1.2474,-0.2932
5262,716.466,1.2474,-0.2944
5268,716.9689,1.2467,-0.296
5274,717.4717,1.2454,-0.2975
5280,717.9727,1.244,-0.2989
5286,718.4699,1.2427,-0.3006
5292,718.9701,1.2413,-0.3021
5298,719.4709,1.2413,-0.304
5304,719.9698,1.2397,-0.3054
5310,720.4677,1.2387,-0.3073
5316,720.9648,1.2373,-0.3089
5322,721.4638,1.236,-0.3107
5328,721.9589,1.2346,-0.3124
5334,722.454,1.2346,-0.3138
5340,722.9539,1.2326,-0.3157
5346,723.4498,1.2313,-0.3169
5352,723.9468,1.2307,-0.3185
5358,724.4438,1.2299,-0.3199
5364,724.9438,1.2285,-0.3211
5370,725.4418,1.2272,-0.3227
5376,725.9399,1.2258,-0.3239
5382,726.4398,1.2258,-0.3253
5388,726.9408,1.2245,-0.3264
5394,727.4398,1.2231,-0.3278
5400,727.9407,1.2231,-0.3293
5406,728.4438,1.2218,-0.3303
5412,728.9438,1.2228,-0.3317
5418,729.4449,1.2204,-0.3331
5424,729.9479,1.2191,-0.3345
5430,730.449,1.2178,-0.3358
5436,730.9519,1.2178,-0.3369
5442,731.4539,1.2164,-0.3379
5448,731.9559,1.2151,-0.3397
5454,732.4578,1.2157,-0.3407
5460,732.9589,1.2144,-0.3421
5466,733.4619,1.2144,-0.3437
5472,733.9628,1.2117,-0.3454
5478,734.463,1.2111,-0.3467
5484,734.965,1.2103,-0.3487
5490,735.465,1.2089,-0.3499
5496,735.9678,1.2079,-0.3512
5502,736.468,1.2086,-0.353
5508,736.9689,1.2066,-0.3545
5514,737.4689,1.2066,-0.3559
5520,737.9678,1.2052,-0.3577
5526,738.468,1.2052,-0.3589
5532,738.9718,1.204,-0.3603
5538,739.4719,1.2026,-0.3618
5544,739.972,1.2026,-0.3633
5550,740.4729,1.2012,-0.3649
5556,740.9748,1.2012,-0.3661
5562,741.4759,1.2012,-0.3679
5568,741.9749,1.2002,-0.3694
5574,742.4784,1.1999,-0.3709
5580,742.9761,1.1985,-0.3727
5586,743.4748,1.1985,-0.3742
5592,743.972,1.1968,-0.3761
5598,744.4729,1.1955,-0.3778
5604,744.9709,1.1942,-0.3795
5610,745.4718,1.1942,-0.3811
5616,745.9699,1.1939,-0.3829
5622,746.4709,1.1928,-0.3845
5628,746.9689,1.1928,-0.3856
5634,747.4688,1.1915,-0.3872
5640,747.9668,1.1908,-0.3889
5646,748.4649,1.1901,-0.3908
5652,748.963,1.1895,-0.3924
5658,749.4609,1.1881,-0.3939
5664,749.9618,1.1875,-0.3955
5670,750.4588,1.1868,-0.397
5676,750.9589,1.1855,-0.3986
5682,751.4568,1.1854,-0.4
5688,751.9548,1.1854,-0.4017
5694,752.4548,1.1844,-0.4029
5700,752.9548,1.1841,-0.4043
5706,753.4529,1.1828,-0.4055
5712,753.9508,1.1828,-0.4071
5718,754.4499,1.1828,-0.4084
5724,754.9508,1.1801,-0.4099
5730,755.4508,1.1811,-0.4112
5736,755.9537,1.1797,-0.4126
5742,756.4557,1.1797,-0.4145
5748,756.9558,1.1771,-0.4156
5754,757.4587,1.1784,-0.4173
5760,757.9579,1.1771,-0.4188
5766,758.4571,1.1765,-0.4201
5772,758.9599,1.1757,-0.4217
5778,759.4588,1.1757,-0.4233
5784,759.9609,1.1764,-0.4249
5790,760.4638,1.1751,-0.4266
5796,760.9657,1.1737,-0.4281
5802,761.4678,1.1728,-0.4296
5808,761.9679,1.1724,-0.431
5814,762.4708,1.1734,-0.4325
5820,762.9728,1.172,-0.434
5826,763.4737,1.1707,-0.4357
5832,763.9738,1.1693,-0.4376
5838,764.4729,1.1693,-0.4391
5844,764.9689,1.1707,-0.441
5850,765.4691,1.1694,-0.4431
5856,765.9699,1.168,-0.4448
5862,766.4679,1.168,-0.4465
5868,766.9658,1.168,-0.4484
5874,767.4657,1.168,-0.4495
5880,767.9667,1.1667,-0.4512
5886,768.4669,1.1667,-0.4528
5892,768.9668,1.1667,-0.4542
5898,769.4669,1.1667,-0.4553
5904,769.9696,1.1653,-0.4574
5910,770.4699,1.1653,-0.4585
5916,770.9728,1.163,-0.4606
5922,771.4729,1.1629,-0.4619
5928,771.9758,1.1642,-0.4635
5934,772.4779,1.1619,-0.4655
5940,772.9808,1.1615,-0.4671
5946,773.4838,1.1612,-0.4685
5952,773.9858,1.1602,-0.4704
5958,774.4879,1.1602,-0.4722
5964,774.9917,1.1602,-0.474
5970,775.4919,1.1596,-0.476
5976,775.9927,1.1588,-0.4779
5982,776.492,1.1588,-0.4799
5988,776.993,1.1582,-0.4817
5994,777.4918,1.1585,-0.4838
6000,777.9957,1.1572,-0.4855
6006,778.4939,1.1568,-0.4875
6012,778.9947,1.1556,-0.4893
6018,779.4921,1.1548,-0.4913
6024,779.9919,1.1548,-0.493
6030,780.4928,1.1548,-0.4951
6036,780.9911,1.1541,-0.4968
6042,781.4909,1.1548,-0.4989
6048,781.9899,1.1548,-0.501
6054,782.486,1.1535,-0.5031
6060,782.9831,1.1535,-0.5053
6066,783.4826,1.1535,-0.5074
6072,783.974,1.1508,-0.5095
6078,784.4719,1.1508,-0.5116
6084,784.9659,1.1508,-0.5132
6090,785.4618,1.1495,-0.5153
6096,785.9579,1.1495,-0.5175
6102,786.4549,1.1518,-0.5191
6108,786.953,1.1491,-0.5207
6114,787.4517,1.1491,-0.5227
6120,787.9479,1.1485,-0.5244
6126,788.4508,1.1481,-0.526
6132,788.9501,1.1472,-0.5271
6138,789.4519,1.1471,-0.5286
6144,789.9549,1.1471,-0.53
6150,790.458,1.1471,-0.5316
6156,790.962,1.1465,-0.5333
6162,791.4657,1.1454,-0.5348
6168,791.9689,1.1441,-0.5366
6174,792.4729,1.1441,-0.5386
6180,792.9769,1.1431,-0.5403
6186,793.4789,1.1444,-0.5422
6192,793.9817,1.1434,-0.5445
6198,794.4839,1.1421,-0.5464
6204,794.986,1.1431,-0.5482
6210,795.4869,1.1417,-0.5502
6216,795.9887,1.1417,-0.5524
6222,796.4898,1.1404,-0.5545
6228,796.9898,1.1404,-0.5567
6234,797.4927,1.1404,-0.5584
6240,797.9939,1.1404,-0.5604
6246,798.4929,1.1401,-0.5623
6252,798.9938,1.1391,-0.5645
6258,799.4959,1.1377,-0.5667
6264,799.996,1.1377,-0.5688
6270,800.4949,1.1377,-0.5707
6276,800.9938,1.1377,-0.5732
6282,801.4939,1.1377,-0.5755
6288,801.9947,1.1364,-0.5774
6294,802.4958,1.1364,-0.5796
6300,802.9939,1.1364,-0.5815
6306,803.4949,1.1341,-0.5837
6312,803.9977,1.134,-0.5853
6318,804.4961,1.134,-0.5874
6324,804.9999,1.134,-0.5897
6330,805.4992,1.134,-0.5918
6336,806.0028,1.1337,-0.5935
6342,806.5029,1.1323,-0.5955
6348,807.0056,1.1323,-0.5978
6354,807.5039,1.1323,-0.6001
6360,808.0078,1.1323,-0.602
6366,808.506,1.131,-0.6044
6372,809.007,1.131,-0.6066
6378,809.5079,1.1303,-0.6083
6384,810.0089,1.131,-0.6103
6390,810.5106,1.1301,-0.6128
6396,811.0118,1.13,-0.6152
6402,811.5119,1.129,-0.6172
6408,812.0099,1.1287,-0.6198
6414,812.5088,1.1293,-0.6222
6420,813.0079,1.1283,-0.6245
6426,813.5058,1.1273,-0.627
6432,814.0049,1.127,-0.629
6438,814.5028,1.1263,-0.6317
6444,815.0016,1.1266,-0.6347
6450,815.4996,1.1266,-0.637
6456,815.9969,1.1253,-0.6395
6462,816.4919,1.125,-0.6421
6468,816.9908,1.1237,-0.6445
6474,817.4858,1.1236,-0.6471
6480,817.9828,1.1223,-0.6497
6486,818.4808,1.1223,-0.6521
6492,818.9788,1.1236,-0.6541
6498,819.4777,1.1213,-0.6559
6504,819.9751,1.1213,-0.6582
6510,820.4749,1.1213,-0.6598
6516,820.9748,1.1213,-0.662
6522,821.4765,1.1213,-0.6639
6528,821.9759,1.1213,-0.6659
6534,822.4777,1.1199,-0.6682
6540,822.9777,1.1189,-0.6706
6546,823.4798,1.1189,-0.6727
6552,823.9798,1.1189,-0.6747
6558,824.4798,1.1189,-0.6765
6564,824.98,1.1189,-0.6791
6570,825.4827,1.1183,-0.6814
6576,825.9831,1.1169,-0.6836
6582,826.486,1.1169,-0.6864
6588,826.988,1.1169,-0.689
6594,827.4888,1.1162,-0.6911
6600,827.989,1.1156,-0.6936
6606,828.4907,1.1156,-0.696
6612,828.9919,1.1145,-0.6988
6618,829.493,1.1156,-0.7012
6624,829.994,1.1142,-0.7038
6630,830.4949,1.1156,-0.7068
6636,831.0005,1.1146,-0.7088
6642,831.498,1.1146,-0.7111
6648,831.9999,1.1146,-0.7142
6654,832.501,1.1132,-0.7169
6660,833.0028,1.1132,-0.7196
6666,833.5037,1.1119,-0.7226
6672,834.0037,1.1132,-0.7252
6678,834.5009,1.1119,-0.7277
6684,835.0008,1.1132,-0.7304
6690,835.4999,1.1105,-0.7331
6696,835.9978,1.1102,-0.7359
6702,836.4968,1.1101,-0.7384
6708,836.995,1.1119,-0.7411
6714,837.4929,1.1106,-0.7437
6720,837.9928,1.1079,-0.7465
6726,838.4907,1.1079,-0.749
6732,838.991,1.1089,-0.7514
6738,839.4899,1.1089,-0.7536
6744,839.9907,1.1089,-0.7568
6750,840.4888,1.1065,-0.7596
6756,840.9858,1.1065,-0.7627
6762,841.4827,1.1079,-0.7659
6768,841.976,1.1058,-0.7683
6774,842.4719,1.1058,-0.7716
6780,842.9668,1.1048,-0.7745
6786,843.4618,1.1048,-0.7774
6792,843.9588,1.1048,-0.7807
6798,844.4519,1.1048,-0.7833
6804,844.948,1.1048,-0.786
6810,845.4449,1.1032,-0.7887
6816,845.9429,1.1019,-0.7912
6822,846.4412,1.1021,-0.7941
6828,846.9399,1.1015,-0.7966
6834,847.439,1.1012,-0.7987
6840,847.9417,1.0998,-0.8011
6846,848.4428,1.0998,-0.8035
6852,848.9459,1.0998,-0.8058
6858,849.4517,1.0992,-0.808
6864,849.9567,1.0998,-0.8106
6870,850.4599,1.1012,-0.8131
6876,850.9638,1.0998,-0.8158
6882,851.4678,1.0991,-0.819
6888,851.9718,1.0991,-0.8223
6894,852.4748,1.0972,-0.8252
6900,852.9801,1.0971,-0.8277
6906,853.4859,1.0985,-0.8313
6912,853.9907,1.0985,-0.8337
6918,854.4916,1.0985,-0.8366
6924,854.9939,1.0971,-0.8393
6930,855.4957,1.0971,-0.8418
6936,855.999,1.0968,-0.8449
6942,856.499,1.0955,-0.8477
6948,857.0009,1.0955,-0.8503
6954,857.5038,1.0965,-0.8529
6960,858.0057,1.0965,-0.855
6966,858.5051,1.0951,-0.8581
6972,859.0088,1.0938,-0.8605
6978,859.5089,1.0938,-0.8638
6984,860.0097,1.0938,-0.8668
6990,860.5097,1.0938,-0.8694
6996,861.0079,1.0938,-0.8726
7002,861.5058,1.0938,-0.8757
7008,862.0057,1.0928,-0.8791
7014,862.5029,1.0928,-0.8822
7020,863.0008,1.0914,-0.8849
7026,863.4979,1.0924,-0.8883
7032,863.995,1.0911,-0.8912
7038,864.4939,1.0905,-0.8941
7044,864.9909,1.0904,-0.8973
7050,865.4898,1.0917,-0.9005
7056,865.9889,1.0904,-0.9034
7062,866.484,1.0904,-0.9066
7068,866.9829,1.0894,-0.9095
7074,867.4798,1.0894,-0.9128
7080,867.9779,1.0891,-0.9157
7086,868.477,1.0881,-0.9183
7092,868.977,1.0867,-0.9215
7098,869.4758,1.0881,-0.9244
7104,869.9719,1.0881,-0.9272
7110,870.4699,1.0881,-0.9299
7116,870.967,1.0867,-0.9326
7122,871.4676,1.0867,-0.9349
7128,871.9639,1.0867,-0.9373
7134,872.4609,1.0854,-0.94
7140,872.9579,1.0854,-0.9425
7146,873.4577,1.0854,-0.9451
7152,873.9579,1.084,-0.9452
7158,874.4569,1.0854,-0.9478
7164,874.9579,1.0847,-0.9502
7170,875.4579,1.084,-0.9528
7176,875.9579,1.084,-0.9556
7182,876.4579,1.084,-0.9577
7188,876.9589,1.083,-0.9601
7194,877.46,1.083,-0.9628
7200,877.9628,1.083,-0.9649
7206,878.4633,1.083,-0.9674
7212,878.9688,1.083,-0.9698
7218,879.4699,1.0817,-0.9725
7224,879.9728,1.0817,-0.975
7230,880.473,1.084,-0.9775
7236,880.9759,1.0814,-0.9798
7242,881.4778,1.0807,-0.9825
7248,881.9778,1.0807,-0.9848
7254,882.477,1.0807,-0.9875
7260,882.9816,1.0807,-0.99
7266,883.4799,1.0807,-0.9929
7272,883.981,1.0794,-0.9957
7278,884.482,1.0794,-0.9976
7284,884.984,1.0794,-1.0004
7290,885.4849,1.078,-1.0026
7296,885.9867,1.078,-1.0048
7302,886.4868,1.078,-1.0071
7308,886.9898,1.0767,-1.0092
7314,887.4898,1.0767,-1.0117
7320,887.9899,1.0767,-1.0144
7326,888.492,1.0767,-1.0167
7332,888.9919,1.0767,-1.0193
7338,889.4919,1.0767,-1.0215
7344,889.9937,1.0757,-1.0239
7350,890.4938,1.0757,-1.026
7356,890.992,1.0744,-1.0287
7362,891.4935,1.0737,-1.0312
7368,891.9928,1.0737,-1.0333
7374,892.4898,1.0737,-1.0349
7380,892.9907,1.0737,-1.0371
7386,893.4878,1.0733,-1.0389
7392,893.9859,1.072,-1.0406
7398,894.483,1.072,-1.0427
7404,894.9828,1.072,-1.0445
7410,895.4789,1.072,-1.0467
7416,895.9779,1.072,-1.0487
7422,896.4789,1.072,-1.0504
7428,896.9779,1.0721,-1.0525
7434,897.4789,1.072,-1.0541
7440,897.9771,1.0713,-1.0559
7446,898.4777,1.071,-1.0579
7452,898.9787,1.071,-1.0601
7458,899.4779,1.071,-1.0622
7464,899.9787,1.0703,-1.0643
7470,900.478,1.0703,-1.0666
7476,900.9789,1.0703,-1.0676
7482,901.4818,1.0693,-1.0691
7488,901.9828,1.0693,-1.0711
7494,902.4841,1.0693,-1.0723
7500,902.9876,1.07,-1.0734
7506,903.487,1.07,-1.0748
7512,903.9907,1.0696,-1.0756
7518,904.4918,1.069,-1.077
7524,904.9927,1.069,-1.0788
7530,905.494,1.0676,-1.08
7536,905.9968,1.0669,-1.0811
7542,906.4998,1.0683,-1.0828
7548,907.001,1.0673,-1.0845
7554,907.5036,1.0669,-1.0866
7560,908.004,1.0669,-1.0887
7566,908.5049,1.0669,-1.0903
7572,909.0067,1.0669,-1.0922
7578,909.5069,1.0669,-1.0941
7584,910.0059,1.0676,-1.0959
7590,910.5058,1.0666,-1.0975
7596,911.007,1.0663,-1.099
7602,911.5087,1.0663,-1.1006
7608,912.0079,1.0653,-1.1018
7614,912.507,1.0666,-1.1036
7620,913.0058,1.0653,-1.1051
7626,913.5069,1.0639,-1.1067
7632,914.0068,1.0653,-1.1082
7638,914.5049,1.0653,-1.1094
7644,915.004,1.0643,-1.1105
7650,915.5039,1.0643,-1.1116
7656,915.9999,1.0637,-1.1129
7662,916.4999,1.0629,-1.1138
7668,916.9959,1.0636,-1.1157
7674,917.4968,1.0623,-1.1163
7680,917.9949,1.0636,-1.1183
7686,918.4928,1.0623,-1.1191
7692,918.9908,1.0636,-1.1207
7698,919.4878,1.0609,-1.1217
7704,919.9869,1.0609,-1.1229
7710,920.486,1.0619,-1.1239
7716,920.985,1.0619,-1.1251
7722,921.4849,1.0609,-1.1263
7728,921.986,1.0609,-1.1272
7734,922.4857,1.0609,-1.129
7740,922.9818,1.0609,-1.1298
7746,923.4799,1.0609,-1.1307
7752,923.9798,1.0596,-1.1315
7758,924.4818,1.0596,-1.1321
7764,924.9809,1.0596,-1.1333
7770,925.4838,1.0596,-1.134
7776,925.983,1.0596,-1.1348
7782,926.4839,1.0596,-1.1353
7788,926.9849,1.0576,-1.1365
7794,927.485,1.0586,-1.1373
7800,927.9839,1.0576,-1.1384
7806,928.4839,1.0572,-1.1391
7812,928.9869,1.0559,-1.1398
7818,929.4877,1.0559,-1.1405
7824,929.9869,1.0572,-1.1416
7830,930.4879,1.0572,-1.1425
7836,930.9879,1.0549,-1.1434
7842,931.4888,1.0555,-1.1434
7848,931.9898,1.0569,-1.1441
7854,932.4948,1.0562,-1.1444
7860,932.9949,1.0562,-1.1456
7866,933.4978,1.0549,-1.1457
7872,934.0028,1.0545,-1.1468
7878,934.5047,1.0545,-1.1507
7884,935.0039,1.0545,-1.1521
7890,935.5058,1.0549,-1.1533
7896,936.0059,1.0549,-1.1545
7902,936.5079,1.0535,-1.1555
7908,937.0096,1.0535,-1.1564
7914,937.5099,1.0529,-1.1574
7920,938.0098,1.0529,-1.1583
7926,938.507,1.0529,-1.1592
7932,939.0047,1.0529,-1.1605
7938,939.5009,1.0529,-1.1609
7944,939.9998,1.0515,-1.1614
7950,940.4997,1.0515,-1.1625
7956,940.9959,1.0522,-1.1632
7962,941.4929,1.0522,-1.1641
7968,941.991,1.0508,-1.1647
7974,942.4878,1.0516,-1.1658
7980,942.9858,1.0508,-1.1659
7986,943.4859,1.0505,-1.1664
7992,943.9829,1.0505,-1.1666
7998,944.482,1.0492,-1.1665
8004,944.9828,1.0502,-1.1666
8010,945.4837,1.0509,-1.1669
8016,945.986,1.0495,-1.1673
8022,946.4859,1.0508,-1.1676
8028,946.9879,1.0509,-1.1683
8034,947.4898,1.0488,-1.1685
8040,947.9899,1.0488,-1.1694
8046,948.4892,1.0488,-1.1699
8052,948.9936,1.0502,-1.1707
8058,949.4938,1.0488,-1.1715
8064,949.9937,1.0502,-1.1723
8070,950.4949,1.0488,-1.1729
8076,950.9976,1.0488,-1.1734
8082,951.4979,1.0488,-1.1738
8088,952.0008,1.0495,-1.1739
8094,952.5037,1.0482,-1.1743
8100,953.0068,1.0482,-1.175
8106,953.507,1.0482,-1.1759
8112,954.0081,1.0468,-1.1771
8118,954.5119,1.0482,-1.178
8124,955.0118,1.0468,-1.1788
8130,955.5147,1.0468,-1.1791
8136,956.0159,1.0468,-1.1796
8142,956.5199,1.0468,-1.1798
8148,957.0181,1.0462,-1.1805
8154,957.5198,1.0468,-1.1816
8160,958.0217,1.0458,-1.1819
8166,958.52,1.0468,-1.1833
8172,959.0189,1.0468,-1.1842
8178,959.5177,1.0468,-1.1846
8184,960.0188,1.0455,-1.1856
8190,960.5187,1.0455,-1.1855
8196,961.0159,1.0465,-1.186
8202,961.5155,1.0465,-1.1871
8208,962.0109,1.0441,-1.1881
8214,962.5079,1.0455,-1.1892
8220,963.0078,1.0442,-1.1901
8226,963.502,1.0441,-1.1905
8232,964.0001,1.0452,-1.1914
8238,964.4978,1.0425,-1.1926
8244,964.9939,1.0438,-1.1934
8250,965.4911,1.0438,-1.1936
8256,965.988,1.0425,-1.1942
8262,966.486,1.0437,-1.1945
8268,966.9842,1.0438,-1.1948
8274,967.4849,1.0431,-1.1952
8280,967.9859,1.0418,-1.1958
8286,968.4849,1.0425,-1.1958
8292,968.9878,1.0425,-1.1966
8298,969.4897,1.0411,-1.1968
8304,969.9896,1.0411,-1.1972
8310,970.4909,1.0411,-1.1995
8316,970.9949,1.0411,-1.2004
8322,971.4979,1.0411,-1.2016
8328,971.9999,1.0398,-1.202
8334,972.5037,1.0384,-1.2021
8340,973.0068,1.0398,-1.2028
8343,973.212,1.0398,-1.2038