File: Wood/Calibration_Data/TIFP+UCT/TIFP+UCT_STA_N2_20K_R3.csv
Time (s),Temperature (K),Mass (mg),Heat Flow Rate (W/g)
0,303.245,4.9174,-0.0034
2,303.2443,4.9176,-0.0032
4,303.2423,4.9169,-0.0033
6,303.242,4.9173,-0.0034
8,303.2403,4.9174,-0.0034
10,303.2403,4.9168,-0.0033
12,303.236,4.9174,-0.0033
14,303.234,4.9161,-0.0036
16,303.2367,4.9163,-0.0036
18,303.234,4.9161,-0.0037
20,303.2333,4.9162,-0.0037
22,303.2287,4.9161,-0.0038
24,303.229,4.9159,-0.0038
26,303.2283,4.9168,-0.0037
28,303.2293,4.9159,-0.0039
30,303.227,4.9159,-0.004
32,303.225,4.915,-0.0039
34,303.2257,4.9154,-0.0038
36,303.221,4.9145,-0.0038
38,303.222,4.914,-0.004
40,303.2213,4.9148,-0.0042
42,303.221,4.9146,-0.0041
44,303.2187,4.9145,-0.0042
46,303.2183,4.914,-0.0043
48,303.215,4.9145,-0.0044
50,303.2133,4.9138,-0.0043
52,303.2133,4.9145,-0.0044
54,303.212,4.9155,-0.0042
56,303.2123,4.9148,-0.0042
58,303.2107,4.9151,-0.0044
60,303.211,4.9144,-0.0045
62,303.2087,4.9153,-0.0047
64,303.2047,4.9148,-0.0047
66,303.208,4.915,-0.0047
68,303.2057,4.9153,-0.0047
70,303.2043,4.9147,-0.0047
72,303.202,4.9147,-0.0046
74,303.2027,4.9144,-0.0047
76,303.201,4.9144,-0.0048
78,303.199,4.9134,-0.0047
80,303.2,4.9139,-0.0049
82,303.1987,4.9144,-0.0046
84,303.198,4.914,-0.0048
86,303.1953,4.9134,-0.0048
88,303.1963,4.9131,-0.0047
90,303.196,4.9128,-0.0048
92,303.1927,4.9129,-0.0048
94,303.192,4.9135,-0.0046
96,303.193,4.9142,-0.0047
98,303.194,4.9137,-0.0046
100,303.192,4.9128,-0.0047
102,303.188,4.9128,-0.0047
104,303.1913,4.9128,-0.0048
106,303.19,4.9129,-0.0046
108,303.188,4.9128,-0.0047
110,303.187,4.9128,-0.0046
112,303.1883,4.9142,-0.0047
114,303.187,4.9143,-0.0045
116,303.1867,4.9138,-0.0046
118,303.1853,4.9132,-0.0047
120,303.183,4.9129,-0.0049
122,303.1847,4.9141,-0.0046
124,303.1843,4.9133,-0.0045
126,303.182,4.9143,-0.0045
128,303.1813,4.9129,-0.0044
130,303.1817,4.9132,-0.0044
132,303.181,4.9129,-0.0047
134,303.18,4.9125,-0.0046
136,303.177,4.9128,-0.0045
138,303.175,4.9116,-0.0043
140,303.1757,4.9126,-0.0044
142,303.177,4.9123,-0.0044
144,303.178,4.9129,-0.0045
146,303.1783,4.9127,-0.0042
148,303.177,4.9127,-0.0042
150,303.178,4.9129,-0.0042
152,303.175,4.9139,-0.0042
154,303.176,4.9129,-0.004
156,303.174,4.9136,-0.004
158,303.1743,4.9129,-0.0042
160,303.1747,4.9129,-0.004
162,303.171,4.9126,-0.0039
164,303.17,4.9126,-0.0039
166,303.1723,4.9123,-0.0037
168,303.172,4.9129,-0.0038
170,303.1687,4.9125,-0.0038
172,303.1727,4.9125,-0.0037
174,303.168,4.9129,-0.0037
176,303.1673,4.9118,-0.0037
178,303.166,4.9116,-0.0039
180,303.164,4.9129,-0.0037
182,303.1667,4.9117,-0.0037
184,303.1637,4.912,-0.0035
186,303.164,4.9116,-0.0034
188,303.163,4.9116,-0.0035
190,303.1637,4.9116,-0.0034
192,303.163,4.9119,-0.0035
194,303.1617,4.9116,-0.0035
196,303.1623,4.9123,-0.0033
198,303.16,4.9129,-0.0033
200,303.1623,4.9116,-0.0033
202,303.159,4.9114,-0.0033
204,303.157,4.9127,-0.0033
206,303.1593,4.912,-0.0033
208,303.158,4.9121,-0.0033
210,303.157,4.9116,-0.003
212,303.1573,4.9109,-0.0031
214,303.155,4.9107,-0.0031
216,303.157,4.9116,-0.0031
218,303.156,4.9123,-0.0031
220,303.1547,4.9116,-0.0031
222,303.155,4.9129,-0.003
224,303.154,4.9116,-0.0031
226,303.1513,4.912,-0.0032
228,303.152,4.9116,-0.0031
230,303.1513,4.9108,-0.0032
232,303.1517,4.9115,-0.0032
234,303.152,4.9116,-0.0032
236,303.1533,4.9118,-0.0031
238,303.1497,4.9126,-0.0032
240,303.152,4.9116,-0.0032
242,303.15,4.9114,-0.0032
244,303.1483,4.9116,-0.0034
246,303.151,4.9116,-0.0033
248,303.148,4.9109,-0.0032
250,303.15,4.9102,-0.0031
252,303.148,4.9096,-0.0033
254,303.1473,4.9089,-0.0035
256,303.1463,4.9099,-0.0033
258,303.147,4.9103,-0.0033
260,303.145,4.9103,-0.0034
262,303.1453,4.9092,-0.0033
264,303.147,4.9103,-0.0035
266,303.146,4.9103,-0.0034
268,303.1453,4.9103,-0.0034
270,303.147,4.9103,-0.0033
272,303.146,4.9103,-0.0034
274,303.1463,4.9094,-0.0033
276,303.146,4.9103,-0.0033
278,303.1463,4.9098,-0.0034
280,303.148,4.91,-0.0033
282,303.15,4.9092,-0.0032
284,303.1473,4.9103,-0.0034
286,303.148,4.9098,-0.0034
288,303.146,4.9103,-0.0032
290,303.147,4.9094,-0.0031
292,303.1457,4.9086,-0.0031
294,303.147,4.9076,-0.0034
296,303.1477,4.9077,-0.0034
298,303.1467,4.9076,-0.0032
300,303.148,4.9089,-0.0035
302,303.1463,4.9089,-0.0031
304,303.1467,4.9089,-0.0033
306,303.151,4.9089,-0.0032
308,303.1523,4.9092,-0.0032
310,303.1553,4.9083,-0.0035
312,303.165,4.9087,-0.0042
314,303.175,4.9089,-0.0051
316,303.19,4.9092,-0.0058
318,303.214,4.9094,-0.0071
320,303.2417,4.9094,-0.0086
322,303.278,4.9097,-0.011
324,303.325,4.91,-0.0132
326,303.381,4.9089,-0.0157
328,303.451,4.9076,-0.0191
330,303.531,4.9069,-0.0226
332,303.6247,4.9082,-0.027
334,303.732,4.9099,-0.0315
336,303.853,4.9104,-0.037
338,303.9937,4.9091,-0.0427
340,304.1533,4.9084,-0.049
342,304.326,4.9086,-0.0557
344,304.5213,4.9092,-0.0629
346,304.734,4.9092,-0.0709
348,304.97,4.9094,-0.0796
350,305.2237,4.9094,-0.0882
352,305.501,4.9104,-0.0982
354,305.801,4.9103,-0.1074
356,306.1233,4.9086,-0.1177
358,306.4713,4.9082,-0.1285
360,306.844,4.9095,-0.1394
362,307.244,4.91,-0.1508
364,307.6643,4.9097,-0.1626
366,308.112,4.91,-0.1745
368,308.5867,4.9095,-0.1872
370,309.0833,4.9094,-0.1998
372,309.607,4.9101,-0.2129
374,310.1537,4.9095,-0.2259
376,310.7297,4.9082,-0.2387
378,311.329,4.9086,-0.2524
380,311.9517,4.9081,-0.2659
382,312.5993,4.9067,-0.2797
384,313.273,4.9073,-0.2934
386,313.968,4.9081,-0.3075
388,314.6873,4.9085,-0.3212
390,315.428,4.9086,-0.335
392,316.1897,4.9091,-0.3487
394,316.9743,4.9092,-0.3625
396,317.774,4.9092,-0.3759
398,318.5983,4.9093,-0.3897
400,319.44,4.9084,-0.4031
402,320.3,4.9086,-0.4162
404,321.1723,4.9087,-0.4293
406,322.067,4.9094,-0.4415
408,322.973,4.9084,-0.4542
410,323.8963,4.9089,-0.4659
412,324.8317,4.9084,-0.4778
414,325.778,4.9076,-0.4893
416,326.7413,4.9076,-0.5001
418,327.71,4.9075,-0.5105
420,328.691,4.9082,-0.5208
422,329.6793,4.9083,-0.5304
424,330.68,4.9082,-0.5394
426,331.682,4.9081,-0.5485
428,332.6937,4.9074,-0.5572
430,333.712,4.9071,-0.5648
432,334.736,4.9077,-0.572
434,335.7583,4.9082,-0.5797
436,336.7873,4.9089,-0.5859
438,337.817,4.9073,-0.592
440,338.8517,4.9062,-0.5973
442,339.885,4.9057,-0.6024
444,340.919,4.907,-0.608
446,341.9537,4.9072,-0.6119
448,342.986,4.9065,-0.616
450,344.018,4.9067,-0.6198
452,345.0437,4.9055,-0.6232
454,346.0693,4.905,-0.6261
456,347.091,4.9044,-0.6287
458,348.111,4.9039,-0.6313
460,349.1223,4.9043,-0.6334
462,350.132,4.9043,-0.6356
464,351.1367,4.9029,-0.6371
466,352.1357,4.9033,-0.6385
468,353.127,4.9026,-0.6394
470,354.112,4.9019,-0.6403
472,355.088,4.9013,-0.6406
474,356.062,4.9013,-0.6404
476,357.0237,4.9009,-0.6401
478,357.981,4.9003,-0.6394
480,358.929,4.9003,-0.6381
482,359.8713,4.9003,-0.6367
484,360.8063,4.899,-0.6347
486,361.732,4.899,-0.632
488,362.6497,4.8989,-0.6292
490,363.559,4.8974,-0.6258
492,364.457,4.8964,-0.6222
494,365.35,4.8972,-0.618
496,366.2303,4.8961,-0.6136
498,367.108,4.897,-0.6085
500,367.973,4.8968,-0.6034
502,368.8317,4.8958,-0.5971
504,369.683,4.8947,-0.591
506,370.5203,4.8947,-0.5844
508,371.355,4.895,-0.5779
510,372.179,4.8929,-0.5707
512,372.9953,4.893,-0.5634
514,373.8037,4.8942,-0.5561
516,374.606,4.8935,-0.5482
518,375.399,4.8924,-0.5403
520,376.1847,4.8926,-0.5324
522,376.962,4.8925,-0.5242
524,377.7337,4.8915,-0.5157
526,378.4967,4.8921,-0.508
528,379.255,4.8922,-0.4994
530,380.0053,4.8907,-0.4914
532,380.751,4.8905,-0.4832
534,381.49,4.8906,-0.4752
536,382.2213,4.8889,-0.4671
538,382.9497,4.8889,-0.4591
540,383.67,4.8901,-0.4515
542,384.3867,4.8905,-0.4441
544,385.0983,4.8891,-0.4368
546,385.802,4.8895,-0.4299
548,386.505,4.8886,-0.4233
550,387.2003,4.8887,-0.4165
552,387.897,4.8875,-0.4108
554,388.585,4.8874,-0.4047
556,389.27,4.8875,-0.3992
558,389.952,4.8875,-0.3931
560,390.628,4.8875,-0.388
562,391.303,4.888,-0.3832
564,391.975,4.8876,-0.3781
566,392.6443,4.8873,-0.3738
568,393.3107,4.8876,-0.3693
570,393.977,4.8876,-0.365
572,394.6393,4.887,-0.3611
574,395.2987,4.8862,-0.3577
576,395.957,4.8876,-0.3538
578,396.614,4.8862,-0.3505
580,397.269,4.8862,-0.3475
582,397.92,4.8862,-0.3442
584,398.5747,4.8872,-0.3418
586,399.227,4.8871,-0.339
588,399.877,4.8859,-0.3368
590,400.5283,4.8859,-0.3344
592,401.1753,4.8859,-0.3325
594,401.825,4.8862,-0.3306
596,402.4737,4.8862,-0.3288
598,403.1237,4.8862,-0.327
600,403.771,4.8862,-0.3259
602,404.4187,4.8849,-0.3244
604,405.07,4.8842,-0.323
606,405.719,4.8842,-0.3218
608,406.3683,4.8842,-0.321
610,407.0173,4.8842,-0.3198
612,407.668,4.8832,-0.319
614,408.3173,4.8842,-0.318
616,408.9683,4.8842,-0.3175
618,409.619,4.8839,-0.3163
620,410.2743,4.8829,-0.3163
622,410.9267,4.8842,-0.3159
624,411.581,4.8842,-0.3151
626,412.2367,4.8842,-0.3148
628,412.8927,4.8842,-0.314
630,413.549,4.8842,-0.3135
632,414.2077,4.8842,-0.3131
634,414.867,4.8842,-0.3127
636,415.527,4.8829,-0.3122
638,416.1867,4.8842,-0.3125
640,416.847,4.8842,-0.3122
642,417.513,4.8835,-0.3131
644,418.1753,4.8829,-0.3131
646,418.8403,4.8829,-0.3131
648,419.506,4.8829,-0.3132
650,420.1733,4.8826,-0.3132
652,420.84,4.8815,-0.3138
654,421.507,4.8815,-0.3142
656,422.1773,4.8802,-0.3144
658,422.8483,4.8808,-0.3148
660,423.519,4.8802,-0.3156
662,424.191,4.8802,-0.316
664,424.863,4.8802,-0.317
666,425.54,4.8802,-0.3175
668,426.21,4.8788,-0.318
670,426.8873,4.8788,-0.319
672,427.561,4.8788,-0.3196
674,428.2373,4.8777,-0.3202
676,428.9143,4.8781,-0.321
678,429.59,4.8775,-0.3216
680,430.269,4.8775,-0.3216
682,430.9453,4.8775,-0.3223
684,431.624,4.8761,-0.3225
686,432.3033,4.8774,-0.3227
688,432.983,4.8775,-0.3234
690,433.661,4.8772,-0.3238
692,434.3403,4.8762,-0.3245
694,435.0223,4.8762,-0.325
696,435.701,4.8752,-0.3251
698,436.3787,4.8748,-0.3256
700,437.0587,4.8748,-0.3261
702,437.739,4.8735,-0.3261
704,438.4203,4.8748,-0.3261
706,439.0977,4.8748,-0.3262
708,439.779,4.8748,-0.3271
710,440.4547,4.8724,-0.3268
712,441.136,4.8721,-0.3268
714,441.818,4.8708,-0.3267
716,442.4953,4.8708,-0.3272
718,443.174,4.8708,-0.3268
720,443.849,4.8708,-0.3266
722,444.529,4.8708,-0.3264
724,445.205,4.8694,-0.3261
726,445.881,4.8694,-0.3263
728,446.5593,4.8694,-0.3256
730,447.2333,4.8694,-0.3251
732,447.911,4.8691,-0.325
734,448.584,4.8669,-0.3242
736,449.2583,4.8668,-0.3238
738,449.931,4.8668,-0.3233
740,450.6047,4.8668,-0.3232
742,451.2763,4.8668,-0.323
744,451.949,4.8658,-0.3222
746,452.62,4.8644,-0.3222
748,453.2923,4.8641,-0.3215
750,453.963,4.8641,-0.3214
752,454.6337,4.8641,-0.3214
754,455.3033,4.8614,-0.3214
756,455.971,4.8614,-0.3214
758,456.6377,4.8614,-0.3222
760,457.3063,4.8613,-0.3228
762,457.976,4.86,-0.3239
764,458.6423,4.8597,-0.3262
766,459.3083,4.8584,-0.3286
768,459.975,4.8584,-0.33
770,460.641,4.856,-0.3291
772,461.3047,4.856,-0.3276
774,461.967,4.8547,-0.3257
776,462.631,4.8547,-0.3236
778,463.294,4.8519,-0.3224
780,463.959,4.8505,-0.3205
782,464.6213,4.8505,-0.3191
784,465.283,4.8497,-0.3175
786,465.945,4.8492,-0.3163
788,466.6047,4.8492,-0.3149
790,467.2643,4.8465,-0.3136
792,467.925,4.8452,-0.3124
794,468.5857,4.8452,-0.3115
796,469.2447,4.8438,-0.3108
798,469.901,4.8425,-0.3097
800,470.562,4.8416,-0.3094
802,471.222,4.8391,-0.3089
804,471.881,4.8384,-0.3083
806,472.5387,4.8375,-0.3081
808,473.196,4.837,-0.3076
810,473.855,4.8344,-0.3071
812,474.51,4.8328,-0.3066
814,475.1687,4.8312,-0.3064
816,475.825,4.8299,-0.3058
818,476.482,4.8296,-0.3054
820,477.1403,4.8285,-0.3052
822,477.798,4.8271,-0.3047
824,478.4527,4.8244,-0.3042
826,479.109,4.8231,-0.3042
828,479.766,4.8213,-0.3037
830,480.422,4.8183,-0.3031
832,481.079,4.8169,-0.3027
834,481.734,4.8159,-0.3024
836,482.3937,4.8156,-0.3024
838,483.0493,4.8142,-0.3017
840,483.705,4.8127,-0.301
842,484.3617,4.8112,-0.3004
844,485.017,4.8095,-0.2996
846,485.673,4.8059,-0.2998
848,486.331,4.8035,-0.2991
850,486.9877,4.8023,-0.2989
852,487.646,4.802,-0.2987
854,488.3033,4.8006,-0.298
856,488.9617,4.7988,-0.2982
858,489.622,4.7957,-0.2974
860,490.2757,4.7938,-0.2969
862,490.9343,4.7911,-0.2969
864,491.592,4.7883,-0.2962
866,492.2503,4.7873,-0.2962
868,492.9093,4.7848,-0.2954
870,493.566,4.7834,-0.2945
872,494.227,4.781,-0.2943
874,494.886,4.7796,-0.294
876,495.544,4.778,-0.2929
878,496.2063,4.7755,-0.2924
880,496.865,4.7722,-0.2917
882,497.526,4.7698,-0.2911
884,498.1843,4.7683,-0.2903
886,498.846,4.7667,-0.2894
888,499.507,4.7649,-0.2888
890,500.1683,4.763,-0.2878
892,500.8293,4.7596,-0.2869
894,501.491,4.757,-0.2861
896,502.1537,4.7554,-0.2849
898,502.814,4.7527,-0.2845
900,503.478,4.7489,-0.2834
902,504.1393,4.7474,-0.2829
904,504.8023,4.7453,-0.2823
906,505.463,4.7418,-0.2815
908,506.1263,4.74,-0.2808
910,506.791,4.7376,-0.2803
912,507.455,4.7347,-0.2793
914,508.1157,4.7325,-0.2789
916,508.78,4.7302,-0.2781
918,509.447,4.7257,-0.2775
920,510.1083,4.7239,-0.2773
922,510.773,4.7215,-0.2766
924,511.439,4.7183,-0.276
926,512.1023,4.7146,-0.2754
928,512.767,4.7106,-0.2749
930,513.433,4.7092,-0.2746
932,514.095,4.7074,-0.2741
934,514.7603,4.7036,-0.2731
936,515.426,4.7002,-0.2728
938,516.09,4.6976,-0.273
940,516.754,4.6946,-0.2725
942,517.418,4.6906,-0.2723
944,518.085,4.6873,-0.272
946,518.7487,4.6851,-0.272
948,519.414,4.6806,-0.2718
950,520.08,4.6764,-0.2712
952,520.7443,4.6739,-0.2714
954,521.411,4.6706,-0.2718
956,522.075,4.6653,-0.2717
958,522.7427,4.6621,-0.2715
960,523.408,4.6565,-0.2715
962,524.073,4.6544,-0.2715
964,524.7373,4.6501,-0.2723
966,525.403,4.6461,-0.2724
968,526.0667,4.6416,-0.2727
970,526.7337,4.6376,-0.2729
972,527.396,4.6331,-0.2736
974,528.064,4.6285,-0.2737
976,528.7287,4.6246,-0.2738
978,529.396,4.6195,-0.274
980,530.0603,4.6155,-0.2746
982,530.725,4.6112,-0.2751
984,531.389,4.6066,-0.2754
986,532.0533,4.6005,-0.2759
988,532.7197,4.5949,-0.2761
990,533.384,4.5896,-0.2763
992,534.0497,4.5847,-0.2774
994,534.715,4.5809,-0.278
996,535.379,4.5762,-0.2781
998,536.0417,4.5695,-0.2789
1000,536.7067,4.5641,-0.2797
1002,537.369,4.5593,-0.2803
1004,538.0357,4.5546,-0.2806
1006,538.7013,4.5495,-0.2816
1008,539.366,4.5431,-0.2824
1010,540.0283,4.5382,-0.2833
1012,540.6913,4.5337,-0.2841
1014,541.358,4.5269,-0.2853
1016,542.0207,4.5209,-0.2862
1018,542.6847,4.5143,-0.2871
1020,543.348,4.5075,-0.2885
1022,544.0123,4.5024,-0.2896
1024,544.6763,4.4957,-0.2903
1026,545.339,4.4892,-0.2919
1028,546.005,4.4827,-0.2929
1030,546.668,4.4763,-0.2936
1032,547.329,4.4706,-0.2951
1034,547.9963,4.465,-0.2962
1036,548.659,4.458,-0.2975
1038,549.324,4.45,-0.2987
1040,549.986,4.4433,-0.2998
1042,550.651,4.4368,-0.3007
1044,551.317,4.4291,-0.3021
1046,551.979,4.4222,-0.3029
1048,552.6437,4.415,-0.3045
1050,553.306,4.4073,-0.3053
1052,553.9703,4.3998,-0.3061
1054,554.6337,4.3928,-0.3076
1056,555.299,4.3857,-0.3082
1058,555.9607,4.3784,-0.309
1060,556.6257,4.3694,-0.3102
1062,557.289,4.3619,-0.3111
1064,557.9523,4.355,-0.3122
1066,558.615,4.3459,-0.3129
1068,559.279,4.3364,-0.3134
1070,559.9417,4.3281,-0.3143
1072,560.6067,4.3212,-0.315
1074,561.269,4.3139,-0.3156
1076,561.9333,4.306,-0.3162
1078,562.5977,4.297,-0.3165
1080,563.262,4.2887,-0.3173
1082,563.9263,4.2805,-0.3177
1084,564.5887,4.272,-0.3184
1086,565.252,4.2644,-0.3186
1088,565.9163,4.2557,-0.3189
1090,566.579,4.2469,-0.3191
1092,567.244,4.2384,-0.3198
1094,567.906,4.2297,-0.3197
1096,568.5703,4.2205,-0.3201
1098,569.235,4.2113,-0.3199
1100,569.8993,4.2026,-0.3205
1102,570.5637,4.1946,-0.3202
1104,571.228,4.1838,-0.3205
1106,571.8907,4.1754,-0.3207
1108,572.555,4.1667,-0.3204
1110,573.22,4.1578,-0.3207
1112,573.8843,4.1493,-0.3207
1114,574.551,4.1403,-0.3207
1116,575.215,4.1307,-0.321
1118,575.8787,4.1217,-0.3212
1120,576.5427,4.1125,-0.321
1122,577.207,4.1022,-0.3212
1124,577.874,4.0922,-0.3211
1126,578.5397,4.0826,-0.3213
1128,579.205,4.0726,-0.3214
1130,579.8697,4.063,-0.3214
1132,580.5343,4.0524,-0.322
1134,581.199,4.0425,-0.3217
1136,581.865,4.0328,-0.3227
1138,582.5303,4.0232,-0.3229
1140,583.197,4.0116,-0.3232
1142,583.8607,4.0025,-0.324
1144,584.5283,3.9916,-0.3247
1146,585.193,3.9808,-0.3256
1148,585.8593,3.9713,-0.3265
1150,586.525,3.9611,-0.3277
1152,587.19,3.9501,-0.3281
1154,587.8567,3.94,-0.3295
1156,588.524,3.9282,-0.3309
1158,589.192,3.9173,-0.3324
1160,589.858,3.9061,-0.334
1162,590.5237,3.8945,-0.3354
1164,591.19,3.8824,-0.3376
1166,591.855,3.8714,-0.3394
1168,592.522,3.8597,-0.3417
1170,593.189,3.848,-0.3438
1172,593.8563,3.8355,-0.3465
1174,594.523,3.8242,-0.349
1176,595.188,3.8112,-0.3518
1178,595.8553,3.7986,-0.3545
1180,596.5233,3.7861,-0.3572
1182,597.189,3.7734,-0.3602
1184,597.8567,3.7607,-0.3641
1186,598.524,3.7474,-0.3674
1188,599.191,3.7342,-0.3709
1190,599.853,3.721,-0.3747
1192,600.523,3.7069,-0.3785
1194,601.189,3.6933,-0.3825
1196,601.8533,3.6798,-0.3863
1198,602.52,3.6649,-0.3907
1200,603.187,3.6501,-0.3949
1202,603.851,3.6364,-0.3995
1204,604.5167,3.6208,-0.4036
1206,605.182,3.6053,-0.4083
1208,605.849,3.592,-0.413
1210,606.5157,3.5769,-0.4181
1212,607.179,3.5608,-0.4224
1214,607.8443,3.5465,-0.4274
1216,608.5097,3.5312,-0.432
1218,609.176,3.5151,-0.4371
1220,609.8403,3.4975,-0.4419
1222,610.507,3.4816,-0.4474
1224,611.174,3.4655,-0.4519
1226,611.837,3.45,-0.4569
1228,612.502,3.4325,-0.4619
1230,613.169,3.4164,-0.467
1232,613.833,3.3995,-0.472
1234,614.498,3.3833,-0.4768
1236,615.164,3.3662,-0.4817
1238,615.8277,3.3485,-0.4868
1240,616.494,3.3312,-0.4917
1242,617.157,3.313,-0.4964
1244,617.821,3.2954,-0.5011
1246,618.486,3.2779,-0.5058
1248,619.151,3.2604,-0.5102
1250,619.8143,3.2425,-0.5149
1252,620.4777,3.224,-0.5191
1254,621.143,3.206,-0.5238
1256,621.8087,3.188,-0.5283
1258,622.4733,3.1699,-0.5329
1260,623.136,3.1514,-0.5369
1262,623.8023,3.1339,-0.5415
1264,624.4673,3.1132,-0.5457
1266,625.133,3.0942,-0.5507
1268,625.7963,3.0755,-0.5551
1270,626.4593,3.0558,-0.5592
1272,627.124,3.0363,-0.5633
1274,627.7897,3.0182,-0.5682
1276,628.455,2.9994,-0.5728
1278,629.119,2.979,-0.5776
1280,629.7833,2.96,-0.582
1282,630.4483,2.9413,-0.5872
1284,631.113,2.922,-0.5921
1286,631.776,2.9038,-0.5975
1288,632.4407,2.8832,-0.6032
1290,633.104,2.8629,-0.6089
1292,633.7683,2.8443,-0.6152
1294,634.432,2.8232,-0.6217
1296,635.096,2.8016,-0.6284
1298,635.7603,2.782,-0.6354
1300,636.426,2.7616,-0.6422
1302,637.088,2.7403,-0.6498
1304,637.7523,2.7187,-0.6577
1306,638.419,2.6986,-0.6662
1308,639.084,2.6766,-0.6742
1310,639.7457,2.6566,-0.6833
1312,640.41,2.6333,-0.6927
1314,641.073,2.6108,-0.702
1316,641.7387,2.5902,-0.7117
1318,642.4017,2.569,-0.7215
1320,643.065,2.5461,-0.7319
1322,643.7303,2.5244,-0.7427
1324,644.3927,2.5015,-0.7536
1326,645.057,2.48,-0.7646
1328,645.7227,2.4582,-0.7761
1330,646.385,2.4343,-0.7873
1332,647.047,2.4091,-0.7995
1334,647.7143,2.3854,-0.8119
1336,648.3777,2.3601,-0.8243
1338,649.041,2.3358,-0.8365
1340,649.7053,2.3121,-0.8488
1342,650.369,2.2879,-0.8611
1344,651.032,2.262,-0.8735
1346,651.6947,2.238,-0.8862
1348,652.359,2.2124,-0.8987
1350,653.023,2.1868,-0.9105
1352,653.6887,2.1622,-0.9226
1354,654.3497,2.1355,-0.9341
1356,655.016,2.1085,-0.9452
1358,655.678,2.0831,-0.956
1360,656.3437,2.0562,-0.9662
1362,657.007,2.0297,-0.9752
1364,657.6707,2.0036,-0.9836
1366,658.3337,1.9758,-0.9912
1368,658.999,1.9487,-0.9977
1370,659.66,1.923,-1.003
1372,660.325,1.8961,-1.0068
1374,660.989,1.8694,-1.0095
1376,661.6533,1.8437,-1.0108
1378,662.3167,1.8187,-1.0101
1380,662.982,1.7924,-1.0076
1382,663.644,1.7675,-1.0031
1384,664.3087,1.7403,-0.9968
1386,664.972,1.7152,-0.9885
1388,665.638,1.6912,-0.9778
1390,666.3007,1.6677,-0.9656
1392,666.966,1.6442,-0.9504
1394,667.63,1.6227,-0.9327
1396,668.2943,1.5988,-0.9133
1398,668.958,1.5775,-0.891
1400,669.6253,1.5572,-0.8672
1402,670.2897,1.538,-0.8413
1404,670.954,1.5196,-0.8132
1406,671.619,1.5021,-0.7837
1408,672.2837,1.4853,-0.7525
1410,672.948,1.4695,-0.7206
1412,673.613,1.455,-0.687
1414,674.278,1.4416,-0.6531
1416,674.945,1.4295,-0.6183
1418,675.6113,1.4173,-0.5838
1420,676.2777,1.406,-0.5496
1422,676.943,1.3963,-0.5154
1424,677.6093,1.3869,-0.4821
1426,678.275,1.379,-0.4503
1428,678.942,1.3715,-0.4196
1430,679.6107,1.3653,-0.3906
1432,680.2767,1.3602,-0.3637
1434,680.947,1.3541,-0.338
1436,681.612,1.3492,-0.3152
1438,682.2793,1.3427,-0.2931
1440,682.947,1.3389,-0.2745
1442,683.6143,1.3358,-0.2566
1444,684.2807,1.332,-0.2413
1446,684.95,1.3279,-0.2276
1448,685.6167,1.3251,-0.2151
1450,686.2837,1.3216,-0.2042
1452,686.95,1.3194,-0.1948
1454,687.6157,1.3162,-0.1863
1456,688.285,1.3136,-0.1789
1458,688.951,1.3115,-0.1722
1460,689.6173,1.3075,-0.1665
1462,690.285,1.3056,-0.1614
1464,690.95,1.3026,-0.1566
1466,691.619,1.3006,-0.1527
1468,692.2847,1.2982,-0.1494
1470,692.95,1.2961,-0.1459
1472,693.616,1.2939,-0.1431
1474,694.2823,1.2919,-0.1409
1476,694.95,1.2878,-0.1387
1478,695.6143,1.2861,-0.1367
1480,696.2803,1.2843,-0.135
1482,696.947,1.2825,-0.1331
1484,697.611,1.2799,-0.1318
1486,698.2767,1.2772,-0.1308
1488,698.945,1.274,-0.1291
1490,699.609,1.2713,-0.1281
1492,700.2747,1.2691,-0.1271
1494,700.938,1.2661,-0.126
1496,701.604,1.2638,-0.1251
1498,702.2677,1.2616,-0.1237
1500,702.933,1.2592,-0.1224
1502,703.5993,1.2575,-0.1219
1504,704.265,1.2552,-0.1206
1506,704.928,1.2525,-0.1198
1508,705.5947,1.2501,-0.1191
1510,706.2573,1.2479,-0.1181
1512,706.924,1.2468,-0.1173
1514,707.5897,1.245,-0.117
1516,708.2543,1.2426,-0.117
1518,708.918,1.2406,-0.1168
1520,709.5823,1.2364,-0.1161
1522,710.2487,1.2346,-0.116
1524,710.914,1.2327,-0.1159
1526,711.579,1.2304,-0.1158
1528,712.2433,1.2281,-0.116
1530,712.907,1.2268,-0.1158
1532,713.573,1.2232,-0.1158
1534,714.238,1.2214,-0.1165
1536,714.901,1.22,-0.1167
1538,715.5667,1.2183,-0.1173
1540,716.2303,1.2165,-0.1173
1542,716.896,1.2146,-0.1176
1544,717.558,1.2126,-0.1185
1546,718.222,1.2101,-0.1193
1548,718.888,1.2081,-0.1198
1550,719.5527,1.2065,-0.1207
1552,720.217,1.2049,-0.122
1554,720.881,1.2026,-0.122
1556,721.546,1.2001,-0.1235
1558,722.2093,1.1983,-0.1243
1560,722.873,1.1968,-0.1258
1562,723.5403,1.1955,-0.1269
1564,724.205,1.1939,-0.1284
1566,724.868,1.1911,-0.1297
1568,725.5333,1.1891,-0.1317
1570,726.1983,1.1867,-0.133
1572,726.863,1.1846,-0.135
1574,727.5283,1.1828,-0.1362
1576,728.1927,1.1812,-0.1382
1578,728.859,1.1797,-0.14
1580,729.5227,1.1771,-0.1414
1582,730.188,1.1748,-0.1437
1584,730.853,1.1745,-0.146
1586,731.519,1.1733,-0.1481
1588,732.182,1.1709,-0.1501
1590,732.848,1.17,-0.1525
1592,733.511,1.1683,-0.1543
1594,734.1753,1.1659,-0.1563
1596,734.841,1.1623,-0.1586
1598,735.504,1.1607,-0.1609
1600,736.171,1.1594,-0.163
1602,736.834,1.1581,-0.1652
1604,737.4973,1.1565,-0.167
1606,738.161,1.1548,-0.17
1608,738.825,1.1534,-0.1724
1610,739.4897,1.1518,-0.1751
1612,740.1507,1.1502,-0.1778
1614,740.816,1.1489,-0.1801
1616,741.479,1.1461,-0.1829
1618,742.1427,1.1445,-0.1855
1620,742.804,1.1431,-0.1883
1622,743.4703,1.1415,-0.1912
1624,744.1333,1.1402,-0.1943
1626,744.797,1.1386,-0.1973
1628,745.4607,1.1373,-0.2003
1630,746.1233,1.1367,-0.2035
1632,746.786,1.1359,-0.2064
1634,747.452,1.1345,-0.2091
1636,748.1163,1.133,-0.2125
1638,748.78,1.1314,-0.2154
1640,749.4443,1.1299,-0.2188
1642,750.1077,1.1283,-0.2216
1644,750.771,1.1266,-0.2246
1646,751.4373,1.1253,-0.2278
1648,752.1017,1.1242,-0.2308
1650,752.766,1.1225,-0.2341
1652,753.431,1.1212,-0.2373
1654,754.0947,1.1202,-0.2403
1656,754.761,1.1181,-0.2433
1658,755.4247,1.1169,-0.2467
1660,756.0927,1.1168,-0.2498
1662,756.755,1.1155,-0.253
1664,757.4217,1.1135,-0.2566
1666,758.0893,1.1124,-0.2595
1668,758.755,1.111,-0.2623
1670,759.4193,1.1097,-0.2655
1672,760.0847,1.1088,-0.2679
1674,760.751,1.1083,-0.2708
1676,761.4167,1.107,-0.2741
1678,762.0843,1.1067,-0.2769
1680,762.749,1.1056,-0.2795
1682,763.4147,1.1043,-0.2819
1684,764.0833,1.1027,-0.2845
1686,764.749,1.102,-0.2869
1688,765.4177,1.1014,-0.2886
1690,766.0823,1.0999,-0.2909
1692,766.748,1.0986,-0.2926
1694,767.416,1.0977,-0.2939
1696,768.0847,1.0971,-0.2957
1698,768.751,1.0946,-0.2972
1700,769.4173,1.0933,-0.2986
1702,770.0857,1.0925,-0.3003
1704,770.753,1.0917,-0.3019
1706,771.4207,1.0908,-0.3036
1708,772.088,1.0903,-0.3051
1710,772.756,1.0896,-0.307
1712,773.4263,1.0903,-0.3091
1714,774.0943,1.0897,-0.3111
1716,774.763,1.0876,-0.3126
1718,775.4317,1.0861,-0.3143
1720,776.0987,1.0847,-0.3163
1722,776.768,1.0834,-0.3181
1724,777.4347,1.0834,-0.3196
1726,778.1047,1.0819,-0.3216
1728,778.775,1.0807,-0.3235
1730,779.443,1.0807,-0.3252
1732,780.1123,1.0794,-0.3272
1734,780.782,1.08,-0.3292
1736,781.4507,1.079,-0.3309
1738,782.1173,1.0775,-0.333
1740,782.789,1.0761,-0.3346
1742,783.4547,1.0761,-0.3362
1744,784.1237,1.076,-0.3375
1746,784.792,1.0748,-0.3396
1748,785.462,1.0748,-0.3413
1750,786.1303,1.0734,-0.3429
1752,786.798,1.0711,-0.3442
1754,787.469,1.0706,-0.3454
1756,788.137,1.0693,-0.3469
1758,788.806,1.069,-0.3483
1760,789.4746,1.068,-0.3495
1762,790.1417,1.0668,-0.3515
1764,790.809,1.0659,-0.3525
1766,791.4793,1.0653,-0.3542
1768,792.1473,1.0639,-0.3557
1770,792.818,1.0639,-0.3569
1772,793.485,1.0626,-0.3583
1774,794.1536,1.0626,-0.3595
1776,794.821,1.0612,-0.361
1778,795.491,1.061,-0.3628
1780,796.1577,1.0592,-0.3643
1782,796.829,1.0586,-0.3661
1784,797.4963,1.0575,-0.368
1786,798.1653,1.0575,-0.3706
1788,798.834,1.0559,-0.3726
1790,799.5037,1.0559,-0.374
1792,800.1733,1.0545,-0.3765
1794,800.842,1.0545,-0.3786
1796,801.5107,1.0545,-0.3806
1798,802.1796,1.0532,-0.3824
1800,802.849,1.0532,-0.3849
1802,803.5187,1.0519,-0.3866
1804,804.188,1.051,-0.3881
1806,804.856,1.0505,-0.3897
1808,805.5253,1.0493,-0.3915
1810,806.195,1.0492,-0.3934
1812,806.864,1.0478,-0.3944
1814,807.532,1.0478,-0.3965
1816,808.2,1.0473,-0.3978
1818,808.87,1.0465,-0.3996
1820,809.536,1.0452,-0.4014
1822,810.206,1.0438,-0.4026
1824,810.872,1.0425,-0.4044
1826,811.5444,1.0425,-0.4063
1828,812.2106,1.0411,-0.4083
1830,812.881,1.0411,-0.4106
1832,813.5487,1.0411,-0.4132
1834,814.2167,1.0398,-0.4154
1836,814.885,1.0398,-0.4174
1838,815.5533,1.0384,-0.4199
1840,816.2223,1.0373,-0.4222
1842,816.889,1.0371,-0.4237
1844,817.5587,1.0384,-0.4263
1846,818.225,1.0371,-0.4278
1848,818.892,1.0358,-0.43
1850,819.5656,1.0345,-0.432
1852,820.2317,1.0342,-0.434
1854,820.899,1.0331,-0.4358
1856,821.567,1.0331,-0.4373
1858,822.2357,1.0317,-0.4392
1860,822.903,1.0317,-0.4422
1862,823.57,1.0304,-0.444
1864,824.238,1.0304,-0.4462
1866,824.907,1.0297,-0.4491
1868,825.5743,1.0291,-0.4524
1870,826.2413,1.0279,-0.4552
1872,826.907,1.0264,-0.4585
1874,827.577,1.0258,-0.4616
1876,828.2433,1.0254,-0.4645
1878,828.91,1.025,-0.4672
1880,829.5773,1.0241,-0.4707
1882,830.245,1.0237,-0.4737
1884,830.91,1.0237,-0.4761
1886,831.5767,1.0231,-0.4795
1888,832.2453,1.023,-0.4816
1890,832.911,1.023,-0.4841
1892,833.5757,1.0217,-0.4865
1894,834.243,1.0217,-0.489
1896,834.908,1.0203,-0.4918
1898,835.575,1.0203,-0.4945
1900,836.2413,1.019,-0.4973
1902,836.908,1.019,-0.5009
1904,837.574,1.0174,-0.5038
1906,838.241,1.0163,-0.5075
1908,838.907,1.0163,-0.5112
1910,839.5747,1.015,-0.5153
1912,840.2407,1.0144,-0.5192
1914,840.907,1.0136,-0.5229
1916,841.5727,1.0136,-0.5273
1918,842.2383,1.0136,-0.5311
1920,842.905,1.0123,-0.5351
1922,843.569,1.0123,-0.5393
1924,844.235,1.0117,-0.5434
1926,844.9,1.0109,-0.5476
1928,845.5647,1.0095,-0.5514
1930,846.2287,1.0084,-0.5559
1932,846.895,1.0081,-0.5602
1934,847.5583,1.0081,-0.5646
1936,848.2247,1.0081,-0.5689
1938,848.891,1.0081,-0.5741
1940,849.5533,1.0067,-0.5796
1942,850.2186,1.0067,-0.5856
1944,850.883,1.0053,-0.5923
1946,851.5504,1.0053,-0.5987
1948,852.2167,1.004,-0.606
1950,852.88,1.0027,-0.6132
1952,853.546,1.0036,-0.621
1954,854.213,1.0038,-0.6289
1956,854.88,1.0027,-0.6365
1958,855.543,1.0027,-0.644
1960,856.208,1.0027,-0.6519
1962,856.872,1.0023,-0.6599
1964,857.5377,1.0013,-0.6679
1966,858.2023,1.0,-0.6762
1968,858.867,1.0,-0.6845
1970,859.5317,1.0,-0.6921
1972,860.198,0.9998,-0.7005
1974,860.861,0.9986,-0.7085
1976,861.525,0.9986,-0.7165
1978,862.1897,0.9973,-0.7246
1980,862.854,0.9973,-0.733
1982,863.52,0.9973,-0.7407
1984,864.184,0.996,-0.7481
1986,864.847,0.996,-0.7565
1988,865.5117,0.9946,-0.7645
1990,866.176,0.9941,-0.7725
1992,866.839,0.9933,-0.7799
1994,867.5023,0.9933,-0.788
1996,868.167,0.9933,-0.7954
1998,868.831,0.9933,-0.803
2000,869.495,0.9933,-0.8106
2002,870.1577,0.9927,-0.8179
2004,870.822,0.9919,-0.8253
2006,871.4857,0.9904,-0.832
2008,872.148,0.9896,-0.8393
2010,872.811,0.9896,-0.8462
2012,873.4767,0.9896,-0.8539
2014,874.138,0.9887,-0.8604
2016,874.804,0.9882,-0.8672
2018,875.4677,0.9873,-0.8739
2020,876.1317,0.9869,-0.8805
2022,876.796,0.9862,-0.8876
2024,877.4577,0.9856,-0.8942
2026,878.1233,0.9856,-0.9
2028,878.788,0.9856,-0.9062
2030,879.4523,0.9844,-0.9075
2032,880.115,0.9856,-0.9066
2034,880.781,0.9856,-0.9033
2036,881.445,0.9842,-0.8972
2038,882.1097,0.9829,-0.8894
2040,882.774,0.9829,-0.8794
2042,883.44,0.9829,-0.868
2044,884.104,0.9815,-0.8557
2046,884.769,0.9815,-0.8426
2048,885.4337,0.9806,-0.8299
2050,886.099,0.9802,-0.8165
2052,886.762,0.9802,-0.8043
2054,887.428,0.9793,-0.7918
2056,888.0923,0.9788,-0.7804
2058,888.758,0.9788,-0.77
2060,889.4227,0.9775,-0.7602
2062,890.089,0.9775,-0.7512
2064,890.756,0.9762,-0.7442
2066,891.422,0.9762,-0.7375
2068,892.0863,0.9762,-0.7311
2070,892.754,0.9762,-0.7258
2072,893.4163,0.9762,-0.7219
2074,894.082,0.9748,-0.7179
2076,894.747,0.9748,-0.7147
2078,895.4104,0.9735,-0.7118
2080,896.0753,0.9735,-0.7103
2082,896.741,0.9735,-0.7092
2084,897.4047,0.9721,-0.7073
2086,898.07,0.9721,-0.7073
2088,898.738,0.9721,-0.7071
2090,899.4,0.9708,-0.7073
2092,900.0666,0.9708,-0.7096
2094,900.732,0.9698,-0.7111
2096,901.397,0.9695,-0.7129
2098,902.063,0.9683,-0.7153
2100,902.729,0.9681,-0.7166
2102,903.395,0.9681,-0.7191
2104,904.0624,0.9681,-0.722
2106,904.728,0.9681,-0.7256
2108,905.3937,0.9681,-0.7291
2110,906.0597,0.9668,-0.7331
2112,906.726,0.9658,-0.7372
2114,907.391,0.9649,-0.7422
2116,908.0583,0.9643,-0.7466
2118,908.724,0.9641,-0.7514
2120,909.391,0.9641,-0.7564
2122,910.059,0.963,-0.7615
2124,910.726,0.9628,-0.7662
2126,911.3927,0.9628,-0.7702
2128,912.0596,0.9628,-0.7742
2130,912.728,0.9614,-0.7773
2132,913.395,0.9614,-0.7813
2134,914.0627,0.9614,-0.7851
2136,914.729,0.9601,-0.7879
2138,915.396,0.9603,-0.7908
2140,916.0643,0.9614,-0.794
2142,916.73,0.9614,-0.7973
2144,917.3967,0.9614,-0.8001
2146,918.064,0.9609,-0.8024
2148,918.731,0.9601,-0.8048
2150,919.3994,0.9588,-0.8071
2152,920.0657,0.9587,-0.8097
2154,920.731,0.9577,-0.8121
2156,921.399,0.9574,-0.8151
2158,922.0667,0.9574,-0.8172
2160,922.734,0.9577,-0.8208
2162,923.4016,0.9574,-0.8238
2164,924.0687,0.9574,-0.826
2166,924.736,0.9574,-0.8286
2168,925.4053,0.956,-0.8313
2170,926.0744,0.956,-0.8338
2172,926.74,0.956,-0.8373
2174,927.4113,0.9547,-0.8399
2176,928.0787,0.9547,-0.8428
2178,928.747,0.9547,-0.8457
2180,929.4146,0.9534,-0.8498
2182,930.0837,0.9534,-0.8544
2184,930.752,0.9534,-0.8588
2186,931.4207,0.9534,-0.8632
2188,932.0873,0.9534,-0.8681
2190,932.757,0.952,-0.8728
2192,933.424,0.952,-0.8783
2194,934.0927,0.952,-0.8834
2196,934.764,0.9507,-0.8891
2198,935.4297,0.9507,-0.8944
2200,936.0993,0.9507,-0.8999
2202,936.766,0.9493,-0.9048
2204,937.4356,0.9493,-0.9097
2206,938.1047,0.9493,-0.915
2208,938.773,0.9493,-0.92
2210,939.442,0.9493,-0.9252
2212,940.1094,0.9493,-0.9298
2214,940.779,0.9497,-0.9345
2216,941.449,0.9493,-0.9394
2218,942.1157,0.9493,-0.9438
2220,942.787,0.9487,-0.9484
2222,943.4543,0.9477,-0.9535
2224,944.1233,0.9477,-0.9567
2226,944.792,0.9477,-0.96
2228,945.4613,0.9474,-0.9634
2230,946.131,0.9463,-0.9669
2232,946.798,0.9463,-0.9696
2234,947.4667,0.9463,-0.9722
2236,948.1357,0.9463,-0.9747
2238,948.806,0.9463,-0.9776
2240,949.4733,0.9463,-0.98
2242,950.1427,0.945,-0.9828
2244,950.808,0.945,-0.9844
2246,951.4787,0.945,-0.9872
2248,952.1467,0.9436,-0.9887
2250,952.812,0.9436,-0.9913
2252,953.4817,0.9436,-0.9941
2254,954.1513,0.9436,-0.9966
2256,954.819,0.9423,-0.9999
2258,955.4857,0.9435,-1.0028
2260,956.1543,0.9436,-1.0069
2262,956.823,0.9436,-1.0109
2264,957.4907,0.9423,-1.0145
2266,958.1583,0.9423,-1.0174
2268,958.827,0.9409,-1.021
2270,959.4927,0.9409,-1.0246
2272,960.159,0.9409,-1.0284
2274,960.829,0.9399,-1.0321
2276,961.4963,0.9399,-1.0358
2278,962.1623,0.9399,-1.0406
2280,962.829,0.9399,-1.0448
2282,963.4977,0.9406,-1.0494
2284,964.162,0.9406,-1.0544
2286,964.829,0.9406,-1.0607
2288,965.4967,0.9406,-1.0671
2290,966.162,0.9392,-1.0744
2292,966.829,0.9389,-1.0822
2294,967.4957,0.9376,-1.09
2296,968.1617,0.9376,-1.0973
2298,968.826,0.9389,-1.1055
2300,969.4937,0.9389,-1.1128
2302,970.16,0.9376,-1.1203
2304,970.826,0.9376,-1.1277
2306,971.4907,0.9376,-1.1353
2308,972.1573,0.9376,-1.1429
2310,972.822,0.9376,-1.1502
2312,973.4883,0.9376,-1.1571
2314,974.153,0.9376,-1.164
2316,974.81,0.9363,-1.1717
2318,975.4587,0.9358,-1.1815
2320,976.0903,0.9349,-1.1945
2322,976.708,0.9349,-1.211
2324,977.3036,0.9349,-1.2318
2326,977.874,0.9336,-1.2566
2328,978.421,0.9336,-1.2863
2330,978.9423,0.9334,-1.3218
2332,979.4356,0.9336,-1.3606
2334,979.901,0.9336,-1.4039
2336,980.331,0.9329,-1.453
2338,980.7337,0.9322,-1.5058
2340,981.106,0.9326,-1.5624
2342,981.444,0.9322,-1.6227
2344,981.7543,0.9318,-1.6861
2346,982.036,0.9309,-1.7532
2348,982.28,0.9322,-1.8225
2350,982.495,0.9323,-1.8945
2352,982.679,0.9322,-1.9678
2354,982.831,0.9325,-2.0431
2356,982.9577,0.9328,-2.1195
2357,983.001,0.9319,-2.1501