File: Wood/Calibration_Data/TIFP+UCT/TIFP+UCT_Wood_Gasification_30kW_hor_perpendicular_R1.csv
Time (s),Mass (g),MLR (g/s),TC back 1 (K),TC back 2 (K),TC back 3 (K)
0,118.55,0.62,299.85,299.25,301.35
3,118.49,0.47,300.15,299.45,301.85
6,118.54,0.05,300.45,299.65,302.35
9,118.42,-0.05,300.65,299.85,302.85
12,118.39,-0.01,300.95,300.05,303.25
15,118.29,0.04,301.15,300.15,303.65
18,118.16,0.01,301.45,300.35,304.05
21,118.32,-0.06,301.65,300.45,304.35
24,117.96,0.09,301.85,300.65,304.65
27,117.94,-0.05,302.15,300.85,305.05
30,117.92,0.02,302.35,300.95,305.35
33,117.79,0.01,302.65,301.15,305.65
36,117.81,0.02,302.85,301.25,305.95
39,117.75,-0.08,303.05,301.45,306.25
42,117.68,0.01,303.35,301.55,306.55
45,117.63,0.04,303.55,301.75,306.85
48,117.58,0.06,303.75,301.95,307.15
51,117.43,0.08,304.05,302.05,307.45
54,117.41,-0.04,304.25,302.25,307.75
57,117.39,-0.01,304.55,302.35,308.05
60,117.03,0.03,304.85,302.55,308.35
63,117.12,-0.04,305.05,302.75,308.75
66,117.08,0.16,305.45,302.95,309.15
69,116.98,0.00,305.75,303.15,309.55
72,116.80,0.01,306.15,303.35,309.95
75,116.89,-0.06,306.55,303.55,310.35
78,116.67,0.14,306.85,303.85,310.85
81,116.63,-0.15,307.35,304.15,311.35
84,116.36,0.06,307.85,304.45,311.85
87,116.30,0.00,308.35,304.75,312.35
90,116.21,0.05,308.95,305.05,312.95
93,116.20,0.15,309.55,305.45,313.55
96,115.99,-0.05,310.25,305.85,314.25
99,115.62,0.01,310.85,306.25,314.95
102,115.73,-0.13,311.55,306.75,315.65
105,115.82,0.17,312.25,307.25,316.35
108,115.50,0.11,313.05,307.75,317.15
111,115.24,0.11,313.85,308.35,317.95
114,115.18,-0.09,314.65,308.95,318.85
117,115.10,-0.01,315.55,309.65,319.75
120,114.90,0.06,316.45,310.25,320.65
123,114.80,0.03,317.35,310.95,321.55
126,114.61,0.12,318.35,311.65,322.55
129,114.40,0.01,319.35,312.45,323.55
132,114.40,0.14,320.35,313.25,324.55
135,114.14,0.08,321.45,314.05,325.65
138,114.15,0.07,322.55,314.95,326.75
141,113.92,0.07,323.55,315.85,327.85
144,113.83,-0.00,324.75,316.75,328.95
147,113.74,0.00,325.85,317.75,330.05
150,113.59,0.04,327.05,318.65,331.25
153,113.48,0.10,328.25,319.65,332.35
156,113.40,-0.01,329.45,320.65,333.45
159,113.27,0.05,330.65,321.75,334.65
162,112.97,0.07,331.85,322.75,335.75
165,112.92,0.06,333.05,323.85,336.85
168,112.90,0.04,334.35,324.95,338.05
171,112.70,-0.01,335.55,326.05,339.25
174,112.56,-0.01,336.75,327.15,340.35
177,112.57,0.02,338.05,328.25,341.55
180,112.44,0.04,339.25,329.35,342.65
183,112.26,0.11,340.55,330.55,343.75
186,112.15,-0.02,341.75,331.65,344.95
189,112.07,0.06,342.95,332.75,346.05
192,111.92,0.01,344.15,333.85,347.15
195,111.82,-0.02,345.35,334.95,348.25
198,111.77,-0.02,346.65,336.15,349.35
201,111.68,0.02,347.75,337.25,350.45
204,111.53,0.01,348.95,338.35,351.45
207,111.35,0.12,350.15,339.45,352.55
210,111.23,0.03,351.25,340.55,353.55
213,111.12,0.07,352.45,341.65,354.65
216,111.10,0.09,353.65,342.75,355.65
219,110.78,-0.13,354.75,343.85,356.65
222,110.83,0.21,355.85,344.95,357.55
225,110.53,0.01,356.95,345.95,358.45
228,110.53,0.01,357.95,347.05,359.45
231,110.24,0.02,358.95,348.05,360.35
234,110.25,0.15,359.95,349.15,361.15
237,110.14,-0.02,360.95,350.15,361.95
240,110.06,0.04,361.95,351.25,362.85
243,109.97,-0.10,363.05,352.25,363.65
246,109.83,0.09,364.05,353.25,364.45
249,109.81,0.02,365.05,354.15,365.25
252,109.67,0.02,365.95,355.05,365.95
255,109.38,0.06,366.85,355.95,366.65
258,109.38,0.02,367.75,356.85,367.45
261,109.30,-0.03,368.55,357.75,368.15
264,109.17,0.08,369.45,358.65,368.85
267,109.05,0.03,370.25,359.45,369.45
270,108.96,-0.07,371.05,360.25,370.15
273,108.78,0.16,371.85,361.15,370.75
276,108.74,0.02,372.65,361.85,371.35
279,108.49,0.09,373.45,362.65,371.95
282,108.49,0.07,374.15,363.45,372.55
285,108.42,0.02,374.85,364.15,373.05
288,108.24,0.06,375.55,364.95,373.65
291,108.11,0.08,376.25,365.65,374.15
294,107.95,0.04,376.85,366.35,374.65
297,107.80,0.02,377.45,367.15,375.05
300,107.63,0.06,378.05,367.85,375.55
303,107.57,0.04,378.45,368.55,376.05
306,107.49,0.00,378.85,369.25,376.45
309,107.29,0.08,379.15,369.95,376.85
312,107.43,-0.01,379.35,370.65,377.25
315,107.02,0.07,379.55,371.35,377.55
318,106.84,0.09,379.75,372.05,377.95
321,106.89,0.01,379.95,372.75,378.25
324,106.74,0.00,380.05,373.45,378.65
327,106.62,0.08,380.15,374.15,378.95
330,106.37,-0.02,380.25,374.85,379.25
333,106.56,-0.04,380.35,375.45,379.55
336,106.35,0.01,380.45,376.05,379.85
339,106.18,0.04,380.55,376.45,380.05
342,106.17,0.09,380.65,376.75,380.35
345,105.95,-0.02,380.75,376.95,380.65
348,105.65,0.12,380.85,377.15,380.85
351,105.67,0.02,380.95,377.35,381.05
354,105.48,0.11,380.95,377.45,381.25
357,105.44,-0.02,381.05,377.55,381.45
360,105.26,0.01,381.15,377.65,381.55
363,105.07,0.01,381.25,377.75,381.75
366,105.10,0.07,381.35,377.85,381.95
369,105.03,0.08,381.45,377.85,382.05
372,104.81,-0.00,381.55,378.05,382.25
375,104.64,0.13,381.65,378.05,382.35
378,104.58,0.00,381.75,378.15,382.55
381,104.54,0.03,381.75,378.25,382.65
384,104.38,0.04,381.85,378.25,382.75
387,104.24,0.02,381.95,378.35,382.85
390,104.00,0.09,382.05,378.45,383.05
393,103.93,0.06,382.05,378.45,383.15
396,103.88,-0.08,382.15,378.55,383.25
399,103.81,0.05,382.25,378.55,383.35
402,103.71,0.03,382.35,378.65,383.45
405,103.37,0.04,382.45,378.75,383.55
408,103.52,0.14,382.45,378.75,383.75
411,103.30,0.01,382.55,378.85,383.75
414,103.32,0.01,382.65,378.95,383.95
417,103.21,0.03,382.75,378.95,384.05
420,103.14,0.05,382.85,379.05,384.15
423,102.98,-0.00,382.85,379.05,384.25
426,102.71,0.12,382.95,379.15,384.35
429,102.81,0.07,383.05,379.15,384.45
432,102.65,0.00,383.15,379.25,384.55
435,102.44,0.02,383.25,379.25,384.65
438,102.34,0.05,383.35,379.25,384.75
441,102.25,0.03,383.45,379.35,384.85
444,102.20,0.08,383.45,379.35,384.95
447,102.16,-0.03,383.55,379.45,385.15
450,102.04,0.02,383.65,379.45,385.15
453,101.77,0.09,383.75,379.55,385.25
456,101.77,0.04,383.75,379.55,385.35
459,101.64,0.03,383.85,379.65,385.45
462,101.46,-0.02,383.95,379.65,385.55
465,101.40,0.09,384.05,379.65,385.65
468,101.23,0.03,384.15,379.75,385.75
471,101.03,0.08,384.25,379.75,385.75
474,101.03,0.05,384.35,379.85,385.95
477,100.92,0.05,384.35,379.85,385.95
480,100.88,-0.01,384.45,379.95,386.05
483,100.79,0.12,384.65,379.95,386.25
486,100.70,0.05,384.75,380.05,386.35
489,100.51,-0.01,384.85,380.05,386.45
492,100.53,0.03,384.95,380.05,386.55
495,100.38,0.04,385.05,380.15,386.65
498,100.23,0.04,385.15,380.25,386.75
501,100.02,0.05,385.25,380.25,386.85
504,99.97,-0.01,385.35,380.25,386.95
507,99.95,0.05,385.45,380.35,387.05
510,99.80,0.02,385.55,380.35,387.15
513,99.74,0.11,385.65,380.35,387.25
516,99.61,0.04,385.85,380.45,387.35
519,99.41,0.09,385.95,380.55,387.45
522,99.43,0.11,386.05,380.55,387.55
525,99.17,-0.00,386.25,380.65,387.75
528,99.29,0.05,386.35,380.65,387.85
531,99.18,-0.05,386.45,380.75,387.95
534,99.02,0.04,386.65,380.85,388.05
537,98.88,0.02,386.75,380.85,388.25
540,98.66,0.03,386.85,380.85,388.35
543,98.68,0.15,387.05,380.95,388.45
546,98.52,-0.19,387.15,380.95,388.55
549,98.54,0.06,387.35,381.05,388.65
552,98.74,0.06,387.45,381.05,388.85
555,98.29,0.04,387.55,381.15,388.95
558,98.24,0.04,387.75,381.25,389.05
561,98.18,-0.02,387.95,381.25,389.25
564,98.02,0.09,388.15,381.35,389.45
567,97.95,-0.02,388.35,381.45,389.55
570,97.94,0.03,388.45,381.45,389.65
573,97.62,0.01,388.65,381.55,389.85
576,97.51,0.02,388.85,381.65,390.05
579,97.52,0.09,389.05,381.65,390.25
582,97.36,-0.03,389.25,381.75,390.35
585,97.31,0.09,389.45,381.85,390.55
588,97.29,0.10,389.55,381.85,390.75
591,97.05,-0.04,389.85,381.95,390.95
594,96.89,0.06,390.05,382.05,391.15
597,96.93,-0.02,390.25,382.05,391.25
600,96.93,0.07,390.45,382.15,391.45
603,96.73,0.12,390.65,382.25,391.65
606,96.80,-0.03,390.95,382.35,391.85
609,96.62,0.05,391.15,382.35,392.05
612,96.54,0.11,391.35,382.45,392.35
615,96.35,0.01,391.55,382.55,392.55
618,96.36,-0.02,391.85,382.65,392.85
621,96.26,0.01,392.05,382.75,393.05
624,96.03,0.12,392.35,382.85,393.35
627,95.97,0.01,392.65,382.85,393.55
630,95.94,0.08,392.95,382.95,393.85
633,95.79,-0.05,393.15,383.15,394.15
636,95.67,0.06,393.55,383.15,394.45
639,95.73,0.04,393.75,383.35,394.75
642,95.65,-0.07,394.15,383.45,394.95
645,95.47,-0.11,394.45,383.45,395.35
648,95.33,0.24,394.75,383.65,395.65
651,95.27,-0.00,395.05,383.75,395.95
654,95.25,0.03,395.35,383.85,396.25
657,94.90,-0.03,395.75,383.95,396.55
660,94.97,0.10,396.05,384.05,396.95
663,94.97,0.06,396.35,384.25,397.25
666,94.74,-0.08,396.75,384.35,397.65
669,94.69,0.06,397.05,384.45,397.95
672,94.57,0.08,397.45,384.55,398.35
675,94.64,-0.05,397.75,384.65,398.75
678,94.46,0.05,398.15,384.85,399.05
681,94.32,0.00,398.55,384.95,399.45
684,94.20,0.07,398.85,385.05,399.85
687,94.15,0.01,399.25,385.15,400.25
690,94.11,0.02,399.75,385.35,400.65
693,93.98,0.08,400.05,385.45,401.05
696,93.95,0.02,400.55,385.65,401.45
699,93.71,0.02,400.95,385.85,401.85
702,93.67,0.08,401.35,385.95,402.35
705,93.65,-0.00,401.75,386.15,402.75
708,93.60,-0.06,402.15,386.25,403.15
711,93.41,-0.01,402.55,386.45,403.65
714,93.42,0.14,403.05,386.65,404.15
717,93.31,-0.00,403.55,386.85,404.65
720,93.16,0.05,403.95,386.95,405.15
723,93.22,0.06,404.45,387.15,405.65
726,93.01,0.02,404.95,387.35,406.15
729,92.98,0.02,405.45,387.55,406.65
732,92.84,0.07,405.95,387.75,407.15
735,92.68,-0.02,406.45,387.95,407.75
738,92.61,0.10,406.95,388.15,408.25
741,92.54,-0.09,407.45,388.45,408.75
744,92.51,-0.02,407.95,388.65,409.25
747,92.33,0.02,408.45,388.85,409.85
750,92.28,0.07,409.05,389.15,410.45
753,92.28,-0.15,409.55,389.35,410.95
756,92.03,0.17,410.15,389.65,411.55
759,92.16,-0.03,410.65,389.85,412.05
762,91.88,0.05,411.25,390.15,412.65
765,91.92,0.01,411.85,390.45,413.25
768,91.67,0.06,412.35,390.75,413.75
771,91.96,0.04,412.95,391.05,414.35
774,91.73,0.06,413.55,391.25,414.95
777,91.56,0.05,414.15,391.55,415.45
780,91.28,-0.01,414.65,391.85,416.05
783,91.37,0.07,415.25,392.15,416.65
786,91.30,-0.01,415.85,392.55,417.25
789,91.20,0.00,416.45,392.85,417.85
792,90.95,-0.01,417.05,393.15,418.45
795,91.16,0.26,417.65,393.55,419.05
798,90.96,-0.11,418.35,393.85,419.65
801,90.83,0.04,418.95,394.25,420.25
804,90.83,-0.01,419.55,394.65,420.85
807,90.72,0.14,420.15,395.05,421.55
810,90.67,0.05,420.85,395.45,422.15
813,90.62,-0.02,421.45,395.75,422.75
816,90.41,0.05,422.15,396.15,423.35
819,90.51,-0.06,422.75,396.55,423.95
822,90.30,0.13,423.45,396.95,424.65
825,90.25,0.05,424.15,397.45,425.25
828,90.15,-0.05,424.85,397.85,425.85
831,90.17,0.01,425.45,398.35,426.45
834,90.10,-0.03,426.15,398.75,427.05
837,89.89,-0.05,426.85,399.15,427.75
840,89.83,0.01,427.55,399.65,428.35
843,89.75,0.02,428.25,400.15,429.05
846,89.56,0.10,428.95,400.65,429.65
849,89.60,-0.00,429.65,401.15,430.25
852,89.48,0.10,430.35,401.65,430.95
855,89.42,0.10,431.05,402.15,431.55
858,89.32,0.02,431.75,402.65,432.15
861,89.23,-0.00,432.45,403.25,432.85
864,89.24,-0.02,433.15,403.75,433.45
867,89.09,0.06,433.85,404.25,434.15
870,88.98,-0.02,434.55,404.85,434.75
873,88.89,0.15,435.25,405.45,435.45
876,88.79,-0.04,436.05,406.05,436.05
879,88.73,-0.05,436.75,406.65,436.75
882,88.57,-0.04,437.45,407.25,437.35
885,88.76,0.13,438.15,407.85,438.05
888,88.51,0.09,438.85,408.45,438.65
891,88.51,-0.02,439.55,408.95,439.25
894,88.41,0.03,440.35,409.65,439.95
897,88.34,0.01,441.05,410.25,440.55
900,88.22,-0.07,441.75,410.85,441.15
903,88.09,-0.04,442.45,411.45,441.85
906,88.08,0.08,443.25,412.05,442.45
909,87.98,0.11,443.95,412.75,443.05
912,87.95,0.03,444.65,413.45,443.75
915,87.85,0.05,445.35,414.05,444.35
918,87.82,0.09,446.05,414.65,444.95
921,87.77,-0.04,446.85,415.35,445.65
924,87.55,-0.07,447.55,416.05,446.25
927,87.55,0.02,448.25,416.65,446.95
930,87.45,-0.04,448.95,417.35,447.55
933,87.24,-0.06,449.65,418.05,448.15
936,87.36,-0.01,450.35,418.65,448.75
939,87.20,0.08,451.05,419.35,449.35
942,87.11,-0.05,451.85,420.05,449.95
945,87.10,-0.00,452.55,420.75,450.65
948,86.93,0.04,453.25,421.45,451.25
951,86.97,-0.05,453.95,422.15,451.85
954,86.73,0.08,454.65,422.85,452.45
957,86.65,0.07,455.35,423.55,453.05
960,86.67,0.01,456.05,424.35,453.65
963,86.49,0.03,456.85,425.05,454.25
966,86.54,0.08,457.45,425.65,454.95
969,86.52,0.05,458.15,426.45,455.55
972,86.27,0.04,458.85,427.15,456.15
975,86.30,-0.05,459.55,427.85,456.75
978,86.15,0.03,460.25,428.55,457.35
981,86.21,0.11,460.95,429.35,457.95
984,86.04,0.09,461.65,430.05,458.55
987,86.02,0.02,462.35,430.75,459.15
990,85.85,-0.01,463.05,431.55,459.75
993,85.69,0.00,463.75,432.25,460.25
996,85.67,-0.03,464.45,432.95,460.95
999,85.73,0.09,465.05,433.65,461.55
1002,85.50,0.00,465.75,434.45,462.05
1005,85.47,-0.07,466.45,435.25,462.65
1008,85.40,0.01,467.05,435.95,463.25
1011,85.24,0.04,467.75,436.65,463.85
1014,85.20,0.03,468.45,437.45,464.45
1017,85.14,0.06,469.15,438.15,465.05
1020,85.02,0.03,469.75,438.95,465.65
1023,85.03,0.04,470.45,439.65,466.15
1026,84.87,-0.07,471.15,440.35,466.75
1029,84.80,-0.05,471.75,441.15,467.35
1032,84.78,0.04,472.45,441.85,467.85
1035,84.58,0.01,473.05,442.55,468.45
1038,84.54,-0.01,473.75,443.35,469.05
1041,84.55,0.06,474.35,444.05,469.65
1044,84.50,0.06,474.95,444.85,470.15
1047,84.39,0.03,475.65,445.55,470.75
1050,84.26,0.06,476.25,446.25,471.35
1053,84.22,-0.02,476.85,446.95,471.85
1056,84.05,0.05,477.55,447.75,472.45
1059,83.94,0.03,478.15,448.45,472.95
1062,83.88,0.02,478.75,449.15,473.55
1065,83.85,0.08,479.35,449.95,474.05
1068,83.73,0.00,480.05,450.65,474.65
1071,83.69,0.01,480.65,451.35,475.25
1074,83.59,0.04,481.25,452.05,475.75
1077,83.48,0.03,481.85,452.85,476.25
1080,83.41,0.06,482.45,453.55,476.85
1083,83.34,0.07,483.15,454.25,477.35
1086,83.22,-0.02,483.75,455.05,477.95
1089,83.19,0.02,484.35,455.75,478.45
1092,83.06,-0.03,484.95,456.45,478.95
1095,82.97,0.03,485.45,457.15,479.55
1098,82.79,0.02,486.15,457.85,480.05
1101,82.87,-0.01,486.65,458.65,480.65
1104,82.72,0.03,487.25,459.35,481.15
1107,82.66,0.03,487.85,460.05,481.65
1110,82.61,0.01,488.45,460.75,482.25
1113,82.49,0.04,489.05,461.45,482.75
1116,82.49,0.08,489.65,462.15,483.25
1119,82.31,0.08,490.25,462.75,483.75
1122,82.19,-0.01,490.75,463.45,484.25
1125,82.18,0.01,491.35,464.25,484.85
1128,82.08,0.06,491.95,464.95,485.35
1131,82.06,-0.03,492.55,465.55,485.85
1134,81.98,0.12,493.15,466.25,486.45
1137,81.82,-0.01,493.65,466.95,486.95
1140,81.65,0.07,494.25,467.65,487.45
1143,81.63,0.09,494.85,468.25,487.95
1146,81.52,0.07,495.35,468.95,488.45
1149,81.47,0.09,495.95,469.65,488.95
1152,81.36,0.03,496.45,470.25,489.35
1155,81.22,0.04,497.05,470.95,489.85
1158,81.20,-0.02,497.65,471.65,490.35
1161,81.07,-0.01,498.15,472.25,490.85
1164,81.04,0.00,498.75,472.95,491.35
1167,80.88,-0.02,499.25,473.55,491.85
1170,80.86,0.00,499.85,474.25,492.35
1173,80.72,-0.05,500.35,474.85,492.85
1176,80.72,-0.01,500.85,475.55,493.35
1179,80.56,0.02,501.45,476.15,493.85
1182,80.47,-0.05,501.95,476.85,494.25
1185,80.31,0.02,502.45,477.45,494.75
1188,80.29,-0.02,503.05,478.05,495.25
1191,80.21,0.04,503.55,478.75,495.65
1194,80.11,0.03,504.15,479.35,496.15
1197,79.99,0.02,504.65,479.95,496.65
1200,79.93,0.03,505.15,480.55,497.15
1203,79.83,0.02,505.75,481.25,497.65
1206,79.71,0.01,506.25,481.85,498.15
1209,79.67,0.04,506.75,482.45,498.55
1212,79.44,0.04,507.35,483.05,499.05
1215,79.40,0.04,507.85,483.65,499.55
1218,79.36,0.10,508.35,484.25,500.05
1221,79.26,-0.03,508.85,484.95,500.45
1224,79.06,0.00,509.45,485.55,500.95
1227,79.05,0.01,509.95,486.15,501.35
1230,78.96,0.01,510.45,486.75,501.85
1233,78.87,0.08,510.95,487.35,502.35
1236,78.84,0.00,511.45,487.95,502.75
1239,78.68,-0.00,511.95,488.55,503.25
1242,78.57,0.01,512.55,489.15,503.65
1245,78.55,0.06,512.95,489.75,504.15
1248,78.46,-0.01,513.55,490.35,504.65
1251,78.32,0.01,513.95,490.95,505.15
1254,78.14,0.13,514.55,491.55,505.55
1257,78.05,0.02,515.05,492.15,506.05
1260,78.00,0.07,515.55,492.75,506.45
1263,77.87,0.05,516.05,493.35,506.95
1266,77.75,0.09,516.55,493.85,507.35
1269,77.68,0.04,517.05,494.45,507.85
1272,77.53,-0.01,517.55,495.05,508.25
1275,77.42,0.02,518.05,495.65,508.75
1278,77.28,0.05,518.45,496.25,509.15
1281,77.34,0.07,518.95,496.85,509.55
1284,77.15,-0.01,519.45,497.35,510.05
1287,77.05,0.05,519.95,497.95,510.45
1290,76.89,0.04,520.45,498.55,510.95
1293,76.82,0.04,520.85,499.05,511.35
1296,76.71,0.07,521.35,499.65,511.75
1299,76.62,0.02,521.85,500.25,512.25
1302,76.52,0.07,522.35,500.85,512.65
1305,76.47,-0.02,522.85,501.35,513.15
1308,76.34,0.05,523.25,501.95,513.55
1311,76.24,0.05,523.75,502.55,513.95
1314,76.11,-0.02,524.25,503.05,514.45
1317,76.00,-0.00,524.75,503.65,514.85
1320,75.88,0.04,525.15,504.25,515.25
1323,75.77,0.01,525.65,504.75,515.75
1326,75.67,0.02,526.05,505.35,516.15
1329,75.59,0.05,526.55,505.95,516.65
1332,75.56,-0.01,527.05,506.45,517.05
1335,75.41,0.02,527.55,507.05,517.45
1338,75.34,0.09,527.95,507.55,517.85
1341,75.17,0.06,528.35,508.15,518.25
1344,75.03,0.03,528.85,508.65,518.65
1347,74.91,0.06,529.35,509.25,519.15
1350,74.75,0.09,529.75,509.75,519.55
1353,74.71,0.05,530.25,510.35,520.05
1356,74.59,0.02,530.65,510.85,520.45
1359,74.49,0.03,531.15,511.45,520.85
1362,74.38,0.03,531.55,511.95,521.25
1365,74.25,-0.01,532.05,512.45,521.65
1368,74.16,-0.01,532.45,512.95,522.05
1371,74.06,0.07,532.95,513.55,522.45
1374,73.93,0.08,533.35,514.05,522.85
1377,73.82,0.06,533.85,514.65,523.25
1380,73.66,0.07,534.25,515.15,523.65
1383,73.60,0.04,534.65,515.65,524.15
1386,73.45,0.09,535.15,516.25,524.55
1389,73.32,0.03,535.55,516.75,524.95
1392,73.27,0.05,535.95,517.25,525.35
1395,73.15,0.05,536.45,517.75,525.75
1398,73.01,0.06,536.85,518.35,526.15
1401,72.83,0.03,537.35,518.85,526.55
1404,72.73,0.04,537.75,519.35,526.95
1407,72.63,0.04,538.25,519.95,527.45
1410,72.48,0.06,538.65,520.45,527.85
1413,72.45,0.02,539.05,520.95,528.25
1416,72.30,-0.01,539.45,521.45,528.65
1419,72.20,0.04,539.95,521.95,528.95
1422,72.07,0.04,540.35,522.45,529.45
1425,71.94,0.03,540.85,523.05,529.85
1428,71.81,0.03,541.25,523.55,530.15
1431,71.71,0.06,541.65,524.05,530.55
1434,71.61,0.04,542.05,524.55,530.95
1437,71.50,0.03,542.55,525.05,531.35
1440,71.38,0.01,543.05,525.55,531.75
1443,71.24,-0.01,543.45,526.05,532.15
1446,71.14,0.07,543.85,526.65,532.55
1449,71.01,0.00,544.25,527.15,532.95
1452,70.87,0.04,544.75,527.65,533.25
1455,70.72,0.03,545.15,528.15,533.65
1458,70.60,0.06,545.55,528.65,534.05
1461,70.50,0.04,545.95,529.15,534.45
1464,70.37,0.04,546.45,529.65,534.85
1467,70.26,0.04,546.85,530.15,535.25
1470,70.15,0.04,547.25,530.65,535.55
1473,70.05,0.05,547.75,531.15,535.95
1476,69.88,0.05,548.15,531.65,536.35
1479,69.75,0.04,548.55,532.15,536.75
1482,69.61,0.05,549.05,532.65,537.15
1485,69.48,0.05,549.45,533.15,537.55
1488,69.42,0.03,549.85,533.65,537.85
1491,69.24,0.03,550.35,534.15,538.25
1494,69.11,0.02,550.75,534.65,538.65
1497,68.96,0.06,551.15,535.15,538.95
1500,68.84,0.03,551.65,535.65,539.35
1503,68.70,0.03,552.05,536.15,539.75
1506,68.60,0.08,552.45,536.65,540.05
1509,68.51,0.05,552.85,537.15,540.45
1512,68.33,0.07,553.25,537.65,540.85
1515,68.23,0.05,553.75,538.15,541.15
1518,68.07,0.02,554.15,538.75,541.55
1521,67.96,0.05,554.55,539.15,541.95
1524,67.83,0.05,554.95,539.75,542.25
1527,67.70,0.04,555.35,540.15,542.65
1530,67.59,0.01,555.85,540.75,543.05
1533,67.46,0.04,556.25,541.15,543.35
1536,67.31,0.03,556.65,541.75,543.75
1539,67.19,0.01,557.05,542.15,544.05
1542,67.07,0.03,557.45,542.75,544.35
1545,66.94,0.06,557.85,543.15,544.75
1548,66.78,0.08,558.25,543.75,545.15
1551,66.62,0.05,558.65,544.15,545.55
1554,66.56,0.04,559.05,544.65,545.85
1557,66.39,0.04,559.45,545.15,546.15
1560,66.27,0.05,559.85,545.65,546.55
1563,66.16,0.05,560.25,546.15,546.85
1566,66.03,0.04,560.65,546.65,547.15
1569,65.91,0.02,561.05,547.15,547.55
1572,65.77,-0.00,561.45,547.65,547.95
1575,65.65,0.00,561.85,548.05,548.25
1578,65.49,0.03,562.25,548.45,548.55
1581,65.38,0.05,562.65,549.05,548.95
1584,65.23,0.04,563.05,549.55,549.25
1587,65.07,0.05,563.45,550.05,549.65
1590,64.95,0.01,563.75,550.55,549.95
1593,64.85,0.02,564.15,551.05,550.25
1596,64.68,0.04,564.55,551.45,550.55
1599,64.57,0.07,564.95,551.95,550.95
1602,64.44,0.02,565.35,552.45,551.25
1605,64.30,0.04,565.75,552.95,551.65
1608,64.16,0.07,566.05,553.45,551.95
1611,64.01,0.06,566.45,553.95,552.25
1614,63.91,0.04,566.85,554.35,552.65
1617,63.74,0.06,567.15,554.85,552.95
1620,63.59,0.04,567.55,555.35,553.25
1623,63.48,0.05,567.95,555.75,553.55
1626,63.35,0.06,568.35,556.25,553.95
1629,63.19,0.05,568.65,556.75,554.25
1632,63.09,0.02,568.95,557.15,554.55
1635,62.93,0.03,569.35,557.65,554.85
1638,62.81,0.04,569.65,558.15,555.25
1641,62.64,0.04,569.95,558.55,555.45
1644,62.52,0.04,570.35,559.05,555.85
1647,62.37,0.04,570.65,559.55,556.15
1650,62.25,0.03,571.05,560.05,556.45
1653,62.10,0.03,571.35,560.45,556.75
1656,61.98,0.02,571.65,560.95,557.05
1659,61.85,0.03,572.05,561.35,557.45
1662,61.70,-0.00,572.35,561.85,557.65
1665,61.53,0.01,572.65,562.35,557.95
1668,61.40,0.05,573.05,562.75,558.35
1671,61.26,0.05,573.35,563.25,558.65
1674,61.13,0.05,573.65,563.65,558.95
1677,61.01,0.03,573.95,564.05,559.25
1680,60.83,0.09,574.25,564.55,559.55
1683,60.72,0.07,574.55,564.95,559.85
1686,60.63,0.05,574.85,565.45,560.15
1689,60.43,0.03,575.25,565.85,560.45
1692,60.29,0.06,575.45,566.25,560.75
1695,60.16,0.04,575.75,566.75,561.05
1698,60.07,0.05,576.15,567.15,561.35
1701,59.87,0.07,576.35,567.55,561.65
1704,59.72,0.03,576.65,568.05,561.95
1707,59.58,0.08,576.95,568.45,562.25
1710,59.40,0.03,577.25,568.85,562.55
1713,59.32,0.07,577.45,569.25,562.85
1716,59.18,0.04,577.75,569.65,563.15
1719,59.03,0.04,577.95,569.95,563.45
1722,58.89,0.06,578.25,570.35,563.75
1725,58.74,0.04,578.55,570.75,564.05
1728,58.62,0.06,578.75,571.15,564.35
1731,58.46,0.06,579.05,571.55,564.65
1734,58.35,0.07,579.25,571.95,564.95
1737,58.18,0.02,579.45,572.35,565.25
1740,58.06,0.00,579.65,572.75,565.55
1743,57.91,0.03,579.95,573.05,565.85
1746,57.78,0.09,580.15,573.45,566.15
1749,57.66,0.05,580.35,573.85,566.35
1752,57.50,0.06,580.65,574.15,566.65
1755,57.35,0.01,580.85,574.55,566.95
1758,57.24,0.04,581.05,574.95,567.25
1761,57.10,0.09,581.25,575.35,567.55
1764,56.95,0.05,581.45,575.75,567.85
1767,56.83,0.07,581.65,576.05,568.15
1770,56.68,0.02,581.85,576.45,568.45
1773,56.56,0.04,582.05,576.85,568.65
1776,56.41,0.04,582.25,577.15,568.95
1779,56.26,0.05,582.55,577.55,569.25
1782,56.10,0.08,582.65,577.85,569.55
1785,56.02,0.05,582.85,578.25,569.85
1788,55.88,0.04,583.05,578.55,570.15
1791,55.72,0.06,583.25,578.95,570.45
1794,55.61,0.04,583.45,579.25,570.65
1797,55.47,0.06,583.55,579.65,570.95
1800,55.29,0.05,583.85,580.05,571.25
1803,55.20,0.03,583.95,580.35,571.45
1806,55.04,0.06,584.15,580.65,571.75
1809,54.89,0.05,584.35,581.05,572.05
1812,54.76,0.06,584.55,581.35,572.35
1815,54.65,0.03,584.75,581.75,572.55
1818,54.49,0.04,584.85,582.05,572.85
1821,54.35,0.06,585.05,582.35,573.15
1824,54.21,0.04,585.25,582.75,573.35
1827,54.10,0.04,585.45,583.05,573.65
1830,53.97,0.05,585.55,583.45,573.95
1833,53.80,0.03,585.75,583.75,574.15
1836,53.65,0.05,585.85,584.05,574.45
1839,53.58,0.03,586.05,584.45,574.75
1842,53.41,0.03,586.25,584.75,575.05
1845,53.29,0.06,586.45,585.05,575.25
1848,53.15,0.04,586.65,585.45,575.55
1851,53.01,0.04,586.75,585.75,575.85
1854,52.91,0.06,586.95,586.05,576.15
1857,52.78,0.06,587.15,586.35,576.35
1860,52.62,0.01,587.35,586.65,576.65
1863,52.51,0.05,587.45,586.95,576.85
1866,52.37,0.03,587.65,587.25,577.15
1869,52.25,0.05,587.75,587.65,577.45
1872,52.11,0.02,587.95,587.95,577.75
1875,51.98,0.04,588.05,588.25,578.05
1878,51.84,0.03,588.25,588.45,578.25
1881,51.74,0.04,588.35,588.75,578.55
1884,51.62,0.03,588.55,589.05,578.75
1887,51.44,0.04,588.65,589.35,579.05
1890,51.29,0.05,588.85,589.75,579.35
1893,51.22,0.06,588.95,590.05,579.55
1896,51.04,0.01,589.15,590.35,579.85
1899,50.90,0.06,589.25,590.55,580.15
1902,50.80,0.05,589.45,590.95,580.35
1905,50.69,0.03,589.55,591.15,580.65
1908,50.55,0.05,589.75,591.45,580.85
1911,50.37,0.03,589.85,591.75,581.15
1914,50.31,0.07,589.95,592.05,581.35
1917,50.20,0.04,590.05,592.25,581.65
1920,50.05,0.02,590.25,592.45,581.85
1923,49.94,0.04,590.35,592.65,582.15
1926,49.81,0.03,590.55,592.95,582.35
1929,49.69,0.03,590.75,593.15,582.65
1932,49.55,0.06,590.85,593.45,582.85
1935,49.42,0.04,591.05,593.65,583.15
1938,49.33,0.03,591.25,593.95,583.35
1941,49.18,0.05,591.35,594.15,583.55
1944,49.08,0.02,591.55,594.35,583.85
1947,48.94,0.05,591.65,594.65,584.15
1950,48.84,0.05,591.75,594.85,584.35
1953,48.70,0.04,591.95,595.05,584.65
1956,48.60,0.03,592.15,595.25,584.85
1959,48.48,0.05,592.25,595.45,585.15
1962,48.37,0.02,592.45,595.65,585.35
1965,48.24,0.04,592.65,595.85,585.65
1968,48.09,0.04,592.75,596.05,585.85
1971,47.99,0.05,592.95,596.25,586.05
1974,47.88,0.06,593.25,596.45,586.25
1977,47.78,0.03,593.35,596.65,586.55
1980,47.65,0.01,593.65,596.85,586.75
1983,47.54,0.04,593.85,597.05,587.05
1986,47.42,0.02,593.95,597.25,587.25
1989,47.31,0.01,594.15,597.55,587.45
1992,47.21,0.05,594.35,597.75,587.75
1995,47.08,0.03,594.55,597.95,588.05
1998,46.92,0.04,594.75,598.15,588.25
2001,46.83,0.04,594.95,598.35,588.45
2004,46.74,0.04,595.15,598.65,588.65
2007,46.53,0.02,595.35,598.85,588.85
2010,46.53,0.10,595.45,599.05,589.05
2013,46.41,0.01,595.65,599.25,589.35
2016,46.29,0.06,595.85,599.45,589.55
2019,46.19,0.04,596.05,599.75,589.75
2022,46.07,0.03,596.25,599.95,589.95
2025,45.92,0.03,596.45,600.15,590.25
2028,45.86,0.05,596.65,600.45,590.45
2031,45.76,0.04,596.75,600.55,590.65
2034,45.65,0.02,596.95,600.85,590.85
2037,45.54,0.02,597.15,600.95,591.05
2040,45.42,0.04,597.35,601.25,591.25
2043,45.29,0.02,597.55,603.95,591.45
2046,45.17,0.07,597.85,604.15,591.65
2049,45.07,0.03,598.15,604.25,591.95
2052,44.96,0.04,598.45,604.35,592.15
2055,44.85,0.04,598.65,604.65,592.35
2058,44.76,0.05,598.95,604.85,592.55
2061,44.67,0.04,599.25,605.05,592.75
2064,44.56,0.03,599.55,605.35,592.95
2067,44.44,0.03,599.75,605.55,593.15
2070,44.36,0.04,600.05,605.85,593.35
2073,44.27,0.03,600.25,606.05,593.55
2076,44.17,0.03,600.55,606.35,593.75
2079,44.06,0.04,600.75,606.55,593.85
2082,43.99,0.02,600.95,606.85,594.05
2085,43.90,0.03,601.25,607.15,594.25
2088,43.80,0.04,601.45,607.45,594.35
2091,43.69,0.03,601.75,607.75,594.55
2094,43.60,0.04,601.95,608.05,594.85
2097,43.52,0.02,602.25,608.45,594.95
2100,43.43,0.03,602.45,608.75,595.15
2103,43.35,0.02,602.75,609.05,595.25
2106,43.21,0.03,603.05,609.45,595.45
2109,43.15,0.03,603.25,609.75,595.65
2112,43.07,0.04,603.55,610.05,595.85
2115,43.00,0.02,603.75,610.45,596.05
2118,42.88,0.06,604.05,610.75,596.15
2121,42.81,0.03,604.35,611.15,596.45
2124,42.72,0.02,604.55,611.55,596.55
2127,42.61,0.03,604.75,611.85,596.75
2130,42.51,0.04,605.15,612.25,596.95
2133,42.44,0.03,605.35,612.55,597.15
2136,42.37,0.03,605.65,612.85,597.35
2139,42.31,0.01,605.85,613.35,597.55
2142,42.23,0.02,606.25,613.65,597.75
2145,42.13,0.02,606.45,614.05,598.05
2148,42.06,0.05,606.75,614.35,598.15
2151,41.96,0.03,607.05,614.75,598.35
2154,41.89,0.03,607.35,615.15,598.55
2157,41.85,0.02,607.65,615.65,598.75
2160,41.74,0.03,607.95,616.05,598.85
2163,41.64,0.04,608.35,616.45,599.05
2166,41.58,0.01,608.65,616.75,599.35
2169,41.50,0.03,608.95,617.25,599.55
2172,41.43,0.03,609.35,617.65,599.75
2175,41.33,0.03,609.65,618.05,600.05
2178,41.27,0.02,609.95,618.35,600.25
2181,41.19,0.02,610.35,618.75,600.45
2184,41.12,0.03,610.65,619.15,600.65
2187,41.04,0.01,611.05,619.55,600.95
2190,40.96,0.04,611.45,619.95,601.15
2193,40.89,0.02,611.85,620.45,601.35
2196,40.81,0.01,612.15,620.75,601.65
2199,40.75,0.03,612.45,621.15,601.85
2202,40.67,0.01,612.85,621.55,601.95
2205,40.61,0.01,613.25,621.95,602.35
2208,40.53,0.04,613.65,622.45,602.55
2211,40.47,0.02,614.05,622.75,602.75
2214,40.41,0.02,614.45,623.05,602.95
2217,40.34,0.03,614.85,623.45,603.25
2220,40.25,0.02,615.25,623.85,603.45
2223,40.18,0.02,615.65,624.25,603.75
2226,40.12,0.03,616.05,624.55,604.15
2229,40.05,0.03,616.45,624.95,604.35
2232,40.01,0.02,616.85,625.45,604.75
2235,39.94,0.02,617.25,625.65,605.15
2238,39.85,0.02,617.65,626.05,605.45
2241,39.78,0.03,618.05,626.35,605.85
2244,39.69,0.01,618.45,626.65,605.85
2247,39.65,0.03,618.95,627.05,606.15
2250,39.58,0.03,619.35,627.35,606.35
2253,39.53,0.04,619.75,627.65,606.65
2256,39.46,0.00,620.15,627.95,606.85
2259,39.37,0.02,620.55,628.15,607.25
2262,39.33,0.02,620.95,628.55,607.45
2265,39.25,0.02,621.35,628.75,607.65
2268,39.19,0.02,621.75,629.15,607.95
2271,39.11,0.01,622.15,629.35,607.85
2274,39.07,0.02,622.65,629.65,607.85
2277,39.00,0.01,623.05,629.95,607.95
2280,38.94,0.03,623.45,630.15,608.35
2283,38.88,0.02,623.85,630.45,608.55
2286,38.80,0.01,624.25,630.65,608.75
2289,38.76,0.03,624.65,630.95,608.95
2292,38.67,0.01,625.05,631.25,608.95
2295,38.62,0.03,625.45,631.45,609.25
2298,38.56,0.02,625.75,631.65,609.55
2301,38.52,0.00,626.15,631.95,609.95
2304,38.44,0.03,626.55,632.15,610.25
2307,38.38,0.03,626.95,632.45,610.35
2310,38.32,0.02,627.35,632.65,610.55
2313,38.28,0.02,627.75,633.05,610.95
2316,38.22,0.03,628.05,633.25,611.05
2319,38.16,0.03,628.35,633.35,611.25
2322,38.12,0.01,628.75,633.65,611.65
2325,38.04,0.03,629.15,633.85,611.85
2328,37.98,0.02,629.35,634.05,611.75
2331,37.92,0.02,629.75,634.15,611.95
2334,37.86,0.04,630.05,634.45,612.15
2337,37.81,0.01,630.35,634.55,612.35
2340,37.76,0.01,630.65,634.65,612.75
2343,37.68,0.03,630.95,634.95,613.15
2346,37.64,0.03,631.35,635.15,613.45
2349,37.62,0.02,631.65,635.35,613.95
2352,37.56,0.02,631.95,635.55,614.35
2355,37.49,0.03,632.35,635.75,614.85
2358,37.44,0.01,632.65,636.05,615.15
2361,37.39,0.01,632.95,636.25,615.55
2364,37.35,0.02,633.25,636.35,615.85
2367,37.31,0.02,633.55,636.55,616.25
2370,37.27,0.00,633.85,636.75,616.65
2373,37.22,0.02,634.15,636.95,617.15
2376,37.14,0.03,634.45,637.25,617.45
2379,37.11,0.02,634.65,637.35,617.75
2382,37.07,0.01,634.95,637.45,618.05
2385,37.01,0.02,635.15,637.75,618.55
2388,36.98,0.02,635.45,637.85,618.65
2391,36.90,0.03,635.75,637.95,619.05
2394,36.87,0.00,635.95,638.15,619.45
2397,36.81,0.01,636.25,638.45,619.95
2400,36.78,0.02,636.55,638.55,620.25
2403,36.72,0.02,636.75,638.75,620.45
2406,36.69,0.01,636.95,638.85,620.95
2409,36.63,0.03,637.25,639.05,621.35
2412,36.58,-0.00,637.45,639.25,621.85
2415,36.56,0.01,637.65,639.45,622.15
2418,36.51,0.02,637.85,639.55,622.55
2421,36.45,0.02,638.05,639.65,622.25
2424,36.39,0.01,638.35,639.85,622.35
2427,36.35,0.03,638.45,639.95,622.35
2430,36.31,0.01,638.75,640.05,622.65
2433,36.28,0.03,638.95,640.25,623.05
2436,36.21,0.00,639.15,640.45,623.35
2439,36.17,0.03,639.35,640.45,623.45
2442,36.15,0.02,639.55,640.65,623.65
2445,36.16,0.02,639.75,640.75,623.85
2448,36.06,-0.01,639.95,640.85,624.35
2451,36.01,0.01,640.15,641.05,624.65
2454,35.99,0.02,640.45,641.15,625.05
2457,35.95,0.01,640.65,641.25,625.35
2460,35.90,0.00,640.85,641.45,625.55
2463,35.89,0.00,641.05,641.55,625.95
2466,35.83,0.01,641.25,641.65,626.25
2469,35.78,0.01,641.45,641.75,626.45
2472,35.75,0.01,641.65,641.95,626.65
2475,35.71,0.02,641.75,642.05,626.95
2478,35.68,0.01,641.95,642.15,627.15
2481,35.63,0.01,642.15,642.25,626.75
2484,35.59,0.00,642.35,642.35,625.35
2487,35.54,0.03,642.55,642.45,625.05
2490,35.49,0.02,642.75,642.65,624.95
2493,35.46,0.01,642.95,642.75,623.85
2496,35.41,0.01,643.15,642.85,621.05
2499,35.37,0.02,643.35,642.95,620.95
2502,35.33,0.01,643.45,643.05,621.05
2505,35.31,0.00,643.65,643.15,621.05
2508,35.26,0.02,643.75,643.25,621.25
2511,35.24,0.02,643.95,643.35,621.25
2514,35.21,0.02,644.05,643.45,621.35
2517,35.16,0.02,644.15,643.55,621.35
2520,35.14,-0.02,644.35,643.65,621.35
2523,35.12,0.01,644.55,643.75,621.55
2526,35.07,0.01,644.65,643.85,621.55
2529,35.06,0.01,644.85,643.95,621.65
2532,35.03,0.02,644.95,644.15,621.75
2535,34.98,-0.00,645.05,644.15,621.85
2538,34.96,0.01,645.15,644.15,621.95
2541,34.92,0.00,645.25,644.35,621.95
2544,34.91,0.00,645.45,644.45,622.15
2547,34.88,0.02,645.55,644.45,622.15
2550,34.87,0.01,645.65,644.55,622.15
2553,34.84,-0.01,645.75,644.65,622.25
2556,34.79,0.01,645.95,644.75,622.35
2559,34.78,0.02,646.05,644.85,622.45
2562,34.74,0.01,646.15,644.95,622.55
2565,34.72,0.00,646.15,644.95,622.65
2568,34.69,0.01,646.35,645.05,622.75
2571,34.66,0.00,646.35,645.05,622.85
2574,34.64,0.02,646.45,645.15,623.05
2577,34.61,0.00,646.55,645.25,623.35
2580,34.59,-0.00,646.65,645.35,623.55
2583,34.57,-0.00,646.75,645.35,623.85
2586,34.52,0.01,646.85,645.55,623.95
2589,34.50,0.01,646.95,645.55,624.05
2592,34.51,0.01,647.05,645.65,624.25
2595,34.44,-0.01,647.15,645.75,624.35
2598,34.43,0.01,647.25,645.75,624.65
2601,34.47,0.02,647.35,645.85,624.85
2604,34.37,0.01,647.45,645.95,624.95
2607,34.37,-0.00,647.55,646.05,625.25
2610,34.33,0.01,647.55,646.05,625.45
2613,34.30,0.02,647.65,646.15,625.65
2616,34.28,0.01,647.75,646.15,625.85
2619,34.26,0.01,647.75,646.15,625.95
2622,34.24,0.01,647.85,646.25,626.15
2625,34.21,0.00,647.95,646.25,626.25
2628,34.18,0.01,647.95,646.35,626.35
2631,34.15,0.01,648.05,646.35,626.35
2634,34.11,0.01,648.15,646.45,626.55
2637,34.10,0.02,648.25,646.55,626.65
2640,34.07,0.03,648.35,646.65,626.75
2643,34.07,0.01,648.35,646.65,626.95
2646,34.06,0.00,648.35,646.65,626.95
2649,34.02,0.01,648.45,646.75,627.05
2652,34.00,-0.01,648.55,646.75,627.25
2655,33.97,0.02,648.55,646.85,627.35
2658,33.95,0.00,648.75,646.95,627.55
2661,33.93,-0.01,648.75,646.95,627.65
2664,33.89,0.01,648.85,646.95,627.75
2667,33.90,-0.01,648.85,647.05,627.85
2670,33.88,-0.01,648.95,647.05,627.95
2673,33.83,0.00,648.95,647.15,628.05
2676,33.82,0.03,649.05,647.25,628.05
2679,33.80,-0.00,649.05,647.15,628.15
2682,33.79,-0.00,649.05,647.25,628.15
2685,33.77,0.01,649.15,647.25,628.25
2688,33.72,0.01,649.25,647.35,628.35
2691,33.72,0.04,649.25,647.35,628.45
2694,33.73,-0.01,649.35,647.45,628.65
2697,33.70,-0.00,649.35,647.45,628.75
2700,33.65,0.01,649.45,647.45,628.85
2703,33.64,-0.01,649.45,647.55,628.95
2706,33.64,0.01,649.55,647.65,628.95
2709,33.63,-0.00,649.65,647.65,629.15
2712,33.60,0.01,649.65,647.65,629.25
2715,33.57,0.01,649.75,647.65,629.35
2718,33.56,0.00,649.75,647.65,629.45
2721,33.56,0.01,649.85,647.75,629.55
2724,33.52,0.02,649.85,647.75,629.65
2727,33.52,0.01,649.85,647.75,629.65
2730,33.51,0.00,649.95,647.85,629.75
2733,33.50,0.03,649.95,647.75,629.85
2736,33.45,0.00,649.95,647.85,629.75
2739,33.44,0.02,650.05,647.95,629.85
2742,33.43,-0.00,650.25,647.95,629.75
2745,33.41,0.01,650.35,648.05,629.85
2748,33.40,0.00,650.35,648.05,629.95
2751,33.36,-0.00,650.45,648.05,629.95
2754,33.37,0.01,650.45,648.15,629.95
2757,33.35,0.02,650.45,648.15,630.05
2760,33.31,0.00,650.55,648.15,630.05
2763,33.31,0.00,650.55,648.15,630.15
2766,33.30,0.00,650.55,648.25,630.15
2769,33.28,0.01,650.55,648.15,630.15
2772,33.27,0.00,650.65,648.15,630.25
2775,33.25,-0.01,650.65,648.25,630.25
2778,33.23,0.00,650.65,648.25,630.25
2781,33.21,0.00,650.65,648.25,630.15
2784,33.18,0.00,650.75,648.35,630.25
2787,33.18,0.01,650.75,648.25,630.25
2790,33.16,-0.01,650.85,648.35,630.35
2793,33.13,0.01,650.95,648.35,630.35
2796,33.13,-0.01,650.85,648.35,630.35
2799,33.12,0.01,650.95,648.35,630.45
2802,33.13,-0.03,650.95,648.35,630.35
2805,33.08,0.02,650.95,648.45,630.45
2808,33.08,0.01,650.95,648.45,630.45
2811,33.04,0.00,651.05,648.45,630.45
2814,33.02,0.01,651.05,648.45,630.45
2817,33.02,-0.01,651.05,648.45,630.55
2820,33.02,0.01,651.05,648.45,630.65
2823,33.00,-0.00,651.05,648.45,630.65
2826,32.99,0.02,651.15,648.45,630.75
2829,32.95,-0.00,651.05,648.35,630.75
2832,32.95,0.00,651.05,648.45,630.85
2835,32.91,0.00,651.15,648.45,630.85
2838,32.93,0.00,651.15,648.45,630.85
2841,32.90,0.00,651.15,648.45,630.95
2844,32.90,0.00,651.15,648.45,631.05
2847,32.88,0.01,651.15,648.45,631.05
2850,32.89,-0.00,651.15,648.45,631.15
2853,32.86,0.01,651.25,648.45,631.25
2856,32.85,0.01,651.25,648.45,631.25
2859,32.84,-0.01,651.25,648.45,631.25
2862,32.83,0.00,651.25,648.45,631.35
2865,32.82,-0.01,651.35,648.55,631.45
2868,32.79,0.00,651.35,648.45,631.55
2871,32.79,-0.00,651.35,648.45,631.65
2874,32.76,0.01,651.35,648.45,631.75
2877,32.77,0.01,651.35,648.45,631.75
2880,32.66,0.01,651.35,648.45,631.75
2883,32.75,0.03,651.35,648.45,631.85
2886,32.73,-0.00,651.35,648.45,631.95
2889,32.71,0.01,651.35,648.45,631.95
2892,32.72,0.01,651.35,648.45,632.05
2895,32.66,0.00,651.45,648.45,632.05
2898,32.67,-0.00,651.45,648.45,632.15
2901,32.67,0.01,651.45,648.45,632.25
2904,32.66,0.01,651.45,648.45,632.25
2907,32.64,-0.00,651.55,648.45,632.35
2910,32.64,-0.00,651.45,648.45,632.35
2913,32.63,0.01,651.45,648.45,632.35
2916,32.62,0.01,651.45,648.45,632.25
2919,32.60,0.01,651.55,648.45,632.35
2922,32.60,-0.01,651.55,648.45,632.35
2925,32.56,-0.01,651.55,648.45,632.35
2928,32.57,0.02,651.55,648.45,632.35
2931,32.54,-0.00,651.55,648.45,632.45
2934,32.54,0.02,651.55,648.45,632.45
2937,32.53,-0.00,651.55,648.35,632.45
2940,32.52,-0.00,651.55,648.45,632.45
2943,32.52,-0.01,651.55,648.45,632.55
2946,32.52,0.02,651.55,648.45,632.55
2949,32.48,-0.00,651.55,648.35,632.55
2952,32.47,-0.01,651.65,648.45,632.55
2955,32.45,0.00,651.75,648.45,632.55
2958,32.44,0.09,651.75,648.45,632.65
2961,32.41,-0.05,651.75,648.45,632.65
2964,32.46,0.01,651.65,648.45,632.65
2967,32.42,0.02,651.75,648.45,632.65
2970,32.41,-0.01,651.75,648.45,632.75
2973,32.39,0.01,651.65,648.45,632.75
2976,32.43,0.01,651.65,648.35,632.75
2979,32.38,0.01,651.65,648.35,632.85
2982,32.38,0.00,651.65,648.35,632.85
2985,32.36,-0.00,651.65,648.35,632.85
2988,32.36,0.01,651.65,648.35,632.95
2991,32.35,0.00,651.65,648.35,632.95
2994,32.34,-0.02,651.65,648.35,633.05
2997,32.32,-0.00,651.65,648.25,633.05
3000,32.33,0.01,651.55,648.35,633.15
3003,32.29,-0.00,651.45,648.25,633.05
3006,32.31,-0.00,651.45,648.35,633.15
3009,32.30,-0.01,651.45,648.15,633.05
3012,32.27,-0.00,651.55,648.15,633.05
3015,32.29,-0.00,651.55,648.25,633.05
3018,32.27,0.01,651.65,648.25,633.05
3021,32.28,0.00,651.65,648.25,633.15
3024,32.26,-0.01,651.65,648.25,633.15
3027,32.25,0.02,651.65,648.25,633.15
3030,32.25,0.02,651.65,648.25,633.15