File: Wood/Calibration_Data/TIFP+UCT/TIFP+UCT_STA_N2_5K_R2.csv
Time (s),Temperature (K),Mass (mg),Heat Flow Rate (W/g)
0,303.16,5.0767,-0.0037
6,303.162,5.0767,-0.0039
12,303.166,5.0766,-0.0038
18,303.168,5.0766,-0.0039
24,303.172,5.0764,-0.0038
30,303.174,5.0764,-0.0039
36,303.179,5.0757,-0.0036
42,303.18,5.077,-0.0039
48,303.183,5.0774,-0.0039
54,303.189,5.0777,-0.0037
60,303.194,5.0767,-0.0038
66,303.193,5.078,-0.0038
72,303.196,5.078,-0.0038
78,303.199,5.0787,-0.0035
84,303.2,5.0794,-0.0034
90,303.204,5.0787,-0.0035
96,303.206,5.0794,-0.0035
102,303.203,5.0801,-0.0032
108,303.204,5.0806,-0.0031
114,303.207,5.0793,-0.003
120,303.207,5.0803,-0.0028
126,303.207,5.0806,-0.0026
132,303.205,5.0805,-0.0024
138,303.205,5.0805,-0.0024
144,303.205,5.0818,-0.0021
150,303.203,5.0805,-0.0021
156,303.201,5.0818,-0.0021
162,303.198,5.0818,-0.0019
168,303.194,5.0812,-0.002
174,303.193,5.0825,-0.002
180,303.191,5.0825,-0.0018
186,303.192,5.0832,-0.0018
192,303.19,5.0825,-0.002
198,303.187,5.0832,-0.0018
204,303.188,5.0832,-0.0018
210,303.185,5.0828,-0.0018
216,303.185,5.0832,-0.0019
222,303.18,5.0833,-0.002
228,303.181,5.082,-0.002
234,303.178,5.0833,-0.002
240,303.177,5.0833,-0.0022
246,303.174,5.0846,-0.0021
252,303.175,5.0846,-0.002
258,303.171,5.0846,-0.0021
264,303.169,5.0848,-0.0022
270,303.173,5.0848,-0.0021
276,303.172,5.0858,-0.0022
282,303.169,5.0848,-0.0023
288,303.167,5.0861,-0.0023
294,303.168,5.0861,-0.0025
300,303.1678,5.0861,-0.0024
306,303.1678,5.0854,-0.0022
312,303.1682,5.0855,-0.0025
318,303.1816,5.0859,-0.0024
324,303.2088,5.0867,-0.002
330,303.2557,5.0863,-0.0018
336,303.3344,5.0869,-0.0021
342,303.445,5.0866,-0.0029
348,303.5918,5.0864,-0.0053
354,303.7881,5.0867,-0.0076
360,304.0238,5.0878,-0.0117
366,304.3057,5.0876,-0.0167
372,304.6418,5.0883,-0.0228
378,305.0198,5.0889,-0.0295
384,305.4532,5.0888,-0.0369
390,305.9348,5.0891,-0.0448
396,306.4593,5.0883,-0.0535
402,307.0251,5.089,-0.0615
408,307.631,5.0885,-0.0701
414,308.2738,5.0884,-0.0782
420,308.9455,5.0899,-0.0859
426,309.6452,5.0902,-0.0936
432,310.3639,5.0892,-0.1006
438,311.097,5.0875,-0.107
444,311.8459,5.0894,-0.1127
450,312.6006,5.0892,-0.1176
456,313.3559,5.0888,-0.1221
462,314.1126,5.0908,-0.126
468,314.8608,5.0895,-0.1291
474,315.6039,5.0891,-0.1316
480,316.3374,5.0909,-0.1333
486,317.0591,5.0895,-0.1345
492,317.766,5.0908,-0.1351
498,318.4584,5.0896,-0.135
504,319.1336,5.0909,-0.1347
510,319.7909,5.0912,-0.134
516,320.4309,5.0903,-0.1333
522,321.0609,5.0896,-0.1314
528,321.6682,5.0885,-0.1299
534,322.2632,5.0909,-0.1284
540,322.8452,5.0896,-0.1266
546,323.4122,5.0896,-0.1246
552,323.9664,5.0896,-0.1225
558,324.5114,5.0889,-0.1206
564,325.0427,5.0896,-0.1189
570,325.5658,5.0896,-0.1169
576,326.0855,5.0896,-0.1154
582,326.5948,5.0882,-0.1136
588,327.1005,5.0882,-0.1122
594,327.6028,5.0882,-0.1112
600,328.0949,5.0895,-0.1099
606,328.5928,5.0889,-0.109
612,329.0821,5.0883,-0.1085
618,329.5778,5.0882,-0.1077
624,330.068,5.0882,-0.1073
630,330.5608,5.0891,-0.1069
636,331.0508,5.0883,-0.1067
642,331.5448,5.0896,-0.1068
648,332.0369,5.0882,-0.1065
654,332.5297,5.0882,-0.1068
660,333.022,5.0882,-0.1069
666,333.5178,5.0884,-0.1069
672,334.0138,5.0883,-0.1073
678,334.509,5.0897,-0.1075
684,335.0087,5.0874,-0.1079
690,335.5033,5.0883,-0.1083
696,336.0038,5.0883,-0.1085
702,336.501,5.0881,-0.1089
708,336.9999,5.0884,-0.109
714,337.5007,5.0883,-0.1094
720,337.9989,5.0883,-0.1095
726,338.4961,5.0883,-0.1095
732,338.9978,5.0883,-0.1094
738,339.4938,5.0874,-0.1094
744,339.9929,5.0873,-0.1093
750,340.4862,5.0883,-0.1091
756,340.9838,5.0883,-0.1086
762,341.4828,5.0883,-0.1086
768,341.9798,5.087,-0.1082
774,342.4748,5.087,-0.1079
780,342.9691,5.087,-0.1072
786,343.4668,5.0869,-0.1069
792,343.9609,5.0869,-0.1066
798,344.458,5.0869,-0.1058
804,344.9539,5.0866,-0.105
810,345.4518,5.0855,-0.1048
816,345.9449,5.0855,-0.1035
822,346.4417,5.0855,-0.1034
828,346.9388,5.0855,-0.1027
834,347.4349,5.0855,-0.102
840,347.929,5.0865,-0.1014
846,348.4287,5.0842,-0.1004
852,348.9257,5.0846,-0.0999
858,349.4229,5.0842,-0.0992
864,349.9217,5.0842,-0.0982
870,350.4198,5.0842,-0.0979
876,350.9206,5.0842,-0.097
882,351.416,5.0829,-0.0962
888,351.9148,5.0839,-0.0955
894,352.4178,5.0835,-0.0948
900,352.9189,5.0835,-0.0943
906,353.4198,5.0841,-0.0937
912,353.9199,5.0841,-0.0931
918,354.42,5.0846,-0.0923
924,354.9218,5.0842,-0.0915
930,355.4267,5.0855,-0.0909
936,355.9262,5.0855,-0.0901
942,356.428,5.0855,-0.0895
948,356.9309,5.0849,-0.0891
954,357.4358,5.0852,-0.0882
960,357.9378,5.0855,-0.0874
966,358.4419,5.0855,-0.0866
972,358.9468,5.0855,-0.0862
978,359.4498,5.0855,-0.0856
984,359.9567,5.0855,-0.0847
990,360.4588,5.0865,-0.0843
996,360.9636,5.0855,-0.0838
1002,361.4677,5.0855,-0.0833
1008,361.9726,5.0855,-0.0823
1014,362.4729,5.0855,-0.0818
1020,362.976,5.0855,-0.0812
1026,363.48,5.0851,-0.0808
1032,363.9832,5.0845,-0.0801
1038,364.4877,5.0868,-0.0796
1044,364.9909,5.0866,-0.0792
1050,365.4945,5.0855,-0.0785
1056,365.9939,5.0856,-0.0782
1062,366.4968,5.0855,-0.0776
1068,366.9988,5.0855,-0.0769
1074,367.4998,5.0851,-0.0765
1080,368.0007,5.0868,-0.0762
1086,368.5026,5.0869,-0.0755
1092,369.0028,5.0869,-0.0752
1098,369.5028,5.0865,-0.0748
1104,370.0066,5.0855,-0.0743
1110,370.5058,5.0856,-0.0742
1116,371.0058,5.0869,-0.0737
1122,371.5081,5.0869,-0.0731
1128,372.0096,5.0869,-0.0727
1134,372.5097,5.0869,-0.0725
1140,373.0128,5.0859,-0.0721
1146,373.5149,5.0865,-0.0718
1152,374.013,5.0869,-0.0717
1158,374.5168,5.0868,-0.0712
1164,375.0168,5.0855,-0.0708
1170,375.5198,5.0855,-0.0704
1176,376.0219,5.0869,-0.0702
1182,376.5219,5.0869,-0.0699
1188,377.0239,5.0869,-0.0695
1194,377.523,5.0869,-0.069
1200,378.026,5.0869,-0.0686
1206,378.5287,5.0869,-0.0684
1212,379.0298,5.0869,-0.0681
1218,379.5337,5.0869,-0.0676
1224,380.0348,5.0879,-0.0672
1230,380.538,5.0869,-0.0672
1236,381.0398,5.0878,-0.0667
1242,381.5445,5.0882,-0.0665
1248,382.0428,5.0882,-0.066
1254,382.5448,5.0882,-0.0659
1260,383.0468,5.0869,-0.0653
1266,383.5516,5.0882,-0.0649
1272,384.0518,5.0869,-0.0645
1278,384.5548,5.0872,-0.064
1284,385.0568,5.0869,-0.0635
1290,385.5617,5.0869,-0.0636
1296,386.0638,5.0869,-0.0634
1302,386.5649,5.0879,-0.063
1308,387.0688,5.0858,-0.0627
1314,387.5726,5.0879,-0.0625
1320,388.0738,5.0869,-0.0622
1326,388.5757,5.0882,-0.062
1332,389.0788,5.0882,-0.0615
1338,389.5809,5.0869,-0.0613
1344,390.0819,5.0882,-0.0611
1350,390.584,5.0869,-0.0611
1356,391.0828,5.0869,-0.0606
1362,391.5868,5.0869,-0.0603
1368,392.0869,5.0869,-0.06
1374,392.5869,5.0855,-0.0598
1380,393.0898,5.0869,-0.0596
1386,393.5905,5.0869,-0.0594
1392,394.0908,5.0869,-0.0593
1398,394.5908,5.0869,-0.0594
1404,395.0928,5.0855,-0.0592
1410,395.5938,5.0855,-0.0589
1416,396.0948,5.087,-0.0587
1422,396.5978,5.0857,-0.0586
1428,397.1007,5.0857,-0.0583
1434,397.5998,5.0857,-0.0583
1440,398.1009,5.087,-0.058
1446,398.6058,5.0856,-0.0577
1452,399.1077,5.0853,-0.0576
1458,399.6107,5.0856,-0.0575
1464,400.1158,5.0867,-0.0575
1470,400.6168,5.087,-0.0573
1476,401.1197,5.087,-0.0573
1482,401.6219,5.087,-0.0573
1488,402.1258,5.0857,-0.0574
1494,402.6278,5.0857,-0.0575
1500,403.1318,5.0857,-0.0575
1506,403.6339,5.0863,-0.0576
1512,404.1349,5.0863,-0.0578
1518,404.6396,5.087,-0.058
1524,405.1428,5.0856,-0.058
1530,405.6449,5.0856,-0.0579
1536,406.1478,5.087,-0.0583
1542,406.6509,5.087,-0.0583
1548,407.1538,5.0857,-0.0583
1554,407.6567,5.0853,-0.0587
1560,408.1588,5.0857,-0.0585
1566,408.6605,5.0857,-0.0585
1572,409.1608,5.0846,-0.0588
1578,409.6639,5.0862,-0.0589
1584,410.1649,5.086,-0.0591
1590,410.6689,5.0846,-0.0589
1596,411.1738,5.0833,-0.059
1602,411.6739,5.0846,-0.0591
1608,412.1758,5.086,-0.0591
1614,412.6769,5.0846,-0.0591
1620,413.18,5.085,-0.0593
1626,413.6838,5.0846,-0.0592
1632,414.1839,5.0839,-0.059
1638,414.6879,5.085,-0.0589
1644,415.1906,5.0853,-0.059
1650,415.6908,5.084,-0.0589
1656,416.1927,5.084,-0.0589
1662,416.6929,5.084,-0.059
1668,417.1939,5.0846,-0.0591
1674,417.6968,5.0833,-0.0589
1680,418.1987,5.0846,-0.0591
1686,418.6998,5.0833,-0.0592
1692,419.202,5.0846,-0.0592
1698,419.7064,5.0823,-0.0592
1704,420.2068,5.0823,-0.0595
1710,420.7061,5.0823,-0.0596
1716,421.2109,5.0836,-0.0593
1722,421.7128,5.0823,-0.059
1728,422.2146,5.0836,-0.0593
1734,422.7158,5.0823,-0.0593
1740,423.2178,5.0823,-0.0592
1746,423.7189,5.0823,-0.0591
1752,424.2189,5.081,-0.059
1758,424.7189,5.081,-0.0593
1764,425.2216,5.0823,-0.0591
1770,425.7199,5.0823,-0.059
1776,426.2217,5.0813,-0.0591
1782,426.7168,5.0823,-0.0587
1788,427.2198,5.082,-0.0588
1794,427.7168,5.0806,-0.0586
1800,428.2142,5.0803,-0.0586
1806,428.7131,5.081,-0.0586
1812,429.2126,5.0799,-0.0585
1818,429.7108,5.0793,-0.0586
1824,430.2079,5.0793,-0.0583
1830,430.7067,5.0776,-0.0584
1836,431.2047,5.0789,-0.0584
1842,431.7029,5.0789,-0.0583
1848,432.2011,5.0789,-0.0581
1854,432.7017,5.0776,-0.0582
1860,433.1999,5.0779,-0.058
1866,433.6998,5.0763,-0.0578
1872,434.1968,5.0766,-0.0581
1878,434.6978,5.0766,-0.0577
1884,435.1988,5.0766,-0.0577
1890,435.6988,5.0763,-0.058
1896,436.1958,5.0756,-0.0576
1902,436.6996,5.0756,-0.0577
1908,437.1968,5.0756,-0.0579
1914,437.6988,5.0739,-0.0578
1920,438.1988,5.0729,-0.0581
1926,438.6969,5.0729,-0.0582
1932,439.1989,5.0729,-0.0582
1938,439.6996,5.0716,-0.0582
1944,440.1988,5.0716,-0.0582
1950,440.6997,5.0702,-0.0582
1956,441.1968,5.0709,-0.0581
1962,441.6949,5.0696,-0.0582
1968,442.1968,5.0692,-0.0582
1974,442.6969,5.0692,-0.0581
1980,443.1968,5.0692,-0.0582
1986,443.6949,5.0679,-0.0581
1992,444.192,5.0659,-0.0579
1998,444.6938,5.0659,-0.0577
2004,445.1908,5.0659,-0.0581
2010,445.6898,5.0659,-0.0577
2016,446.1879,5.0659,-0.0579
2022,446.6848,5.0652,-0.0578
2028,447.1859,5.0652,-0.058
2034,447.6838,5.0633,-0.0577
2040,448.1827,5.0625,-0.0578
2046,448.6817,5.0612,-0.0578
2052,449.1808,5.0602,-0.058
2058,449.6788,5.0611,-0.0578
2064,450.1778,5.0612,-0.0577
2070,450.674,5.0585,-0.0576
2076,451.174,5.0585,-0.0577
2082,451.6728,5.0575,-0.0578
2088,452.172,5.0561,-0.0575
2094,452.6718,5.0561,-0.0578
2100,453.1688,5.0561,-0.0578
2106,453.6677,5.0548,-0.0579
2112,454.1668,5.0554,-0.0579
2118,454.6649,5.0531,-0.0583
2124,455.162,5.0518,-0.0582
2130,455.6628,5.0504,-0.0585
2136,456.1619,5.0491,-0.0588
2142,456.6588,5.0491,-0.059
2148,457.1597,5.0491,-0.0594
2154,457.6567,5.0464,-0.0599
2160,458.154,5.0464,-0.0603
2166,458.6538,5.0451,-0.0607
2172,459.1529,5.0444,-0.0612
2178,459.6538,5.0424,-0.0608
2184,460.1519,5.0424,-0.0601
2190,460.6498,5.0397,-0.0597
2196,461.1489,5.0397,-0.0594
2202,461.6449,5.0388,-0.0591
2208,462.1448,5.0384,-0.059
2214,462.644,5.0357,-0.0587
2220,463.143,5.0357,-0.0589
2226,463.6428,5.0333,-0.0589
2232,464.1409,5.032,-0.0588
2238,464.6409,5.032,-0.0585
2244,465.1409,5.029,-0.0586
2250,465.6371,5.0276,-0.0584
2256,466.1396,5.027,-0.0587
2262,466.6378,5.024,-0.0582
2268,467.136,5.0239,-0.0581
2274,467.6378,5.0236,-0.0581
2280,468.1359,5.0216,-0.058
2286,468.6359,5.0196,-0.0578
2292,469.1378,5.0169,-0.0577
2298,469.6368,5.0169,-0.0578
2304,470.1349,5.0156,-0.0576
2310,470.6348,5.0142,-0.0578
2316,471.1368,5.0139,-0.0578
2322,471.6359,5.0112,-0.058
2328,472.1349,5.0095,-0.058
2334,472.6349,5.0073,-0.0581
2340,473.133,5.0072,-0.0581
2346,473.6326,5.0058,-0.0582
2352,474.131,5.0026,-0.0582
2358,474.6309,5.0018,-0.0583
2364,475.1288,5.0005,-0.0581
2370,475.6279,4.9972,-0.0581
2376,476.1239,4.9964,-0.0579
2382,476.6229,4.9945,-0.0577
2388,477.1211,4.9911,-0.0581
2394,477.6196,4.9908,-0.058
2400,478.1178,4.9898,-0.0578
2406,478.6159,4.9874,-0.0578
2412,479.1148,4.9854,-0.0575
2418,479.6147,4.9854,-0.0576
2424,480.1129,4.9821,-0.0573
2430,480.6108,4.9814,-0.0569
2436,481.1118,4.9787,-0.0568
2442,481.6079,4.9773,-0.0568
2448,482.1106,4.9746,-0.0569
2454,482.6068,4.9733,-0.0568
2460,483.105,4.971,-0.0566
2466,483.6018,4.9706,-0.0566
2472,484.0989,4.9687,-0.0565
2478,484.5978,4.9666,-0.0564
2484,485.0978,4.9639,-0.0561
2490,485.5929,4.9613,-0.0562
2496,486.092,4.9585,-0.056
2502,486.5899,4.9562,-0.0561
2508,487.0899,4.9549,-0.0561
2514,487.5869,4.9549,-0.0561
2520,488.0868,4.9507,-0.056
2526,488.5838,4.948,-0.056
2532,489.0818,4.948,-0.0564
2538,489.5818,4.9457,-0.0562
2544,490.0787,4.9427,-0.056
2550,490.5807,4.94,-0.056
2556,491.0779,4.9365,-0.0562
2562,491.5768,4.9346,-0.0562
2568,492.0768,4.9333,-0.0562
2574,492.5779,4.9305,-0.056
2580,493.0779,4.9278,-0.0562
2586,493.5808,4.9251,-0.0561
2592,494.0809,4.9218,-0.0561
2598,494.5827,4.9194,-0.0559
2604,495.0818,4.9184,-0.0558
2610,495.5858,4.9157,-0.056
2616,496.0849,4.9117,-0.0558
2622,496.5858,4.9097,-0.0559
2628,497.0869,4.9068,-0.0559
2634,497.586,4.9037,-0.0558
2640,498.0859,4.901,-0.0561
2646,498.585,4.8983,-0.0558
2652,499.0858,4.8956,-0.0563
2658,499.5849,4.8916,-0.0562
2664,500.0839,4.8899,-0.0566
2670,500.5838,4.8872,-0.0566
2676,501.0828,4.8832,-0.0568
2682,501.5818,4.8792,-0.0571
2688,502.08,4.8765,-0.0573
2694,502.5779,4.8738,-0.0575
2700,503.0786,4.8698,-0.0578
2706,503.5768,4.8669,-0.058
2712,504.0739,4.8633,-0.0582
2718,504.5718,4.8592,-0.0583
2724,505.0699,4.8562,-0.0586
2730,505.5699,4.8517,-0.0589
2736,506.0679,4.8489,-0.0591
2742,506.5666,4.8461,-0.059
2748,507.0649,4.8405,-0.0593
2754,507.5648,4.8373,-0.0593
2760,508.063,4.8351,-0.0598
2766,508.563,4.8304,-0.0596
2772,509.0599,4.8275,-0.0597
2778,509.5608,4.8223,-0.0599
2784,510.0598,4.8188,-0.0602
2790,510.5578,4.8153,-0.0601
2796,511.056,4.8115,-0.0603
2802,511.5548,4.8068,-0.0605
2808,512.0529,4.8039,-0.0608
2814,512.5511,4.7979,-0.061
2820,513.0479,4.7935,-0.061
2826,513.5468,4.7898,-0.0612
2832,514.0478,4.7862,-0.0613
2838,514.5459,4.7805,-0.0616
2844,515.0419,4.7759,-0.0616
2850,515.5389,4.7719,-0.0618
2856,516.0389,4.7659,-0.0621
2862,516.5388,4.7621,-0.0622
2868,517.0396,4.7593,-0.0623
2874,517.537,4.7527,-0.0626
2880,518.038,4.7483,-0.0627
2886,518.5408,4.7436,-0.0628
2892,519.0389,4.7379,-0.0629
2898,519.5405,4.735,-0.0632
2904,520.039,4.7299,-0.0634
2910,520.5379,4.7245,-0.0635
2916,521.0379,4.7191,-0.0637
2922,521.5371,4.7141,-0.0639
2928,522.0398,4.7091,-0.0641
2934,522.5389,4.7045,-0.0638
2940,523.0407,4.7,-0.0642
2946,523.5408,4.694,-0.0643
2952,524.0418,4.6893,-0.0643
2958,524.5428,4.6829,-0.0644
2964,525.0428,4.6782,-0.0643
2970,525.5418,4.6735,-0.0644
2976,526.0446,4.667,-0.0644
2982,526.542,4.6617,-0.0646
2988,527.041,4.6558,-0.0645
2994,527.5438,4.6511,-0.0644
3000,528.0418,4.6446,-0.0646
3006,528.5429,4.6386,-0.0642
3012,529.0411,4.6337,-0.0643
3018,529.5427,4.6291,-0.0639
3024,530.0408,4.6215,-0.0643
3030,530.54,4.6169,-0.0641
3036,531.0417,4.6102,-0.0639
3042,531.5408,4.6058,-0.064
3048,532.038,4.5993,-0.0637
3054,532.5388,4.5947,-0.0636
3060,533.0408,4.5864,-0.0633
3066,533.5398,4.5826,-0.0632
3072,534.0389,4.5769,-0.0628
3078,534.5352,4.5697,-0.0628
3084,535.036,4.5637,-0.0627
3090,535.5359,4.5576,-0.0624
3096,536.0349,4.5521,-0.062
3102,536.5338,4.5456,-0.0618
3108,537.0319,4.5378,-0.0618
3114,537.5309,4.5324,-0.0616
3120,538.0299,4.528,-0.0612
3126,538.5299,4.5203,-0.0608
3132,539.0299,4.5145,-0.0605
3138,539.5307,4.5071,-0.0603
3144,540.0297,4.5021,-0.0598
3150,540.5298,4.4968,-0.0595
3156,541.0289,4.4881,-0.0592
3162,541.5289,4.4801,-0.059
3168,542.0281,4.4764,-0.0587
3174,542.5299,4.4697,-0.0585
3180,543.0308,4.4629,-0.0583
3186,543.5278,4.4559,-0.0579
3192,544.027,4.4491,-0.0574
3198,544.5286,4.443,-0.0572
3204,545.0261,4.4371,-0.0569
3210,545.5259,4.4299,-0.0564
3216,546.0278,4.4233,-0.0559
3222,546.5247,4.4159,-0.0556
3228,547.0249,4.4096,-0.0555
3234,547.523,4.4023,-0.0553
3240,548.0221,4.3952,-0.0545
3246,548.5209,4.3896,-0.0541
3252,549.0219,4.3819,-0.0538
3258,549.5238,4.375,-0.0534
3264,550.0239,4.3677,-0.053
3270,550.5258,4.3608,-0.0524
3276,551.0267,4.3542,-0.0521
3282,551.5278,4.3463,-0.0517
3288,552.0291,4.3398,-0.0514
3294,552.5337,4.3309,-0.0506
3300,553.0338,4.3233,-0.0502
3306,553.5378,4.317,-0.0501
3312,554.0369,4.3118,-0.0498
3318,554.5368,4.3041,-0.0494
3324,555.0388,4.2941,-0.0488
3330,555.5379,4.2873,-0.0485
3336,556.0359,4.2803,-0.0486
3342,556.5359,4.2735,-0.0486
3348,557.033,4.264,-0.048
3354,557.5309,4.2573,-0.048
3360,558.0281,4.2515,-0.0479
3366,558.5258,4.2422,-0.0477
3372,559.022,4.2337,-0.0477
3378,559.5196,4.226,-0.0477
3384,560.0176,4.2171,-0.0475
3390,560.5128,4.2087,-0.0476
3396,561.0099,4.2022,-0.0479
3402,561.5079,4.1938,-0.048
3408,562.0057,4.1853,-0.0476
3414,562.4998,4.1778,-0.0477
3420,562.9989,4.1687,-0.048
3426,563.4969,4.161,-0.0479
3432,563.9959,4.152,-0.0476
3438,564.4959,4.1433,-0.0477
3444,564.9949,4.1353,-0.0478
3450,565.4949,4.127,-0.0481
3456,565.9968,4.1168,-0.048
3462,566.496,4.1094,-0.0478
3468,566.9987,4.1002,-0.048
3474,567.5026,4.0909,-0.0479
3480,568.0019,4.0825,-0.0482
3486,568.5018,4.0729,-0.0485
3492,569.0049,4.0643,-0.0486
3498,569.5058,4.0549,-0.0487
3504,570.0086,4.0454,-0.0488
3510,570.5099,4.0361,-0.049
3516,571.0128,4.0273,-0.0494
3522,571.5138,4.0162,-0.0498
3528,572.0138,4.0052,-0.0499
3534,572.5149,3.9957,-0.0504
3540,573.0149,3.9857,-0.0505
3546,573.5178,3.9771,-0.0509
3552,574.0187,3.966,-0.0513
3558,574.5209,3.9559,-0.0519
3564,575.0196,3.9456,-0.0521
3570,575.5189,3.9353,-0.0526
3576,576.0208,3.9243,-0.053
3582,576.5198,3.9119,-0.0534
3588,577.02,3.9018,-0.0541
3594,577.5211,3.8911,-0.0545
3600,578.0228,3.8794,-0.0551
3606,578.5208,3.8681,-0.0558
3612,579.019,3.8573,-0.056
3618,579.5217,3.845,-0.0568
3624,580.0196,3.8345,-0.0574
3630,580.5199,3.8225,-0.0582
3636,581.017,3.8094,-0.0588
3642,581.5179,3.7969,-0.0596
3648,582.0162,3.7859,-0.0603
3654,582.5159,3.773,-0.061
3660,583.0158,3.7595,-0.0616
3666,583.5149,3.7487,-0.0621
3672,584.0187,3.7362,-0.0627
3678,584.5161,3.7245,-0.0634
3684,585.0179,3.7115,-0.0643
3690,585.5198,3.7,-0.0647
3696,586.0209,3.6847,-0.0653
3702,586.5228,3.6722,-0.066
3708,587.0219,3.6585,-0.0665
3714,587.5219,3.6466,-0.0669
3720,588.0241,3.6318,-0.0678
3726,588.5228,3.6186,-0.0681
3732,589.023,3.6045,-0.0686
3738,589.5237,3.5914,-0.0691
3744,590.0258,3.5773,-0.0697
3750,590.5239,3.5631,-0.0701
3756,591.0248,3.5488,-0.0711
3762,591.524,3.5355,-0.0712
3768,592.027,3.5195,-0.0718
3774,592.5267,3.5055,-0.0722
3780,593.0269,3.4934,-0.0726
3786,593.5269,3.4792,-0.0729
3792,594.0268,3.4623,-0.0734
3798,594.5258,3.4481,-0.0738
3804,595.0249,3.4351,-0.0741
3810,595.5229,3.4214,-0.0747
3816,596.022,3.4051,-0.0752
3822,596.5208,3.3895,-0.0757
3828,597.0167,3.3751,-0.076
3834,597.514,3.3604,-0.0762
3840,598.011,3.3448,-0.0765
3846,598.5108,3.33,-0.0768
3852,599.0097,3.3147,-0.0773
3858,599.5059,3.298,-0.0775
3864,600.0039,3.282,-0.0777
3870,600.5028,3.2672,-0.0779
3876,601.0021,3.2519,-0.078
3882,601.5029,3.238,-0.0782
3888,602.0019,3.2226,-0.0783
3894,602.5008,3.2052,-0.0787
3900,603.0029,3.1894,-0.0789
3906,603.5019,3.1745,-0.0791
3912,604.0039,3.1598,-0.0796
3918,604.5041,3.1421,-0.0798
3924,605.0068,3.1264,-0.0801
3930,605.5067,3.1108,-0.0806
3936,606.0079,3.0944,-0.0808
3942,606.5071,3.0778,-0.0814
3948,607.0081,3.061,-0.0818
3954,607.5079,3.0467,-0.0823
3960,608.0096,3.0297,-0.0827
3966,608.509,3.0126,-0.0836
3972,609.0099,2.9968,-0.0835
3978,609.5117,2.9801,-0.0847
3984,610.0089,2.9634,-0.0848
3990,610.5081,2.9449,-0.0859
3996,611.0099,2.929,-0.0861
4002,611.5089,2.9116,-0.0869
4008,612.008,2.8948,-0.0878
4014,612.5089,2.879,-0.0886
4020,613.0099,2.8615,-0.0894
4026,613.5079,2.8439,-0.0902
4032,614.0075,2.826,-0.0914
4038,614.5039,2.8079,-0.0923
4044,615.0039,2.7905,-0.0935
4050,615.5039,2.7737,-0.0945
4056,616.0035,2.755,-0.0957
4062,616.5008,2.7367,-0.0973
4068,616.9989,2.7186,-0.0984
4074,617.4948,2.6992,-0.1001
4080,617.9959,2.6797,-0.1014
4086,618.4929,2.6635,-0.1028
4092,618.9948,2.6442,-0.1044
4098,619.4948,2.6237,-0.1056
4104,619.9947,2.6051,-0.1071
4110,620.4919,2.5858,-0.1088
4116,620.9928,2.567,-0.1101
4122,621.4909,2.5475,-0.1117
4128,621.9899,2.5269,-0.1127
4134,622.4917,2.507,-0.1139
4140,622.9888,2.4866,-0.1154
4146,623.4898,2.4662,-0.1171
4152,623.9868,2.4462,-0.118
4158,624.4858,2.4254,-0.1194
4164,624.9858,2.4052,-0.1207
4170,625.4828,2.3833,-0.1218
4176,625.9819,2.3627,-0.123
4182,626.4789,2.342,-0.1237
4188,626.9768,2.3208,-0.1248
4194,627.4758,2.2993,-0.1256
4200,627.9718,2.2779,-0.1262
4206,628.471,2.2568,-0.1267
4212,628.9738,2.2348,-0.1271
4218,629.4757,2.2129,-0.1273
4224,629.9756,2.1911,-0.1275
4230,630.4769,2.1699,-0.1275
4236,630.9788,2.148,-0.1267
4242,631.4818,2.1257,-0.1262
4248,631.9837,2.1044,-0.1255
4254,632.4849,2.0822,-0.1243
4260,632.9888,2.0601,-0.1232
4266,633.4907,2.0388,-0.1214
4272,633.9938,2.017,-0.1196
4278,634.494,1.9961,-0.1171
4284,634.9967,1.9739,-0.1138
4290,635.497,1.9526,-0.1105
4296,635.9997,1.9303,-0.1072
4302,636.4999,1.9124,-0.1029
4308,637.0009,1.8915,-0.0983
4314,637.498,1.8706,-0.0933
4320,638.0008,1.8509,-0.0881
4326,638.4988,1.8316,-0.0824
4332,638.9959,1.8131,-0.0763
4338,639.4969,1.7946,-0.0698
4344,639.9949,1.7758,-0.063
4350,640.4958,1.7585,-0.0553
4356,640.9928,1.7413,-0.0481
4362,641.4908,1.725,-0.0398
4368,641.9888,1.7087,-0.0314
4374,642.4869,1.6943,-0.023
4380,642.9857,1.6796,-0.0138
4386,643.4829,1.6648,-0.005
4392,643.9808,1.6502,0.0047
4398,644.479,1.6384,0.0141
4404,644.9799,1.6259,0.0235
4410,645.4797,1.6152,0.033
4416,645.9817,1.6049,0.0429
4422,646.4799,1.5945,0.052
4428,646.9827,1.5846,0.0613
4434,647.4799,1.5767,0.0706
4440,647.9818,1.5678,0.079
4446,648.4799,1.5596,0.0874
4452,648.9819,1.5546,0.0959
4458,649.4818,1.5459,0.1039
4464,649.9819,1.5414,0.1114
4470,650.483,1.5356,0.1185
4476,650.9839,1.5301,0.1255
4482,651.4878,1.5262,0.1316
4488,651.985,1.5227,0.137
4494,652.489,1.5184,0.1419
4500,652.9899,1.5153,0.1465
4506,653.4917,1.511,0.1512
4512,653.9898,1.5075,0.1546
4518,654.4929,1.5046,0.158
4524,654.9938,1.5019,0.1611
4530,655.4928,1.4992,0.1636
4536,655.993,1.4975,0.1658
4542,656.4948,1.4964,0.1678
4548,656.9938,1.4924,0.1696
4554,657.4951,1.4911,0.1713
4560,657.9957,1.4884,0.1731
4566,658.4959,1.4871,0.1744
4572,658.9969,1.4847,0.1759
4578,659.496,1.482,0.1773
4584,659.9978,1.4807,0.1783
4590,660.4971,1.4777,0.1796
4596,660.9989,1.4767,0.1805
4602,661.5009,1.4747,0.1817
4608,662.0018,1.4733,0.1827
4614,662.5037,1.471,0.184
4620,663.0057,1.4683,0.1846
4626,663.5058,1.4656,0.1856
4632,664.0066,1.4643,0.1866
4638,664.504,1.462,0.1871
4644,665.0058,1.4603,0.1881
4650,665.5041,1.459,0.189
4656,666.0039,1.4572,0.1902
4662,666.5048,1.4559,0.1907
4668,667.0037,1.4532,0.1919
4674,667.5019,1.4518,0.1926
4680,668.002,1.4505,0.1937
4686,668.5028,1.4479,0.1946
4692,669.0028,1.4456,0.1961
4698,669.5028,1.4432,0.1965
4704,670.0018,1.4418,0.1977
4710,670.5009,1.4411,0.1989
4716,671.0017,1.4384,0.1996
4722,671.4979,1.4371,0.2005
4728,671.9969,1.4345,0.2012
4734,672.493,1.4331,0.2022
4740,672.9925,1.4304,0.2034
4746,673.4898,1.429,0.2045
4752,673.986,1.4264,0.2054
4758,674.4847,1.4264,0.2064
4764,674.9827,1.425,0.207
4770,675.477,1.4227,0.2079
4776,675.973,1.42,0.2088
4782,676.47,1.4186,0.2097
4788,676.9669,1.4161,0.2107
4794,677.4649,1.416,0.2119
4800,677.9619,1.4133,0.2121
4806,678.4581,1.4116,0.2131
4812,678.9559,1.4093,0.2137
4818,679.4559,1.4079,0.2144
4824,679.9539,1.4066,0.2153
4830,680.453,1.4052,0.2161
4836,680.9568,1.4039,0.2171
4842,681.4578,1.4025,0.2178
4848,681.9568,1.3994,0.2189
4854,682.4579,1.3981,0.2195
4860,682.9588,1.3961,0.22
4866,683.4588,1.394,0.2213
4872,683.9589,1.391,0.2222
4878,684.4568,1.39,0.2232
4884,684.9579,1.3897,0.2239
4890,685.4569,1.3873,0.2247
4896,685.9589,1.386,0.2255
4902,686.4589,1.3847,0.2267
4908,686.9609,1.3806,0.2274
4914,687.461,1.3794,0.2282
4920,687.9657,1.378,0.2288
4926,688.4677,1.3766,0.2293
4932,688.9706,1.3739,0.2304
4938,689.4699,1.3726,0.231
4944,689.9748,1.3712,0.2319
4950,690.4778,1.3699,0.2324
4956,690.978,1.3686,0.2333
4962,691.4808,1.3662,0.2338
4968,691.9829,1.3645,0.2346
4974,692.4827,1.3622,0.2352
4980,692.9848,1.3608,0.2358
4986,693.4831,1.3608,0.2369
4992,693.9848,1.3586,0.2373
4998,694.4868,1.3562,0.2377
5004,694.9859,1.3542,0.2383
5010,695.486,1.3528,0.2389
5016,695.9879,1.3515,0.2394
5022,696.4909,1.3501,0.2401
5028,696.9889,1.3482,0.2408
5034,697.486,1.3474,0.241
5040,697.9848,1.3448,0.2416
5046,698.4799,1.3424,0.2419
5052,698.9789,1.3411,0.2425
5058,699.474,1.3411,0.2431
5064,699.9737,1.3397,0.2437
5070,700.4699,1.3374,0.2444
5076,700.9669,1.336,0.2448
5082,701.464,1.3347,0.2455
5088,701.9656,1.3333,0.246
5094,702.462,1.3317,0.2464
5100,702.9626,1.3303,0.247
5106,703.4648,1.329,0.2473
5112,703.9637,1.3276,0.2478
5118,704.4626,1.325,0.248
5124,704.9658,1.325,0.2483
5130,705.4638,1.3223,0.2489
5136,705.9649,1.3209,0.2493
5142,706.4658,1.3196,0.2493
5148,706.9649,1.3183,0.2497
5154,707.4647,1.3176,0.2499
5160,707.9657,1.3153,0.2504
5166,708.4648,1.3133,0.2509
5172,708.9639,1.3119,0.2507
5178,709.4648,1.3113,0.2508
5184,709.965,1.3105,0.2512
5190,710.4669,1.3079,0.2515
5196,710.9696,1.3079,0.2519
5202,711.4699,1.3065,0.2519
5208,711.97,1.3049,0.2521
5214,712.4708,1.3038,0.2526
5220,712.9699,1.3032,0.2526
5226,713.4708,1.3012,0.253
5232,713.969,1.3011,0.2531
5238,714.4689,1.2985,0.2533
5244,714.9687,1.2971,0.2535
5250,715.4679,1.2958,0.2534
5256,715.9708,1.2944,0.254
5262,716.4679,1.2944,0.2543
5268,716.9679,1.2924,0.2543
5274,717.4651,1.2911,0.2543
5280,717.9656,1.2897,0.2548
5286,718.4637,1.2884,0.255
5292,718.9627,1.2875,0.2554
5298,719.4608,1.2871,0.2552
5304,719.959,1.2858,0.2555
5310,720.4599,1.2844,0.2559
5316,720.9589,1.283,0.2561
5322,721.4579,1.2817,0.2562
5328,721.9588,1.2817,0.2565
5334,722.4588,1.2804,0.257
5340,722.9599,1.2783,0.2572
5346,723.4609,1.277,0.2575
5352,723.9609,1.277,0.2577
5358,724.4599,1.2757,0.2578
5364,724.9609,1.2743,0.2581
5370,725.4599,1.273,0.2583
5376,725.9599,1.2716,0.2585
5382,726.4608,1.2713,0.2589
5388,726.9609,1.2703,0.2593
5394,727.4627,1.2703,0.2593
5400,727.9591,1.2689,0.2595
5406,728.4618,1.2673,0.2598
5412,728.9601,1.2673,0.2602
5418,729.4616,1.2663,0.2603
5424,729.96,1.265,0.2607
5430,730.4617,1.2636,0.2612
5436,730.9579,1.2623,0.2614
5442,731.4561,1.261,0.2622
5448,731.9578,1.2609,0.2621
5454,732.4568,1.2602,0.263
5460,732.9578,1.2602,0.2632
5466,733.4569,1.2589,0.2635
5472,733.957,1.2565,0.2639
5478,734.4559,1.2549,0.2643
5484,734.9559,1.2549,0.2642
5490,735.4577,1.2535,0.2647
5496,735.9568,1.2525,0.2656
5502,736.4579,1.2532,0.2656
5508,736.958,1.2525,0.266
5514,737.458,1.2512,0.2664
5520,737.9591,1.2498,0.2667
5526,738.46,1.2498,0.2673
5532,738.961,1.2485,0.2678
5538,739.4608,1.2472,0.2681
5544,739.9647,1.2472,0.2686
5550,740.4628,1.2458,0.2689
5556,740.9631,1.2445,0.2693
5562,741.4658,1.2445,0.2699
5568,741.9658,1.2445,0.2702
5574,742.4619,1.2445,0.2708
5580,742.9638,1.2431,0.2707
5586,743.4639,1.2418,0.271
5592,743.9621,1.2414,0.2712
5598,744.4629,1.2401,0.2714
5604,744.9628,1.2388,0.272
5610,745.4619,1.2388,0.2726
5616,745.9619,1.2388,0.2724
5622,746.4607,1.2374,0.273
5628,746.9599,1.2374,0.2737
5634,747.4598,1.2358,0.2742
5640,747.9589,1.2341,0.2742
5646,748.4579,1.2347,0.2746
5652,748.9586,1.2341,0.2751
5658,749.4551,1.2327,0.2756
5664,749.9559,1.2324,0.2756
5670,750.454,1.2301,0.2763
5676,750.9546,1.23,0.2768
5682,751.4519,1.23,0.2773
5688,751.9498,1.2287,0.2776
5694,752.447,1.2287,0.278
5700,752.943,1.2287,0.2787
5706,753.4419,1.2274,0.279
5712,753.9379,1.226,0.2794
5718,754.4359,1.226,0.2798
5724,754.9349,1.2247,0.2803
5730,755.4338,1.2244,0.2809
5736,755.9358,1.2233,0.2812
5742,756.4359,1.2233,0.2817
5748,756.9378,1.2203,0.2824
5754,757.4406,1.2217,0.2825
5760,757.9418,1.2217,0.2833
5766,758.444,1.2203,0.2837
5772,758.9479,1.2203,0.2837
5778,759.4488,1.219,0.2843
5784,759.9519,1.2197,0.2848
5790,760.4529,1.2197,0.2852
5796,760.9559,1.217,0.2853
5802,761.456,1.217,0.2858
5808,761.9579,1.2156,0.2863
5814,762.4619,1.2166,0.2869
5820,762.9638,1.2153,0.2874
5826,763.464,1.2139,0.2877
5832,763.964,1.2126,0.2881
5838,764.4667,1.2126,0.2889
5844,764.9648,1.2126,0.2892
5850,765.4656,1.2126,0.2892
5856,765.9648,1.2113,0.2898
5862,766.463,1.2113,0.2905
5868,766.9618,1.2099,0.2907
5874,767.4608,1.2099,0.2915
5880,767.9578,1.2089,0.2917
5886,768.4541,1.2089,0.2924
5892,768.9548,1.2086,0.2927
5898,769.4539,1.2072,0.2935
5904,769.9528,1.2072,0.2937
5910,770.4529,1.2062,0.2945
5916,770.9557,1.2052,0.2951
5922,771.4538,1.2052,0.2955
5928,771.9557,1.2049,0.2957
5934,772.4568,1.2022,0.2959
5940,772.9587,1.2022,0.2963
5946,773.4591,1.2022,0.2969
5952,773.9609,1.2022,0.297
5958,774.4648,1.2009,0.2978
5964,774.9668,1.2009,0.2983
5970,775.4698,1.1995,0.2987
5976,775.9701,1.1995,0.299
5982,776.4729,1.1982,0.2994
5988,776.975,1.1989,0.2998
5994,777.4759,1.1992,0.2999
6000,777.9789,1.1979,0.3005
6006,778.4818,1.1975,0.3007
6012,778.9819,1.1969,0.3012
6018,779.484,1.1955,0.3013
6024,779.9839,1.1955,0.3022
6030,780.4829,1.1945,0.3023
6036,780.982,1.1948,0.3025
6042,781.4854,1.1941,0.3026
6048,781.9829,1.1942,0.303
6054,782.4839,1.1928,0.303
6060,782.982,1.1928,0.3036
6066,783.4809,1.1928,0.3039
6072,783.9817,1.1905,0.304
6078,784.4799,1.1915,0.3045
6084,784.9798,1.1901,0.3048
6090,785.4788,1.1901,0.3051
6096,785.9798,1.1901,0.3053
6102,786.4789,1.1915,0.3056
6108,786.9759,1.1888,0.3059
6114,787.4748,1.1888,0.3061
6120,787.9757,1.1875,0.3063
6126,788.4748,1.1881,0.3068
6132,788.9739,1.1881,0.3078
6138,789.4739,1.1868,0.3081
6144,789.9739,1.1868,0.3084
6150,790.4739,1.1854,0.3093
6156,790.9759,1.1854,0.3093
6162,791.4757,1.1854,0.3096
6168,791.973,1.1841,0.3106
6174,792.4748,1.1841,0.3108
6180,792.9737,1.1831,0.3112
6186,793.4727,1.1844,0.3115
6192,793.97,1.1831,0.3115
6198,794.4668,1.1818,0.3121
6204,794.9647,1.1818,0.3123
6210,795.4611,1.1818,0.3129
6216,795.9588,1.1818,0.3133
6222,796.454,1.1804,0.3135
6228,796.9529,1.1804,0.3135
6234,797.45,1.1804,0.3137
6240,797.9459,1.1791,0.3143
6246,798.4437,1.1791,0.3144
6252,798.9399,1.1791,0.3151
6258,799.437,1.1791,0.3155
6264,799.9368,1.1777,0.3155
6270,800.4339,1.1777,0.316
6276,800.9339,1.1764,0.3159
6282,801.4366,1.1764,0.3163
6288,801.937,1.1764,0.3169
6294,802.4418,1.1764,0.3166
6300,802.9449,1.175,0.3171
6306,803.4508,1.175,0.3171
6312,803.9529,1.1737,0.3175
6318,804.4598,1.1737,0.3175
6324,804.9638,1.1737,0.3176
6330,805.4669,1.1737,0.3178
6336,805.9709,1.1737,0.3185
6342,806.4776,1.1724,0.3191
6348,806.9809,1.1724,0.3193
6354,807.4878,1.171,0.3194
6360,807.9907,1.171,0.32
6366,808.4947,1.1698,0.3202
6372,808.9969,1.1697,0.3206
6378,809.4989,1.1703,0.3209
6384,810.0038,1.171,0.3216
6390,810.5058,1.1688,0.3214
6396,811.0069,1.1687,0.3215
6402,811.5087,1.1673,0.3221
6408,812.0099,1.167,0.322
6414,812.5059,1.168,0.3223
6420,813.0059,1.168,0.3225
6426,813.5049,1.167,0.3229
6432,814.0027,1.166,0.3234
6438,814.5018,1.1653,0.3235
6444,814.9997,1.1667,0.3231
6450,815.4969,1.1654,0.3236
6456,815.9949,1.164,0.324
6462,816.4947,1.1647,0.3237
6468,816.9927,1.1636,0.3239
6474,817.4897,1.1623,0.3238
6480,817.983,1.1636,0.3237
6486,818.479,1.1623,0.3243
6492,818.9739,1.1623,0.3246
6498,819.468,1.16,0.325
6504,819.9667,1.16,0.3252
6510,820.4607,1.1613,0.3258
6516,820.9587,1.1613,0.3258
6522,821.4539,1.1607,0.3265
6528,821.9509,1.1588,0.3267
6534,822.45,1.1588,0.3267
6540,822.9469,1.1578,0.3268
6546,823.4489,1.1592,0.3271
6552,823.9498,1.1578,0.3273
6558,824.4508,1.1578,0.3278
6564,824.9547,1.1578,0.3278
6570,825.4539,1.1572,0.3281
6576,825.9597,1.1558,0.328
6582,826.4609,1.1558,0.3277
6588,826.962,1.1558,0.3278
6594,827.467,1.1545,0.3279
6600,827.9718,1.1545,0.328
6606,828.4738,1.1531,0.3278
6612,828.9778,1.1534,0.3278
6618,829.4809,1.1545,0.328
6624,829.9848,1.1518,0.3281
6630,830.4888,1.1541,0.3281
6636,830.9907,1.1531,0.3286
6642,831.4937,1.1518,0.3286
6648,831.9939,1.1531,0.3285
6654,832.4969,1.1504,0.3289
6660,832.9971,1.1504,0.329
6666,833.4998,1.1504,0.3288
6672,834.0008,1.1518,0.3289
6678,834.5028,1.1505,0.3293
6684,835.0047,1.1505,0.3293
6690,835.5026,1.1481,0.3293
6696,835.9971,1.1481,0.3292
6702,836.4959,1.1481,0.3291
6708,836.995,1.1491,0.3294
6714,837.4948,1.1491,0.329
6720,837.9911,1.1464,0.3289
6726,838.4919,1.1464,0.3291
6732,838.9869,1.1464,0.3288
6738,839.4859,1.1461,0.3293
6744,839.9848,1.1461,0.329
6750,840.4829,1.1444,0.3296
6756,840.9828,1.1441,0.3291
6762,841.4827,1.1451,0.3292
6768,841.9828,1.1431,0.3295
6774,842.4808,1.1431,0.3293
6780,842.9817,1.1431,0.3298
6786,843.4789,1.1431,0.3299
6792,843.9808,1.1417,0.3294
6798,844.4818,1.1417,0.3296
6804,844.9809,1.1417,0.3295
6810,845.4809,1.1417,0.3296
6816,845.9799,1.1397,0.3296
6822,846.4827,1.14,0.3296
6828,846.9827,1.1401,0.3299
6834,847.4787,1.1397,0.3296
6840,847.9749,1.1384,0.3295
6846,848.4718,1.137,0.3295
6852,848.9681,1.1384,0.3297
6858,849.463,1.1378,0.3297
6864,849.961,1.137,0.3299
6870,850.4567,1.1384,0.33
6876,850.951,1.1377,0.3304
6882,851.4488,1.1377,0.3301
6888,851.9449,1.137,0.3299
6894,852.4449,1.137,0.3297
6900,852.9439,1.1364,0.3301
6906,853.4438,1.1367,0.3302
6912,853.9478,1.1367,0.3302
6918,854.4487,1.1364,0.3304
6924,854.9509,1.1364,0.3309
6930,855.4558,1.135,0.331
6936,855.9577,1.1333,0.3313
6942,856.4628,1.1333,0.3319
6948,856.9666,1.1333,0.3317
6954,857.4668,1.1344,0.332
6960,857.9658,1.1344,0.3323
6966,858.4688,1.133,0.3323
6972,858.9697,1.1317,0.333
6978,859.4697,1.1317,0.3332
6984,859.9689,1.1317,0.3331
6990,860.4689,1.1317,0.3338
6996,860.968,1.1317,0.3336
7002,861.468,1.1317,0.3338
7008,861.964,1.1307,0.3341
7014,862.4668,1.1294,0.334
7020,862.9659,1.1293,0.3342
7026,863.4658,1.1293,0.334
7032,863.9658,1.1293,0.3343
7038,864.4638,1.1287,0.3345
7044,864.963,1.128,0.3344
7050,865.4659,1.129,0.3343
7056,865.9659,1.128,0.3347
7062,866.4659,1.128,0.3348
7068,866.968,1.1276,0.3345
7074,867.4679,1.1263,0.3348
7080,867.9704,1.1263,0.3348
7086,868.4668,1.1266,0.3353
7092,868.9678,1.1253,0.3351
7098,869.4669,1.1266,0.335
7104,869.9659,1.1266,0.3355
7110,870.467,1.1253,0.3357
7116,870.9659,1.1253,0.336
7122,871.4666,1.1253,0.3368
7128,871.9647,1.1253,0.3374
7134,872.4678,1.1253,0.3378
7140,872.9676,1.124,0.3377
7146,873.4688,1.124,0.3381
7152,873.9708,1.1229,0.3411
7158,874.4748,1.1226,0.3411
7164,874.9749,1.1226,0.3413
7170,875.4787,1.1226,0.3415
7176,875.981,1.1226,0.3417
7182,876.4826,1.1217,0.3422
7188,876.9829,1.1216,0.3425
7194,877.4848,1.1216,0.3429
7200,877.9859,1.1216,0.3436
7206,878.4867,1.1216,0.3436
7212,878.9899,1.1203,0.3445
7218,879.4881,1.1203,0.3448
7224,879.9897,1.1203,0.345
7230,880.4869,1.1213,0.3453
7236,880.986,1.1186,0.3456
7242,881.4869,1.1193,0.3458
7248,881.9868,1.1193,0.3466
7254,882.4859,1.1179,0.346
7260,882.9839,1.1179,0.3462
7266,883.4839,1.1179,0.3466
7272,883.9847,1.1169,0.347
7278,884.4847,1.1169,0.3479
7284,884.9828,1.1169,0.3485
7290,885.481,1.1169,0.3489
7296,885.9818,1.1169,0.3496
7302,886.481,1.1166,0.3505
7308,886.982,1.1143,0.351
7314,887.481,1.1156,0.3517
7320,887.9848,1.1152,0.3522
7326,888.4858,1.1152,0.3534
7332,888.9886,1.1152,0.3536
7338,889.4869,1.1152,0.3545
7344,889.9871,1.1139,0.3554
7350,890.4898,1.1139,0.3561
7356,890.9878,1.1139,0.357
7362,891.4889,1.1119,0.3575
7368,891.988,1.1119,0.3587
7374,892.4869,1.1119,0.3593
7380,892.9897,1.1119,0.3606
7386,893.4861,1.1119,0.3616
7392,893.9898,1.1119,0.3626
7398,894.4871,1.1105,0.3634
7404,894.9888,1.1105,0.364
7410,895.4869,1.1105,0.3649
7416,895.983,1.1105,0.3655
7422,896.4827,1.1105,0.3666
7428,896.9789,1.1105,0.3672
7434,897.476,1.1105,0.3682
7440,897.9748,1.1105,0.3693
7446,898.4738,1.1102,0.3702
7452,898.9738,1.1096,0.3707
7458,899.473,1.1092,0.3717
7464,899.9748,1.1092,0.3719
7470,900.4759,1.1089,0.3725
7476,900.9729,1.1075,0.3736
7482,901.4747,1.1075,0.3748
7488,901.974,1.1075,0.3759
7494,902.4759,1.1075,0.3774
7500,902.9797,1.1082,0.3782
7506,903.4809,1.1082,0.3789
7512,903.9809,1.1082,0.3805
7518,904.4818,1.1082,0.3818
7524,904.9848,1.1069,0.3827
7530,905.4847,1.1055,0.3846
7536,905.9847,1.1055,0.3857
7542,906.4848,1.1055,0.3869
7548,906.9867,1.1058,0.3878
7554,907.4877,1.1058,0.3889
7560,907.9869,1.1058,0.3896
7566,908.4906,1.1045,0.3906
7572,908.9919,1.1045,0.3915
7578,909.4909,1.1058,0.3921
7584,909.99,1.1058,0.3934
7590,910.4927,1.1035,0.3947
7596,910.9918,1.1035,0.3957
7602,911.4897,1.1048,0.3971
7608,911.9879,1.1035,0.398
7614,912.4861,1.1048,0.3993
7620,912.9879,1.1022,0.4005
7626,913.4888,1.1022,0.4015
7632,913.9859,1.1035,0.4024
7638,914.4849,1.1035,0.4036
7644,914.9839,1.1016,0.4054
7650,915.4839,1.1012,0.407
7656,915.9859,1.0999,0.408
7662,916.4859,1.0998,0.4096
7668,916.9869,1.0998,0.4107
7674,917.4869,1.0998,0.4122
7680,917.9879,1.0998,0.4132
7686,918.4898,1.0998,0.4151
7692,918.9909,1.1012,0.4156
7698,919.4928,1.0998,0.4172
7704,919.9967,1.0988,0.4186
7710,920.4976,1.0998,0.42
7716,920.997,1.0998,0.4214
7722,921.5007,1.0985,0.4227
7728,921.999,1.0985,0.4243
7734,922.5027,1.0985,0.4251
7740,923.002,1.0994,0.4271
7746,923.501,1.0985,0.4285
7752,924.0027,1.0971,0.4298
7758,924.5028,1.0971,0.431
7764,925.0028,1.0978,0.4157
7770,925.5018,1.0978,0.4198
7776,926.0006,1.0965,0.4225
7782,926.5019,1.0965,0.425
7788,927.0028,1.0951,0.4272
7794,927.502,1.0961,0.4286
7800,928.0037,1.0961,0.4302
7806,928.5028,1.0948,0.4316
7812,929.0029,1.0934,0.4335
7818,929.5038,1.0948,0.4351
7824,930.0039,1.0948,0.4373
7830,930.5049,1.0948,0.4386
7836,931.0049,1.0938,0.4401
7842,931.5028,1.0924,0.4421
7848,932.0008,1.0938,0.4437
7854,932.4998,1.0941,0.4453
7860,932.996,1.0941,0.4467
7866,933.4985,1.0928,0.4491
7872,933.992,1.0928,0.4498
7878,934.4928,1.0928,0.4513
7884,934.988,1.0928,0.4532
7890,935.4869,1.0928,0.455
7896,935.9856,1.0918,0.4565
7902,936.4828,1.0918,0.4581
7908,936.9829,1.0914,0.4599
7914,937.4838,1.0908,0.4617
7920,937.9799,1.0921,0.4636
7926,938.4808,1.0912,0.4652
7932,938.9789,1.0908,0.467
7938,939.4768,1.0914,0.4691
7944,939.9768,1.0901,0.4711
7950,940.4768,1.0901,0.4728
7956,940.976,1.0894,0.4747
7962,941.4777,1.0894,0.4764
7968,941.9779,1.0894,0.4781
7974,942.48,1.0908,0.4796
7980,942.9848,1.0908,0.4813
7986,943.4878,1.0892,0.4833
7992,943.9888,1.0891,0.4848
7998,944.4907,1.0901,0.4866
8004,944.9938,1.0901,0.4884
8010,945.4957,1.0898,0.4903
8016,945.9989,1.0884,0.4924
8022,946.5028,1.0897,0.4939
8028,947.0038,1.0885,0.4958
8034,947.5081,1.0877,0.498
8040,948.0108,1.0884,0.4996
8046,948.5138,1.0884,0.5018
8052,949.0139,1.0898,0.5033
8058,949.5149,1.0871,0.5056
8064,950.0148,1.0884,0.5072
8070,950.5148,1.0884,0.5089
8076,951.0138,1.0871,0.5103
8082,951.5147,1.0871,0.5125
8088,952.0101,1.0877,0.5139
8094,952.5079,1.0891,0.5161
8100,953.0069,1.0877,0.518
8106,953.5048,1.0877,0.519
8112,953.9999,1.0854,0.5213
8118,954.4979,1.0867,0.5227
8124,954.9952,1.0881,0.525
8130,955.494,1.0867,0.5269
8136,955.9939,1.0867,0.5292
8142,956.4928,1.0867,0.5314
8148,956.9919,1.0854,0.5333
8154,957.488,1.0867,0.535
8160,957.9869,1.0854,0.5371
8166,958.4848,1.0867,0.5387
8172,958.9868,1.0867,0.5411
8178,959.4848,1.0854,0.5433
8184,959.9867,1.0854,0.5453
8190,960.4868,1.0854,0.548
8196,960.9878,1.0864,0.5506
8202,961.4889,1.0864,0.5526
8208,961.9898,1.085,0.5547
8214,962.4928,1.0851,0.5567
8220,962.992,1.0838,0.5588
8226,963.4967,1.0837,0.5614
8232,963.9987,1.0851,0.5634
8238,964.5008,1.0837,0.5655
8244,965.0058,1.0851,0.5674
8250,965.5087,1.0851,0.5695
8256,966.0108,1.0827,0.5715
8262,966.5149,1.0836,0.5736
8268,967.014,1.0837,0.5751
8274,967.5159,1.0824,0.5774
8280,968.0181,1.081,0.5795
8286,968.5167,1.0824,0.5817
8292,969.0159,1.0814,0.5847
8298,969.5138,1.0814,0.5864
8304,970.0108,1.0814,0.5893
8310,970.5099,1.0814,0.5919
8316,971.006,1.0814,0.5945
8322,971.5058,1.081,0.5963
8328,972.0037,1.0801,0.5985
8334,972.5008,1.0787,0.6017
8340,972.9979,1.08,0.6037
8343,973.202,1.08,0.6044