File: Wood/Calibration_Data/TIFP+UCT/TIFP+UCT_Wood_Gasification_hor_parallel_30kW_R2.csv
Time (s),Mass (g),TC back 1 (K),TC back 2 (K),TC back 3 (K)
0,94.80,301.95,301.45,302.35
3,94.81,302.15,301.55,302.55
6,94.63,302.45,301.55,302.85
9,94.51,302.75,301.75,303.15
12,94.43,303.05,301.85,303.35
15,94.33,303.25,301.95,303.65
18,94.28,303.55,302.05,303.95
21,94.21,303.85,302.15,304.25
24,94.14,304.15,302.35,304.55
27,94.08,304.45,302.45,304.95
30,94.00,304.75,302.65,305.25
33,93.91,304.95,302.75,305.55
36,93.82,305.35,302.95,305.85
39,93.74,305.65,303.05,306.15
42,93.66,305.95,303.25,306.55
45,93.56,306.25,303.35,306.85
48,93.47,306.55,303.55,307.15
51,93.36,306.85,303.65,307.55
54,93.26,307.15,303.85,307.85
57,93.14,307.45,304.05,308.15
60,93.02,307.75,304.15,308.55
63,92.91,308.15,304.35,308.85
66,92.79,308.45,304.55,309.25
69,92.66,308.75,304.75,309.55
72,92.55,309.15,304.95,309.95
75,92.42,309.45,305.05,310.25
78,92.30,309.75,305.25,310.55
81,92.19,310.15,305.45,310.95
84,92.07,310.55,305.75,311.35
87,91.96,310.85,305.95,311.65
90,91.84,311.25,306.15,312.05
93,91.74,311.55,306.35,312.35
96,91.61,311.95,306.55,312.75
99,91.50,312.35,306.75,313.15
102,91.38,312.65,306.95,313.45
105,91.29,313.05,307.25,313.85
108,91.19,313.45,307.45,314.25
111,91.09,313.85,307.75,314.65
114,90.97,314.25,307.95,315.05
117,90.86,314.65,308.15,315.35
120,90.77,315.05,308.45,315.75
123,90.67,315.55,308.65,316.15
126,90.56,315.95,308.95,316.55
129,90.46,316.35,309.25,316.95
132,90.35,316.75,309.55,317.35
135,90.28,317.25,309.75,317.75
138,90.17,317.65,310.05,318.15
141,90.09,318.15,310.35,318.55
144,89.96,318.55,310.55,318.95
147,89.88,319.05,310.85,319.35
150,89.78,319.55,311.15,319.85
153,89.68,319.95,311.45,320.25
156,89.59,320.45,311.75,320.65
159,89.50,320.95,312.05,321.05
162,89.40,321.45,312.35,321.55
165,89.32,321.95,312.75,321.95
168,89.22,322.45,313.05,322.45
171,89.13,322.95,313.35,322.95
174,89.03,323.45,313.65,323.35
177,88.94,323.95,314.05,323.85
180,88.86,324.45,314.35,324.35
183,88.78,324.95,314.75,324.75
186,88.69,325.45,315.15,325.25
189,88.59,326.05,315.45,325.75
192,88.50,326.65,315.85,326.15
195,88.42,327.15,316.15,326.65
198,88.33,327.75,316.65,327.15
201,88.24,328.25,316.95,327.65
204,88.15,328.85,317.35,328.15
207,88.07,329.35,317.75,328.65
210,87.99,329.95,318.15,329.15
213,87.90,330.55,318.55,329.65
216,87.81,331.15,318.95,330.15
219,87.71,331.75,319.45,330.75
222,87.64,332.35,319.85,331.25
225,87.55,332.85,320.25,331.75
228,87.46,333.45,320.65,332.25
231,87.38,334.15,321.15,332.75
234,87.30,334.65,321.55,333.35
237,87.20,335.25,322.05,333.85
240,87.12,335.85,322.55,334.45
243,87.02,336.45,322.95,334.95
246,86.96,337.05,323.45,335.45
249,86.88,337.65,323.85,336.05
252,86.77,338.25,324.35,336.65
255,86.72,338.85,324.85,337.15
258,86.63,339.45,325.35,337.65
261,86.54,340.05,325.85,338.25
264,86.45,340.65,326.25,338.75
267,86.37,341.25,326.85,339.35
270,86.30,341.85,327.25,339.95
273,86.21,342.45,327.85,340.45
276,86.12,343.05,328.25,341.05
279,86.04,343.65,328.75,341.65
282,85.96,344.25,329.25,342.15
285,85.87,344.85,329.85,342.75
288,85.79,345.45,330.35,343.35
291,85.71,346.05,330.85,343.95
294,85.63,346.65,331.45,344.45
297,85.55,347.25,331.95,345.05
300,85.46,347.85,332.45,345.55
303,85.38,348.45,332.95,346.15
306,85.32,349.05,333.55,346.75
309,85.25,349.65,334.05,347.35
312,85.16,350.25,334.55,347.85
315,85.09,350.85,335.15,348.45
318,85.00,351.45,335.65,348.95
321,84.92,352.05,336.15,349.55
324,84.84,352.65,336.75,350.05
327,84.76,353.25,337.35,350.65
330,84.66,353.85,337.85,351.25
333,84.60,354.45,338.35,351.75
336,84.51,355.05,338.95,352.35
339,84.43,355.65,339.55,352.95
342,84.36,356.25,340.05,353.45
345,84.29,356.75,340.65,354.05
348,84.21,357.35,341.25,354.55
351,84.14,357.95,341.75,355.05
354,84.07,358.55,342.35,355.65
357,84.01,359.05,342.85,356.15
360,83.92,359.65,343.45,356.75
363,83.82,360.15,344.05,357.25
366,83.75,360.75,344.55,357.75
369,83.68,361.35,345.15,358.25
372,83.60,361.85,345.75,358.85
375,83.53,362.45,346.35,359.35
378,83.45,362.95,346.85,359.95
381,83.37,363.55,347.45,360.45
384,83.28,364.05,348.05,360.95
387,83.22,364.55,348.65,361.45
390,83.14,365.15,349.25,361.95
393,83.06,365.65,349.75,362.45
396,82.99,366.15,350.35,362.95
399,82.92,366.65,350.95,363.45
402,82.84,367.25,351.55,363.95
405,82.76,367.75,352.15,364.55
408,82.69,368.25,352.65,364.95
411,82.62,368.65,353.25,365.45
414,82.54,369.25,353.95,365.95
417,82.48,369.75,354.55,366.45
420,82.40,370.25,355.05,366.95
423,82.32,370.65,355.65,367.45
426,82.25,371.15,356.25,367.85
429,82.19,371.65,356.85,368.35
432,82.12,372.15,357.45,368.85
435,82.03,372.55,358.05,369.25
438,81.96,373.05,358.65,369.75
441,81.88,373.55,359.25,370.25
444,81.81,373.95,359.95,370.65
447,81.74,374.45,360.55,371.05
450,81.66,374.85,361.15,371.55
453,81.60,375.25,361.65,371.95
456,81.53,375.75,362.25,372.35
459,81.45,376.15,362.85,372.75
462,81.38,376.55,363.35,373.15
465,81.32,377.05,363.95,373.55
468,81.25,377.45,364.45,373.95
471,81.16,377.85,365.05,374.45
474,81.10,378.25,365.55,374.75
477,81.02,378.65,366.15,375.15
480,80.98,378.95,366.65,375.55
483,80.91,379.35,367.15,375.95
486,80.84,379.75,367.65,376.25
489,80.77,380.05,368.25,376.65
492,80.70,380.45,368.75,377.05
495,80.63,380.85,369.25,377.45
498,80.56,381.15,369.75,377.75
501,80.49,381.55,370.25,378.15
504,80.42,381.85,370.65,378.45
507,80.36,382.15,371.15,378.85
510,80.28,382.45,371.65,379.15
513,80.21,382.75,372.05,379.55
516,80.14,383.05,372.55,379.85
519,80.07,383.35,372.95,380.15
522,80.00,383.65,373.35,380.45
525,79.92,383.95,373.75,380.75
528,79.86,384.25,374.25,381.05
531,79.78,384.55,374.65,381.45
534,79.72,384.85,374.95,381.75
537,79.64,385.05,375.35,381.95
540,79.56,385.35,375.65,382.35
543,79.50,385.55,376.05,382.55
546,79.42,385.85,376.35,382.85
549,79.37,386.05,376.65,383.15
552,79.29,386.35,376.95,383.35
555,79.23,386.55,377.25,383.65
558,79.15,386.85,377.55,383.95
561,79.09,387.05,377.85,384.15
564,79.00,387.25,378.15,384.35
567,78.94,387.55,378.35,384.65
570,78.87,387.75,378.65,384.85
573,78.80,387.95,378.85,385.15
576,78.72,388.15,379.05,385.35
579,78.67,388.45,379.25,385.55
582,78.60,388.65,379.55,385.75
585,78.51,388.85,379.75,385.95
588,78.46,389.05,379.95,386.15
591,78.38,389.25,380.15,386.45
594,78.31,389.55,380.35,386.65
597,78.23,389.75,380.55,386.75
600,78.17,389.95,380.75,386.95
603,78.11,390.15,380.95,387.15
606,78.04,390.35,381.15,387.35
609,77.97,390.55,381.35,387.55
612,77.90,390.85,381.55,387.75
615,77.83,391.05,381.65,387.95
618,77.76,391.25,381.85,388.15
621,77.68,391.45,382.05,388.35
624,77.63,391.65,382.25,388.55
627,77.56,391.85,382.45,388.75
630,77.49,392.05,382.55,388.95
633,77.41,392.25,382.75,389.15
636,77.35,392.55,382.95,389.25
639,77.27,392.75,383.05,389.45
642,77.21,392.85,383.25,389.65
645,77.14,393.15,383.45,389.85
648,77.08,393.35,383.55,390.05
651,77.02,393.55,383.75,390.25
654,76.96,393.75,383.95,390.45
657,76.89,393.95,384.05,390.65
660,76.81,394.15,384.25,390.85
663,76.75,394.45,384.35,391.05
666,76.68,394.65,384.55,391.15
669,76.61,394.75,384.75,391.35
672,76.55,395.05,384.85,391.55
675,76.47,395.25,385.05,391.75
678,76.41,395.45,385.15,391.95
681,76.34,395.65,385.35,392.15
684,76.28,395.85,385.55,392.35
687,76.20,396.15,385.65,392.55
690,76.13,396.35,385.85,392.65
693,76.06,396.55,385.95,392.85
696,75.99,396.75,386.15,393.05
699,75.93,396.95,386.25,393.25
702,75.86,397.15,386.45,393.45
705,75.78,397.35,386.55,393.65
708,75.74,397.55,386.75,393.85
711,75.66,397.85,386.85,394.05
714,75.59,398.05,387.05,394.15
717,75.52,398.25,387.15,394.35
720,75.45,398.45,387.35,394.55
723,75.38,398.65,387.45,394.75
726,75.31,398.85,387.65,394.95
729,75.26,399.05,387.75,395.15
732,75.18,399.35,387.95,395.35
735,75.12,399.55,388.15,395.55
738,75.05,399.75,388.25,395.75
741,74.99,399.95,388.35,395.95
744,74.92,400.15,388.55,396.15
747,74.85,400.35,388.65,396.35
750,74.77,400.65,388.85,396.45
753,74.72,400.85,389.05,396.65
756,74.65,401.05,389.15,396.85
759,74.58,401.35,389.35,397.15
762,74.52,401.55,389.45,397.25
765,74.45,401.75,389.55,397.45
768,74.39,402.05,389.75,397.65
771,74.33,402.25,389.95,397.85
774,74.25,402.45,390.05,398.05
777,74.20,402.65,390.25,398.25
780,74.13,402.95,390.35,398.45
783,74.06,403.15,390.55,398.65
786,74.00,403.35,390.65,398.85
789,73.92,403.65,390.85,399.05
792,73.86,403.85,390.95,399.25
795,73.80,404.15,391.15,399.45
798,73.73,404.35,391.25,399.65
801,73.67,404.55,391.45,399.85
804,73.60,404.85,391.65,400.05
807,73.55,405.05,391.75,400.35
810,73.47,405.35,391.95,400.55
813,73.42,405.55,392.05,400.65
816,73.35,405.85,392.25,400.85
819,73.28,406.05,392.35,401.05
822,73.22,406.35,392.55,401.35
825,73.15,406.55,392.65,401.55
828,73.08,406.85,392.85,401.75
831,73.02,407.05,393.05,401.95
834,72.95,407.35,393.15,402.15
837,72.89,407.55,393.35,402.35
840,72.84,407.85,393.55,402.65
843,72.77,408.15,393.65,402.85
846,72.71,408.35,393.85,403.05
849,72.65,408.65,393.95,403.25
852,72.59,408.95,394.15,403.55
855,72.51,409.15,394.35,403.75
858,72.45,409.45,394.45,403.95
861,72.39,409.75,394.65,404.25
864,72.33,409.95,394.85,404.45
867,72.27,410.25,394.95,404.65
870,72.21,410.45,395.15,404.95
873,72.14,410.75,395.35,405.15
876,72.09,411.05,395.45,405.45
879,72.02,411.25,395.65,405.55
882,71.95,411.55,395.85,405.85
885,71.89,411.85,395.95,406.05
888,71.82,412.15,396.15,406.35
891,71.76,412.35,396.35,406.55
894,71.70,412.65,396.55,406.85
897,71.64,412.95,396.65,407.05
900,71.57,413.25,396.85,407.25
903,71.53,413.55,397.05,407.55
906,71.48,413.85,397.25,407.85
909,71.41,414.05,397.45,408.05
912,71.35,414.45,397.55,408.35
915,71.28,414.65,397.75,408.55
918,71.22,414.95,397.95,408.85
921,71.17,415.25,398.15,409.05
924,71.09,415.55,398.35,409.35
927,71.04,415.85,398.55,409.55
930,70.97,416.15,398.75,409.85
933,70.91,416.45,398.85,410.05
936,70.84,416.75,399.05,410.35
939,70.80,417.15,399.25,410.65
942,70.74,417.35,399.45,410.95
945,70.68,417.75,399.65,411.25
948,70.62,418.05,399.85,411.45
951,70.55,418.35,400.05,411.75
954,70.49,418.65,400.25,411.95
957,70.42,419.05,400.45,412.25
960,70.37,419.35,400.65,412.45
963,70.31,419.65,400.85,412.75
966,70.24,419.95,401.05,412.95
969,70.19,420.35,401.25,413.25
972,70.11,420.65,401.45,413.55
975,70.07,421.05,401.65,413.85
978,70.00,421.35,401.85,414.15
981,69.94,421.65,402.05,414.45
984,69.88,422.05,402.25,414.75
987,69.83,422.45,402.55,415.05
990,69.76,422.75,402.75,415.25
993,69.76,423.15,402.95,415.55
996,69.64,423.45,403.15,415.85
999,69.58,423.85,403.35,416.15
1002,69.52,424.25,403.65,416.45
1005,69.46,424.65,403.85,416.75
1008,69.40,424.95,404.05,417.05
1011,69.34,425.35,404.35,417.35
1014,69.28,425.75,404.55,417.55
1017,69.21,426.15,404.75,417.95
1020,69.15,426.45,405.05,418.25
1023,69.10,426.85,405.25,418.55
1026,69.04,427.25,405.55,418.85
1029,68.99,427.65,405.75,419.15
1032,68.92,428.05,406.05,419.45
1035,68.86,428.45,406.25,419.75
1038,68.79,428.85,406.45,420.15
1041,68.75,429.25,406.75,420.45
1044,68.68,429.65,407.05,420.75
1047,68.62,430.05,407.25,421.05
1050,68.57,430.45,407.55,421.35
1053,68.50,430.85,407.75,421.65
1056,68.44,431.25,408.05,422.05
1059,68.38,431.75,408.35,422.35
1062,68.32,432.15,408.55,422.65
1065,68.28,432.55,408.85,423.05
1068,68.21,432.95,409.15,423.45
1071,68.15,433.35,409.45,423.75
1074,68.09,433.85,409.65,424.05
1077,68.05,434.25,409.95,424.45
1080,67.97,434.65,410.25,424.75
1083,67.91,435.05,410.45,425.05
1086,67.86,435.55,410.75,425.45
1089,67.81,435.95,411.05,425.85
1092,67.74,436.35,411.35,426.15
1095,67.69,436.85,411.65,426.55
1098,67.63,437.25,411.95,426.85
1101,67.56,437.75,412.25,427.25
1104,67.51,438.15,412.55,427.65
1107,67.45,438.55,412.85,427.95
1110,67.39,439.05,413.15,428.35
1113,67.33,439.55,413.45,428.75
1116,67.28,439.95,413.75,429.05
1119,67.22,440.35,414.05,429.45
1122,67.15,440.85,414.35,429.85
1125,67.09,441.35,414.75,430.25
1128,67.04,441.75,415.05,430.55
1131,66.99,442.15,415.35,430.95
1134,66.92,442.65,415.65,431.35
1137,66.87,443.15,416.05,431.65
1140,66.81,443.55,416.35,432.05
1143,66.75,444.05,416.65,432.45
1146,66.69,444.45,417.05,432.85
1149,66.63,444.95,417.35,433.25
1152,66.58,445.45,417.65,433.65
1155,66.52,445.85,418.05,434.05
1158,66.45,446.35,418.45,434.45
1161,66.40,446.85,418.75,434.75
1164,66.34,447.25,419.05,435.25
1167,66.27,447.75,419.45,435.65
1170,66.22,448.25,419.85,435.95
1173,66.17,448.75,420.25,436.35
1176,66.11,449.15,420.55,436.75
1179,66.05,449.65,420.95,437.25
1182,65.99,450.15,421.35,437.65
1185,65.93,450.55,421.75,438.05
1188,65.87,451.05,422.15,438.45
1191,65.81,451.55,422.55,438.85
1194,65.75,451.95,422.95,439.25
1197,65.69,452.45,423.35,439.65
1200,65.64,452.95,423.75,440.05
1203,65.58,453.35,424.15,440.45
1206,65.52,453.85,424.55,440.85
1209,65.45,454.35,425.05,441.25
1212,65.40,454.85,425.45,441.65
1215,65.35,455.35,425.85,442.15
1218,65.28,455.75,426.35,442.55
1221,65.23,456.25,426.75,442.95
1224,65.18,456.75,427.15,443.35
1227,65.11,457.25,427.65,443.75
1230,65.05,457.65,428.05,444.25
1233,65.01,458.15,428.55,444.65
1236,64.94,458.65,428.95,445.05
1239,64.88,459.15,429.45,445.45
1242,64.81,459.65,429.95,445.95
1245,64.77,460.05,430.35,446.35
1248,64.69,460.55,430.85,446.85
1251,64.64,460.95,431.25,447.25
1254,64.58,461.45,431.75,447.65
1257,64.52,461.95,432.25,448.05
1260,64.47,462.45,432.65,448.45
1263,64.41,462.85,433.15,448.95
1266,64.36,463.35,433.65,449.35
1269,64.30,463.85,434.15,449.75
1272,64.24,464.35,434.65,450.25
1275,64.17,464.75,435.15,450.65
1278,64.11,465.25,435.65,451.05
1281,64.06,465.75,436.15,451.55
1284,64.01,466.25,436.65,452.05
1287,63.94,466.65,437.15,452.45
1290,63.88,467.15,437.65,452.85
1293,63.82,467.65,438.15,453.35
1296,63.76,468.15,438.65,453.75
1299,63.71,468.55,439.15,454.25
1302,63.65,469.05,439.65,454.65
1305,63.58,469.55,440.25,455.05
1308,63.52,469.95,440.75,455.55
1311,63.47,470.45,441.25,455.95
1314,63.41,470.95,441.75,456.45
1317,63.35,471.35,442.35,456.85
1320,63.29,471.85,442.85,457.25
1323,63.23,472.25,443.35,457.75
1326,63.16,472.75,443.85,458.15
1329,63.11,473.15,444.35,458.55
1332,63.04,473.65,444.95,459.05
1335,62.99,474.15,445.45,459.45
1338,62.94,474.55,445.95,459.95
1341,62.87,475.05,446.55,460.35
1344,62.82,475.45,447.05,460.75
1347,62.75,475.95,447.55,461.25
1350,62.70,476.45,448.15,461.75
1353,62.63,476.95,448.65,462.15
1356,62.58,477.35,449.15,462.55
1359,62.53,477.85,449.75,463.05
1362,62.45,478.25,450.25,463.55
1365,62.39,478.75,450.85,463.85
1368,62.34,479.15,451.35,464.35
1371,62.26,479.65,451.85,464.75
1374,62.21,480.05,452.45,465.25
1377,62.14,480.45,452.95,465.65
1380,62.09,480.95,453.45,466.15
1383,62.03,481.35,454.05,466.55
1386,61.98,481.85,454.55,467.05
1389,61.91,482.25,455.05,467.45
1392,61.85,482.75,455.65,467.95
1395,61.79,483.15,456.15,468.35
1398,61.72,483.65,456.75,468.75
1401,61.66,484.05,457.25,469.25
1404,61.59,484.55,457.75,469.65
1407,61.54,484.95,458.35,470.15
1410,61.48,485.35,458.85,470.55
1413,61.42,485.85,459.35,471.05
1416,61.35,486.25,459.95,471.45
1419,61.30,486.75,460.45,471.85
1422,61.24,487.15,460.95,472.35
1425,61.17,487.55,461.55,472.75
1428,61.11,488.05,462.05,473.15
1431,61.05,488.45,462.55,473.65
1434,60.98,488.85,463.15,474.05
1437,60.91,489.35,463.65,474.45
1440,60.86,489.75,464.15,474.95
1443,60.79,490.15,464.65,475.35
1446,60.73,490.65,465.15,475.75
1449,60.67,491.05,465.75,476.15
1452,60.60,491.45,466.25,476.65
1455,60.55,491.85,466.75,477.05
1458,60.48,492.35,467.25,477.45
1461,60.42,492.75,467.75,477.95
1464,60.35,493.15,468.25,478.35
1467,60.30,493.65,468.85,478.75
1470,60.23,494.05,469.35,479.15
1473,60.17,494.45,469.85,479.55
1476,60.10,494.85,470.35,480.05
1479,60.04,495.35,470.85,480.45
1482,59.97,495.75,471.35,480.85
1485,59.91,496.15,471.85,481.35
1488,59.85,496.55,472.45,481.75
1491,59.76,496.95,472.95,482.15
1494,59.70,497.35,473.45,482.55
1497,59.65,497.85,473.95,482.95
1500,59.58,498.25,474.35,483.35
1503,59.51,498.65,474.85,483.75
1506,59.45,499.05,475.35,484.25
1509,59.38,499.45,475.85,484.65
1512,59.32,499.85,476.35,485.05
1515,59.26,500.35,476.85,485.45
1518,59.19,500.75,477.35,485.85
1521,59.11,501.05,477.85,486.25
1524,59.06,501.45,478.35,486.65
1527,58.98,501.85,478.85,487.05
1530,58.92,502.35,479.35,487.55
1533,58.85,502.75,479.75,487.95
1536,58.79,503.15,480.25,488.35
1539,58.72,503.55,480.75,488.75
1542,58.65,503.95,481.25,489.15
1545,58.61,504.35,481.75,489.55
1548,58.51,504.75,482.25,489.95
1551,58.45,505.15,482.65,490.35
1554,58.37,505.55,483.15,490.75
1557,58.31,505.95,483.65,491.15
1560,58.24,506.35,484.15,491.55
1563,58.16,506.75,484.65,491.95
1566,58.10,507.15,485.05,492.35
1569,58.02,507.55,485.55,492.85
1572,57.96,507.95,486.05,493.25
1575,57.89,508.35,486.45,493.65
1578,57.82,508.75,486.95,494.05
1581,57.75,509.15,487.45,494.45
1584,57.69,509.55,487.85,494.75
1587,57.61,509.95,488.45,495.15
1590,57.54,510.35,488.85,495.55
1593,57.47,510.75,489.35,496.05
1596,57.41,511.15,489.75,496.35
1599,57.33,511.45,490.25,496.75
1602,57.24,511.85,490.75,497.15
1605,57.19,512.25,491.15,497.55
1608,57.12,512.65,491.65,497.95
1611,57.05,513.05,492.15,498.35
1614,56.98,513.45,492.55,498.75
1617,56.91,513.85,493.05,499.15
1620,56.84,514.25,493.55,499.55
1623,56.78,514.55,493.95,499.95
1626,56.71,514.95,494.45,500.35
1629,56.63,515.35,494.85,500.75
1632,56.56,515.75,495.35,501.05
1635,56.49,516.15,495.85,501.45
1638,56.42,516.45,496.25,501.85
1641,56.34,516.85,496.75,502.25
1644,56.28,517.25,497.15,502.65
1647,56.20,517.55,497.65,502.95
1650,56.13,517.95,498.05,503.35
1653,56.05,518.35,498.55,503.75
1656,55.99,518.75,499.05,504.15
1659,55.93,519.15,499.45,504.55
1662,55.85,519.45,499.85,504.95
1665,55.76,519.85,500.35,505.35
1668,55.69,520.25,500.85,505.75
1671,55.63,520.55,501.25,506.05
1674,55.54,520.95,501.65,506.55
1677,55.47,521.35,502.15,506.85
1680,55.39,521.75,502.65,507.25
1683,55.33,522.15,503.05,507.65
1686,55.26,522.45,503.55,507.95
1689,55.16,522.85,503.95,508.35
1692,55.09,523.25,504.45,508.75
1695,55.02,523.55,504.85,509.15
1698,54.96,523.95,505.35,509.45
1701,54.88,524.35,505.75,509.85
1704,54.81,524.65,506.25,510.25
1707,54.72,525.05,506.75,510.65
1710,54.64,525.45,507.15,510.95
1713,54.57,525.75,507.55,511.35
1716,54.48,526.15,508.05,511.65
1719,54.42,526.55,508.45,512.05
1722,54.34,526.85,508.85,512.45
1725,54.27,527.25,509.35,512.75
1728,54.18,527.65,509.75,513.15
1731,54.12,527.95,510.25,513.55
1734,54.04,528.35,510.65,513.85
1737,53.96,528.65,511.05,514.25
1740,53.89,529.05,511.55,514.55
1743,53.81,529.45,511.95,514.95
1746,53.73,529.75,512.45,515.35
1749,53.64,530.15,512.85,515.65
1752,53.57,530.55,513.25,515.95
1755,53.49,530.85,513.75,516.35
1758,53.41,531.25,514.15,516.75
1761,53.34,531.55,514.65,517.05
1764,53.27,531.95,515.05,517.45
1767,53.17,532.25,515.45,517.85
1770,53.11,532.65,515.85,518.15
1773,53.02,532.95,516.35,518.55
1776,52.96,533.35,516.75,518.85
1779,52.85,533.65,517.25,519.25
1782,52.78,534.05,517.65,519.55
1785,52.69,534.35,518.05,519.95
1788,52.62,534.75,518.55,520.25
1791,52.53,535.15,518.95,520.65
1794,52.45,535.45,519.35,521.05
1797,52.37,535.85,519.85,521.35
1800,52.29,536.15,520.25,521.75
1803,52.21,536.55,520.65,522.05
1806,52.12,536.85,521.15,522.45
1809,52.05,537.25,521.55,522.75
1812,51.97,537.55,522.05,523.15
1815,51.90,537.95,522.45,523.55
1818,51.81,538.25,522.85,523.85
1821,51.72,538.65,523.35,524.15
1824,51.64,538.95,523.75,524.55
1827,51.56,539.35,524.15,524.95
1830,51.48,539.65,524.65,525.25
1833,51.40,540.05,525.05,525.55
1836,51.32,540.35,525.45,525.95
1839,51.22,540.75,525.85,526.25
1842,51.14,541.05,526.35,526.65
1845,51.07,541.35,526.75,526.95
1848,50.99,541.75,527.15,527.35
1851,50.89,542.05,527.55,527.65
1854,50.82,542.45,527.95,528.05
1857,50.74,542.75,528.45,528.35
1860,50.65,543.05,528.85,528.65
1863,50.57,543.45,529.35,529.05
1866,50.47,543.75,529.75,529.45
1869,50.39,544.15,530.15,529.75
1872,50.32,544.45,530.55,530.05
1875,50.23,544.75,531.05,530.45
1878,50.15,545.15,531.45,530.75
1881,50.06,545.45,531.85,531.15
1884,49.97,545.75,532.25,531.45
1887,49.89,546.15,532.65,531.75
1890,49.81,546.45,533.15,532.15
1893,49.71,546.75,533.55,532.45
1896,49.63,547.15,533.95,532.85
1899,49.54,547.45,534.35,533.15
1902,49.45,547.75,534.75,533.45
1905,49.37,548.05,535.15,533.85
1908,49.29,548.45,535.65,534.15
1911,49.20,548.75,536.05,534.45
1914,49.12,549.05,536.45,534.85
1917,49.04,549.45,536.85,535.15
1920,48.96,549.75,537.25,535.45
1923,48.85,550.05,537.75,535.85
1926,48.77,550.45,538.15,536.15
1929,48.68,550.75,538.55,536.55
1932,48.59,551.05,538.95,536.85
1935,48.50,551.35,539.35,537.25
1938,48.42,551.75,539.75,537.55
1941,48.34,552.05,540.15,537.85
1944,48.24,552.35,540.55,538.15
1947,48.16,552.65,540.95,538.55
1950,48.07,553.05,541.45,538.85
1953,47.98,553.35,541.85,539.25
1956,47.88,553.65,542.25,539.55
1959,47.80,553.95,542.65,539.85
1962,47.70,554.35,543.05,540.15
1965,47.63,554.65,543.55,540.55
1968,47.54,554.95,543.95,540.85
1971,47.44,555.35,544.35,541.25
1974,47.35,555.65,544.75,541.55
1977,47.27,555.95,545.15,541.85
1980,47.18,556.25,545.45,542.15
1983,47.11,556.55,545.95,542.55
1986,47.01,556.95,546.35,542.95
1989,46.93,557.15,546.75,543.25
1992,46.84,557.55,547.15,543.55
1995,46.74,557.85,547.55,543.95
1998,46.66,558.15,547.95,544.25
2001,46.57,558.45,548.35,544.55
2004,46.48,558.75,548.75,544.95
2007,46.38,559.15,549.15,545.25
2010,46.30,559.45,549.55,545.55
2013,46.21,559.75,550.05,545.95
2016,46.11,560.05,550.45,546.25
2019,46.03,560.35,550.75,546.55
2022,45.93,560.65,551.15,546.85
2025,45.85,560.95,551.55,547.25
2028,45.76,561.25,551.95,547.55
2031,45.66,561.55,552.35,547.85
2034,45.58,561.85,552.75,548.25
2037,45.50,562.15,553.15,548.55
2040,45.41,562.55,553.55,548.85
2043,45.32,562.75,553.95,549.25
2046,45.23,563.05,554.35,549.55
2049,45.13,563.35,554.75,549.95
2052,45.05,563.75,555.15,550.25
2055,44.96,563.95,555.55,550.55
2058,44.87,564.25,555.95,550.85
2061,44.79,564.55,556.25,551.25
2064,44.69,564.85,556.65,551.55
2067,44.60,565.15,557.05,551.85
2070,44.52,565.45,557.45,552.15
2073,44.42,565.75,557.85,552.55
2076,44.31,566.05,558.25,552.85
2079,44.24,566.35,558.65,553.25
2082,44.16,566.65,559.05,553.55
2085,44.08,566.95,559.35,553.85
2088,43.98,567.15,559.75,554.15
2091,43.88,567.45,560.15,554.45
2094,43.80,567.75,560.45,554.85
2097,43.72,568.05,560.85,555.15
2100,43.62,568.25,561.25,555.45
2103,43.54,568.55,561.55,555.85
2106,43.43,568.85,561.95,556.15
2109,43.36,569.15,562.35,556.45
2112,43.26,569.45,562.65,556.75
2115,43.17,569.65,563.05,557.15
2118,43.09,569.95,563.45,557.45
2121,42.99,570.25,563.75,557.75
2124,42.91,570.45,564.15,558.05
2127,42.82,570.75,564.55,558.35
2130,42.73,570.95,564.85,558.75
2133,42.65,571.25,565.25,559.05
2136,42.55,571.55,565.65,559.35
2139,42.46,571.75,565.95,559.65
2142,42.38,572.05,566.35,560.05
2145,42.29,572.35,566.65,560.35
2148,42.19,572.55,566.95,560.65
2151,42.12,572.85,567.35,560.95
2154,42.03,573.15,567.65,561.25
2157,41.94,573.35,568.05,561.55
2160,41.85,573.55,568.35,561.85
2163,41.77,573.85,568.75,562.25
2166,41.68,574.15,569.05,562.55
2169,41.59,574.35,569.35,562.85
2172,41.51,574.55,569.75,563.15
2175,41.43,574.85,570.05,563.45
2178,41.34,575.15,570.35,563.75
2181,41.25,575.35,570.65,564.05
2184,41.17,575.55,571.05,564.35
2187,41.08,575.85,571.35,564.65
2190,41.00,576.05,571.65,564.95
2193,40.90,576.35,571.95,565.25
2196,40.81,576.55,572.25,565.55
2199,40.74,576.75,572.65,565.85
2202,40.64,577.05,572.95,566.15
2205,40.56,577.25,573.25,566.45
2208,40.48,577.55,573.55,566.75
2211,40.39,577.75,573.85,567.05
2214,40.30,577.95,574.15,567.35
2217,40.21,578.15,574.45,567.65
2220,40.13,578.45,574.75,567.95
2223,40.04,578.65,575.05,568.25
2226,39.96,578.85,575.35,568.55
2229,39.88,579.05,575.65,568.85
2232,39.80,579.35,575.95,569.15
2235,39.71,579.55,576.25,569.45
2238,39.63,579.75,576.55,569.75
2241,39.56,580.05,576.85,569.95
2244,39.47,580.15,577.15,570.25
2247,39.38,580.45,577.45,570.55
2250,39.30,580.65,577.75,570.85
2253,39.22,580.85,577.95,571.15
2256,39.13,581.05,578.25,571.45
2259,39.06,581.25,578.55,571.65
2262,38.97,581.45,578.85,571.95
2265,38.90,581.75,579.15,572.25
2268,38.81,581.95,579.35,572.45
2271,38.73,582.15,579.65,572.75
2274,38.65,582.35,579.95,573.05
2277,38.57,582.55,580.15,573.35
2280,38.49,582.75,580.45,573.65
2283,38.40,582.95,580.75,573.85
2286,38.32,583.15,581.05,574.15
2289,38.24,583.35,581.25,574.45
2292,38.15,583.55,581.55,574.65
2295,38.08,583.75,581.85,574.95
2298,38.01,583.95,582.15,575.25
2301,37.92,584.15,582.35,575.45
2304,37.84,584.35,582.65,575.75
2307,37.76,584.55,582.95,576.05
2310,37.68,584.75,583.15,576.35
2313,37.60,584.95,583.45,576.55
2316,37.52,585.15,583.65,576.85
2319,37.44,585.35,583.95,577.05
2322,37.37,585.55,584.15,577.35
2325,37.28,585.75,584.45,577.65
2328,37.20,585.95,584.65,577.85
2331,37.13,586.15,584.95,578.15
2334,37.06,586.35,585.25,578.35
2337,36.98,586.55,585.45,578.65
2340,36.91,586.65,585.65,578.85
2343,36.82,586.85,585.95,579.15
2346,36.76,587.05,586.15,579.35
2349,36.68,587.25,586.45,579.65
2352,36.61,587.45,586.65,579.85
2355,36.53,587.65,586.95,580.15
2358,36.45,587.85,587.15,580.45
2361,36.38,588.05,587.35,580.65
2364,36.29,588.25,587.65,580.95
2367,36.23,588.35,587.85,581.15
2370,36.15,588.55,588.15,581.45
2373,36.09,588.75,588.35,581.65
2376,36.01,588.95,588.55,581.85
2379,35.95,589.15,588.85,582.05
2382,35.88,589.35,589.15,582.35
2385,35.81,589.55,589.35,582.55
2388,35.73,589.75,589.65,582.75
2391,35.66,589.95,589.95,582.95
2394,35.60,590.15,590.25,583.15
2397,35.54,590.45,590.55,583.35
2400,35.46,590.65,590.95,583.35
2403,35.41,590.85,591.05,583.35
2406,35.34,591.05,591.25,583.55
2409,35.28,591.25,591.55,583.75
2412,35.20,591.45,591.75,583.95
2415,35.13,591.65,592.05,584.15
2418,35.06,591.75,592.25,584.25
2421,35.00,591.95,592.55,584.45
2424,34.93,592.15,592.75,584.65
2427,34.86,592.25,593.05,584.85
2430,34.79,592.45,593.35,584.95
2433,34.73,592.65,593.55,585.15
2436,34.67,592.85,593.75,585.35
2439,34.60,592.95,594.05,585.55
2442,34.52,593.15,594.25,585.65
2445,34.47,593.35,594.45,585.85
2448,34.39,593.45,594.75,586.05
2451,34.33,593.65,594.95,586.25
2454,34.27,593.85,595.25,586.35
2457,34.21,594.05,595.45,586.55
2460,34.15,594.15,595.75,586.75
2463,34.08,594.35,595.95,586.95
2466,34.02,594.55,596.15,587.05
2469,33.95,594.65,596.45,587.25
2472,33.90,594.85,596.65,587.35
2475,33.83,594.95,596.85,587.55
2478,33.78,595.15,597.05,587.75
2481,33.72,595.35,597.35,587.95
2484,33.66,595.45,597.55,588.15
2487,33.61,595.55,597.75,588.25
2490,33.54,595.75,598.05,588.45
2493,33.47,595.95,598.15,588.65
2496,33.42,596.05,598.35,588.85
2499,33.37,596.25,598.65,588.95
2502,33.30,596.35,598.75,589.15
2505,33.24,596.45,599.05,589.35
2508,33.19,596.65,599.25,589.55
2511,33.13,596.75,599.35,589.75
2514,33.08,596.95,599.55,589.85
2517,33.01,597.05,599.75,590.05
2520,32.95,597.25,599.95,590.25
2523,32.90,597.35,600.15,590.45
2526,32.84,597.55,600.35,590.55
2529,32.78,597.65,600.55,590.75
2532,32.73,597.75,600.75,590.95
2535,32.68,597.95,600.95,591.15
2538,32.62,598.05,601.15,591.35
2541,32.55,598.15,601.35,591.55
2544,32.50,598.25,601.55,591.65
2547,32.44,598.45,601.75,591.85
2550,32.38,598.55,601.95,592.15
2553,32.33,598.65,602.15,592.25
2556,32.26,598.75,602.25,592.45
2559,32.21,598.85,602.35,592.65
2562,32.15,598.95,602.55,592.85
2565,32.10,599.15,602.65,593.05
2568,32.04,599.25,602.85,593.25
2571,31.98,599.35,603.05,593.45
2574,31.93,599.45,603.15,593.65
2577,31.87,599.55,603.35,593.75
2580,31.82,599.65,603.55,593.95
2583,31.78,599.75,603.75,594.15
2586,31.72,599.85,603.85,594.35
2589,31.67,599.95,604.05,594.55
2592,31.60,600.05,604.15,594.75
2595,31.56,600.15,604.35,594.85
2598,31.51,600.25,604.55,595.15
2601,31.48,600.35,604.65,595.35
2604,31.43,600.45,604.85,595.45
2607,31.39,600.45,605.05,595.65
2610,31.34,600.55,605.25,595.85
2613,31.29,600.65,605.35,596.05
2616,31.25,600.75,605.55,596.25
2619,31.19,600.85,605.75,596.45
2622,31.14,600.85,605.85,596.65
2625,31.12,600.95,606.05,596.85
2628,31.06,601.05,606.15,597.05
2631,31.03,601.15,606.35,597.25
2634,30.97,601.25,606.45,597.45
2637,30.93,601.35,606.65,597.65
2640,30.88,601.35,606.85,597.85
2643,30.84,601.45,606.95,598.05
2646,30.80,601.45,607.15,598.15
2649,30.76,601.55,607.35,598.35
2652,30.72,601.65,607.45,598.55
2655,30.67,601.65,607.65,598.75
2658,30.63,601.75,607.75,598.95
2661,30.58,601.85,607.95,599.15
2664,30.52,601.85,608.05,599.25
2667,30.48,601.95,608.25,599.45
2670,30.44,602.05,608.35,599.65
2673,30.39,602.05,608.45,599.75
2676,30.35,602.15,608.65,599.95
2679,30.31,602.15,608.75,600.15
2682,30.26,602.25,608.95,600.35
2685,30.27,602.25,609.15,600.55
2688,30.23,602.35,609.35,600.65
2691,30.19,602.35,609.45,600.85
2694,30.15,602.45,609.65,601.05
2697,30.12,602.55,609.85,601.15
2700,30.08,602.55,610.05,601.35
2703,30.04,602.55,610.15,601.55
2706,30.01,602.65,610.35,601.75
2709,29.97,602.65,610.45,601.95
2712,29.93,602.75,610.65,602.05
2715,29.89,602.75,610.75,602.25
2718,29.86,602.85,610.95,602.45
2721,29.82,602.85,611.05,602.55
2724,29.78,602.95,611.25,602.75
2727,29.74,602.95,611.35,602.95
2730,29.70,603.05,611.45,603.05
2733,29.67,603.05,611.65,603.25
2736,29.62,603.15,611.75,603.45
2739,29.58,603.15,611.95,603.55
2742,29.55,603.25,612.05,603.75
2745,29.52,603.25,612.25,603.95
2748,29.47,603.35,612.35,604.05
2751,29.45,603.35,612.55,604.25
2754,29.41,603.45,612.65,604.45
2757,29.38,603.45,612.85,604.55
2760,29.33,603.55,612.95,604.75
2763,29.29,603.65,613.05,604.85
2766,29.26,603.65,613.25,605.05
2769,29.22,603.65,613.35,605.15
2772,29.18,603.75,613.45,605.35
2775,29.16,603.75,613.65,605.45
2778,29.11,603.85,613.75,605.65
2781,29.09,603.95,613.85,605.85
2784,29.05,603.95,613.95,605.95
2787,29.02,604.05,614.15,606.15
2790,28.99,604.15,614.25,606.35
2793,28.95,604.25,614.45,606.45
2796,28.92,604.35,614.55,606.65
2799,28.88,604.35,614.65,606.75
2802,28.86,604.45,614.75,606.95
2805,28.82,604.55,614.95,607.05
2808,28.80,604.65,615.05,607.25
2811,28.76,604.75,615.15,607.35
2814,28.73,604.85,615.35,607.55
2817,28.71,604.95,615.45,607.65
2820,28.68,605.05,615.55,607.85
2823,28.64,605.15,615.75,607.95
2826,28.62,605.15,615.85,608.15
2829,28.58,605.25,616.05,608.25
2832,28.55,605.35,616.15,608.45
2835,28.53,605.45,616.35,608.55
2838,28.50,605.55,616.45,608.65
2841,28.46,605.65,616.55,608.85
2844,28.44,605.75,616.65,608.95
2847,28.42,605.85,616.85,609.05
2850,28.39,605.95,616.95,609.25
2853,28.36,606.05,617.15,609.35
2856,28.33,606.15,617.25,609.45
2859,28.31,606.25,617.45,609.65
2862,28.28,606.35,617.65,609.75
2865,28.26,606.35,617.75,609.95
2868,28.23,606.55,617.95,610.05
2871,28.20,606.65,618.05,610.15
2874,28.18,606.65,618.25,610.35
2877,28.16,606.75,618.45,610.45
2880,28.13,606.85,618.65,610.65
2883,28.11,606.95,618.85,610.75
2886,28.09,607.05,618.95,610.85
2889,28.05,607.15,619.15,611.05
2892,28.05,607.35,619.35,611.15
2895,28.02,607.45,619.45,611.25
2898,28.00,607.45,619.65,611.35
2901,27.98,607.55,619.85,611.55
2904,27.96,607.75,619.95,611.65
2907,27.92,607.75,620.15,611.85
2910,27.90,607.85,620.35,611.95
2913,27.88,607.95,620.45,612.05
2916,27.87,608.05,620.65,612.15
2919,27.85,608.45,620.85,612.35
2922,27.82,608.65,620.95,612.45
2925,27.81,608.85,621.15,612.55
2928,27.79,608.95,621.25,612.65
2931,27.76,609.15,621.45,612.75
2934,27.76,609.25,621.65,612.85
2937,27.74,609.35,621.75,612.95
2940,27.72,609.55,621.95,613.05
2943,27.70,609.65,622.15,613.25
2946,27.68,609.75,622.25,613.35
2949,27.68,609.95,622.45,613.45
2952,27.66,610.05,622.65,613.55
2955,27.63,610.15,622.75,613.65
2958,27.62,610.25,622.85,613.75
2961,27.60,610.35,623.05,613.85
2964,27.58,610.45,623.15,613.95
2967,27.56,610.55,623.35,614.05
2970,27.55,610.75,623.45,614.15
2973,27.53,610.85,623.55,614.25
2976,27.52,610.95,623.75,614.35
2979,27.50,611.05,623.85,614.45
2982,27.50,611.15,623.95,614.45
2985,27.48,611.25,624.05,614.55
2988,27.47,611.35,624.05,614.65
2991,27.46,611.55,624.15,614.75
2994,27.45,611.65,624.15,614.75
2997,27.43,611.75,624.15,614.85
3000,27.43,611.85,624.25,614.95
3003,27.41,611.95,624.25,615.05
3006,27.40,612.05,624.25,615.05
3009,27.38,612.15,624.35,615.15
3012,27.37,612.25,624.35,615.15
3015,27.35,612.35,624.45,615.25
3018,27.34,612.45,624.55,615.25
3021,27.33,612.55,624.55,615.35
3024,27.32,612.65,624.55,615.35
3027,27.30,612.85,624.65,615.45
3030,27.30,612.85,624.65,615.45
3033,27.29,612.95,624.65,615.55
3036,27.28,613.05,624.75,615.55
3039,27.26,613.15,624.75,615.65
3042,27.25,613.25,624.85,615.65
3045,27.23,613.35,624.85,615.65
3048,27.23,613.45,624.85,615.65
3051,27.22,613.55,624.95,615.65
3054,27.21,613.55,624.95,615.75
3057,27.20,613.75,625.05,615.75
3060,27.19,613.75,625.05,615.75
3063,27.18,613.85,625.15,615.75
3066,27.16,613.95,625.15,615.75
3069,27.16,614.05,625.15,615.85
3072,27.15,614.05,625.25,615.85
3075,27.14,614.15,625.25,615.85
3078,27.13,614.25,625.35,615.85
3081,27.12,614.35,625.35,615.85
3084,27.11,614.45,625.45,615.85
3087,27.09,614.55,625.45,615.85
3090,27.09,614.55,625.45,615.85
3093,27.08,614.65,625.55,615.85
3096,27.07,614.75,625.55,615.95
3099,27.07,614.85,625.65,615.95
3102,27.05,614.85,625.65,615.85
3105,27.04,614.95,625.75,615.85
3108,27.02,615.05,625.75,615.85
3111,27.02,615.15,625.75,615.85
3114,27.01,615.25,625.85,615.75
3117,27.00,615.25,625.85,615.75
3120,27.00,615.35,625.85,615.75
3123,26.99,615.45,625.95,615.75
3126,26.98,615.55,625.95,615.65
3129,26.97,615.55,625.95,615.65
3132,26.96,615.65,626.05,615.65
3135,26.95,615.75,626.05,615.65
3138,26.94,615.85,626.05,615.55
3141,26.93,615.95,626.05,615.55
3144,26.93,615.95,626.05,615.55
3147,26.92,616.05,626.15,615.55
3150,26.91,616.15,626.15,615.45
3153,26.91,616.25,626.15,615.45
3156,26.90,616.25,626.15,615.45
3159,26.89,616.35,626.25,615.45
3162,26.89,616.45,626.25,615.35
3165,26.87,616.45,626.25,615.35
3168,26.87,616.55,626.35,615.35
3171,26.87,616.65,626.35,615.35
3174,26.85,616.65,626.35,615.35
3177,26.86,616.75,626.35,615.35
3180,26.84,616.85,626.35,615.25
3183,26.83,616.85,626.35,615.25
3186,26.82,616.95,626.35,615.15
3189,26.82,617.05,626.45,615.15
3192,26.82,617.15,626.45,615.15
3195,26.80,617.15,626.45,615.15
3198,26.79,617.25,626.45,615.05
3201,26.79,617.35,626.45,615.05
3204,26.77,617.45,626.45,615.05
3207,26.78,617.45,626.55,614.95
3210,26.77,617.55,626.55,614.95
3213,26.76,617.65,626.55,614.85
3216,26.76,617.65,626.55,614.85
3219,26.75,617.75,626.55,614.85
3222,26.75,617.85,626.65,614.85
3225,26.74,617.85,626.65,614.75
3228,26.73,617.95,626.65,614.75
3231,26.72,618.05,626.65,614.75
3234,26.71,618.15,626.65,614.65
3237,26.71,618.15,626.65,614.65
3240,26.71,618.25,626.75,614.55
3243,26.69,618.35,626.75,614.55
3246,26.69,618.35,626.75,614.55
3249,26.68,618.45,626.75,614.45
3252,26.68,618.55,626.75,614.45
3255,26.67,618.55,626.75,614.35
3258,26.66,618.65,626.75,614.35
3261,26.66,618.65,626.65,614.25
3264,26.65,618.75,626.65,614.25
3267,26.65,618.85,626.65,614.25
3270,26.64,618.85,626.65,614.25
3273,26.64,618.85,626.65,614.15
3276,26.63,618.95,626.65,614.15
3279,26.62,619.05,626.65,614.05
3282,26.62,619.05,626.65,614.05
3285,26.62,619.15,626.65,613.95
3288,26.61,619.15,626.65,613.95
3291,26.59,619.25,626.65,613.85
3294,26.60,619.25,626.65,613.85
3297,26.59,619.35,626.65,613.85
3300,26.59,619.45,626.65,613.85
3303,26.57,619.45,626.65,613.75
3306,26.57,619.55,626.65,613.75
3309,26.56,619.55,626.65,613.65
3312,26.57,619.65,626.65,613.65
3315,26.57,619.65,626.65,613.65
3318,26.55,619.75,626.65,613.55
3321,26.55,619.75,626.65,613.55
3324,26.55,619.75,626.65,613.45
3327,26.54,619.85,626.65,613.45
3330,26.53,619.95,626.65,613.45
3333,26.52,619.95,626.65,613.35
3336,26.52,619.95,626.65,613.35
3339,26.52,620.05,626.65,613.25
3342,26.51,620.05,626.65,613.25
3345,26.50,620.15,626.65,613.25
3348,26.48,620.15,626.65,613.15
3351,26.51,620.25,626.65,613.15
3354,26.49,620.25,626.65,613.05
3357,26.49,620.25,626.65,613.05
3360,26.47,620.35,626.65,613.05
3363,26.46,620.35,626.65,612.95
3366,26.45,620.45,626.65,612.95
3369,26.47,620.45,626.55,612.95
3372,26.45,620.55,626.65,612.95
3375,26.46,620.55,626.55,612.85
3378,26.45,620.65,626.55,612.85
3381,26.45,620.65,626.55,612.85
3384,26.45,620.75,626.55,612.75
3387,26.44,620.75,626.55,612.75
3390,26.44,620.85,626.55,612.75
3393,26.44,620.85,626.55,612.65
3396,26.43,620.95,626.55,612.65
3399,26.43,620.95,626.55,612.55
3402,26.42,621.05,626.55,612.55
3405,26.43,621.05,626.55,612.55
3408,26.42,621.15,626.55,612.45
3411,26.41,621.15,626.55,612.45
3414,26.41,621.25,626.55,612.35
3417,26.40,621.25,626.55,612.35
3420,26.41,621.35,626.45,612.35
3423,26.40,621.35,626.55,612.35
3426,26.40,621.35,626.45,612.25
3429,26.39,621.45,626.45,612.25
3432,26.39,621.45,626.45,612.25
3435,26.40,621.55,626.45,612.15
3438,26.38,621.55,626.45,612.15
3441,26.38,621.55,626.45,612.05
3444,26.38,621.55,626.45,612.05
3447,26.37,621.65,626.45,612.05
3450,26.37,621.65,626.45,612.05
3453,26.36,621.75,626.45,611.95
3456,26.36,621.75,626.35,611.95
3459,26.37,621.85,626.35,611.85
3462,26.36,621.85,626.35,611.85
3465,26.34,621.85,626.35,611.85
3468,26.35,621.95,626.35,611.75
3471,26.34,621.95,626.35,611.75
3474,26.34,622.05,626.35,611.75
3477,26.33,622.05,626.35,611.65
3480,26.34,622.15,626.35,611.65
3483,26.33,622.15,626.35,611.65
3486,26.33,622.15,626.35,611.55
3489,26.31,622.25,626.35,611.55
3492,26.33,622.25,626.35,611.55
3495,26.31,622.35,626.35,611.55
3498,26.31,622.35,626.35,611.55
3500,26.30,622.45,626.35,611.55