File: Wood/Calibration_Data/TIFP+UCT/TIFP+UCT_Gasification_hor_parallel_60kW_R1.csv
Time (s),Mass (g),TC back 1 (K),TC back 2 (K),TC back 3 (K)
0,93.67,303.45,302.15,303.15
2,93.40,303.75,302.15,303.65
4,93.23,304.05,302.25,304.15
6,93.05,304.45,302.35,304.65
8,92.84,304.95,302.75,305.45
10,92.69,305.25,302.95,306.05
12,92.49,305.75,303.25,306.75
14,92.25,306.25,303.65,307.65
16,92.02,306.75,303.95,308.35
18,91.79,307.25,304.25,309.05
20,91.54,307.95,304.65,309.95
22,91.33,308.45,304.95,310.65
24,91.11,308.95,305.25,311.35
26,90.88,309.55,305.75,312.35
28,90.70,310.05,306.05,312.95
30,90.50,310.55,306.35,313.65
32,90.31,311.25,306.85,314.55
34,90.11,311.65,307.15,315.25
36,89.94,312.15,307.45,315.95
38,89.76,312.85,307.95,316.85
40,89.58,313.35,308.25,317.45
42,89.40,313.75,308.65,318.15
44,89.20,314.35,309.05,319.05
46,89.04,314.85,309.35,319.75
48,88.86,315.35,309.65,320.45
50,88.71,316.05,310.15,321.25
52,88.54,316.45,310.45,321.95
54,88.40,316.95,310.75,322.65
56,88.23,317.65,311.25,323.45
58,88.08,318.05,311.55,324.15
60,87.91,318.55,311.85,324.85
62,87.76,319.15,312.35,325.75
64,87.61,319.65,312.65,326.35
66,87.47,320.05,312.95,327.05
68,87.31,320.75,313.45,327.85
70,87.16,321.15,313.75,328.55
72,87.02,321.65,314.05,329.15
74,86.86,322.25,314.55,330.05
76,86.71,322.75,314.85,330.65
78,86.56,323.25,315.15,331.25
80,86.42,323.85,315.55,332.15
82,86.27,324.35,315.95,332.75
84,86.12,324.85,316.25,333.35
86,85.97,325.45,316.65,334.15
88,85.85,325.95,316.95,334.75
90,85.70,326.35,317.35,335.45
92,85.57,327.05,317.75,336.25
94,85.40,327.55,318.05,336.95
96,85.27,328.05,318.35,337.55
98,85.14,328.65,318.85,338.35
100,84.99,329.15,319.15,338.95
102,84.85,329.65,319.45,339.55
104,84.73,330.25,319.85,340.45
106,84.59,330.75,320.25,341.05
108,84.44,331.25,320.55,341.65
110,84.30,331.85,320.95,342.55
112,84.17,332.35,321.25,343.15
114,84.03,332.85,321.65,343.75
116,83.89,333.45,322.05,344.65
118,83.76,334.05,322.35,345.25
120,83.64,334.55,322.75,345.85
122,83.51,335.15,323.15,346.75
124,83.37,335.65,323.45,347.35
126,83.23,336.15,323.85,347.95
128,83.11,336.85,324.25,348.75
130,82.98,337.45,324.65,349.45
132,82.84,337.95,324.95,350.05
134,82.71,338.65,325.35,350.85
136,82.58,339.15,325.75,351.55
138,82.46,339.65,326.05,352.15
140,82.32,340.35,326.55,352.95
142,82.20,340.85,326.85,353.65
144,82.07,341.45,327.25,354.25
146,81.95,342.15,327.65,355.15
148,81.83,342.65,328.05,355.75
150,81.71,343.15,328.35,356.35
152,81.54,343.85,328.85,357.15
154,81.46,344.45,329.25,357.75
156,81.33,344.95,329.55,358.45
158,81.20,345.65,330.05,359.25
160,81.08,346.15,330.45,359.95
162,80.95,346.75,330.75,360.55
164,80.84,347.35,331.25,361.45
166,80.71,347.95,331.65,362.05
168,80.59,348.45,332.05,362.65
170,80.47,349.25,332.55,363.55
172,80.35,349.75,332.85,364.15
174,80.22,350.25,333.25,364.75
176,80.12,350.95,333.75,365.55
178,79.98,351.45,334.15,366.25
180,79.86,352.05,334.55,366.85
182,79.75,352.65,335.05,367.65
184,79.65,353.25,335.45,368.25
186,79.52,353.75,335.85,368.85
188,79.40,354.45,336.35,369.65
190,79.28,354.95,336.75,370.25
192,79.16,355.45,337.15,370.85
194,79.05,356.15,337.65,371.65
196,78.93,356.65,338.05,372.25
198,78.81,357.25,338.45,372.85
200,78.71,357.95,339.05,373.75
202,78.59,358.45,339.45,374.35
204,78.47,358.95,339.85,374.85
206,78.36,359.55,340.45,375.65
208,78.24,360.05,340.85,376.25
210,78.13,360.55,341.35,376.75
212,78.00,361.25,341.95,377.55
214,77.89,361.75,342.35,378.05
216,77.79,362.15,342.75,378.65
218,77.68,362.85,343.35,379.35
220,77.55,363.35,343.85,379.95
222,77.43,363.85,344.35,380.45
224,77.32,364.45,344.95,381.15
226,77.20,364.85,345.35,381.65
228,77.10,365.35,345.85,382.15
230,76.99,365.95,346.55,382.95
232,76.88,366.45,347.05,383.45
234,76.76,366.85,347.55,383.95
236,76.62,367.45,348.15,384.75
238,76.53,367.85,348.65,385.15
240,76.42,368.35,349.25,385.75
242,76.32,368.95,349.95,386.35
244,76.21,369.35,350.45,386.85
246,76.10,369.75,350.95,387.35
248,75.99,370.35,351.65,388.05
250,75.88,370.75,352.25,388.55
252,75.78,371.15,352.75,388.95
254,75.66,371.65,353.55,389.65
256,75.55,372.05,354.05,390.05
258,75.44,372.55,354.65,390.55
260,75.34,372.95,355.35,391.25
262,75.23,373.35,355.95,391.75
264,75.12,373.75,356.55,392.25
266,75.02,374.25,357.35,392.85
268,74.91,374.65,357.95,393.35
270,74.80,375.05,358.45,393.85
272,74.69,375.55,359.25,394.55
274,74.59,375.95,359.85,395.05
276,74.47,376.25,360.45,395.55
278,74.37,376.75,361.25,396.25
280,74.26,377.15,361.75,396.65
282,74.14,377.45,362.35,397.15
284,74.06,378.05,363.15,397.85
286,73.95,378.35,363.75,398.25
288,73.83,378.75,364.35,398.75
290,73.72,379.15,365.15,399.35
292,73.61,379.55,365.65,399.75
294,73.51,379.85,366.25,400.25
296,73.40,380.35,366.95,400.85
298,73.29,380.65,367.55,401.35
300,73.19,380.95,368.05,401.75
302,73.09,381.45,368.75,402.35
304,73.01,381.75,369.25,402.85
306,72.91,382.15,369.85,403.35
308,72.82,382.55,370.55,403.95
310,72.71,382.85,371.05,404.45
312,72.59,383.15,371.55,404.85
314,72.49,383.55,372.25,405.55
316,72.41,383.95,372.75,406.05
318,72.30,384.25,373.35,406.45
320,72.18,384.65,374.25,407.15
322,72.07,384.95,375.05,407.55
324,71.96,385.25,375.65,408.05
326,71.86,385.65,376.35,408.65
328,71.77,385.95,376.85,409.15
330,71.67,386.25,377.35,409.65
332,71.55,386.65,377.95,410.25
334,71.45,386.95,378.35,410.65
336,71.36,387.25,378.75,411.15
338,71.25,387.65,379.25,411.75
340,71.15,387.95,379.65,412.15
342,71.04,388.25,380.05,412.65
344,70.94,388.55,380.55,413.15
346,70.84,388.95,380.95,413.65
348,70.73,389.15,381.25,414.05
350,70.63,389.55,381.75,414.55
352,70.52,389.85,382.15,414.95
354,70.40,390.15,382.45,415.35
356,70.30,390.45,382.95,415.95
358,70.20,390.85,383.25,416.35
360,70.10,391.05,383.55,416.75
362,69.97,391.45,384.05,417.25
364,69.88,391.75,384.35,417.65
366,69.80,392.05,384.55,418.05
368,69.70,392.35,384.95,418.55
370,69.59,392.65,385.25,419.05
372,69.49,392.85,385.45,419.35
374,69.38,393.25,385.75,419.95
376,69.28,393.55,386.05,420.35
378,69.18,393.75,386.25,420.75
380,69.07,394.15,386.55,421.25
382,68.98,394.45,386.75,421.65
384,68.86,394.65,386.95,422.05
386,68.77,395.05,387.25,422.55
388,68.67,395.35,387.45,422.95
390,68.56,395.65,387.75,423.35
392,68.48,395.95,387.95,423.85
394,68.37,396.25,388.15,424.25
396,68.27,396.55,388.45,424.65
398,68.16,396.85,388.65,425.25
400,68.07,397.15,388.95,425.65
402,67.95,397.45,389.15,426.05
404,67.85,397.75,389.45,426.55
406,67.76,398.05,389.65,426.95
408,67.66,398.35,389.85,427.35
410,67.55,398.65,390.15,427.85
412,67.44,398.95,390.35,428.25
414,67.36,399.25,390.65,428.65
416,67.25,399.65,390.95,429.15
418,67.16,399.85,391.15,429.55
420,67.05,400.15,391.35,429.95
422,66.95,400.55,391.65,430.45
424,66.84,400.75,391.95,430.85
426,66.72,401.05,392.15,431.25
428,66.63,401.45,392.45,431.75
430,66.53,401.75,392.65,432.15
432,66.44,402.05,392.95,432.55
434,66.34,402.35,393.25,433.05
436,66.24,402.65,393.55,433.45
438,66.14,402.95,393.75,433.75
440,66.05,403.25,394.05,434.35
442,65.94,403.55,394.35,434.75
444,65.84,403.85,394.55,435.15
446,65.75,404.25,394.85,435.55
448,65.65,404.55,395.15,435.95
450,65.55,404.75,395.35,436.35
452,65.45,405.15,395.65,436.85
454,65.35,405.45,395.95,437.25
456,65.24,405.75,396.15,437.65
458,65.14,406.15,396.45,438.15
460,65.04,406.35,396.75,438.55
462,64.94,406.75,396.95,438.95
464,64.85,407.05,397.25,439.45
466,64.74,407.35,397.55,439.85
468,64.63,407.65,397.85,440.25
470,64.54,407.95,398.15,440.75
472,64.45,408.25,398.35,441.15
474,64.35,408.55,398.65,441.55
476,64.23,408.95,399.05,442.05
478,64.15,409.15,399.25,442.45
480,64.05,409.45,399.55,442.85
482,63.95,409.85,399.85,443.35
484,63.86,410.05,400.15,443.75
486,63.75,410.35,400.35,444.15
488,63.66,410.75,400.75,444.65
490,63.56,410.95,401.05,445.05
492,63.46,411.25,401.25,445.45
494,63.36,411.65,401.65,445.95
496,63.26,411.85,401.85,446.35
498,63.17,412.15,402.15,446.75
500,63.06,412.55,402.45,447.25
502,62.96,412.75,402.75,447.65
504,62.86,413.05,403.05,448.05
506,62.75,413.35,403.35,448.55
508,62.66,413.75,403.65,448.95
510,62.55,413.95,403.95,449.35
512,62.45,414.35,404.25,449.85
514,62.35,414.55,404.55,450.25
516,62.26,414.85,404.85,450.55
518,62.18,415.25,405.15,451.15
520,62.06,415.45,405.45,451.45
522,61.97,415.75,405.75,451.85
524,61.87,416.15,406.05,452.45
526,61.77,416.35,406.35,452.85
528,61.67,416.65,406.55,453.25
530,61.58,417.05,406.95,453.75
532,61.48,417.25,407.25,454.15
534,61.37,417.55,407.45,454.55
536,61.28,417.85,407.85,455.05
538,61.19,418.15,408.15,455.45
540,61.09,418.45,408.35,455.85
542,61.00,418.75,408.75,456.35
544,60.90,419.05,409.05,456.75
546,60.81,419.35,409.35,457.15
548,60.71,419.65,409.65,457.65
550,60.61,419.95,409.95,458.15
552,60.51,420.25,410.25,458.55
554,60.41,420.55,410.55,459.05
556,60.31,420.85,410.85,459.45
558,60.21,421.15,411.15,459.85
560,60.11,421.55,411.45,460.35
562,60.03,421.75,411.75,460.75
564,59.92,422.05,411.95,461.15
566,59.82,422.45,412.35,461.75
568,59.73,422.65,412.65,462.15
570,59.63,422.95,412.85,462.55
572,59.55,423.35,413.25,463.05
574,59.44,423.65,413.55,463.55
576,59.33,423.95,413.85,463.95
578,59.24,424.25,414.15,464.45
580,59.14,424.55,414.45,464.85
582,59.05,424.85,414.65,465.25
584,58.95,425.25,415.05,465.85
586,58.86,425.55,415.35,466.25
588,58.76,425.85,415.55,466.65
590,58.67,426.25,415.95,467.25
592,58.58,426.45,416.25,467.65
594,58.47,426.75,416.45,468.05
596,58.37,427.15,416.85,468.65
598,58.28,427.45,417.15,469.05
600,58.19,427.75,417.35,469.45
602,58.09,428.05,417.75,470.05
604,57.99,428.45,418.05,470.45
606,57.89,428.65,418.35,470.95
608,57.79,429.05,418.65,471.45
610,57.70,429.35,418.95,471.95
612,57.60,429.65,419.15,472.35
614,57.51,430.05,419.55,472.85
616,57.42,430.35,419.85,473.35
618,57.33,430.65,420.15,473.75
620,57.23,431.05,420.55,474.35
622,57.16,431.35,420.75,474.75
624,57.02,431.65,421.15,475.25
626,56.94,432.05,421.45,475.75
628,56.84,432.35,421.75,476.25
630,56.74,432.65,422.05,476.65
632,56.66,433.05,422.45,477.25
634,56.56,433.35,422.75,477.65
636,56.46,433.65,422.95,478.15
638,56.37,434.05,423.35,478.75
640,56.27,434.45,423.65,479.15
642,56.17,434.75,423.95,479.65
644,56.08,435.15,424.35,480.25
646,55.99,435.45,424.65,480.65
648,55.88,435.75,424.85,481.15
650,55.79,436.15,425.25,481.75
652,55.69,436.45,425.55,482.25
654,55.59,436.85,425.85,482.65
656,55.51,437.25,426.25,483.35
658,55.40,437.55,426.55,483.75
660,55.30,437.85,426.85,484.25
662,55.21,438.35,427.35,484.85
664,55.11,438.65,427.55,485.35
666,55.01,439.05,427.85,485.85
668,54.93,439.45,428.25,486.45
670,54.82,439.75,428.55,486.95
672,54.73,440.05,428.85,487.45
674,54.63,440.55,429.25,488.05
676,54.54,440.85,429.55,488.55
678,54.45,441.25,429.85,489.05
680,54.35,441.65,430.25,489.65
682,54.26,441.95,430.55,490.15
684,54.17,442.35,430.95,490.65
686,54.06,442.85,431.25,491.35
688,53.99,443.15,431.65,491.75
690,53.88,443.55,431.95,492.25
692,53.79,443.95,432.35,492.95
694,53.70,444.35,432.65,493.45
696,53.60,444.65,432.95,493.95
698,53.51,445.15,433.35,494.65
700,53.41,445.55,433.65,495.15
702,53.31,445.95,433.95,495.65
704,53.22,446.35,434.35,496.35
706,53.11,446.75,434.65,496.85
708,53.02,447.05,434.95,497.35
710,52.93,447.65,435.45,498.05
712,52.84,447.95,435.75,498.65
714,52.75,448.35,436.05,499.15
716,52.64,448.85,436.55,499.85
718,52.54,449.25,436.85,500.35
720,52.45,449.65,437.15,500.85
722,52.34,450.15,437.65,501.55
724,52.25,450.55,437.95,502.05
726,52.16,450.95,438.25,502.65
728,52.07,451.45,438.75,503.35
730,51.96,451.85,439.05,503.85
732,51.87,452.25,439.35,504.45
734,51.78,452.75,439.85,505.15
736,51.71,453.15,440.15,505.75
738,51.60,453.65,440.55,506.25
740,51.50,454.15,440.95,507.05
742,51.40,454.55,441.35,507.55
744,51.31,454.95,441.65,508.15
746,51.21,455.55,442.15,508.85
748,51.11,455.95,442.55,509.45
750,51.01,456.35,442.85,509.95
752,50.92,456.95,443.35,510.65
754,50.82,457.35,443.65,511.25
756,50.73,457.75,444.05,511.85
758,50.63,458.35,444.55,512.55
760,50.53,458.75,444.85,513.15
762,50.44,459.15,445.25,513.65
764,50.34,459.75,445.75,514.45
766,50.25,460.15,446.05,514.95
768,50.15,460.65,446.45,515.55
770,50.06,461.25,446.95,516.35
772,49.95,461.65,447.35,516.85
774,49.86,462.15,447.75,517.45
776,49.76,462.75,448.25,518.25
778,49.69,463.15,448.65,518.85
780,49.58,463.65,448.95,519.35
782,49.48,464.25,449.45,520.15
784,49.38,464.75,449.85,520.75
786,49.28,465.25,450.25,521.25
788,49.19,465.85,450.75,522.05
790,49.10,466.35,451.15,522.65
792,49.00,466.75,451.55,523.25
794,48.91,467.45,452.15,523.95
796,48.81,467.95,452.55,524.55
798,48.71,468.45,452.95,525.15
800,48.61,469.05,453.45,525.95
802,48.50,469.55,453.85,526.55
804,48.42,470.05,454.25,527.15
806,48.32,470.65,454.85,527.95
808,48.21,471.15,455.25,528.55
810,48.11,471.65,455.65,529.15
812,48.02,472.35,456.25,529.95
814,47.89,472.85,456.75,530.55
816,47.82,473.35,457.15,531.15
818,47.89,474.05,457.65,531.95
820,47.66,474.55,458.15,532.55
822,47.53,475.05,458.55,533.15
824,47.42,475.85,459.15,533.95
826,47.34,476.35,459.65,534.55
828,47.24,476.85,460.05,535.25
830,47.11,477.55,460.65,536.05
832,47.06,478.05,461.05,536.65
834,46.94,478.55,461.55,537.25
836,46.86,479.25,462.15,538.05
838,46.76,479.85,462.65,538.65
840,46.65,480.35,463.05,539.25
842,46.55,481.05,463.65,540.05
844,46.45,481.55,464.15,540.75
846,46.35,482.15,464.65,541.35
848,46.26,482.85,465.35,542.15
850,46.16,483.35,465.75,542.75
852,46.06,483.95,466.25,543.35
854,45.96,484.65,466.95,544.25
856,45.86,485.15,467.45,544.85
858,45.76,485.75,467.95,545.55
860,45.66,486.45,468.65,546.35
862,45.55,486.95,469.15,546.95
864,45.44,487.55,469.65,547.55
866,45.36,488.25,470.35,548.45
868,45.25,488.85,470.85,549.05
870,45.16,489.35,471.35,549.65
872,45.06,490.15,472.05,550.55
874,44.96,490.65,472.55,551.15
876,44.86,491.25,473.15,551.75
878,44.76,491.95,473.85,552.65
880,44.65,492.55,474.35,553.25
882,44.55,493.05,474.95,553.95
884,44.45,493.85,475.65,554.75
886,44.35,494.35,476.15,555.35
888,44.26,494.95,476.65,555.95
890,44.15,495.65,477.45,556.85
892,44.04,496.25,477.95,557.45
894,43.95,496.75,478.55,558.05
896,43.85,497.55,479.35,558.95
898,43.74,498.05,479.95,559.55
900,43.64,498.65,480.45,560.25
902,43.53,499.35,481.25,561.05
904,43.44,499.95,481.85,561.75
906,43.33,500.45,482.45,562.35
908,43.23,501.25,483.25,563.25
910,43.13,501.75,483.85,563.85
912,43.02,502.35,484.45,564.55
914,42.91,503.15,485.25,565.35
916,42.82,503.65,485.85,566.05
918,42.71,504.25,486.55,566.65
920,42.61,505.05,487.35,567.45
922,42.50,505.55,487.95,568.15
924,42.39,506.15,488.55,568.75
926,42.29,506.95,489.45,569.55
928,42.18,507.55,490.05,570.25
930,42.08,508.15,490.65,570.85
932,41.99,508.85,491.55,571.65
934,41.90,509.35,492.15,572.25
936,41.78,509.95,492.85,572.95
938,41.66,510.65,493.65,573.75
940,41.56,511.25,494.35,574.35
942,41.46,511.85,494.95,575.05
944,41.36,512.55,495.85,575.75
946,41.24,513.15,496.55,576.45
948,41.14,513.65,497.15,577.05
950,41.02,514.45,498.05,577.85
952,40.92,515.05,498.75,578.45
954,40.81,515.55,499.35,579.05
956,40.72,516.35,500.25,579.95
958,40.61,516.95,500.95,580.55
960,40.49,517.45,501.55,581.15
962,40.39,518.25,502.45,581.95
964,40.29,518.85,503.15,582.65
966,40.18,519.45,503.85,583.25
968,40.08,520.15,504.75,584.05
970,39.96,520.75,505.35,584.75
972,39.85,521.25,506.05,585.35
974,39.75,522.05,506.95,586.15
976,39.64,522.65,507.65,586.75
978,39.54,523.25,508.35,587.35
980,39.43,523.95,509.25,588.15
982,39.31,524.55,509.85,588.85
984,39.21,525.15,510.45,589.45
986,39.10,525.85,511.35,590.25
988,38.99,526.55,512.05,590.95
990,38.87,527.05,512.75,591.55
992,38.77,527.85,513.65,592.35
994,38.67,528.45,514.25,592.95
996,38.55,529.05,514.95,593.65
998,38.44,529.85,515.85,594.35
1000,38.33,530.35,516.45,595.05
1002,38.22,530.95,517.15,595.65
1004,38.11,531.75,518.05,596.45
1006,38.00,532.35,518.75,597.05
1008,37.89,532.95,519.35,597.65
1010,37.79,533.75,520.25,598.45
1012,37.67,534.35,520.95,599.05
1014,37.56,534.85,521.55,599.65
1016,37.44,535.65,522.55,600.45
1018,37.33,536.25,523.15,601.15
1020,37.23,536.85,523.85,601.75
1022,37.11,537.65,524.75,602.55
1024,37.01,538.25,525.45,603.15
1026,36.89,538.85,526.05,603.75
1028,36.78,539.65,526.95,604.65
1030,36.66,540.25,527.65,605.25
1032,36.54,540.85,528.35,605.75
1034,36.44,541.65,529.25,606.65
1036,36.33,542.15,529.85,607.25
1038,36.20,542.85,530.55,607.85
1040,36.09,543.65,531.45,608.65
1042,35.98,544.15,532.15,609.25
1044,35.88,544.85,532.85,609.85
1046,35.75,545.65,533.75,610.65
1048,35.64,546.25,534.45,611.25
1050,35.53,546.85,535.15,611.85
1052,35.41,547.65,536.05,612.75
1054,35.29,548.25,536.75,613.35
1056,35.19,548.85,537.45,613.95
1058,35.07,549.65,538.35,614.75
1060,34.95,550.25,539.05,615.45
1062,34.85,550.85,539.75,616.05
1064,34.72,551.65,540.65,616.85
1066,34.61,552.25,541.35,617.45
1068,34.49,552.95,542.05,618.05
1070,34.38,553.75,542.95,618.85
1072,34.26,554.35,543.65,619.45
1074,34.15,554.95,544.35,620.05
1076,34.03,555.75,545.25,620.85
1078,33.91,556.35,545.95,621.45
1080,33.80,557.05,546.65,622.05
1082,33.68,557.85,547.65,622.85
1084,33.57,558.45,548.35,623.45
1086,33.46,559.05,549.05,624.05
1088,33.33,559.85,550.05,624.85
1090,33.22,560.45,550.75,625.45
1092,33.11,561.05,551.45,626.15
1094,32.99,561.95,552.45,626.95
1096,32.87,562.55,553.15,627.65
1098,32.75,563.15,553.85,628.15
1100,32.63,563.95,554.85,629.05
1102,32.52,564.55,555.55,629.65
1104,32.40,565.15,556.25,630.25
1106,32.28,565.95,557.25,631.05
1108,32.17,566.65,557.95,631.65
1110,32.05,567.25,558.65,632.25
1112,31.92,568.05,559.65,633.15
1114,31.81,568.65,560.35,633.75
1116,31.69,569.25,561.15,634.45
1118,31.58,570.05,562.05,635.25
1120,31.45,570.65,562.85,635.95
1122,31.34,571.35,563.55,636.55
1124,31.22,572.05,564.55,637.35
1126,31.10,572.75,565.25,638.05
1128,30.99,573.35,565.95,638.65
1130,30.87,574.15,567.05,639.55
1132,30.75,574.75,567.75,640.15
1134,30.63,575.35,568.45,640.85
1136,30.53,576.15,569.45,641.75
1138,30.40,576.75,570.15,642.55
1140,30.27,577.35,570.95,643.25
1142,30.15,578.15,571.95,644.25
1144,30.03,578.75,572.65,645.05
1146,29.93,579.35,573.35,645.85
1148,29.81,580.15,574.35,647.05
1150,29.69,580.75,575.15,647.95
1152,29.55,581.35,575.85,648.85
1154,29.44,582.15,576.85,650.15
1156,29.32,582.85,577.55,651.05
1158,29.20,583.45,578.25,651.95
1160,29.09,584.25,579.35,653.25
1162,28.98,584.85,580.05,654.15
1164,28.85,585.45,580.85,655.15
1166,28.73,586.25,581.85,656.45
1168,28.60,586.85,582.55,657.45
1170,28.49,587.45,583.35,658.45
1172,28.38,588.25,584.35,659.85
1174,28.27,588.85,585.05,660.85
1176,28.14,589.45,585.75,661.95
1178,28.01,590.25,586.85,663.45
1180,27.90,590.85,587.55,664.65
1182,27.79,591.45,588.25,665.85
1184,27.66,592.25,589.25,667.55
1186,27.54,592.85,590.05,668.75
1188,27.44,593.45,590.85,670.05
1190,27.31,594.25,591.75,671.85
1192,27.19,594.85,592.55,673.25
1194,27.08,595.45,593.35,674.65
1196,26.96,596.25,594.35,676.55
1198,26.85,596.85,595.15,677.95
1200,26.73,597.45,595.85,679.45
1202,26.61,598.15,596.85,681.35
1204,26.49,598.75,597.65,682.85
1206,26.38,599.35,598.35,684.35
1208,26.27,600.15,599.45,686.55
1210,26.14,600.75,600.15,688.15
1212,26.04,601.35,600.95,689.95
1214,25.92,602.15,601.95,692.25
1216,25.81,602.75,602.65,694.15
1218,25.69,603.35,603.35,696.25
1220,25.57,604.15,604.35,699.15
1222,25.47,604.65,605.15,701.25
1224,25.36,605.35,605.85,703.45
1226,25.24,606.15,606.85,706.25
1228,25.13,606.75,607.65,708.45
1230,25.02,607.35,608.45,710.65
1232,24.90,608.15,609.45,713.65
1234,24.79,608.75,610.15,715.85
1236,24.69,609.35,610.85,718.05
1238,24.58,610.15,611.85,720.85
1240,24.47,610.65,612.65,722.85
1242,24.35,611.25,613.35,724.75
1244,24.24,612.05,614.35,727.05
1246,24.14,612.65,615.05,728.65
1248,24.03,613.25,615.75,730.15
1250,23.92,613.95,616.75,731.85
1252,23.81,614.55,617.45,733.05
1254,23.72,615.15,618.15,734.15
1256,23.60,615.85,619.05,735.65
1258,23.50,616.35,619.75,736.55
1260,23.39,616.95,620.45,737.35
1262,23.27,617.65,621.35,738.15
1264,23.18,618.25,622.15,738.75
1266,23.07,618.75,622.75,739.25
1268,22.97,619.55,623.65,739.75
1270,22.88,620.05,624.35,740.05
1272,22.78,620.65,625.05,740.35
1274,22.67,621.35,625.95,740.65
1276,22.57,621.95,626.65,740.75
1278,22.47,622.55,627.35,740.95
1280,22.37,623.25,628.25,741.05
1282,22.26,623.75,628.85,741.15
1284,22.16,624.35,629.55,741.15
1286,22.06,625.15,630.45,741.25
1288,21.97,625.55,631.15,741.35
1290,21.88,626.05,631.75,741.45
1292,21.79,626.75,632.65,741.55
1294,21.69,627.15,633.35,741.65
1296,21.59,627.65,633.95,741.75
1298,21.49,628.45,634.85,741.85
1300,21.40,629.05,635.45,741.95
1302,21.31,629.65,636.15,742.15
1304,21.22,630.55,637.05,742.65
1306,21.14,631.15,637.65,743.05
1308,21.05,631.85,638.35,743.65
1310,20.97,632.65,639.35,744.45
1312,20.88,633.05,640.05,744.35
1314,20.80,633.45,640.65,743.85
1316,20.73,634.05,641.55,743.45
1318,20.64,634.55,642.25,743.35
1320,20.56,635.05,642.95,743.45
1322,20.49,635.65,643.75,743.65
1324,20.41,636.15,644.35,743.85
1326,20.34,636.55,644.95,744.15
1328,20.25,637.25,645.75,744.65
1330,20.17,637.95,646.35,744.85
1332,20.10,638.55,646.95,745.05
1334,20.00,639.25,647.65,745.15
1336,19.94,639.85,648.25,745.25
1338,19.86,640.55,648.85,745.35
1340,19.79,641.45,649.55,745.45
1342,19.71,642.15,650.15,745.55
1344,19.65,642.85,650.75,745.65
1346,19.58,643.75,651.55,745.65
1348,19.50,644.55,652.15,745.75
1350,19.42,645.35,652.75,745.65
1352,19.38,646.45,653.65,745.45
1354,19.32,647.25,654.45,745.45
1356,19.27,648.15,655.15,745.45
1358,19.18,649.35,656.25,745.45
1360,19.14,650.35,657.15,745.45
1362,19.09,651.35,658.05,745.55
1364,19.04,652.95,659.35,745.85
1366,18.99,654.05,660.35,746.05
1368,18.92,655.35,661.45,746.35
1370,18.88,657.05,663.15,746.75
1372,18.85,658.45,664.75,747.05
1374,18.80,659.85,666.25,747.45
1376,18.74,661.95,668.45,748.05
1378,18.71,663.65,670.25,748.45
1380,18.66,665.45,672.05,748.95
1382,18.62,668.05,674.75,749.65
1384,18.58,670.05,676.85,750.15
1386,18.56,672.25,679.05,750.65
1388,18.52,675.45,682.45,751.35
1390,18.48,677.95,685.25,751.75
1392,18.44,680.55,688.25,752.25
1394,18.40,684.35,692.35,752.95
1396,18.36,687.45,695.55,753.55
1398,18.33,690.55,698.95,754.15
1400,18.30,694.95,703.55,754.95
1402,18.27,698.25,706.95,755.55
1404,18.24,701.75,710.25,756.15
1406,18.21,706.35,714.65,756.95
1408,18.19,709.75,718.05,757.65
1410,18.15,713.25,721.25,758.25
1412,18.12,717.75,725.65,759.15
1414,18.10,721.05,728.85,759.85
1416,18.07,724.25,732.15,760.55
1418,18.05,728.05,736.45,761.65
1420,18.03,730.75,739.55,762.35
1422,18.01,733.45,742.25,763.05
1424,17.98,736.65,745.85,763.95
1426,17.97,738.65,748.55,764.65
1428,17.95,740.35,750.95,765.45
1430,17.93,742.55,753.55,766.55
1432,17.91,743.95,755.15,767.45
1434,17.90,745.15,756.35,768.15
1436,17.87,746.45,757.45,769.05
1438,17.85,747.25,758.15,769.65
1440,17.84,748.05,758.75,770.35
1442,17.82,748.85,759.35,771.25
1444,17.80,749.45,759.75,771.85
1446,17.79,749.95,760.15,772.45
1448,17.78,750.65,760.65,773.25
1450,17.77,751.05,761.05,773.75
1452,17.76,751.45,761.35,774.25
1454,17.74,751.95,761.85,774.95
1456,17.73,752.35,762.25,775.45
1458,17.71,752.75,762.55,775.85
1460,17.70,753.25,762.95,776.45
1462,17.68,753.65,763.35,776.95
1464,17.67,753.95,763.75,777.35
1466,17.66,754.55,764.15,777.85
1468,17.65,754.85,764.45,778.25
1470,17.65,755.25,764.85,778.65
1472,17.62,755.75,765.25,779.15
1474,17.62,756.05,765.55,779.55
1476,17.60,756.45,765.95,779.85
1478,17.60,756.85,766.35,780.35
1480,17.59,757.25,766.65,780.75
1482,17.58,757.55,766.95,781.15
1484,17.57,758.05,767.45,781.55
1486,17.55,758.45,767.75,781.95
1488,17.55,758.75,768.05,782.25
1490,17.53,759.25,768.45,782.65
1492,17.51,759.55,768.85,782.95
1494,17.50,759.95,769.15,783.25
1496,17.50,760.45,769.55,783.55
1498,17.49,760.75,769.85,783.85
1500,17.48,761.05,770.15,784.05
1502,17.46,761.55,770.55,784.35
1504,17.46,761.85,770.85,784.65
1506,17.46,762.15,771.15,784.95
1508,17.44,762.65,771.55,785.25
1510,17.42,762.95,771.85,785.55
1512,17.42,763.35,772.15,785.75
1514,17.41,763.75,772.65,786.05
1516,17.40,764.15,772.95,786.35
1518,17.39,764.45,773.25,786.65
1520,17.39,764.95,773.65,786.95
1522,17.37,765.25,773.95,787.15
1524,17.36,765.55,774.25,787.35
1526,17.35,765.95,774.65,787.65
1528,17.35,766.25,774.85,787.85
1530,17.35,766.55,775.15,788.15
1532,17.34,766.95,775.55,788.35
1534,17.33,767.25,775.85,788.65
1536,17.33,767.55,776.05,788.85
1538,17.30,767.95,776.45,789.05
1540,17.30,768.25,776.75,789.25
1542,17.28,768.55,776.95,789.45
1544,17.29,768.95,777.35,789.75
1546,17.27,769.25,777.55,789.95
1548,17.27,769.55,777.85,790.15
1550,17.26,769.95,778.15,790.35
1552,17.26,770.15,778.35,790.45
1554,17.25,770.45,778.65,790.65
1556,17.24,770.75,778.95,790.85
1558,17.24,771.05,779.15,791.05
1560,17.23,771.25,779.45,791.15
1562,17.23,771.65,779.75,791.35
1564,17.23,771.85,779.95,791.55
1566,17.21,772.15,780.15,791.75
1568,17.21,772.45,780.45,791.95
1570,17.20,772.75,780.75,792.15
1572,17.19,772.95,780.95,792.25
1574,17.18,773.25,781.15,792.55
1576,17.18,773.45,781.45,792.65
1578,17.17,773.75,781.65,792.85
1580,17.16,774.05,781.95,793.05
1582,17.15,774.25,782.15,793.25
1584,17.14,774.45,782.35,793.35
1586,17.15,774.75,782.65,793.65
1588,17.14,775.05,782.85,793.75
1590,17.13,775.25,783.05,793.95
1592,17.12,775.55,783.25,794.15
1594,17.12,775.75,783.55,794.25
1596,17.12,775.95,783.65,794.35
1598,17.11,776.25,783.95,794.55
1600,17.11,776.45,784.15,794.55