File: Wood/Calibration_Data/TIFP+UCT/TIFP+UCT_Wood_Gasification_30kW_hor_parallel_R4.csv
Time (s),Mass (g),TC back 1 (K),TC back 2 (K),TC back 3 (K)
0,92.08,294.95,295.35,296.35
3,92.51,295.15,295.65,296.75
6,92.34,295.45,295.95,297.25
9,92.34,295.65,296.25,297.75
12,92.32,295.95,296.45,298.25
15,92.29,296.15,296.65,298.75
18,92.32,296.45,296.85,299.25
21,92.23,296.65,297.15,299.75
24,92.20,296.85,297.35,300.15
27,92.04,297.15,297.55,300.55
30,92.06,297.35,297.75,301.05
33,92.10,297.55,297.95,301.45
36,92.03,297.85,298.15,301.95
39,91.92,298.05,298.35,302.35
42,91.80,298.35,298.55,302.85
45,91.65,298.55,298.65,303.25
48,91.49,298.75,298.85,303.75
51,91.46,299.05,299.05,304.15
54,91.45,299.25,299.35,304.65
57,91.27,299.55,299.55,305.05
60,91.18,299.75,299.65,305.45
63,91.08,300.05,299.85,305.85
66,90.91,300.25,300.05,306.35
69,90.88,300.55,300.25,306.75
72,90.86,300.75,300.45,307.25
75,90.65,301.05,300.65,307.65
78,90.49,301.25,300.85,308.05
81,90.37,301.55,301.05,308.55
84,90.28,301.85,301.35,309.05
87,90.20,302.15,301.55,309.45
90,90.08,302.35,301.75,309.95
93,89.94,302.65,301.95,310.55
96,89.89,302.95,302.15,311.25
99,89.88,303.15,302.35,311.75
102,89.67,303.45,302.65,312.35
105,89.54,303.75,302.85,312.85
108,89.52,304.05,303.05,313.35
111,89.34,304.25,303.25,313.85
114,89.27,304.55,303.55,314.35
117,89.18,304.85,303.75,314.95
120,89.08,305.15,304.05,315.45
123,89.01,305.45,304.25,315.95
126,88.88,305.75,304.55,316.45
129,88.86,306.05,304.75,316.95
132,88.64,306.35,305.05,317.45
135,88.54,306.75,305.25,317.95
138,88.46,307.05,305.55,318.45
141,88.33,307.35,305.85,318.95
144,88.41,307.75,306.15,319.55
147,88.28,308.05,306.45,320.05
150,88.20,308.35,306.75,320.65
153,88.08,308.65,306.95,321.15
156,88.06,309.05,307.25,321.65
159,87.91,309.45,307.65,322.25
162,87.71,309.75,307.95,322.75
165,87.64,310.15,308.25,323.35
168,87.65,310.55,308.65,323.85
171,87.43,310.95,308.95,324.45
174,87.51,311.35,309.25,325.05
177,87.46,311.75,309.55,325.55
180,87.23,312.15,309.95,326.15
183,87.10,312.55,310.25,326.75
186,87.16,312.95,310.65,327.35
189,87.10,313.35,311.05,327.95
192,87.02,313.75,311.45,328.45
195,86.94,314.25,311.75,329.05
198,86.78,314.65,312.15,329.65
201,86.81,315.15,312.55,330.25
204,86.72,315.55,312.95,330.85
207,86.65,316.05,313.35,331.45
210,86.50,316.45,313.75,332.05
213,86.49,316.95,314.15,332.65
216,86.34,317.45,314.55,333.25
219,86.21,317.95,314.95,333.85
222,86.17,318.45,315.45,334.45
225,86.17,318.85,315.85,335.05
228,86.09,319.45,316.35,335.65
231,86.00,319.95,316.75,336.25
234,85.86,320.45,317.15,336.85
237,85.81,320.95,317.65,337.45
240,85.76,321.45,318.05,338.05
243,85.62,321.95,318.55,338.75
246,85.58,322.55,318.95,339.35
249,85.51,323.05,319.55,339.95
252,85.46,323.65,319.95,340.55
255,85.36,324.15,320.45,341.15
258,85.24,324.75,320.95,341.75
261,85.22,325.25,321.45,342.35
264,85.15,325.85,321.95,342.95
267,85.13,326.35,322.45,343.65
270,85.00,326.95,322.95,344.25
273,84.90,327.55,323.45,344.85
276,84.88,328.15,324.05,345.45
279,84.76,328.65,324.55,346.05
282,84.65,329.25,325.05,346.65
285,84.60,329.85,325.55,347.25
288,84.62,330.45,326.15,347.85
291,84.49,331.05,326.75,348.55
294,84.42,331.65,327.25,349.15
297,84.33,332.25,327.85,349.75
300,84.33,332.75,328.35,350.35
303,84.21,333.35,328.95,350.95
306,84.13,333.95,329.45,351.55
309,84.14,334.55,329.95,352.05
312,83.89,335.15,330.55,352.65
315,83.83,335.75,331.15,353.35
318,83.75,336.35,331.65,353.95
321,83.68,336.95,332.25,354.55
324,83.63,337.55,332.85,355.15
327,83.58,338.15,333.45,355.75
330,83.51,338.75,333.95,356.25
333,83.43,339.35,334.55,356.85
336,83.35,340.05,335.15,357.45
339,83.18,340.65,335.65,358.05
342,83.12,341.25,336.25,358.65
345,83.09,341.85,336.85,359.25
348,83.11,342.45,337.45,359.85
351,83.00,343.05,338.05,360.35
354,82.81,343.65,338.65,360.95
357,82.81,344.35,339.25,361.55
360,82.77,344.85,339.85,362.25
363,82.64,345.55,340.45,362.85
366,82.59,346.15,341.05,363.35
369,82.53,346.75,341.65,363.95
372,82.44,347.45,342.35,364.45
375,82.35,348.05,342.85,364.95
378,82.32,348.65,343.45,365.45
381,82.22,349.35,344.05,365.95
384,82.13,349.95,344.75,366.55
387,82.09,350.65,345.35,366.95
390,81.92,351.25,345.95,367.45
393,81.98,351.95,346.55,367.95
396,81.89,352.55,347.15,368.45
399,81.76,353.25,347.75,368.95
402,81.72,353.85,348.35,369.45
405,81.70,354.55,348.95,369.95
408,81.58,355.15,349.55,370.35
411,81.57,355.85,350.25,370.85
414,81.50,356.45,350.85,371.35
417,81.35,357.15,351.45,371.75
420,81.34,357.75,352.05,372.25
423,81.25,358.35,352.65,372.65
426,81.20,359.05,353.25,373.15
429,81.01,359.65,353.85,373.55
432,81.01,360.25,354.45,373.95
435,80.96,360.85,355.05,374.45
438,80.92,361.45,355.65,374.85
441,80.85,362.05,356.25,375.25
444,80.63,362.65,356.85,375.75
447,80.62,363.15,357.45,376.15
450,80.53,363.75,358.05,376.55
453,80.49,364.25,358.65,376.95
456,80.40,364.85,359.25,377.35
459,80.28,365.25,359.85,377.75
462,80.16,365.85,360.45,378.15
465,80.15,366.35,361.05,378.55
468,80.11,366.85,361.55,378.95
471,80.07,367.35,362.15,379.35
474,79.91,367.85,362.75,379.75
477,79.84,368.35,363.35,380.15
480,79.80,368.75,363.85,380.45
483,79.70,369.35,364.45,380.85
486,79.72,369.85,364.95,381.15
489,79.62,370.45,365.55,381.55
492,79.51,371.05,366.05,381.85
495,79.43,371.75,366.65,382.25
498,79.39,372.35,367.15,382.55
501,79.25,372.75,367.75,382.95
504,79.26,373.15,368.25,383.35
507,79.03,373.55,368.75,383.65
510,79.03,373.95,369.35,384.05
513,79.00,374.25,369.85,384.35
516,78.88,374.55,370.35,384.65
519,78.83,374.95,370.85,384.95
522,78.71,375.25,371.35,385.25
525,78.71,375.55,371.75,385.55
528,78.61,375.85,372.25,385.95
531,78.55,376.15,372.75,386.25
534,78.47,376.45,373.15,386.55
537,78.25,376.75,373.65,386.85
540,78.30,376.95,374.05,387.15
543,78.13,377.25,374.45,387.45
546,78.16,377.55,374.85,387.75
549,78.06,377.85,375.25,388.05
552,77.97,378.05,375.65,388.35
555,77.96,378.35,375.95,388.55
558,77.77,378.55,376.35,388.85
561,77.68,378.75,376.65,389.15
564,77.61,379.05,376.95,389.45
567,77.53,379.25,377.25,389.65
570,77.45,379.45,377.55,389.95
573,77.46,379.65,377.85,390.15
576,77.33,379.85,378.05,390.45
579,77.19,380.05,378.35,390.65
582,77.34,380.25,378.55,390.95
585,77.18,380.45,378.85,391.15
588,77.06,380.65,379.05,391.45
591,76.95,380.85,379.25,391.65
594,76.89,381.05,379.55,391.95
597,76.78,381.15,379.75,392.15
600,76.70,381.35,379.95,392.35
603,76.78,381.55,380.15,392.65
606,76.61,381.65,380.35,392.85
609,76.52,381.85,380.55,393.15
612,76.47,381.95,380.75,393.35
615,76.40,382.15,380.95,393.65
618,76.31,382.25,381.05,393.85
621,76.24,382.35,381.25,394.05
624,76.24,382.55,381.45,394.35
627,76.06,382.65,381.65,394.55
630,75.96,382.75,381.75,394.75
633,75.95,382.95,381.95,395.05
636,75.99,383.05,382.15,395.25
639,75.84,383.15,382.25,395.45
642,75.72,383.35,382.45,395.75
645,75.66,383.45,382.55,395.95
648,75.53,383.55,382.75,396.15
651,75.56,383.65,382.95,396.45
654,75.49,383.85,383.05,396.65
657,75.45,383.95,383.25,396.85
660,75.39,384.05,383.35,397.05
663,75.26,384.15,383.55,397.35
666,75.29,384.35,383.65,397.55
669,75.18,384.45,383.85,397.85
672,74.98,384.55,384.05,398.05
675,74.94,384.65,384.15,398.25
678,74.94,384.75,384.35,398.55
681,74.79,384.95,384.45,398.75
684,74.77,385.05,384.65,398.95
687,74.72,385.15,384.75,399.25
690,74.55,385.25,384.95,399.45
693,74.47,385.45,385.05,399.75
696,74.46,385.55,385.25,399.95
699,74.39,385.65,385.35,400.15
702,74.40,385.75,385.55,400.45
705,74.22,385.85,385.65,400.65
708,74.16,386.05,385.85,400.85
711,74.12,386.05,385.95,401.15
714,74.13,386.25,386.15,401.45
717,73.78,386.35,386.35,401.65
720,73.93,386.45,386.45,401.85
723,73.80,386.65,386.65,402.15
726,73.80,386.75,386.85,402.35
729,73.70,386.85,386.95,402.65
732,73.57,386.95,387.05,402.85
735,73.52,387.05,387.25,403.15
738,73.45,387.25,387.45,403.35
741,73.40,387.35,387.55,403.65
744,73.32,387.45,387.75,403.85
747,73.27,387.65,387.95,404.15
750,73.17,387.75,388.05,404.35
753,73.29,387.85,388.25,404.65
756,73.09,387.95,388.35,404.85
759,72.99,388.15,388.55,405.15
762,72.94,388.25,388.75,405.45
765,72.85,388.35,388.85,405.65
768,72.81,388.55,389.05,405.95
771,72.69,388.65,389.15,406.15
774,72.70,388.85,389.35,406.45
777,72.61,388.95,389.55,406.65
780,72.50,389.05,389.65,406.95
783,72.38,389.25,389.85,407.25
786,72.39,389.35,390.05,407.45
789,72.31,389.45,390.15,407.75
792,72.19,389.65,390.35,408.05
795,72.19,389.75,390.55,408.35
798,72.15,389.85,390.65,408.55
801,72.07,390.05,390.85,408.85
804,71.92,390.15,391.05,409.15
807,71.91,390.35,391.15,409.45
810,71.88,390.45,391.35,409.65
813,71.81,390.65,391.55,409.95
816,71.71,390.75,391.75,410.25
819,71.68,390.95,391.85,410.55
822,71.60,391.05,392.05,410.85
825,71.60,391.15,392.15,411.15
828,71.49,391.35,392.35,411.45
831,71.37,391.45,392.55,411.65
834,71.37,391.65,392.75,411.95
837,71.27,391.75,392.95,412.25
840,71.28,391.95,393.05,412.55
843,71.12,392.05,393.25,412.85
846,71.10,392.25,393.45,413.15
849,71.12,392.35,393.65,413.45
852,70.97,392.55,393.75,413.75
855,70.92,392.65,393.95,413.95
858,70.82,392.85,394.15,414.35
861,70.74,392.95,394.35,414.65
864,70.65,393.15,394.55,414.95
867,70.62,393.35,394.75,415.15
870,70.53,393.55,394.95,415.55
873,70.45,393.65,395.15,415.75
876,70.41,393.85,395.35,416.15
879,70.28,393.95,395.45,416.45
882,70.32,394.15,395.65,416.75
885,70.23,394.35,395.85,417.05
888,70.10,394.45,396.15,417.35
891,70.03,394.65,396.25,417.65
894,70.03,394.85,396.45,417.95
897,69.94,394.95,396.65,418.35
900,69.85,395.15,396.85,418.65
903,69.83,395.35,397.05,418.95
906,69.78,395.55,397.25,419.25
909,69.69,395.75,397.45,419.65
912,69.59,395.85,397.65,419.95
915,69.53,396.05,397.85,420.25
918,69.43,396.25,398.15,420.65
921,69.43,396.35,398.35,420.95
924,69.36,396.65,398.55,421.35
927,69.30,396.85,398.75,421.65
930,69.20,396.95,398.95,422.05
933,69.14,397.15,399.15,422.35
936,69.10,397.35,399.35,422.75
939,69.03,397.55,399.65,423.15
942,68.97,397.75,399.85,423.45
945,68.86,397.95,400.05,423.85
948,68.85,398.15,400.35,424.25
951,68.78,398.35,400.55,424.55
954,68.67,398.55,400.75,424.95
957,68.66,398.75,400.95,425.35
960,68.57,398.95,401.25,425.75
963,68.52,399.15,401.45,426.15
966,68.47,399.35,401.75,426.55
969,68.36,399.65,401.95,426.95
972,68.36,399.75,402.15,427.25
975,68.26,399.95,402.45,427.65
978,68.19,400.15,402.65,428.05
981,68.14,400.45,402.95,428.45
984,68.07,400.65,403.15,428.85
987,67.96,400.85,403.45,429.25
990,67.94,401.05,403.65,429.65
993,67.89,401.25,403.95,430.05
996,67.78,401.45,404.15,430.45
999,67.74,401.75,404.45,430.85
1002,67.68,401.95,404.75,431.35
1005,67.62,402.15,404.95,431.75
1008,67.53,402.45,405.25,432.15
1011,67.45,402.75,405.55,432.55
1014,67.43,402.95,405.75,433.05
1017,67.38,403.25,406.05,433.45
1020,67.25,403.45,406.25,433.85
1023,67.27,403.75,406.55,434.35
1026,67.12,404.05,406.85,434.75
1029,67.08,404.25,407.15,435.15
1032,67.05,404.55,407.45,435.65
1035,67.00,404.75,407.75,436.05
1038,66.88,405.05,408.05,436.55
1041,66.84,405.25,408.35,436.95
1044,66.77,405.55,408.55,437.45
1047,66.74,405.85,408.95,437.85
1050,66.69,406.15,409.15,438.35
1053,66.60,406.45,409.45,438.75
1056,66.52,406.75,409.75,439.25
1059,66.43,406.95,410.05,439.75
1062,66.41,407.25,410.35,440.15
1065,66.37,407.55,410.65,440.65
1068,66.27,407.85,410.95,441.15
1071,66.22,408.15,411.25,441.65
1074,66.16,408.45,411.55,442.05
1077,66.10,408.75,411.95,442.55
1080,66.09,409.05,412.15,443.05
1083,65.98,409.35,412.45,443.55
1086,65.94,409.65,412.75,443.95
1089,65.84,409.95,413.05,444.45
1092,65.78,410.35,413.45,445.05
1095,65.73,410.55,413.75,445.55
1098,65.64,410.85,414.05,446.05
1101,65.62,411.25,414.35,446.55
1104,65.52,411.55,414.75,447.05
1107,65.44,411.85,415.05,447.55
1110,65.41,412.15,415.35,448.05
1113,65.31,412.55,415.75,448.55
1116,65.25,412.85,416.05,449.05
1119,65.23,413.15,416.35,449.55
1122,65.12,413.55,416.75,450.05
1125,65.11,413.85,417.15,450.65
1128,65.04,414.25,417.45,451.05
1131,64.94,414.55,417.75,451.55
1134,64.89,414.95,418.15,452.15
1137,64.82,415.25,418.45,452.65
1140,64.77,415.65,418.85,453.15
1143,64.71,415.95,419.15,453.65
1146,64.61,416.35,419.55,454.15
1149,64.53,416.75,419.95,454.65
1152,64.53,417.05,420.35,455.15
1155,64.57,417.45,420.65,455.75
1158,64.39,417.85,421.05,456.25
1161,64.28,418.25,421.45,456.75
1164,64.25,418.65,421.85,457.35
1167,64.18,419.05,422.25,457.85
1170,64.13,419.45,422.65,458.35
1173,64.07,419.85,422.95,458.85
1176,64.00,420.25,423.45,459.35
1179,63.94,420.55,423.75,459.85
1182,63.85,421.05,424.25,460.45
1185,63.81,421.45,424.65,460.95
1188,63.74,421.85,425.05,461.45
1191,63.70,422.25,425.45,461.95
1194,63.65,422.65,425.85,462.45
1197,63.56,423.05,426.25,462.95
1200,63.50,423.55,426.65,463.55
1203,63.46,423.95,427.05,464.05
1206,63.39,424.35,427.55,464.55
1209,63.35,424.85,427.95,465.05
1212,63.23,425.25,428.45,465.55
1215,63.18,425.65,428.85,466.15
1218,63.12,426.05,429.25,466.65
1221,63.04,426.55,429.75,467.15
1224,62.98,426.95,430.15,467.65
1227,62.92,427.45,430.55,468.15
1230,62.85,427.85,431.05,468.75
1233,62.82,428.35,431.45,469.25
1236,62.74,428.75,431.95,469.75
1239,62.67,429.15,432.35,470.25
1242,62.64,429.65,432.85,470.75
1245,62.60,430.15,433.35,471.25
1248,62.51,430.55,433.75,471.85
1251,62.41,431.05,434.25,472.35
1254,62.40,431.45,434.65,472.85
1257,62.34,431.95,435.15,473.35
1260,62.28,432.35,435.65,473.85
1263,62.15,432.85,436.15,474.35
1266,62.10,433.35,436.65,474.85
1269,62.05,433.75,437.05,475.35
1272,61.99,434.25,437.55,475.95
1275,61.95,434.75,438.05,476.45
1278,61.90,435.15,438.55,476.95
1281,61.82,435.65,439.05,477.45
1284,61.74,436.15,439.55,477.95
1287,61.66,436.55,439.95,478.45
1290,61.61,437.05,440.55,478.95
1293,61.59,437.55,441.05,479.45
1296,61.47,438.05,441.55,479.95
1299,61.42,438.45,442.05,480.45
1302,61.39,438.95,442.55,480.95
1305,61.33,439.45,443.05,481.55
1308,61.22,439.95,443.55,482.05
1311,61.15,440.45,444.05,482.55
1314,61.07,440.95,444.65,483.05
1317,61.05,441.35,445.15,483.55
1320,60.95,441.95,445.65,484.05
1323,60.91,442.35,446.15,484.55
1326,60.83,442.85,446.65,484.95
1329,60.74,443.35,447.25,485.45
1332,60.70,443.85,447.75,486.05
1335,60.63,444.35,448.25,486.45
1338,60.54,444.85,448.75,486.95
1341,60.49,445.35,449.25,487.45
1344,60.47,445.75,449.85,487.95
1347,60.39,446.35,450.35,488.45
1350,60.36,446.75,450.85,488.95
1353,60.25,447.25,451.45,489.45
1356,60.17,447.75,451.95,489.95
1359,60.15,448.25,452.45,490.45
1362,60.07,448.75,453.05,490.95
1365,60.01,449.25,453.55,491.45
1368,59.91,449.65,454.05,491.85
1371,59.84,450.25,454.65,492.45
1374,59.77,450.65,455.15,492.85
1377,59.72,451.15,455.65,493.35
1380,59.68,451.65,456.15,493.85
1383,59.58,452.15,456.75,494.35
1386,59.56,452.65,457.35,494.85
1389,59.49,453.05,457.85,495.35
1392,59.40,453.55,458.35,495.75
1395,59.33,454.05,458.85,496.25
1398,59.29,454.55,459.45,496.75
1401,59.20,455.05,459.95,497.25
1404,59.10,455.45,460.45,497.75
1407,59.07,455.95,461.05,498.15
1410,59.00,456.45,461.55,498.65
1413,58.92,456.95,462.05,499.15
1416,58.86,457.45,462.65,499.65
1419,58.79,457.85,463.15,500.05
1422,58.72,458.35,463.65,500.55
1425,58.66,458.85,464.25,501.05
1428,58.60,459.35,464.75,501.45
1431,58.55,459.75,465.25,501.95
1434,58.49,460.25,465.85,502.45
1437,58.38,460.65,466.35,502.95
1440,58.28,461.15,466.85,503.35
1443,58.20,461.65,467.45,503.85
1446,58.15,462.15,467.95,504.25
1449,58.09,462.55,468.45,504.75
1452,58.01,463.05,468.95,505.25
1455,57.91,463.55,469.55,505.65
1458,57.86,463.95,470.05,506.15
1461,57.79,464.45,470.55,506.65
1464,57.73,464.95,471.15,507.15
1467,57.64,465.35,471.65,507.55
1470,57.59,465.85,472.15,508.05
1473,57.51,466.25,472.65,508.45
1476,57.42,466.75,473.15,508.95
1479,57.35,467.15,473.65,509.35
1482,57.28,467.65,474.15,509.85
1485,57.21,468.05,474.75,510.25
1488,57.18,468.45,475.25,510.75
1491,57.07,468.95,475.75,511.15
1494,57.02,469.35,476.25,511.55
1497,56.94,469.85,476.75,512.05
1500,56.87,470.25,477.25,512.45
1503,56.76,470.65,477.75,512.95
1506,56.67,471.15,478.25,513.35
1509,56.60,471.55,478.75,513.85
1512,56.53,472.05,479.25,514.25
1515,56.46,472.45,479.75,514.75
1518,56.43,472.85,480.25,515.15
1521,56.32,473.35,480.75,515.65
1524,56.29,473.75,481.25,516.05
1527,56.14,474.15,481.75,516.45
1530,56.09,474.65,482.25,516.95
1533,56.04,475.05,482.75,517.35
1536,56.06,475.55,483.25,517.85
1539,55.86,475.95,483.75,518.25
1542,55.85,476.35,484.25,518.65
1545,55.74,476.75,484.75,519.15
1548,55.68,477.25,485.25,519.55
1551,55.55,477.65,485.75,519.95
1554,55.50,478.05,486.15,520.45
1557,55.45,478.45,486.65,520.85
1560,55.37,478.85,487.15,521.25
1563,55.32,479.35,487.65,521.75
1566,55.20,479.75,488.15,522.15
1569,55.16,480.15,488.65,522.55
1572,55.04,480.55,489.15,522.95
1575,54.99,480.95,489.65,523.45
1578,54.88,481.35,490.15,523.85
1581,54.83,481.75,490.55,524.25
1584,54.74,482.15,491.05,524.75
1587,54.64,482.55,491.55,525.15
1590,54.57,482.95,492.05,525.55
1593,54.49,483.35,492.55,526.05
1596,54.47,483.85,493.05,526.45
1599,54.34,484.15,493.45,526.85
1602,54.27,484.55,493.95,527.35
1605,54.18,484.95,494.45,527.75
1608,54.11,485.35,494.95,528.15
1611,54.03,485.75,495.35,528.55
1614,53.95,486.25,495.85,528.95
1617,53.89,486.55,496.35,529.45
1620,53.82,486.95,496.85,529.85
1623,53.72,487.35,497.25,530.25
1626,53.63,487.75,497.75,530.65
1629,53.56,488.05,498.25,531.05
1632,53.50,488.45,498.65,531.45
1635,53.40,488.85,499.15,531.95
1638,53.34,489.25,499.65,532.25
1641,53.25,489.65,500.15,532.65
1644,53.18,490.05,500.55,533.15
1647,53.13,490.45,501.05,533.45
1650,53.02,490.85,501.45,533.95
1653,52.93,491.25,501.95,534.35
1656,52.86,491.55,502.45,534.65
1659,52.74,491.95,502.85,535.15
1662,52.69,492.35,503.35,535.45
1665,52.60,492.75,503.85,535.95
1668,52.52,493.05,504.35,536.35
1671,52.47,493.45,504.75,536.65
1674,52.40,493.85,505.25,537.05
1677,52.26,494.25,505.65,537.55
1680,52.20,494.65,506.15,537.85
1683,52.14,494.95,506.65,538.25
1686,52.04,495.35,507.05,538.65
1689,51.94,495.75,507.55,539.05
1692,51.85,496.15,507.95,539.45
1695,51.79,496.55,508.35,539.85
1698,51.72,496.85,508.85,540.25
1701,51.60,497.25,509.25,540.65
1704,51.56,497.65,509.65,541.05
1707,51.50,498.05,510.15,541.45
1710,51.39,498.45,510.65,541.75
1713,51.27,498.85,511.05,542.15
1716,51.25,499.15,511.55,542.55
1719,51.14,499.55,511.95,542.95
1722,51.06,499.85,512.45,543.35
1725,51.01,500.25,512.85,543.65
1728,50.89,500.65,513.35,544.15
1731,50.83,501.05,513.75,544.45
1734,50.74,501.35,514.25,544.85
1737,50.65,501.75,514.65,545.25
1740,50.59,502.15,515.15,545.65
1743,50.47,502.55,515.55,545.95
1746,50.38,502.85,516.05,546.35
1749,50.34,503.25,516.45,546.75
1752,50.26,503.65,516.95,547.05
1755,50.15,504.05,517.35,547.45
1758,50.08,504.45,517.85,547.85
1761,50.01,504.75,518.25,548.25
1764,49.93,505.15,518.75,548.55
1767,49.80,505.55,519.15,548.95
1770,49.70,505.95,519.65,549.35
1773,49.64,506.35,520.15,549.65
1776,49.57,506.75,520.55,550.05
1779,49.45,507.15,521.05,550.45
1782,49.41,507.55,521.45,550.75
1785,49.32,507.85,521.85,551.15
1788,49.22,508.25,522.35,551.55
1791,49.17,508.75,522.85,551.85
1794,49.07,509.05,523.25,552.25
1797,49.01,509.45,523.65,552.65
1800,48.89,509.85,524.15,552.95
1803,48.81,510.25,524.55,553.35
1806,48.72,510.65,525.05,553.75
1809,48.65,511.05,525.55,554.05
1812,48.58,511.45,525.95,554.45
1815,48.48,511.85,526.35,554.75
1818,48.38,512.25,526.85,555.15
1821,48.30,512.55,527.25,555.45
1824,48.21,512.95,527.75,555.85
1827,48.17,513.35,528.15,556.15
1830,48.05,513.75,528.65,556.55
1833,47.97,514.15,529.05,556.85
1836,47.90,514.55,529.55,557.25
1839,47.81,514.95,529.95,557.55
1842,47.71,515.35,530.35,557.95
1845,47.61,515.75,530.85,558.25
1848,47.52,516.05,531.25,558.55
1851,47.44,516.45,531.75,558.95
1854,47.37,516.85,532.15,559.25
1857,47.27,517.25,532.65,559.65
1860,47.18,517.65,533.05,559.95
1863,47.13,517.95,533.45,560.25
1866,47.01,518.35,533.95,560.65
1869,46.94,518.75,534.35,560.95
1872,46.86,519.15,534.85,561.35
1875,46.78,519.45,535.25,561.65
1878,46.70,519.95,535.65,561.95
1881,46.60,520.25,536.15,562.35
1884,46.52,520.65,536.55,562.65
1887,46.43,521.05,536.95,562.95
1890,46.34,521.45,537.45,563.35
1893,46.28,521.85,537.85,563.65
1896,46.18,522.15,538.35,563.95
1899,46.06,522.55,538.75,564.25
1902,45.99,522.95,539.15,564.65
1905,45.93,523.35,539.65,564.95
1908,45.83,523.75,540.05,565.25
1911,45.74,524.15,540.45,565.55
1914,45.66,524.55,540.95,565.95
1917,45.59,524.85,541.35,566.25
1920,45.48,525.25,541.85,566.55
1923,45.41,525.65,542.25,566.85
1926,45.36,526.05,542.65,567.15
1929,45.23,526.45,543.05,567.45
1932,45.13,526.75,543.55,567.85
1935,45.04,527.15,543.95,568.15
1938,44.96,527.55,544.45,568.45
1941,44.87,527.85,544.85,568.75
1944,44.79,528.25,545.25,569.05
1947,44.70,528.65,545.65,569.35
1950,44.61,528.95,546.15,569.65
1953,44.53,529.35,546.55,569.85
1956,44.44,529.75,546.95,570.15
1959,44.37,530.15,547.45,570.55
1962,44.29,530.45,547.85,570.85
1965,44.17,530.95,548.25,571.15
1968,44.09,531.25,548.65,571.45
1971,43.99,531.55,549.05,571.65
1974,43.93,531.95,549.55,571.95
1977,43.83,532.25,549.95,572.25
1980,43.73,532.65,550.35,572.55
1983,43.67,533.05,550.75,572.85
1986,43.59,533.45,551.15,573.15
1989,43.49,533.85,551.55,573.35
1992,43.39,534.15,551.95,573.65
1995,43.29,534.55,552.45,573.95
1998,43.23,534.95,552.85,574.25
2001,43.13,535.25,553.25,574.55
2004,43.04,535.65,553.65,574.85
2007,42.95,536.05,554.05,575.15
2010,42.88,536.45,554.45,575.35
2013,42.77,536.75,554.85,575.65
2016,42.72,537.15,555.25,575.95
2019,42.63,537.45,555.65,576.25
2022,42.51,537.85,556.05,576.45
2025,42.43,538.25,556.45,576.75
2028,42.36,538.55,556.85,577.05
2031,42.25,538.85,557.25,577.35
2034,42.16,539.25,557.65,577.55
2037,42.08,539.55,557.95,577.85
2040,42.00,539.85,558.35,578.05
2043,41.88,540.25,558.75,578.35
2046,41.82,540.65,559.15,578.65
2049,41.69,540.95,559.45,578.95
2052,41.62,541.25,559.85,579.15
2055,41.55,541.65,560.25,579.45
2058,41.46,541.95,560.55,579.75
2061,41.35,542.35,560.95,579.95
2064,41.27,542.65,561.25,580.15
2067,41.21,543.05,561.65,580.45
2070,41.12,543.45,562.05,580.75
2073,41.00,543.85,562.45,580.95
2076,40.93,544.25,562.85,581.25
2079,40.82,544.65,563.15,581.45
2082,40.76,545.05,563.55,581.75
2085,40.68,545.45,563.85,581.95
2088,40.58,545.75,564.25,582.15
2091,40.49,546.25,564.65,582.45
2094,40.43,546.65,564.95,582.65
2097,40.32,546.95,565.35,582.85
2100,40.24,547.35,565.75,583.15
2103,40.15,547.75,566.15,583.35
2106,40.05,548.15,566.55,583.65
2109,39.97,548.45,566.95,583.85
2112,39.88,548.85,567.25,584.05
2115,39.80,549.25,567.65,584.35
2118,39.71,549.65,568.05,584.55
2121,39.61,550.05,568.45,584.75
2124,39.55,550.35,568.85,584.95
2127,39.46,550.75,569.25,585.15
2130,39.37,551.15,569.55,585.45
2133,39.29,551.45,569.95,585.65
2136,39.19,551.85,570.25,585.85
2139,39.11,552.15,570.65,586.05
2142,39.01,552.55,570.95,586.25
2145,38.94,552.95,571.35,586.55
2148,38.84,553.25,571.75,586.75
2151,38.77,553.65,572.15,587.05
2154,38.70,553.95,572.45,587.25
2157,38.59,554.25,572.85,587.45
2160,38.52,554.65,573.15,587.75
2163,38.43,555.05,573.55,587.95
2166,38.33,555.35,573.85,588.15
2169,38.28,555.85,574.25,588.35
2172,38.20,556.15,574.55,588.55
2175,38.10,556.55,574.95,588.75
2178,37.98,556.85,575.25,588.95
2181,37.95,557.25,575.65,589.25
2184,37.85,557.55,576.05,589.45
2187,37.77,557.95,576.35,589.75
2190,37.71,558.25,576.75,589.95
2193,37.61,558.55,577.05,590.15
2196,37.52,558.95,577.45,590.35
2199,37.43,559.35,577.75,590.55
2202,37.34,559.55,578.05,590.75
2205,37.27,559.95,578.35,591.05
2208,37.18,560.25,578.75,591.15
2211,37.11,560.55,579.05,591.45
2214,37.03,560.95,579.35,591.65
2217,36.94,561.25,579.65,591.85
2220,36.87,561.55,580.05,592.05
2223,36.80,561.85,580.35,592.25
2226,36.70,562.15,580.65,592.45
2229,36.62,562.45,581.05,592.65
2232,36.54,562.75,581.35,592.85
2235,36.44,563.05,581.65,593.05
2238,36.37,563.45,581.95,593.25
2241,36.30,563.75,582.25,593.45
2244,36.21,564.05,582.55,593.65
2247,36.13,564.35,582.85,593.85
2250,36.07,564.65,583.05,594.15
2253,35.98,564.95,583.35,594.35
2256,35.94,565.25,583.65,594.45
2259,35.85,565.55,583.95,594.75
2262,35.73,565.75,584.15,594.95
2265,35.66,566.05,584.45,595.05
2268,35.60,566.35,584.75,595.35
2271,35.53,566.65,585.05,595.45
2274,35.45,566.95,585.35,595.75
2277,35.37,567.25,585.65,595.95
2280,35.29,567.55,585.85,596.05
2283,35.21,567.75,586.15,596.35
2286,35.13,568.05,586.35,596.45
2289,35.07,568.35,586.65,596.65
2292,35.00,568.65,586.85,596.85
2295,34.93,568.95,587.25,597.05
2298,34.85,569.15,587.45,597.25
2301,34.77,569.45,587.65,597.45
2304,34.69,569.75,587.95,597.65
2307,34.62,569.95,588.15,597.85
2310,34.55,570.25,588.35,598.05
2313,34.50,570.55,588.65,598.15
2316,34.42,570.75,588.85,598.35
2319,34.34,571.05,589.15,598.65
2322,34.27,571.35,589.35,598.75
2325,34.21,571.55,589.55,598.95
2328,34.11,571.85,589.75,599.15
2331,34.05,572.05,590.05,599.35
2334,33.98,572.35,590.25,599.55
2337,33.92,572.55,590.45,599.75
2340,33.84,572.65,590.65,599.95
2343,33.79,572.55,590.75,600.15
2346,33.70,572.45,590.85,600.35
2349,33.63,572.45,591.15,600.55
2352,33.56,572.55,591.45,600.75
2355,33.49,572.75,591.65,600.95
2358,33.44,572.95,591.85,601.15
2361,33.36,573.05,592.05,601.35
2364,33.33,573.25,592.25,601.55
2367,33.23,573.45,592.45,601.75
2370,33.21,573.55,592.65,601.85
2373,33.13,573.75,592.85,602.05
2376,33.07,573.85,593.05,602.25
2379,33.00,574.05,593.25,602.35
2382,32.95,574.25,593.45,602.55
2385,32.88,574.35,593.65,602.65
2388,32.82,574.55,593.85,602.85
2391,32.76,574.75,593.95,603.05
2394,32.69,574.85,594.15,603.15
2397,32.64,575.05,594.35,603.25
2400,32.58,575.15,594.55,603.45
2403,32.51,575.35,594.75,603.55
2406,32.44,575.55,594.85,603.65
2409,32.40,575.75,594.95,603.85
2412,32.33,575.95,595.15,603.95
2415,32.27,576.05,595.35,604.15
2418,32.21,576.25,595.45,604.25
2421,32.16,576.35,595.65,604.35
2424,32.12,576.55,595.85,604.45
2427,32.05,576.75,596.05,604.55
2430,31.99,576.85,596.15,604.65
2433,31.92,576.95,596.35,604.75
2436,31.86,577.15,596.55,604.85
2439,31.82,577.35,596.75,604.95
2442,31.79,577.45,596.95,605.15
2445,31.71,577.65,597.05,605.25
2448,31.67,577.85,597.25,605.35
2451,31.63,577.95,597.45,605.45
2454,31.53,578.15,597.65,605.55
2457,31.50,578.35,597.85,605.65
2460,31.44,578.55,598.05,605.75
2463,31.38,578.65,598.25,605.85
2466,31.35,578.85,598.35,605.95
2469,31.30,579.05,598.55,606.05
2472,31.21,579.15,598.75,606.15
2475,31.17,579.35,598.95,606.25
2478,31.12,579.55,599.15,606.35
2481,31.08,579.65,599.35,606.35
2484,31.02,579.85,599.65,606.45
2487,30.96,580.05,599.95,606.55
2490,30.92,580.15,600.05,606.65
2493,30.85,580.35,600.35,606.75
2496,30.81,580.45,600.55,606.75
2499,30.77,580.65,600.85,606.85
2502,30.71,580.75,601.05,606.85
2505,30.65,580.95,601.25,606.95
2508,30.59,581.05,601.45,606.95
2511,30.55,581.25,601.75,607.05
2514,30.51,581.35,601.95,607.15
2517,30.47,581.45,602.15,607.25
2520,30.41,581.65,602.35,607.35
2523,30.37,581.75,602.65,607.35
2526,30.31,581.95,602.85,607.45
2529,30.27,582.05,603.05,607.45
2532,30.23,582.25,603.35,607.45
2535,30.19,582.35,603.55,607.55
2538,30.13,582.45,603.75,607.55
2541,30.12,582.65,603.95,607.65
2544,30.02,582.75,604.15,607.65
2547,30.00,582.85,604.35,607.75
2550,29.97,582.95,604.65,607.85
2553,29.90,583.15,604.75,607.85
2556,29.87,583.25,605.05,607.95
2559,29.82,583.35,605.25,608.05
2562,29.78,583.45,605.35,608.15
2565,29.73,583.55,605.55,608.25
2568,29.70,583.65,605.75,608.25
2571,29.66,583.75,605.95,608.35
2574,29.63,583.95,606.15,608.35
2577,29.56,584.05,606.35,608.45
2580,29.52,584.15,606.55,608.45
2583,29.45,584.25,606.75,608.55
2586,29.43,584.35,606.95,608.55
2589,29.38,584.55,607.15,608.65
2592,29.33,584.65,607.25,608.65
2595,29.30,584.75,607.45,608.65
2598,29.26,584.85,607.65,608.75
2601,29.21,584.95,607.85,608.75
2604,29.16,585.05,607.95,608.75
2607,29.13,585.15,608.15,608.85
2610,29.11,585.25,608.35,608.85
2613,29.06,585.35,608.55,608.95
2616,29.02,585.45,608.65,608.95
2619,28.98,585.55,608.85,609.05
2622,28.93,585.65,608.95,609.05
2625,28.89,585.75,609.05,609.05
2628,28.87,585.85,609.15,609.05
2631,28.83,585.95,609.25,609.15
2634,28.81,586.05,609.35,609.15
2637,28.77,586.15,609.35,609.15
2640,28.73,586.15,609.45,609.25
2643,28.71,586.25,609.55,609.25
2646,28.64,586.35,609.65,609.25
2649,28.62,586.35,609.65,609.35
2652,28.59,586.45,609.75,609.35
2655,28.55,586.55,609.95,609.45
2658,28.51,586.65,610.05,609.45
2661,28.48,586.75,610.05,609.45
2664,28.45,586.85,610.15,609.45
2667,28.42,587.05,610.25,609.55
2670,28.37,587.15,610.35,609.55
2673,28.35,587.25,610.45,609.55
2676,28.32,587.25,610.55,609.55
2679,28.28,587.45,610.65,609.55
2682,28.25,587.45,610.75,609.55
2685,28.23,587.55,610.85,609.55
2688,28.20,587.65,610.85,609.45
2691,28.14,587.75,610.95,609.45
2694,28.13,587.75,611.05,609.45
2697,28.09,587.85,611.15,609.45
2700,28.07,588.05,611.25,609.55
2703,28.06,588.15,611.25,609.55
2706,28.03,588.25,611.35,609.45
2709,27.98,588.35,611.45,609.45
2712,27.95,588.35,611.45,609.45
2715,27.90,588.45,611.55,609.45
2718,27.90,588.45,611.55,609.45
2721,27.84,588.55,611.65,609.45
2724,27.83,588.65,611.65,609.45
2727,27.80,588.65,611.75,609.45
2730,27.78,588.75,611.75,609.45
2733,27.75,588.85,611.85,609.45
2736,27.77,588.95,611.85,609.45
2739,27.70,589.05,611.85,609.45
2742,27.69,589.05,611.95,609.45
2745,27.63,589.25,612.05,609.45
2748,27.61,589.25,612.05,609.45
2751,27.64,589.35,612.05,609.45
2754,27.55,589.35,612.15,609.45
2757,27.56,589.45,612.15,609.45
2760,27.51,589.45,612.15,609.55
2763,27.48,589.55,612.15,609.55
2766,27.47,589.55,612.25,609.55
2769,27.44,589.75,612.25,609.55
2772,27.41,589.75,612.25,609.55
2775,27.38,589.85,612.25,609.55
2778,27.37,589.95,612.25,609.65
2781,27.35,589.95,612.25,609.65
2784,27.31,590.05,612.25,609.65
2787,27.31,590.05,612.25,609.65
2790,27.28,590.15,612.25,609.65
2793,27.24,590.25,612.15,609.65
2796,27.23,590.25,612.15,609.75
2799,27.21,590.35,612.15,609.75
2802,27.17,590.35,612.25,609.75
2805,27.14,590.45,612.25,609.65
2808,27.14,590.45,612.25,609.65
2811,27.11,590.45,612.15,609.65
2814,27.08,590.45,612.15,609.65
2817,27.05,590.55,612.05,609.65
2820,27.06,590.55,612.05,609.65
2823,27.02,590.65,612.05,609.75
2826,27.00,590.75,612.15,609.75
2829,26.99,590.75,612.15,609.85
2832,26.98,590.85,612.25,609.85
2835,26.87,590.85,612.25,609.85
2838,26.94,590.85,612.25,609.85
2841,26.91,590.85,612.35,609.95
2844,26.89,590.95,612.25,609.85
2847,26.82,590.95,612.25,609.85
2850,26.83,590.95,612.25,609.85
2853,26.84,591.05,612.35,609.85
2856,26.81,591.05,612.35,609.85
2859,26.78,591.25,612.35,609.95
2862,26.77,591.25,612.45,609.95
2865,26.75,591.35,612.45,609.95
2868,26.74,591.35,612.45,609.95
2871,26.73,591.35,612.45,609.95
2874,26.70,591.35,612.45,609.95
2877,26.70,591.35,612.45,610.05
2880,26.66,591.45,612.55,610.05
2883,26.65,591.45,612.55,610.05
2886,26.64,591.55,612.45,610.05
2889,26.63,591.65,612.45,610.05
2892,26.61,591.65,612.45,609.95
2895,26.56,591.65,612.45,610.05
2898,26.58,591.65,612.45,610.05
2901,26.56,591.75,612.45,610.15
2904,26.53,591.75,612.45,610.15
2907,26.54,591.75,612.45,610.15
2910,26.50,591.75,612.45,610.15
2913,26.48,591.75,612.55,610.15
2916,26.49,591.85,612.55,610.15
2919,26.46,591.95,612.55,610.15
2922,26.43,591.95,612.55,610.15
2925,26.42,592.05,612.55,610.15
2928,26.42,592.05,612.55,610.25
2931,26.40,592.05,612.55,610.25
2934,26.40,592.05,612.55,610.25
2937,26.36,592.05,612.55,610.25
2940,26.36,592.05,612.55,610.25
2943,26.34,592.05,612.55,610.25
2946,26.31,592.05,612.55,610.35
2949,26.31,592.15,612.55,610.35
2952,26.28,592.15,612.45,610.25
2955,26.28,592.15,612.45,610.35
2958,26.28,592.15,612.45,610.35
2961,26.26,592.15,612.45,610.25
2964,26.26,592.15,612.45,610.25
2967,26.21,592.15,612.45,610.25
2970,26.22,592.15,612.45,610.25
2973,26.24,592.05,612.35,610.25
2976,26.19,592.05,612.45,610.25
2979,26.20,592.15,612.45,610.35
2982,26.17,592.15,612.45,610.35
2985,26.14,592.15,612.45,610.35
2988,26.13,592.15,612.45,610.35
2991,26.13,592.15,612.45,610.35
2994,26.12,592.15,612.45,610.45
2997,26.10,592.05,612.45,610.45
3000,26.12,592.15,612.45,610.45
3003,26.08,592.05,612.35,610.35
3006,26.06,592.15,612.35,610.35
3009,26.05,592.15,612.25,610.35
3012,26.04,592.15,612.15,610.35
3015,26.05,592.05,612.15,610.25
3018,26.02,592.05,612.15,610.25
3021,26.01,592.05,612.15,610.25
3024,25.99,592.05,612.15,610.25
3027,25.99,591.95,612.05,610.25
3030,25.98,591.95,612.05,610.25
3033,25.98,591.95,612.05,610.25
3036,25.97,591.95,612.05,610.35
3039,25.96,591.95,612.05,610.35
3042,25.94,591.95,611.95,610.35
3045,25.92,591.85,611.95,610.35
3048,25.92,591.85,611.95,610.35
3051,25.90,591.85,611.95,610.25
3054,25.88,591.75,611.85,610.25
3057,25.87,591.75,611.85,610.25
3060,25.89,591.75,611.85,610.25
3063,25.85,591.75,611.85,610.25
3066,25.85,591.75,611.85,610.25
3069,25.85,591.75,611.85,610.35
3072,25.83,591.75,611.85,610.35
3075,25.82,591.65,611.75,610.35
3078,25.80,591.65,611.75,610.35
3081,25.79,591.65,611.75,610.45
3084,25.80,591.65,611.75,610.45
3087,25.77,591.55,611.75,610.45
3090,25.77,591.55,611.75,610.45
3093,25.75,591.55,611.75,610.45
3096,25.74,591.55,611.55,610.45
3099,25.72,591.55,611.45,610.45
3102,25.73,591.45,611.45,610.45
3105,25.72,591.45,611.35,610.35
3108,25.73,591.35,611.35,610.35
3111,25.71,591.35,611.35,610.35
3114,25.69,591.35,611.35,610.35
3117,25.69,591.25,611.35,610.35
3120,25.69,591.25,611.25,610.35
3123,25.66,591.25,611.25,610.35
3126,25.65,591.25,611.25,610.45
3129,25.63,591.25,611.25,610.45
3132,25.63,591.25,611.25,610.45
3135,25.63,591.15,611.25,610.35
3138,25.62,591.05,611.15,610.35
3141,25.63,591.05,611.15,610.35
3144,25.61,590.95,611.15,610.35
3147,25.58,590.95,611.05,610.35
3150,25.61,590.95,611.05,610.35
3153,25.57,590.95,611.05,610.35
3156,25.57,590.85,611.05,610.35
3159,25.57,590.85,611.05,610.35
3162,25.55,590.75,610.95,610.35
3165,25.52,590.75,610.95,610.35
3168,25.54,590.65,610.95,610.35
3171,25.51,590.65,610.85,610.35
3174,25.52,590.55,610.85,610.35
3177,25.50,590.55,610.85,610.35
3180,25.50,590.45,610.85,610.35
3183,25.46,590.45,610.75,610.35
3186,25.47,590.45,610.65,610.25
3189,25.45,590.35,610.55,610.25
3192,25.47,590.25,610.55,610.25
3195,25.45,590.25,610.45,610.25
3198,25.46,590.25,610.45,610.25
3201,25.45,590.15,610.45,610.25
3204,25.43,590.05,610.35,610.25
3207,25.42,590.05,610.35,610.25
3210,25.42,589.95,610.35,610.25
3213,25.41,589.95,610.25,610.25
3216,25.39,589.95,610.25,610.25
3219,25.38,589.95,610.25,610.25
3222,25.39,589.85,610.15,610.25
3225,25.36,589.85,610.15,610.35
3228,25.38,589.75,610.15,610.35
3231,25.34,589.75,610.15,610.35
3234,25.35,589.75,610.05,610.35
3237,25.35,589.65,610.05,610.35
3240,25.34,589.55,610.05,610.25
3243,25.32,589.65,610.05,610.25
3246,25.33,589.55,609.95,610.25
3249,25.32,589.45,609.95,610.25
3252,25.30,589.45,609.85,610.25
3255,25.31,589.45,609.85,610.25
3258,25.30,589.35,609.85,610.25
3261,25.28,589.35,609.85,610.25
3264,25.27,589.35,609.75,610.25
3267,25.27,589.25,609.75,610.15
3270,25.26,589.25,609.75,610.15
3273,25.26,589.25,609.65,610.15
3276,25.26,589.25,609.75,610.25
3279,25.24,589.15,609.55,610.15
3282,25.22,589.15,609.45,610.15
3285,25.25,589.05,609.35,610.15
3288,25.21,589.05,609.35,610.15
3291,25.21,588.95,609.35,610.15
3294,25.20,588.95,609.25,610.15
3297,25.21,588.85,609.25,610.15
3300,25.19,588.85,609.25,610.15
3303,25.19,588.85,609.15,610.15
3306,25.19,588.85,609.15,610.15
3309,25.19,588.85,609.15,610.25
3312,25.17,588.75,609.15,610.25
3315,25.16,588.75,609.15,610.25
3318,25.15,588.65,609.05,610.25
3321,25.13,588.65,609.05,610.25
3324,25.14,588.55,609.05,610.25
3327,25.15,588.55,609.05,610.25
3330,25.12,588.45,608.95,610.25
3333,25.11,588.55,608.95,610.25
3336,25.09,588.45,608.95,610.25
3339,25.12,588.45,608.95,610.25
3342,25.11,588.35,608.95,610.25
3345,25.09,588.35,608.85,610.25
3348,25.08,588.25,608.85,610.25
3351,25.08,588.25,608.85,610.25
3354,25.09,588.15,608.75,610.25
3357,25.06,588.15,608.75,610.25
3360,25.06,588.05,608.75,610.25
3363,25.05,588.05,608.65,610.25
3366,25.04,588.05,608.65,610.15
3369,25.08,588.05,608.55,610.15
3372,25.06,587.95,608.55,610.05
3375,25.06,587.95,608.55,610.15
3378,25.03,587.85,608.55,610.05
3381,25.02,587.85,608.45,610.05
3384,25.00,587.85,608.45,610.05
3387,24.99,587.75,608.45,610.05
3390,25.00,587.75,608.35,610.05
3393,24.97,587.65,608.35,610.05
3396,24.97,587.75,608.35,610.05
3399,24.97,587.65,608.35,610.05
3402,24.96,587.55,608.35,610.05
3405,24.98,587.55,608.25,610.15
3408,24.96,587.55,608.25,610.15
3411,24.95,587.45,608.25,610.15
3414,24.95,587.45,608.25,610.15
3417,24.96,587.35,608.25,610.15
3420,24.93,587.35,608.15,610.15
3423,24.92,587.35,608.15,610.15
3426,24.92,587.25,608.15,610.15
3429,24.91,587.25,608.15,610.15
3432,24.92,587.25,608.15,610.15
3435,24.90,587.25,608.05,610.15
3438,24.88,587.15,608.05,610.15
3441,24.89,587.15,608.05,610.15
3444,24.88,587.15,608.05,610.15
3447,24.87,587.05,607.95,610.15
3450,24.88,587.05,607.95,610.15
3453,24.87,586.95,607.95,610.15
3456,24.87,586.95,607.95,610.15
3459,24.86,586.95,607.95,610.15
3462,24.86,586.85,607.85,610.15
3465,24.84,586.75,607.85,610.15
3468,24.83,586.75,607.85,610.25
3471,24.84,586.75,607.85,610.25
3474,24.81,586.75,607.85,610.25
3477,24.85,586.65,607.75,610.25
3480,24.81,586.65,607.75,610.25
3483,24.81,586.65,607.75,610.25
3486,24.81,586.65,607.65,610.25
3489,24.77,586.65,607.65,610.35
3492,24.79,586.55,607.65,610.35
3495,24.80,586.55,607.65,610.35
3498,24.80,586.45,607.55,610.45
3500,24.78,586.45,607.55,610.45