File: Wood/Calibration_Data/TIFP+UCT/TIFP+UCT_Wood_STA_N2_10K_R1.csv
Time (s),Temperature (K),Mass (mg),Heat Flow Rate (W/g)
0,303.159,5.196,0.0002
3,303.1555,5.1973,-0.0001
6,303.153,5.1959,-0.0
9,303.1585,5.1959,0.0002
12,303.163,5.1958,-0.0
15,303.1605,5.1954,-0.0
18,303.163,5.1958,-0.0
21,303.163,5.1968,-0.0001
24,303.164,5.1963,-0.0002
27,303.1645,5.1958,-0.0002
30,303.168,5.1963,-0.0002
33,303.1685,5.196,-0.0003
36,303.169,5.1959,-0.0003
39,303.172,5.1967,-0.0003
42,303.173,5.1975,-0.0001
45,303.1725,5.1974,-0.0005
48,303.173,5.1966,-0.0004
51,303.1745,5.1968,-0.0003
54,303.177,5.1961,-0.0005
57,303.177,5.1964,-0.0004
60,303.18,5.1976,-0.0005
63,303.179,5.1974,-0.0004
66,303.18,5.1978,-0.0009
69,303.181,5.1977,-0.0005
72,303.181,5.1963,-0.0005
75,303.1815,5.1967,-0.0006
78,303.183,5.195,-0.0006
81,303.1825,5.1963,-0.0005
84,303.18,5.1963,-0.0007
87,303.1815,5.1977,-0.0008
90,303.183,5.1963,-0.0008
93,303.18,5.1977,-0.0006
96,303.182,5.1977,-0.0007
99,303.18,5.1963,-0.0007
102,303.18,5.1967,-0.0006
105,303.1805,5.1959,-0.0007
108,303.181,5.1962,-0.0007
111,303.1785,5.1966,-0.0007
114,303.182,5.1976,-0.0007
117,303.1785,5.1975,-0.0006
120,303.178,5.1977,-0.0007
123,303.179,5.1978,-0.0007
126,303.181,5.1981,-0.0009
129,303.1795,5.1981,-0.0007
132,303.178,5.1978,-0.0007
135,303.1785,5.1991,-0.0008
138,303.175,5.1992,-0.0009
141,303.176,5.1984,-0.0009
144,303.175,5.1982,-0.0007
147,303.175,5.1991,-0.0009
150,303.172,5.1996,-0.0008
153,303.1725,5.1992,-0.0007
156,303.173,5.1992,-0.0008
159,303.1715,5.1997,-0.0008
162,303.17,5.1992,-0.0008
165,303.1705,5.1992,-0.0008
168,303.171,5.1986,-0.0008
171,303.17,5.1991,-0.0007
174,303.165,5.1997,-0.0007
177,303.167,5.1987,-0.0008
180,303.167,5.1993,-0.0008
183,303.1645,5.1987,-0.0007
186,303.165,5.1987,-0.0007
189,303.164,5.1992,-0.0008
192,303.164,5.1993,-0.0008
195,303.163,5.1987,-0.0007
198,303.162,5.2,-0.0006
201,303.1615,5.1993,-0.0007
204,303.16,5.1993,-0.0005
207,303.1605,5.1987,-0.0007
210,303.159,5.2,-0.0009
213,303.158,5.1999,-0.0009
216,303.16,5.1993,-0.0009
219,303.156,5.2004,-0.0007
222,303.156,5.1994,-0.0007
225,303.156,5.1987,-0.0009
228,303.157,5.2008,-0.0011
231,303.1565,5.1999,-0.001
234,303.157,5.2009,-0.001
237,303.156,5.2001,-0.001
240,303.156,5.1986,-0.0009
243,303.157,5.1996,-0.0009
246,303.157,5.1997,-0.0007
249,303.157,5.2004,-0.001
252,303.157,5.2007,-0.001
255,303.156,5.2009,-0.0009
258,303.158,5.1997,-0.0011
261,303.1575,5.2004,-0.0011
264,303.156,5.1997,-0.0011
267,303.1565,5.2002,-0.0013
270,303.159,5.1997,-0.0013
273,303.159,5.1999,-0.0014
276,303.157,5.2007,-0.0011
279,303.155,5.201,-0.0013
282,303.157,5.201,-0.0014
285,303.1535,5.201,-0.0014
288,303.156,5.1997,-0.0012
291,303.1555,5.1999,-0.0014
294,303.155,5.1998,-0.0015
297,303.153,5.199,-0.0014
300,303.152,5.1998,-0.0014
303,303.152,5.2001,-0.0012
306,303.156,5.1998,-0.0013
309,303.156,5.1998,-0.0015
312,303.159,5.2011,-0.0016
315,303.168,5.2017,-0.0018
318,303.185,5.2008,-0.0021
321,303.206,5.2008,-0.0027
324,303.239,5.2016,-0.0033
327,303.283,5.2018,-0.0041
330,303.341,5.2018,-0.0051
333,303.411,5.201,-0.0067
336,303.497,5.1989,-0.0085
339,303.601,5.1992,-0.0109
342,303.723,5.1989,-0.0133
345,303.866,5.1998,-0.0165
348,304.026,5.1995,-0.0199
351,304.209,5.1992,-0.0243
354,304.421,5.2006,-0.0289
357,304.654,5.1991,-0.0339
360,304.909,5.1993,-0.0395
363,305.19,5.1993,-0.0454
366,305.501,5.1989,-0.0518
369,305.836,5.1993,-0.0586
372,306.198,5.1988,-0.0654
375,306.588,5.1985,-0.0732
378,307.0,5.1976,-0.081
381,307.44,5.199,-0.0887
384,307.906,5.1982,-0.0966
387,308.396,5.1989,-0.105
390,308.912,5.1999,-0.113
393,309.454,5.1986,-0.1214
396,310.016,5.1972,-0.1293
399,310.605,5.1986,-0.1375
402,311.209,5.2004,-0.1454
405,311.832,5.1993,-0.153
408,312.474,5.2005,-0.161
411,313.139,5.2001,-0.1684
414,313.816,5.1984,-0.1751
417,314.507,5.1991,-0.1824
420,315.214,5.2004,-0.1894
423,315.933,5.1999,-0.1955
426,316.655,5.1978,-0.2018
429,317.394,5.1969,-0.2079
432,318.139,5.1976,-0.2128
435,318.89,5.1979,-0.2181
438,319.642,5.1966,-0.2227
441,320.401,5.1981,-0.227
444,321.163,5.198,-0.2308
447,321.927,5.1966,-0.2343
450,322.688,5.1964,-0.2374
453,323.447,5.1969,-0.2404
456,324.208,5.1959,-0.2426
459,324.966,5.1959,-0.2445
462,325.722,5.1969,-0.2461
465,326.473,5.1961,-0.2471
468,327.216,5.1961,-0.2484
471,327.952,5.1943,-0.2494
474,328.685,5.195,-0.25
477,329.411,5.195,-0.2498
480,330.129,5.1957,-0.2496
483,330.837,5.1957,-0.2494
486,331.541,5.1943,-0.2488
489,332.231,5.1943,-0.2478
492,332.917,5.1943,-0.2471
495,333.594,5.1943,-0.2456
498,334.261,5.1943,-0.2447
501,334.918,5.1943,-0.2433
504,335.567,5.1943,-0.2416
507,336.207,5.193,-0.2401
510,336.838,5.1916,-0.2382
513,337.461,5.1916,-0.2366
516,338.073,5.1903,-0.2347
519,338.678,5.1916,-0.233
522,339.275,5.1916,-0.2307
525,339.862,5.1903,-0.2287
528,340.444,5.189,-0.2268
531,341.018,5.1903,-0.2248
534,341.584,5.189,-0.2227
537,342.145,5.189,-0.2207
540,342.696,5.1876,-0.2188
543,343.243,5.1876,-0.2168
546,343.783,5.1868,-0.2156
549,344.316,5.1858,-0.2134
552,344.849,5.1835,-0.2113
555,345.376,5.1835,-0.2086
558,345.895,5.1835,-0.2063
561,346.408,5.1835,-0.2037
564,346.922,5.1835,-0.201
567,347.433,5.1831,-0.1981
570,347.939,5.1831,-0.1961
573,348.442,5.1825,-0.1934
576,348.944,5.1821,-0.191
579,349.442,5.1821,-0.1885
582,349.941,5.1831,-0.1862
585,350.437,5.1835,-0.1839
588,350.929,5.1821,-0.1816
591,351.426,5.1821,-0.1795
594,351.916,5.1808,-0.1771
597,352.406,5.1808,-0.1746
600,352.898,5.1795,-0.1722
603,353.392,5.1795,-0.1701
606,353.881,5.1781,-0.1677
609,354.372,5.1781,-0.1655
612,354.864,5.1778,-0.1631
615,355.356,5.1781,-0.161
618,355.843,5.1781,-0.1587
621,356.337,5.1768,-0.1568
624,356.831,5.1754,-0.1546
627,357.322,5.1741,-0.1525
630,357.817,5.1741,-0.1503
633,358.312,5.174,-0.1479
636,358.809,5.1726,-0.1454
639,359.307,5.1726,-0.1436
642,359.806,5.173,-0.1412
645,360.303,5.1725,-0.1392
648,360.802,5.1729,-0.137
651,361.301,5.1722,-0.1347
654,361.799,5.1725,-0.1325
657,362.303,5.1715,-0.1302
660,362.805,5.1725,-0.1284
663,363.308,5.1725,-0.1258
666,363.809,5.1725,-0.1237
669,364.314,5.1725,-0.1216
672,364.822,5.1712,-0.1192
675,365.326,5.1712,-0.1171
678,365.83,5.1712,-0.1147
681,366.337,5.1712,-0.1126
684,366.842,5.1712,-0.1105
687,367.349,5.1712,-0.1084
690,367.854,5.1712,-0.1061
693,368.362,5.1698,-0.1041
696,368.87,5.1685,-0.1023
699,369.377,5.1688,-0.0999
702,369.883,5.1692,-0.0977
705,370.393,5.1698,-0.0959
708,370.9,5.1698,-0.0937
711,371.408,5.1698,-0.0918
714,371.919,5.1685,-0.0899
717,372.422,5.1675,-0.0879
720,372.93,5.1671,-0.0859
723,373.441,5.1671,-0.0842
726,373.947,5.1672,-0.0822
729,374.453,5.1683,-0.0807
732,374.961,5.1699,-0.0785
735,375.466,5.1686,-0.077
738,375.974,5.1699,-0.0753
741,376.478,5.1686,-0.0737
744,376.984,5.1699,-0.072
747,377.49,5.1696,-0.0703
750,377.997,5.169,-0.0686
753,378.5,5.1673,-0.0672
756,379.006,5.1669,-0.0655
759,379.509,5.1673,-0.0641
762,380.015,5.1673,-0.0627
765,380.517,5.1674,-0.0615
768,381.023,5.1687,-0.0598
771,381.526,5.1677,-0.0585
774,382.03,5.1674,-0.057
777,382.531,5.1675,-0.0559
780,383.034,5.1688,-0.055
783,383.536,5.1675,-0.054
786,384.038,5.1662,-0.0526
789,384.542,5.1675,-0.0513
792,385.046,5.1675,-0.0503
795,385.546,5.1688,-0.0493
798,386.047,5.1675,-0.0482
801,386.549,5.1668,-0.0467
804,387.051,5.1675,-0.0459
807,387.551,5.1688,-0.045
810,388.055,5.1675,-0.0438
813,388.555,5.1675,-0.0427
816,389.056,5.1675,-0.042
819,389.554,5.1675,-0.0409
822,390.058,5.1665,-0.0403
825,390.558,5.1662,-0.0392
828,391.056,5.1675,-0.0383
831,391.56,5.1668,-0.0376
834,392.063,5.1662,-0.0367
837,392.563,5.1662,-0.0363
840,393.064,5.1648,-0.035
843,393.564,5.1649,-0.0346
846,394.065,5.1663,-0.0337
849,394.563,5.1663,-0.033
852,395.065,5.1663,-0.0322
855,395.567,5.1673,-0.0315
858,396.066,5.1663,-0.0307
861,396.572,5.1649,-0.0301
864,397.071,5.1653,-0.0298
867,397.574,5.1659,-0.0289
870,398.076,5.1663,-0.0281
873,398.577,5.1663,-0.0275
876,399.081,5.1649,-0.027
879,399.582,5.1663,-0.0263
882,400.088,5.1653,-0.0256
885,400.589,5.1649,-0.0253
888,401.092,5.1636,-0.0249
891,401.592,5.1636,-0.0242
894,402.101,5.1649,-0.0239
897,402.603,5.1636,-0.0233
900,403.106,5.1649,-0.0224
903,403.613,5.1636,-0.0223
906,404.116,5.1649,-0.0215
909,404.623,5.1646,-0.0212
912,405.13,5.1636,-0.0208
915,405.636,5.1626,-0.0204
918,406.142,5.1622,-0.0202
921,406.647,5.1632,-0.0195
924,407.155,5.1622,-0.0195
927,407.661,5.1622,-0.0191
930,408.167,5.1626,-0.0187
933,408.673,5.1622,-0.0183
936,409.18,5.1633,-0.018
939,409.688,5.1626,-0.0177
942,410.194,5.1629,-0.0177
945,410.703,5.1636,-0.0174
948,411.21,5.1636,-0.0171
951,411.716,5.1622,-0.017
954,412.223,5.1622,-0.0165
957,412.731,5.1612,-0.0162
960,413.238,5.1622,-0.016
963,413.747,5.1609,-0.0159
966,414.253,5.1609,-0.0157
969,414.759,5.1609,-0.0158
972,415.271,5.1609,-0.0155
975,415.777,5.1596,-0.0159
978,416.28,5.1602,-0.016
981,416.788,5.1596,-0.016
984,417.294,5.1596,-0.0161
987,417.798,5.1596,-0.0162
990,418.305,5.1596,-0.0163
993,418.81,5.1596,-0.0163
996,419.318,5.1596,-0.0166
999,419.821,5.1596,-0.0166
1002,420.325,5.1596,-0.0169
1005,420.831,5.1596,-0.0172
1008,421.334,5.1596,-0.0171
1011,421.841,5.1582,-0.0176
1014,422.341,5.1582,-0.0177
1017,422.845,5.1582,-0.0182
1020,423.351,5.1569,-0.0182
1023,423.851,5.1582,-0.0184
1026,424.355,5.1569,-0.0188
1029,424.858,5.1582,-0.0192
1032,425.359,5.1575,-0.0192
1035,425.858,5.1575,-0.0195
1038,426.361,5.1575,-0.0193
1041,426.862,5.1575,-0.0194
1044,427.362,5.1569,-0.0195
1047,427.862,5.1569,-0.0198
1050,428.361,5.1569,-0.02
1053,428.862,5.1569,-0.0201
1056,429.361,5.1559,-0.0206
1059,429.862,5.1545,-0.0207
1062,430.36,5.1545,-0.021
1065,430.857,5.1545,-0.0208
1068,431.357,5.1545,-0.0208
1071,431.852,5.1545,-0.0212
1074,432.353,5.1542,-0.0213
1077,432.851,5.1535,-0.0216
1080,433.35,5.1545,-0.0216
1083,433.846,5.1545,-0.0221
1086,434.343,5.1532,-0.022
1089,434.842,5.1518,-0.0222
1092,435.336,5.1518,-0.0222
1095,435.839,5.1518,-0.0223
1098,436.334,5.1518,-0.0228
1101,436.832,5.1505,-0.0229
1104,437.33,5.1505,-0.023
1107,437.828,5.1505,-0.0232
1110,438.324,5.1505,-0.0235
1113,438.822,5.1495,-0.0238
1116,439.321,5.1491,-0.0241
1119,439.815,5.1485,-0.0245
1122,440.314,5.1485,-0.0249
1125,440.811,5.1478,-0.0252
1128,441.31,5.1478,-0.0254
1131,441.809,5.1468,-0.026
1134,442.304,5.1465,-0.026
1137,442.803,5.1465,-0.0264
1140,443.304,5.1458,-0.027
1143,443.799,5.1458,-0.0273
1146,444.298,5.1451,-0.0279
1149,444.797,5.1451,-0.0286
1152,445.294,5.1438,-0.029
1155,445.792,5.1438,-0.0295
1158,446.292,5.1411,-0.03
1161,446.789,5.1411,-0.0305
1164,447.288,5.1411,-0.031
1167,447.787,5.1411,-0.0317
1170,448.284,5.1411,-0.0317
1173,448.784,5.1411,-0.0325
1176,449.282,5.1388,-0.033
1179,449.78,5.1384,-0.0336
1182,450.277,5.1384,-0.0339
1185,450.776,5.1381,-0.0344
1188,451.276,5.1371,-0.0351
1191,451.775,5.1371,-0.0356
1194,452.275,5.1361,-0.0361
1197,452.774,5.1361,-0.037
1200,453.269,5.1347,-0.0376
1203,453.768,5.1347,-0.0386
1206,454.27,5.1334,-0.0393
1209,454.766,5.1317,-0.0401
1212,455.265,5.1317,-0.0411
1215,455.764,5.1304,-0.0419
1218,456.264,5.13,-0.0427
1221,456.762,5.129,-0.0445
1224,457.26,5.1277,-0.0456
1227,457.758,5.125,-0.0482
1230,458.258,5.125,-0.0506
1233,458.759,5.125,-0.0534
1236,459.255,5.125,-0.0569
1239,459.757,5.1243,-0.0592
1242,460.254,5.1223,-0.0593
1245,460.754,5.1223,-0.0581
1248,461.253,5.1196,-0.057
1251,461.749,5.1196,-0.0564
1254,462.25,5.1183,-0.0556
1257,462.749,5.117,-0.0553
1260,463.245,5.1156,-0.0551
1263,463.743,5.1143,-0.0552
1266,464.243,5.1139,-0.0553
1269,464.74,5.1116,-0.0558
1272,465.239,5.1103,-0.0564
1275,465.739,5.1089,-0.0568
1278,466.235,5.1076,-0.0573
1281,466.733,5.1076,-0.0577
1284,467.232,5.1062,-0.0583
1287,467.728,5.1049,-0.0588
1290,468.23,5.1039,-0.0592
1293,468.726,5.1022,-0.0594
1296,469.224,5.0999,-0.0596
1299,469.724,5.0999,-0.0598
1302,470.216,5.0982,-0.0599
1305,470.716,5.0982,-0.0601
1308,471.212,5.0982,-0.0602
1311,471.71,5.0958,-0.0606
1314,472.208,5.0952,-0.0607
1317,472.707,5.0928,-0.061
1320,473.201,5.0915,-0.0611
1323,473.701,5.0905,-0.0612
1326,474.199,5.0881,-0.0615
1329,474.695,5.0861,-0.0615
1332,475.194,5.0861,-0.0616
1335,475.69,5.0848,-0.0619
1338,476.191,5.0834,-0.0617
1341,476.684,5.0821,-0.0619
1344,477.185,5.0792,-0.0624
1347,477.683,5.0777,-0.0626
1350,478.181,5.076,-0.063
1353,478.678,5.0737,-0.0634
1356,479.176,5.0724,-0.0635
1359,479.676,5.071,-0.0638
1362,480.173,5.0703,-0.0642
1365,480.669,5.0687,-0.0644
1368,481.17,5.0663,-0.0648
1371,481.669,5.0653,-0.0651
1374,482.167,5.0636,-0.0652
1377,482.666,5.0623,-0.0656
1380,483.163,5.0595,-0.0658
1383,483.662,5.0582,-0.066
1386,484.163,5.0568,-0.0663
1389,484.659,5.0555,-0.0664
1392,485.157,5.0528,-0.0665
1395,485.659,5.051,-0.0667
1398,486.157,5.0487,-0.067
1401,486.653,5.0473,-0.067
1404,487.151,5.0466,-0.0672
1407,487.651,5.0444,-0.0673
1410,488.151,5.0418,-0.0677
1413,488.652,5.0399,-0.0677
1416,489.148,5.0385,-0.0683
1419,489.647,5.0361,-0.0687
1422,490.147,5.0358,-0.0687
1425,490.642,5.0324,-0.0691
1428,491.143,5.0302,-0.0698
1431,491.642,5.0286,-0.0705
1434,492.142,5.0263,-0.0711
1437,492.64,5.025,-0.0721
1440,493.139,5.0235,-0.0729
1443,493.635,5.0211,-0.0737
1446,494.134,5.019,-0.0746
1449,494.634,5.017,-0.0752
1452,495.13,5.0157,-0.0755
1455,495.629,5.0137,-0.076
1458,496.128,5.0123,-0.0764
1461,496.625,5.0104,-0.0769
1464,497.126,5.0062,-0.0779
1467,497.626,5.0046,-0.0782
1470,498.12,5.0019,-0.0786
1473,498.619,5.0006,-0.0791
1476,499.119,4.9985,-0.0794
1479,499.619,4.9961,-0.08
1482,500.113,4.9945,-0.0803
1485,500.614,4.9924,-0.0811
1488,501.109,4.9886,-0.0816
1491,501.609,4.9871,-0.0821
1494,502.108,4.9846,-0.0823
1497,502.605,4.9828,-0.0828
1500,503.102,4.9805,-0.0828
1503,503.6,4.9788,-0.0827
1506,504.101,4.9761,-0.0831
1509,504.597,4.9727,-0.0832
1512,505.099,4.9694,-0.083
1515,505.595,4.9665,-0.0834
1518,506.093,4.9646,-0.0837
1521,506.594,4.9615,-0.0837
1524,507.09,4.9569,-0.0838
1527,507.59,4.9547,-0.0838
1530,508.09,4.9524,-0.084
1533,508.587,4.9498,-0.0841
1536,509.086,4.9474,-0.0846
1539,509.586,4.9452,-0.0848
1542,510.083,4.9421,-0.085
1545,510.581,4.9391,-0.0854
1548,511.079,4.9372,-0.0857
1551,511.576,4.9327,-0.0862
1554,512.076,4.9293,-0.0865
1557,512.574,4.926,-0.0871
1560,513.074,4.9244,-0.0875
1563,513.574,4.9214,-0.0878
1566,514.072,4.9165,-0.0882
1569,514.571,4.9127,-0.0888
1572,515.071,4.9101,-0.0892
1575,515.571,4.9063,-0.0897
1578,516.068,4.9029,-0.0899
1581,516.565,4.8989,-0.0905
1584,517.066,4.8963,-0.0909
1587,517.561,4.8929,-0.0915
1590,518.063,4.8888,-0.0921
1593,518.561,4.8852,-0.0924
1596,519.062,4.8817,-0.093
1599,519.56,4.8773,-0.0935
1602,520.055,4.8748,-0.094
1605,520.558,4.8706,-0.0945
1608,521.056,4.8658,-0.0947
1611,521.552,4.8618,-0.0955
1614,522.052,4.8561,-0.0959
1617,522.55,4.8535,-0.0967
1620,523.048,4.8484,-0.097
1623,523.546,4.8448,-0.0977
1626,524.046,4.8407,-0.0983
1629,524.543,4.8364,-0.0986
1632,525.043,4.8323,-0.0993
1635,525.539,4.8284,-0.1001
1638,526.037,4.8226,-0.1008
1641,526.535,4.8174,-0.1014
1644,527.034,4.8137,-0.102
1647,527.533,4.8089,-0.1027
1650,528.03,4.8051,-0.1033
1653,528.528,4.8009,-0.1038
1656,529.03,4.7958,-0.1046
1659,529.527,4.7914,-0.1054
1662,530.025,4.7848,-0.1062
1665,530.524,4.7805,-0.1069
1668,531.022,4.7755,-0.1073
1671,531.518,4.7703,-0.108
1674,532.017,4.7658,-0.1089
1677,532.514,4.7616,-0.1094
1680,533.014,4.7564,-0.1101
1683,533.512,4.7499,-0.1108
1686,534.011,4.7457,-0.1115
1689,534.509,4.7408,-0.1125
1692,535.007,4.7333,-0.1131
1695,535.505,4.7288,-0.114
1698,536.004,4.724,-0.1148
1701,536.504,4.7185,-0.1157
1704,537.002,4.7139,-0.1163
1707,537.502,4.7075,-0.117
1710,538.001,4.7038,-0.1176
1713,538.499,4.6987,-0.1185
1716,538.998,4.6914,-0.1192
1719,539.496,4.6851,-0.1198
1722,539.996,4.6793,-0.1204
1725,540.497,4.6746,-0.1213
1728,540.999,4.6691,-0.1217
1731,541.498,4.663,-0.1223
1734,541.998,4.6572,-0.1228
1737,542.498,4.6513,-0.1232
1740,542.999,4.6447,-0.124
1743,543.5,4.6369,-0.1244
1746,544.001,4.6312,-0.1249
1749,544.501,4.6265,-0.1251
1752,545.001,4.6198,-0.1257
1755,545.502,4.6131,-0.1261
1758,546.001,4.6068,-0.1265
1761,546.502,4.6006,-0.1271
1764,547.001,4.5951,-0.1272
1767,547.502,4.5885,-0.1275
1770,548.003,4.5824,-0.1278
1773,548.503,4.5761,-0.1281
1776,549.003,4.5685,-0.1285
1779,549.499,4.5621,-0.1289
1782,549.999,4.5552,-0.1292
1785,550.499,4.5492,-0.1294
1788,550.997,4.542,-0.1298
1791,551.497,4.5355,-0.1302
1794,551.994,4.5278,-0.1305
1797,552.497,4.5222,-0.1307
1800,552.994,4.5152,-0.1308
1803,553.496,4.5096,-0.1312
1806,553.991,4.503,-0.1314
1809,554.493,4.4968,-0.1318
1812,554.991,4.4892,-0.1317
1815,555.49,4.4824,-0.1322
1818,555.988,4.4744,-0.1325
1821,556.489,4.4663,-0.1329
1824,556.985,4.4597,-0.1331
1827,557.484,4.4534,-0.1334
1830,557.983,4.4461,-0.1336
1833,558.483,4.4392,-0.1339
1836,558.982,4.4331,-0.1344
1839,559.477,4.4246,-0.1351
1842,559.976,4.4176,-0.135
1845,560.477,4.41,-0.1352
1848,560.975,4.403,-0.1355
1851,561.475,4.3951,-0.1358
1854,561.973,4.3877,-0.1363
1857,562.472,4.3797,-0.1365
1860,562.973,4.3725,-0.1369
1863,563.472,4.3652,-0.1372
1866,563.972,4.3573,-0.1375
1869,564.469,4.3495,-0.1379
1872,564.968,4.3417,-0.1384
1875,565.469,4.3335,-0.1388
1878,565.968,4.3255,-0.1391
1881,566.468,4.3185,-0.1398
1884,566.968,4.3116,-0.1401
1887,567.467,4.304,-0.1403
1890,567.967,4.2963,-0.1407
1893,568.466,4.2891,-0.1414
1896,568.967,4.281,-0.1415
1899,569.465,4.2724,-0.1419
1902,569.964,4.2645,-0.1427
1905,570.465,4.2558,-0.1435
1908,570.965,4.2475,-0.1439
1911,571.465,4.238,-0.1446
1914,571.964,4.2327,-0.1452
1917,572.464,4.2223,-0.1458
1920,572.966,4.2138,-0.1469
1923,573.466,4.2063,-0.1473
1926,573.964,4.1969,-0.1484
1929,574.465,4.1892,-0.1491
1932,574.965,4.1801,-0.1498
1935,575.467,4.171,-0.1507
1938,575.964,4.162,-0.1515
1941,576.465,4.1521,-0.1523
1944,576.965,4.1432,-0.1533
1947,577.463,4.1352,-0.1544
1950,577.963,4.1257,-0.1554
1953,578.464,4.116,-0.1564
1956,578.964,4.1066,-0.1576
1959,579.465,4.0972,-0.1588
1962,579.964,4.0868,-0.1596
1965,580.464,4.0787,-0.1611
1968,580.963,4.069,-0.162
1971,581.465,4.0594,-0.1637
1974,581.962,4.05,-0.1648
1977,582.464,4.0405,-0.1665
1980,582.963,4.0318,-0.168
1983,583.463,4.0202,-0.1691
1986,583.964,4.0093,-0.1712
1989,584.463,3.9996,-0.1722
1992,584.963,3.989,-0.1741
1995,585.463,3.9785,-0.1756
1998,585.965,3.9691,-0.1773
2001,586.464,3.9586,-0.1791
2004,586.967,3.9466,-0.1812
2007,587.466,3.9353,-0.1831
2010,587.967,3.9245,-0.1849
2013,588.466,3.9141,-0.1868
2016,588.969,3.9007,-0.1893
2019,589.468,3.8895,-0.1913
2022,589.969,3.8764,-0.1935
2025,590.467,3.8666,-0.1954
2028,590.967,3.8559,-0.1973
2031,591.467,3.8444,-0.1993
2034,591.966,3.831,-0.2016
2037,592.466,3.8168,-0.2043
2040,592.967,3.8054,-0.2064
2043,593.467,3.7929,-0.2088
2046,593.964,3.7808,-0.2114
2049,594.461,3.7676,-0.2138
2052,594.963,3.7542,-0.216
2055,595.463,3.7429,-0.2185
2058,595.964,3.7303,-0.2209
2061,596.461,3.7174,-0.2232
2064,596.96,3.7059,-0.2256
2067,597.457,3.6942,-0.2279
2070,597.956,3.6791,-0.2302
2073,598.456,3.6656,-0.2327
2076,598.955,3.6523,-0.2348
2079,599.455,3.6393,-0.2373
2082,599.954,3.6249,-0.2398
2085,600.452,3.6114,-0.2421
2088,600.949,3.5977,-0.2445
2091,601.447,3.5824,-0.2468
2094,601.947,3.5683,-0.2495
2097,602.443,3.5557,-0.2516
2100,602.945,3.5414,-0.2534
2103,603.441,3.525,-0.2559
2106,603.94,3.5116,-0.2581
2109,604.44,3.4964,-0.2604
2112,604.936,3.4828,-0.2626
2115,605.435,3.468,-0.2643
2118,605.936,3.4539,-0.2668
2121,606.433,3.4394,-0.2691
2124,606.932,3.4243,-0.271
2127,607.43,3.4091,-0.2729
2130,607.931,3.3939,-0.2751
2133,608.431,3.3788,-0.277
2136,608.928,3.3634,-0.2791
2139,609.429,3.3461,-0.2811
2142,609.929,3.3319,-0.2828
2145,610.43,3.3184,-0.2843
2148,610.926,3.3027,-0.2863
2151,611.426,3.2871,-0.2884
2154,611.925,3.27,-0.2903
2157,612.423,3.2556,-0.2922
2160,612.926,3.2405,-0.2942
2163,613.424,3.2241,-0.2961
2166,613.926,3.2087,-0.2977
2169,614.422,3.1932,-0.2998
2172,614.923,3.1775,-0.3019
2175,615.423,3.1608,-0.3034
2178,615.921,3.1446,-0.3054
2181,616.422,3.1288,-0.3073
2184,616.922,3.1135,-0.309
2187,617.419,3.0961,-0.3111
2190,617.919,3.081,-0.313
2193,618.417,3.0663,-0.3149
2196,618.916,3.0485,-0.3168
2199,619.418,3.031,-0.3187
2202,619.915,3.0156,-0.3207
2205,620.416,2.9985,-0.323
2208,620.915,2.9822,-0.3249
2211,621.414,2.9658,-0.3272
2214,621.915,2.9491,-0.3294
2217,622.414,2.9319,-0.3321
2220,622.912,2.916,-0.3342
2223,623.413,2.8974,-0.3365
2226,623.913,2.8807,-0.339
2229,624.414,2.865,-0.3416
2232,624.911,2.848,-0.3441
2235,625.411,2.8299,-0.3469
2238,625.912,2.813,-0.3497
2241,626.412,2.7955,-0.3526
2244,626.912,2.7773,-0.3562
2247,627.414,2.7579,-0.3592
2250,627.913,2.7406,-0.3625
2253,628.413,2.7242,-0.3663
2256,628.913,2.7048,-0.3703
2259,629.413,2.686,-0.3736
2262,629.911,2.6686,-0.3774
2265,630.413,2.6498,-0.3816
2268,630.912,2.6316,-0.3854
2271,631.412,2.6116,-0.3894
2274,631.912,2.5934,-0.3934
2277,632.414,2.5742,-0.3977
2280,632.912,2.555,-0.4014
2283,633.412,2.5348,-0.406
2286,633.911,2.5157,-0.41
2289,634.412,2.4952,-0.4144
2292,634.91,2.4753,-0.4184
2295,635.411,2.4559,-0.4227
2298,635.909,2.4358,-0.4269
2301,636.411,2.4162,-0.4311
2304,636.906,2.3953,-0.4355
2307,637.408,2.3735,-0.4397
2310,637.908,2.3541,-0.4436
2313,638.408,2.3322,-0.4474
2316,638.906,2.311,-0.4514
2319,639.408,2.2896,-0.4547
2322,639.906,2.2674,-0.4584
2325,640.404,2.2477,-0.4613
2328,640.903,2.2257,-0.4649
2331,641.403,2.205,-0.4678
2334,641.903,2.184,-0.4704
2337,642.404,2.1619,-0.4732
2340,642.905,2.1398,-0.475
2343,643.403,2.1162,-0.4769
2346,643.902,2.096,-0.4783
2349,644.404,2.0743,-0.4792
2352,644.904,2.0526,-0.4796
2355,645.403,2.0307,-0.4799
2358,645.906,2.0102,-0.4796
2361,646.401,1.9877,-0.4786
2364,646.901,1.9663,-0.4771
2367,647.4,1.9471,-0.4749
2370,647.9,1.9273,-0.4729
2373,648.399,1.9067,-0.469
2376,648.898,1.8847,-0.4655
2379,649.397,1.8632,-0.4605
2382,649.896,1.8461,-0.4553
2385,650.398,1.8258,-0.4493
2388,650.896,1.8053,-0.4421
2391,651.397,1.7867,-0.4348
2394,651.893,1.7683,-0.426
2397,652.391,1.7504,-0.4168
2400,652.893,1.7322,-0.4064
2403,653.391,1.7125,-0.3958
2406,653.891,1.6967,-0.3842
2409,654.391,1.6801,-0.3716
2412,654.892,1.665,-0.3588
2415,655.389,1.6494,-0.345
2418,655.89,1.6369,-0.3309
2421,656.389,1.6236,-0.3161
2424,656.887,1.6108,-0.3014
2427,657.388,1.5973,-0.286
2430,657.889,1.5844,-0.2701
2433,658.385,1.5737,-0.2541
2436,658.886,1.5639,-0.2384
2439,659.385,1.5529,-0.222
2442,659.887,1.545,-0.2063
2445,660.385,1.5371,-0.1908
2448,660.886,1.5285,-0.1752
2451,661.385,1.5206,-0.1604
2454,661.886,1.5139,-0.1456
2457,662.387,1.5067,-0.1319
2460,662.887,1.5009,-0.1185
2463,663.385,1.4956,-0.1058
2466,663.886,1.4899,-0.0935
2469,664.385,1.4852,-0.0826
2472,664.885,1.4811,-0.0721
2475,665.386,1.4757,-0.0622
2478,665.887,1.4713,-0.0535
2481,666.388,1.4672,-0.0456
2484,666.885,1.4648,-0.0385
2487,667.386,1.4616,-0.0316
2490,667.89,1.4587,-0.0256
2493,668.39,1.4554,-0.0204
2496,668.888,1.4533,-0.0159
2499,669.39,1.4499,-0.0121
2502,669.89,1.4474,-0.0085
2505,670.39,1.4446,-0.0057
2508,670.89,1.4421,-0.0028
2511,671.391,1.4399,-0.0007
2514,671.891,1.4385,0.0014
2517,672.391,1.4355,0.0032
2520,672.888,1.4342,0.0045
2523,673.391,1.4316,0.0057
2526,673.89,1.4296,0.007
2529,674.386,1.4267,0.0079
2532,674.889,1.4253,0.0088
2535,675.387,1.4224,0.0097
2538,675.886,1.4205,0.0104
2541,676.387,1.418,0.0111
2544,676.885,1.4166,0.0114
2547,677.385,1.4153,0.012
2550,677.885,1.4136,0.0125
2553,678.384,1.4109,0.0126
2556,678.887,1.4094,0.0129
2559,679.387,1.4068,0.0132
2562,679.885,1.4049,0.0135
2565,680.386,1.4034,0.0139
2568,680.884,1.4005,0.0137
2571,681.385,1.3991,0.014
2574,681.881,1.3973,0.0142
2577,682.381,1.3963,0.0143
2580,682.88,1.3949,0.0143
2583,683.381,1.3946,0.0146
2586,683.881,1.392,0.0149
2589,684.38,1.3907,0.0148
2592,684.875,1.3891,0.0145
2595,685.376,1.3878,0.0143
2598,685.874,1.3854,0.0143
2601,686.373,1.3835,0.0145
2604,686.871,1.3819,0.0144
2607,687.369,1.3793,0.0141
2610,687.868,1.3777,0.014
2613,688.366,1.3764,0.0138
2616,688.864,1.3745,0.0136
2619,689.363,1.3717,0.0132
2622,689.861,1.3703,0.0131
2625,690.36,1.369,0.0125
2628,690.858,1.3671,0.0126
2631,691.356,1.365,0.012
2634,691.854,1.3631,0.0116
2637,692.354,1.3601,0.0113
2640,692.851,1.3581,0.0107
2643,693.351,1.3567,0.01
2646,693.85,1.3553,0.0099
2649,694.348,1.3539,0.0096
2652,694.849,1.351,0.0094
2655,695.348,1.3496,0.0087
2658,695.849,1.3475,0.0086
2661,696.346,1.3462,0.0082
2664,696.849,1.3431,0.008
2667,697.345,1.3417,0.0076
2670,697.846,1.3405,0.0073
2673,698.347,1.3405,0.0067
2676,698.845,1.339,0.007
2679,699.346,1.3364,0.0066
2682,699.847,1.335,0.0059
2685,700.346,1.3321,0.0059
2688,700.844,1.3307,0.0056
2691,701.345,1.3292,0.0054
2694,701.848,1.3279,0.0051
2697,702.347,1.3255,0.0049
2700,702.849,1.3236,0.0046
2703,703.352,1.3221,0.0045
2706,703.85,1.3199,0.0042
2709,704.354,1.3193,0.0039
2712,704.854,1.3168,0.0041
2715,705.354,1.315,0.0039
2718,705.857,1.3137,0.0034
2721,706.358,1.3122,0.0035
2724,706.861,1.3105,0.0034
2727,707.362,1.3077,0.0031
2730,707.864,1.3057,0.0026
2733,708.362,1.3044,0.0022
2736,708.865,1.3037,0.002
2739,709.365,1.303,0.0014
2742,709.867,1.3016,0.0014
2745,710.368,1.3001,0.001
2748,710.868,1.297,0.0004
2751,711.368,1.2957,-0.0001
2754,711.871,1.2946,-0.0008
2757,712.37,1.2932,-0.0016
2760,712.87,1.2922,-0.0022
2763,713.37,1.2899,-0.0029
2766,713.871,1.2882,-0.0039
2769,714.369,1.2868,-0.0041
2772,714.87,1.2855,-0.0052
2775,715.37,1.284,-0.0061
2778,715.87,1.2826,-0.0067
2781,716.368,1.2812,-0.0075
2784,716.869,1.2799,-0.0085
2787,717.366,1.2786,-0.0093
2790,717.866,1.277,-0.0104
2793,718.367,1.2748,-0.0112
2796,718.865,1.2731,-0.0123
2799,719.364,1.2713,-0.0131
2802,719.864,1.2698,-0.0142
2805,720.363,1.2685,-0.0153
2808,720.863,1.2672,-0.0167
2811,721.359,1.2657,-0.0175
2814,721.859,1.2643,-0.0188
2817,722.358,1.26,-0.0195
2820,722.859,1.2593,-0.0208
2823,723.356,1.2587,-0.0223
2826,723.855,1.2573,-0.0231
2829,724.352,1.2573,-0.0241
2832,724.853,1.256,-0.0252
2835,725.353,1.2546,-0.0264
2838,725.851,1.2526,-0.0277
2841,726.349,1.2506,-0.0291
2844,726.849,1.2493,-0.0301
2847,727.347,1.2483,-0.0318
2850,727.846,1.2479,-0.0327
2853,728.344,1.2465,-0.0343
2856,728.845,1.2451,-0.0354
2859,729.342,1.2428,-0.0367
2862,729.842,1.2414,-0.0382
2865,730.34,1.2414,-0.0392
2868,730.842,1.2401,-0.0403
2871,731.342,1.2398,-0.0418
2874,731.842,1.2384,-0.0429
2877,732.341,1.2378,-0.0441
2880,732.838,1.2344,-0.0458
2883,733.338,1.2331,-0.047
2886,733.837,1.2327,-0.0487
2889,734.338,1.2314,-0.0502
2892,734.836,1.2301,-0.0512
2895,735.335,1.2287,-0.0526
2898,735.838,1.228,-0.0537
2901,736.334,1.2274,-0.0554
2904,736.832,1.2257,-0.0564
2907,737.333,1.224,-0.0576
2910,737.833,1.2233,-0.0591
2913,738.331,1.222,-0.0605
2916,738.832,1.2207,-0.0614
2919,739.332,1.2186,-0.0627
2922,739.83,1.2183,-0.0645
2925,740.329,1.217,-0.0661
2928,740.829,1.2156,-0.0677
2931,741.327,1.2156,-0.108
2934,741.826,1.2143,-0.1078
2937,742.324,1.2129,-0.1063
2940,742.823,1.2116,-0.1053
2943,743.324,1.2116,-0.1052
2946,743.822,1.2103,-0.1048
2949,744.319,1.2089,-0.1051
2952,744.821,1.2093,-0.1051
2955,745.319,1.2089,-0.1059
2958,745.818,1.2079,-0.1063
2961,746.318,1.2066,-0.1072
2964,746.815,1.2059,-0.108
2967,747.314,1.2052,-0.1087
2970,747.814,1.2039,-0.1097
2973,748.315,1.2039,-0.1106
2976,748.812,1.2012,-0.1115
2979,749.313,1.1999,-0.1127
2982,749.81,1.2012,-0.1134
2985,750.311,1.2005,-0.1146
2988,750.811,1.1989,-0.1159
2991,751.311,1.1971,-0.117
2994,751.81,1.1957,-0.1183
2997,752.311,1.1957,-0.1192
3000,752.811,1.1944,-0.1203
3003,753.311,1.1934,-0.121
3006,753.811,1.193,-0.1223
3009,754.307,1.1917,-0.123
3012,754.81,1.191,-0.1243
3015,755.31,1.189,-0.1253
3018,755.809,1.189,-0.126
3021,756.305,1.1877,-0.1272
3024,756.809,1.1877,-0.1286
3027,757.31,1.1863,-0.129
3030,757.811,1.1863,-0.1303
3033,758.31,1.1853,-0.1309
3036,758.809,1.185,-0.1317
3039,759.31,1.185,-0.1326
3042,759.811,1.186,-0.1334
3045,760.312,1.1847,-0.1344
3048,760.811,1.1833,-0.1354
3051,761.312,1.1823,-0.1364
3054,761.812,1.1803,-0.1372
3057,762.314,1.1793,-0.1383
3060,762.815,1.1793,-0.1391
3063,763.312,1.1793,-0.1401
3066,763.816,1.178,-0.141
3069,764.319,1.1766,-0.1419
3072,764.819,1.1766,-0.1428
3075,765.319,1.1766,-0.1436
3078,765.82,1.1753,-0.1448
3081,766.322,1.1739,-0.1456
3084,766.823,1.1739,-0.1464
3087,767.323,1.1726,-0.1477
3090,767.824,1.1711,-0.1486
3093,768.327,1.1698,-0.1494
3096,768.827,1.1678,-0.1504
3099,769.33,1.1678,-0.1511
3102,769.831,1.1678,-0.1518
3105,770.331,1.1674,-0.1526
3108,770.833,1.1661,-0.1535
3111,771.334,1.1661,-0.1545
3114,771.834,1.1661,-0.1555
3117,772.337,1.1648,-0.1561
3120,772.84,1.1651,-0.1571
3123,773.34,1.1647,-0.1579
3126,773.842,1.1633,-0.1587
3129,774.344,1.1633,-0.1595
3132,774.843,1.162,-0.1604
3135,775.344,1.1606,-0.1611
3138,775.846,1.1616,-0.162
3141,776.349,1.1601,-0.1627
3144,776.848,1.1587,-0.1637
3147,777.35,1.1587,-0.1643
3150,777.851,1.1581,-0.1649
3153,778.35,1.1574,-0.1655
3156,778.853,1.156,-0.1662
3159,779.355,1.156,-0.1669
3162,779.853,1.156,-0.1682
3165,780.35,1.1547,-0.1686
3168,780.853,1.1534,-0.1696
3171,781.353,1.1534,-0.1705
3174,781.853,1.1534,-0.1716
3177,782.353,1.152,-0.1726
3180,782.855,1.1507,-0.1737
3183,783.353,1.1493,-0.1748
3186,783.855,1.1507,-0.176
3189,784.354,1.1507,-0.1769
3192,784.856,1.1492,-0.1778
3195,785.356,1.1479,-0.1787
3198,785.855,1.1479,-0.1796
3201,786.354,1.1479,-0.1805
3204,786.857,1.1465,-0.1816
3207,787.357,1.1465,-0.1818
3210,787.859,1.1452,-0.1829
3213,788.359,1.1432,-0.1839
3216,788.859,1.1428,-0.1844
3219,789.359,1.1428,-0.1852
3222,789.861,1.1415,-0.1855
3225,790.36,1.1402,-0.1864
3228,790.862,1.1402,-0.1871
3231,791.36,1.1402,-0.1877
3234,791.865,1.1385,-0.1886
3237,792.365,1.1385,-0.1891
3240,792.866,1.1385,-0.19
3243,793.367,1.1385,-0.1907
3246,793.868,1.1398,-0.1911
3249,794.371,1.1375,-0.1917
3252,794.872,1.1371,-0.1923
3255,795.373,1.1361,-0.193
3258,795.874,1.1361,-0.1935
3261,796.378,1.1348,-0.1941
3264,796.875,1.1348,-0.1945
3267,797.376,1.1331,-0.195
3270,797.877,1.1331,-0.196
3273,798.381,1.1331,-0.1967
3276,798.882,1.1318,-0.1978
3279,799.383,1.1318,-0.1983
3282,799.886,1.1304,-0.1996
3285,800.387,1.1298,-0.201
3288,800.886,1.1298,-0.2023
3291,801.388,1.1284,-0.2029
3294,801.889,1.1284,-0.204
3297,802.389,1.1274,-0.2047
3300,802.891,1.1271,-0.2059
3303,803.392,1.1271,-0.2068
3306,803.892,1.1284,-0.2077
3309,804.394,1.1271,-0.2083
3312,804.892,1.1257,-0.2095
3315,805.393,1.1244,-0.2103
3318,805.893,1.1244,-0.2109
3321,806.393,1.1231,-0.2117
3324,806.894,1.1231,-0.2125
3327,807.394,1.1217,-0.2132
3330,807.892,1.1217,-0.2138
3333,808.395,1.1207,-0.2144
3336,808.891,1.1207,-0.2151
3339,809.391,1.1207,-0.2161
3342,809.89,1.1194,-0.217
3345,810.39,1.1197,-0.2184
3348,810.89,1.1197,-0.2193
3351,811.39,1.1184,-0.2207
3354,811.889,1.1184,-0.2221
3357,812.388,1.117,-0.2233
3360,812.887,1.117,-0.2245
3363,813.386,1.1177,-0.2252
3366,813.884,1.1164,-0.2261
3369,814.387,1.1164,-0.2275
3372,814.886,1.1157,-0.2288
3375,815.384,1.114,-0.2297
3378,815.885,1.114,-0.2308
3381,816.385,1.1133,-0.2324
3384,816.888,1.1127,-0.2331
3387,817.387,1.1127,-0.2344
3390,817.886,1.1127,-0.2357
3393,818.386,1.1127,-0.2367
3396,818.889,1.11,-0.238
3399,819.388,1.1086,-0.2371
3402,819.891,1.1086,-0.2354
3405,820.393,1.1096,-0.2324
3408,820.895,1.1096,-0.2287
3411,821.394,1.1096,-0.2242
3414,821.894,1.1086,-0.2192
3417,822.397,1.108,-0.215
3420,822.898,1.1063,-0.212
3423,823.403,1.1046,-0.2103
3426,823.904,1.1046,-0.21
3429,824.407,1.1046,-0.2114
3432,824.91,1.1046,-0.2138
3435,825.411,1.1033,-0.2165
3438,825.915,1.1033,-0.2196
3441,826.416,1.1019,-0.2232
3444,826.919,1.1009,-0.2269
3447,827.42,1.1006,-0.2306
3450,827.919,1.1016,-0.2338
3453,828.419,1.1016,-0.2372
3456,828.921,1.1016,-0.2407
3459,829.421,1.1003,-0.2431
3462,829.921,1.1016,-0.2466
3465,830.42,1.1009,-0.2488
3468,830.92,1.1003,-0.2518
3471,831.417,1.0982,-0.2538
3474,831.917,1.0962,-0.256
3477,832.415,1.0962,-0.2586
3480,832.916,1.0962,-0.2607
3483,833.413,1.0976,-0.2628
3486,833.91,1.0962,-0.2642
3489,834.41,1.0956,-0.2661
3492,834.905,1.0949,-0.2682
3495,835.405,1.0949,-0.2688
3498,835.901,1.0946,-0.2708
3501,836.402,1.0946,-0.2717
3504,836.899,1.0936,-0.2731
3507,837.399,1.0936,-0.2745
3510,837.899,1.0936,-0.2763
3513,838.397,1.0922,-0.2774
3516,838.894,1.0922,-0.2797
3519,839.392,1.0922,-0.2811
3522,839.891,1.0922,-0.2826
3525,840.391,1.0909,-0.2842
3528,840.889,1.0909,-0.2856
3531,841.386,1.0909,-0.2873
3534,841.887,1.0889,-0.2888
3537,842.385,1.0882,-0.29
3540,842.884,1.0868,-0.2914
3543,843.38,1.0882,-0.2924
3546,843.878,1.0882,-0.2935
3549,844.375,1.0872,-0.2947
3552,844.875,1.0868,-0.2957
3555,845.375,1.0868,-0.2966
3558,845.871,1.0855,-0.2977
3561,846.372,1.0855,-0.2984
3564,846.87,1.0855,-0.2994
3567,847.37,1.0845,-0.3008
3570,847.867,1.0842,-0.302
3573,848.367,1.0842,-0.303
3576,848.864,1.0815,-0.3041
3579,849.364,1.0815,-0.3053
3582,849.866,1.0815,-0.3062
3585,850.363,1.0808,-0.3068
3588,850.865,1.0788,-0.3078
3591,851.363,1.0788,-0.3086
3594,851.866,1.0788,-0.3104
3597,852.363,1.0775,-0.3115
3600,852.862,1.0788,-0.3133
3603,853.362,1.0788,-0.3146
3606,853.864,1.0788,-0.3165
3609,854.365,1.0778,-0.3188
3612,854.864,1.0764,-0.3212
3615,855.365,1.0764,-0.3225
3618,855.864,1.0764,-0.3246
3621,856.366,1.0764,-0.3262
3624,856.865,1.0764,-0.3273
3627,857.365,1.0751,-0.3287
3630,857.866,1.0738,-0.3294
3633,858.368,1.0738,-0.3308
3636,858.868,1.0728,-0.3324
3639,859.369,1.0724,-0.3342
3642,859.868,1.0724,-0.3357
3645,860.37,1.0724,-0.3373
3648,860.869,1.0724,-0.3396
3651,861.37,1.0738,-0.341
3654,861.868,1.0738,-0.3419
3657,862.37,1.0724,-0.3429
3660,862.869,1.0724,-0.3433
3663,863.373,1.0697,-0.3437
3666,863.871,1.0697,-0.3441
3669,864.37,1.0701,-0.345
3672,864.87,1.0701,-0.3458
3675,865.368,1.0697,-0.3474
3678,865.869,1.0684,-0.3489
3681,866.369,1.0684,-0.3501
3684,866.867,1.0687,-0.3518
3687,867.367,1.0677,-0.3536
3690,867.868,1.0674,-0.3553
3693,868.367,1.0674,-0.3564
3696,868.867,1.066,-0.3583
3699,869.368,1.066,-0.3601
3702,869.868,1.0654,-0.362
3705,870.367,1.0654,-0.3634
3708,870.866,1.0661,-0.365
3711,871.368,1.0661,-0.3664
3714,871.867,1.0647,-0.3672
3717,872.367,1.0637,-0.3688
3720,872.865,1.0624,-0.3698
3723,873.364,1.0624,-0.3712
3726,873.86,1.061,-0.3727
3729,874.354,1.061,-0.3738
3732,874.851,1.061,-0.375
3735,875.348,1.061,-0.3766
3738,875.842,1.06,-0.3777
3741,876.34,1.0607,-0.38
3744,876.835,1.0607,-0.3827
3747,877.331,1.0593,-0.3851
3750,877.825,1.0593,-0.3874
3753,878.32,1.0593,-0.3902
3756,878.815,1.0583,-0.3924
3759,879.309,1.058,-0.3937
3762,879.806,1.058,-0.3949
3765,880.303,1.0567,-0.3953
3768,880.8,1.0577,-0.3952
3771,881.296,1.0563,-0.395
3774,881.791,1.0563,-0.3946
3777,882.29,1.0563,-0.3944
3780,882.787,1.055,-0.394
3783,883.284,1.055,-0.3939
3786,883.783,1.055,-0.3935
3789,884.28,1.0536,-0.3935
3792,884.78,1.0536,-0.3935
3795,885.278,1.0536,-0.3937
3798,885.776,1.0536,-0.3938
3801,886.276,1.054,-0.394
3804,886.778,1.054,-0.3954
3807,887.278,1.054,-0.3972
3810,887.78,1.0526,-0.3998
3813,888.279,1.0523,-0.402
3816,888.782,1.051,-0.4042
3819,889.284,1.051,-0.4071
3822,889.785,1.051,-0.4093
3825,890.288,1.0496,-0.4111
3828,890.791,1.0496,-0.4136
3831,891.294,1.0496,-0.4145
3834,891.796,1.0496,-0.4155
3837,892.299,1.0496,-0.4163
3840,892.802,1.0496,-0.4159
3843,893.305,1.0496,-0.4151
3846,893.81,1.0483,-0.4146
3849,894.314,1.0469,-0.4142
3852,894.817,1.0483,-0.4138
3855,895.321,1.0469,-0.4134
3858,895.826,1.0456,-0.4131
3861,896.33,1.0456,-0.4129
3864,896.835,1.0456,-0.4129
3867,897.338,1.0456,-0.4125
3870,897.844,1.0456,-0.4128
3873,898.348,1.0456,-0.4124
3876,898.852,1.0456,-0.4131
3879,899.356,1.0456,-0.4133
3882,899.861,1.0456,-0.414
3885,900.363,1.0456,-0.415
3888,900.867,1.0429,-0.417
3891,901.371,1.0429,-0.4194
3894,901.874,1.0429,-0.4218
3897,902.378,1.0442,-0.4242
3900,902.88,1.0429,-0.4269
3903,903.384,1.0429,-0.4294
3906,903.882,1.0429,-0.4327
3909,904.384,1.0426,-0.4356
3912,904.882,1.0416,-0.4371
3915,905.382,1.0429,-0.4384
3918,905.883,1.0429,-0.4409
3921,906.383,1.0439,-0.4432
3924,906.882,1.042,-0.4447
3927,907.384,1.0421,-0.4453
3930,907.881,1.0412,-0.4463
3933,908.381,1.039,-0.4477
3936,908.879,1.0377,-0.4477
3939,909.381,1.038,-0.4474
3942,909.876,1.0366,-0.4464
3945,910.375,1.0366,-0.4447
3948,910.874,1.0366,-0.4426
3951,911.373,1.0366,-0.4408
3954,911.874,1.0366,-0.439
3957,912.372,1.0366,-0.4368
3960,912.869,1.0373,-0.4346
3963,913.368,1.039,-0.433
3966,913.865,1.039,-0.4311
3969,914.364,1.0373,-0.4298
3972,914.862,1.0373,-0.428
3975,915.359,1.0363,-0.4276
3978,915.859,1.0363,-0.4269
3981,916.358,1.036,-0.4262
3984,916.856,1.036,-0.4261
3987,917.354,1.0346,-0.4265
3990,917.852,1.0343,-0.4269
3993,918.357,1.0333,-0.4289
3996,918.851,1.032,-0.4311
3999,919.351,1.032,-0.434
4002,919.852,1.0333,-0.4374
4005,920.35,1.0333,-0.4406
4008,920.85,1.0333,-0.4431
4011,921.349,1.032,-0.4464
4014,921.85,1.032,-0.4487
4017,922.349,1.032,-0.4503
4020,922.847,1.0306,-0.4531
4023,923.347,1.0306,-0.4554
4026,923.847,1.032,-0.4572
4029,924.347,1.032,-0.4588
4032,924.846,1.032,-0.4602
4035,925.347,1.0306,-0.4618
4038,925.85,1.0293,-0.4641
4041,926.349,1.0306,-0.4641
4044,926.849,1.0306,-0.464
4047,927.352,1.0306,-0.4644
4050,927.854,1.0299,-0.465
4053,928.352,1.0293,-0.4645
4056,928.855,1.0306,-0.4633
4059,929.357,1.0293,-0.4627
4062,929.858,1.0293,-0.4614
4065,930.358,1.0306,-0.46
4068,930.86,1.0279,-0.4584
4071,931.362,1.0293,-0.4562
4074,931.862,1.0286,-0.4543
4077,932.366,1.0283,-0.4522
4080,932.865,1.0283,-0.4511
4083,933.367,1.0283,-0.4504
4086,933.869,1.0283,-0.4488
4089,934.371,1.0289,-0.4478
4092,934.874,1.0286,-0.4472
4095,935.377,1.0256,-0.4464
4098,935.877,1.0249,-0.4458
4101,936.379,1.0249,-0.445
4104,936.883,1.0249,-0.4446
4107,937.383,1.0249,-0.4444
4110,937.887,1.0236,-0.4437
4113,938.388,1.0236,-0.4434
4116,938.89,1.0236,-0.4442
4119,939.392,1.0242,-0.4457
4122,939.89,1.0249,-0.4467
4125,940.395,1.0249,-0.4478
4128,940.896,1.0236,-0.4489
4131,941.395,1.0249,-0.4507
4134,941.895,1.0242,-0.4516
4137,942.397,1.022,-0.453
4140,942.897,1.0207,-0.454
4143,943.4,1.022,-0.4545
4146,943.901,1.0223,-0.4553
4149,944.402,1.022,-0.4558
4152,944.903,1.023,-0.4559
4155,945.403,1.023,-0.4558
4158,945.903,1.0229,-0.4563
4161,946.402,1.0216,-0.4565
4164,946.904,1.0205,-0.4554
4167,947.404,1.0202,-0.4551
4170,947.904,1.0202,-0.4541
4173,948.404,1.0202,-0.454
4176,948.904,1.0212,-0.4543
4179,949.405,1.0202,-0.4532
4182,949.905,1.0202,-0.4526
4185,950.404,1.0199,-0.4519
4188,950.905,1.0189,-0.4513
4191,951.405,1.0189,-0.4507
4194,951.904,1.0189,-0.4501
4197,952.403,1.0189,-0.4494
4200,952.9,1.0189,-0.449
4203,953.399,1.0189,-0.4485
4206,953.899,1.0179,-0.4472
4209,954.4,1.0175,-0.4471
4212,954.898,1.0189,-0.4463
4215,955.395,1.0189,-0.4453
4218,955.893,1.0179,-0.4439
4221,956.392,1.0165,-0.4424
4224,956.891,1.0165,-0.4408
4227,957.39,1.0165,-0.4386
4230,957.889,1.0165,-0.4371
4233,958.387,1.0165,-0.4356
4236,958.885,1.0165,-0.4337
4239,959.385,1.0165,-0.4324
4242,959.882,1.0179,-0.4308
4245,960.382,1.0179,-0.4296
4248,960.883,1.0165,-0.4275
4251,961.383,1.0152,-0.4266
4254,961.882,1.0152,-0.4252
4257,962.382,1.0165,-0.4239
4260,962.884,1.0179,-0.4228
4263,963.381,1.0179,-0.4228
4266,963.883,1.0152,-0.4218
4269,964.382,1.0152,-0.4214
4272,964.882,1.0165,-0.4234
4275,965.381,1.0172,-0.4244
4278,965.88,1.0179,-0.4246
4281,966.383,1.0164,-0.4256
4284,966.882,1.0151,-0.4263
4287,967.38,1.0157,-0.4261
4290,967.881,1.0157,-0.4268
4293,968.379,1.0157,-0.4276
4296,968.885,1.0157,-0.4283
4299,969.384,1.0151,-0.4281
4302,969.888,1.0151,-0.4271
4305,970.386,1.0151,-0.427
4308,970.888,1.0151,-0.4263
4311,971.39,1.0154,-0.4257
4314,971.892,1.0164,-0.4248
4317,972.394,1.0151,-0.4236
4320,972.898,1.0137,-0.4228
4323,973.299,1.0137,-0.4214