File: Wood/Calibration_Data/TIFP+UCT/TIFP+UCT_Wood_STA_N2_10K_R2.csv
Time (s),Temperature (K),Mass (mg),Heat Flow Rate (W/g)
0,303.151,4.9516,0.004
3,303.1505,4.9529,0.0043
6,303.151,4.9529,0.0041
9,303.1515,4.9528,0.0038
12,303.154,4.9529,0.0042
15,303.152,4.9529,0.0041
18,303.154,4.9526,0.004
21,303.152,4.9523,0.0042
24,303.154,4.9516,0.0042
27,303.1535,4.9516,0.004
30,303.155,4.953,0.0041
33,303.155,4.953,0.0039
36,303.157,4.9516,0.0041
39,303.1575,4.9527,0.004
42,303.158,4.953,0.0037
45,303.159,4.9534,0.0039
48,303.159,4.953,0.0039
51,303.162,4.9533,0.004
54,303.164,4.9539,0.0038
57,303.163,4.9541,0.0037
60,303.164,4.9553,0.0038
63,303.164,4.9548,0.0037
66,303.166,4.9552,0.0039
69,303.165,4.9548,0.0038
72,303.165,4.9541,0.0037
75,303.1685,4.9541,0.0034
78,303.169,4.9527,0.0037
81,303.1695,4.9534,0.0034
84,303.172,4.9527,0.0035
87,303.173,4.9534,0.0036
90,303.17,4.9517,0.0036
93,303.1705,4.9527,0.0036
96,303.176,4.9521,0.0035
99,303.173,4.952,0.0034
102,303.173,4.9517,0.0034
105,303.174,4.952,0.0035
108,303.171,4.9529,0.0034
111,303.1755,4.9538,0.0035
114,303.172,4.9544,0.0036
117,303.1735,4.9542,0.0035
120,303.172,4.9534,0.0035
123,303.174,4.9532,0.0033
126,303.176,4.9534,0.0034
129,303.1735,4.9534,0.0031
132,303.172,4.953,0.0032
135,303.1725,4.9547,0.0033
138,303.172,4.9547,0.0035
141,303.173,4.9544,0.0034
144,303.173,4.9537,0.0032
147,303.1715,4.953,0.0033
150,303.171,4.9534,0.0031
153,303.1695,4.9535,0.0033
156,303.169,4.9535,0.0032
159,303.168,4.954,0.0032
162,303.171,4.9548,0.0033
165,303.1685,4.9535,0.0032
168,303.169,4.9535,0.0033
171,303.1675,4.9532,0.0032
174,303.165,4.9538,0.0031
177,303.167,4.9532,0.0031
180,303.166,4.9546,0.003
183,303.167,4.9544,0.003
186,303.166,4.9543,0.0029
189,303.167,4.9548,0.003
192,303.164,4.955,0.003
195,303.1655,4.9549,0.003
198,303.167,4.9549,0.0028
201,303.1655,4.9549,0.0029
204,303.164,4.9549,0.0027
207,303.1615,4.9549,0.0028
210,303.164,4.9549,0.0031
213,303.1615,4.9553,0.0032
216,303.163,4.955,0.003
219,303.1635,4.9563,0.003
222,303.163,4.955,0.0031
225,303.1605,4.9556,0.0029
228,303.161,4.9563,0.0031
231,303.1595,4.9551,0.0032
234,303.161,4.9549,0.0029
237,303.1605,4.9555,0.0031
240,303.158,4.9543,0.0029
243,303.16,4.9549,0.0028
246,303.16,4.955,0.0028
249,303.158,4.9551,0.003
252,303.159,4.9563,0.003
255,303.1595,4.9556,0.0029
258,303.158,4.9546,0.003
261,303.158,4.9556,0.0028
264,303.159,4.9549,0.0031
267,303.159,4.956,0.0031
270,303.157,4.9549,0.003
273,303.157,4.9551,0.003
276,303.16,4.956,0.0029
279,303.157,4.9564,0.0032
282,303.16,4.9551,0.0031
285,303.157,4.9564,0.0031
288,303.159,4.9551,0.0031
291,303.1535,4.9551,0.0031
294,303.158,4.9549,0.0031
297,303.158,4.9544,0.003
300,303.158,4.955,0.003
303,303.155,4.9553,0.0029
306,303.159,4.9563,0.0029
309,303.157,4.9563,0.0028
312,303.163,4.9573,0.0032
315,303.171,4.9563,0.0027
318,303.187,4.9562,0.0026
321,303.212,4.9559,0.0029
324,303.244,4.9545,0.0025
327,303.286,4.9542,0.0021
330,303.344,4.9545,0.0017
333,303.417,4.9548,0.0014
336,303.502,4.9542,0.0011
339,303.604,4.9552,0.0006
342,303.729,4.954,-0.0002
345,303.872,4.9535,-0.0004
348,304.037,4.9537,-0.001
351,304.221,4.9553,-0.0012
354,304.427,4.9554,-0.0013
357,304.662,4.9553,-0.0015
360,304.921,4.9553,-0.002
363,305.204,4.9541,-0.0018
366,305.509,4.9536,-0.002
369,305.847,4.9529,-0.002
372,306.207,4.9527,-0.0023
375,306.593,4.9541,-0.0018
378,307.011,4.9532,-0.0015
381,307.449,4.9542,-0.0015
384,307.917,4.9537,-0.0016
387,308.412,4.9537,-0.0013
390,308.924,4.954,-0.0011
393,309.465,4.9536,-0.0009
396,310.028,4.9552,-0.0009
399,310.612,4.9545,-0.0005
402,311.218,4.9543,-0.0003
405,311.846,4.9532,-0.0005
408,312.489,4.9549,0
411,313.15,4.9551,0.0006
414,313.827,4.9535,0.0004
417,314.523,4.953,0.0009
420,315.225,4.9545,0.0012
423,315.941,4.9543,0.0013
426,316.67,4.9537,0.0017
429,317.408,4.9525,0.0021
432,318.15,4.9541,0.0018
435,318.905,4.9534,0.0027
438,319.659,4.9544,0.0029
441,320.417,4.9533,0.003
444,321.182,4.9524,0.003
447,321.943,4.9532,0.0037
450,322.706,4.952,0.0037
453,323.467,4.9528,0.0043
456,324.232,4.9523,0.0049
459,324.989,4.9504,0.0049
462,325.743,4.95,0.0049
465,326.494,4.9523,0.0055
468,327.24,4.9528,0.0062
471,327.977,4.9518,0.0063
474,328.709,4.9511,0.0068
477,329.437,4.9501,0.0071
480,330.155,4.9524,0.0075
483,330.865,4.9514,0.0081
486,331.567,4.95,0.0081
489,332.261,4.95,0.0083
492,332.944,4.9514,0.0085
495,333.621,4.9514,0.0089
498,334.285,4.9514,0.0096
501,334.944,4.9504,0.0098
504,335.59,4.9504,0.0098
507,336.232,4.9504,0.0102
510,336.861,4.9504,0.0105
513,337.482,4.9504,0.0108
516,338.093,4.9497,0.0113
519,338.699,4.9504,0.0115
522,339.292,4.9504,0.012
525,339.881,4.949,0.0124
528,340.46,4.949,0.0128
531,341.03,4.949,0.0132
534,341.595,4.949,0.0138
537,342.154,4.9477,0.0143
540,342.705,4.9474,0.0145
543,343.251,4.9463,0.0147
546,343.791,4.9474,0.0154
549,344.328,4.9477,0.0156
552,344.855,4.9477,0.0159
555,345.382,4.9463,0.0161
558,345.899,4.9463,0.0164
561,346.415,4.9463,0.0166
564,346.929,4.945,0.0164
567,347.436,4.945,0.0162
570,347.939,4.945,0.0163
573,348.443,4.945,0.0159
576,348.943,4.9457,0.0157
579,349.441,4.9457,0.0154
582,349.939,4.9457,0.015
585,350.434,4.9443,0.0144
588,350.927,4.943,0.0142
591,351.417,4.9443,0.0136
594,351.911,4.943,0.0128
597,352.403,4.943,0.012
600,352.895,4.9417,0.0115
603,353.382,4.943,0.011
606,353.874,4.942,0.0097
609,354.362,4.943,0.0088
612,354.854,4.9417,0.0076
615,355.346,4.9403,0.0066
618,355.836,4.9417,0.0052
621,356.33,4.9403,0.0046
624,356.825,4.9396,0.0033
627,357.316,4.939,0.0023
630,357.813,4.9403,0.0009
633,358.304,4.9402,-0.0004
636,358.8,4.9395,-0.0022
639,359.297,4.9389,-0.0034
642,359.798,4.9392,-0.005
645,360.294,4.9387,-0.0064
648,360.793,4.9391,-0.0078
651,361.295,4.9381,-0.0095
654,361.792,4.9381,-0.0108
657,362.295,4.9381,-0.0124
660,362.799,4.9388,-0.0139
663,363.302,4.9388,-0.0158
666,363.807,4.9384,-0.0173
669,364.313,4.9381,-0.0189
672,364.817,4.9374,-0.0207
675,365.324,4.9374,-0.0221
678,365.829,4.9371,-0.024
681,366.338,4.9374,-0.0255
684,366.847,4.9374,-0.0269
687,367.355,4.9374,-0.0284
690,367.862,4.9374,-0.0304
693,368.371,4.9361,-0.0317
696,368.88,4.9361,-0.033
699,369.389,4.9364,-0.0348
702,369.898,4.9361,-0.0364
705,370.405,4.9361,-0.0377
708,370.915,4.9361,-0.0392
711,371.424,4.9361,-0.0403
714,371.931,4.9361,-0.0418
717,372.441,4.9351,-0.0434
720,372.948,4.9361,-0.0445
723,373.458,4.9347,-0.0456
726,373.964,4.9347,-0.047
729,374.472,4.9334,-0.0481
732,374.98,4.9347,-0.0495
735,375.486,4.9334,-0.0504
738,375.991,4.9347,-0.0516
741,376.5,4.9334,-0.0525
744,377.003,4.9347,-0.0536
747,377.506,4.9347,-0.0547
750,378.013,4.9337,-0.0557
753,378.517,4.9334,-0.0566
756,379.023,4.9346,-0.0577
759,379.526,4.9352,-0.0586
762,380.03,4.9365,-0.0594
765,380.534,4.9352,-0.0598
768,381.036,4.9352,-0.0612
771,381.536,4.9342,-0.0616
774,382.04,4.9342,-0.0626
777,382.543,4.9345,-0.0629
780,383.041,4.9352,-0.0635
783,383.545,4.9352,-0.0642
786,384.046,4.9353,-0.0649
789,384.547,4.9353,-0.0655
792,385.047,4.9339,-0.0659
795,385.545,4.9353,-0.0664
798,386.045,4.9339,-0.0673
801,386.547,4.9339,-0.0676
804,387.047,4.9339,-0.068
807,387.547,4.9339,-0.0683
810,388.046,4.9339,-0.069
813,388.547,4.9333,-0.0691
816,389.044,4.9339,-0.0695
819,389.548,4.9339,-0.0699
822,390.046,4.9329,-0.0701
825,390.544,4.9336,-0.0708
828,391.047,4.9346,-0.071
831,391.546,4.9339,-0.0715
834,392.046,4.9339,-0.0717
837,392.546,4.9339,-0.072
840,393.047,4.9339,-0.0722
843,393.55,4.9326,-0.0725
846,394.047,4.9326,-0.0729
849,394.55,4.9326,-0.0729
852,395.052,4.9339,-0.0736
855,395.551,4.9349,-0.0742
858,396.054,4.9339,-0.0743
861,396.555,4.9339,-0.0743
864,397.059,4.9329,-0.0749
867,397.56,4.9326,-0.0751
870,398.063,4.9339,-0.0753
873,398.567,4.9326,-0.0753
876,399.07,4.9313,-0.0756
879,399.572,4.9326,-0.0759
882,400.076,4.9326,-0.0762
885,400.579,4.9326,-0.0764
888,401.084,4.9312,-0.0763
891,401.587,4.9312,-0.0768
894,402.093,4.9312,-0.077
897,402.6,4.9312,-0.0771
900,403.103,4.9326,-0.0777
903,403.609,4.9312,-0.0778
906,404.114,4.9326,-0.0779
909,404.622,4.9323,-0.0779
912,405.123,4.9313,-0.078
915,405.633,4.9299,-0.0781
918,406.141,4.9299,-0.0782
921,406.646,4.9303,-0.0787
924,407.151,4.9299,-0.0784
927,407.66,4.9312,-0.0785
930,408.165,4.9309,-0.0783
933,408.671,4.9312,-0.0787
936,409.178,4.9323,-0.0788
939,409.688,4.9312,-0.0783
942,410.194,4.9319,-0.0786
945,410.702,4.9313,-0.0782
948,411.209,4.9313,-0.0783
951,411.715,4.9299,-0.0783
954,412.222,4.9313,-0.0783
957,412.729,4.9312,-0.0786
960,413.236,4.9312,-0.0785
963,413.743,4.9312,-0.0782
966,414.252,4.9319,-0.0784
969,414.759,4.9314,-0.078
972,415.266,4.931,-0.0777
975,415.771,4.9287,-0.0773
978,416.278,4.928,-0.0764
981,416.786,4.9273,-0.0756
984,417.292,4.9284,-0.0749
987,417.799,4.9273,-0.0746
990,418.302,4.9287,-0.0739
993,418.808,4.9273,-0.0734
996,419.313,4.9284,-0.073
999,419.819,4.9287,-0.0721
1002,420.323,4.9287,-0.0718
1005,420.827,4.9287,-0.0709
1008,421.331,4.9287,-0.0706
1011,421.834,4.9273,-0.0703
1014,422.343,4.9287,-0.07
1017,422.844,4.93,-0.0689
1020,423.348,4.9287,-0.0688
1023,423.85,4.9287,-0.0684
1026,424.352,4.9273,-0.0681
1029,424.856,4.9273,-0.0674
1032,425.355,4.9267,-0.0671
1035,425.858,4.926,-0.0665
1038,426.359,4.9273,-0.0661
1041,426.859,4.9273,-0.066
1044,427.36,4.926,-0.0656
1047,427.858,4.9267,-0.065
1050,428.363,4.926,-0.0647
1053,428.859,4.926,-0.0643
1056,429.359,4.926,-0.0635
1059,429.86,4.925,-0.0634
1062,430.36,4.926,-0.0627
1065,430.855,4.926,-0.0627
1068,431.355,4.926,-0.0621
1071,431.857,4.926,-0.0615
1074,432.355,4.9257,-0.0612
1077,432.852,4.925,-0.0608
1080,433.353,4.9247,-0.0604
1083,433.849,4.9247,-0.0596
1086,434.349,4.9233,-0.0594
1089,434.845,4.922,-0.0588
1092,435.347,4.922,-0.0585
1095,435.844,4.922,-0.058
1098,436.342,4.9233,-0.0578
1101,436.841,4.922,-0.0573
1104,437.338,4.922,-0.0571
1107,437.836,4.9233,-0.0563
1110,438.332,4.9233,-0.0562
1113,438.829,4.9223,-0.0556
1116,439.33,4.922,-0.0555
1119,439.826,4.9206,-0.0551
1122,440.325,4.9206,-0.0546
1125,440.822,4.9193,-0.0544
1128,441.32,4.9193,-0.054
1131,441.815,4.9183,-0.0537
1134,442.315,4.9193,-0.0537
1137,442.811,4.9193,-0.0534
1140,443.309,4.9186,-0.0528
1143,443.805,4.9186,-0.0526
1146,444.302,4.9166,-0.052
1149,444.801,4.9166,-0.0514
1152,445.302,4.9139,-0.0508
1155,445.798,4.9139,-0.0505
1158,446.295,4.9126,-0.0501
1161,446.793,4.9139,-0.0498
1164,447.291,4.9139,-0.0492
1167,447.786,4.9126,-0.0486
1170,448.285,4.9112,-0.0484
1173,448.784,4.9109,-0.0474
1176,449.28,4.9099,-0.0471
1179,449.782,4.9096,-0.0465
1182,450.279,4.9092,-0.0462
1185,450.777,4.9082,-0.0455
1188,451.273,4.9072,-0.0451
1191,451.772,4.9082,-0.0448
1194,452.27,4.9076,-0.0444
1197,452.77,4.9076,-0.044
1200,453.267,4.9072,-0.0431
1203,453.765,4.9062,-0.0427
1206,454.265,4.9055,-0.0421
1209,454.764,4.9032,-0.0415
1212,455.261,4.9045,-0.0406
1215,455.76,4.9019,-0.04
1218,456.259,4.9019,-0.0394
1221,456.756,4.9005,-0.0382
1224,457.259,4.8985,-0.0369
1227,457.755,4.8965,-0.0349
1230,458.252,4.8965,-0.0332
1233,458.751,4.8978,-0.031
1236,459.251,4.8972,-0.0283
1239,459.751,4.8958,-0.0273
1242,460.251,4.8938,-0.028
1245,460.748,4.8925,-0.0294
1248,461.248,4.8911,-0.03
1251,461.748,4.8898,-0.0306
1254,462.246,4.8898,-0.0311
1257,462.741,4.8898,-0.0319
1260,463.242,4.8884,-0.0321
1263,463.739,4.8871,-0.0322
1266,464.237,4.8871,-0.0322
1269,464.735,4.8844,-0.0321
1272,465.233,4.8844,-0.0318
1275,465.73,4.8831,-0.0316
1278,466.231,4.8831,-0.0316
1281,466.725,4.8831,-0.0314
1284,467.224,4.8817,-0.0312
1287,467.721,4.8804,-0.0309
1290,468.222,4.8791,-0.0305
1293,468.72,4.8777,-0.03
1296,469.218,4.8754,-0.0295
1299,469.717,4.874,-0.0291
1302,470.213,4.8733,-0.0284
1305,470.712,4.8723,-0.0278
1308,471.21,4.871,-0.0274
1311,471.708,4.8672,-0.0265
1314,472.204,4.8669,-0.0262
1317,472.702,4.8669,-0.0255
1320,473.203,4.8655,-0.0251
1323,473.701,4.8642,-0.0243
1326,474.2,4.8599,-0.0239
1329,474.698,4.8573,-0.0237
1332,475.194,4.8558,-0.0232
1335,475.694,4.8543,-0.0224
1338,476.194,4.8537,-0.0224
1341,476.692,4.8533,-0.0217
1344,477.19,4.8507,-0.0207
1347,477.687,4.85,-0.0202
1350,478.186,4.8486,-0.0195
1353,478.687,4.8463,-0.0189
1356,479.184,4.8442,-0.0183
1359,479.684,4.8435,-0.018
1362,480.18,4.8428,-0.0175
1365,480.681,4.8412,-0.0167
1368,481.182,4.8387,-0.0164
1371,481.676,4.8361,-0.0161
1374,482.176,4.8344,-0.0157
1377,482.676,4.832,-0.0152
1380,483.172,4.8289,-0.0148
1383,483.672,4.8275,-0.0146
1386,484.171,4.8262,-0.0141
1389,484.67,4.8247,-0.0137
1392,485.165,4.8217,-0.0135
1395,485.664,4.8207,-0.0131
1398,486.165,4.8177,-0.0127
1401,486.662,4.815,-0.0127
1404,487.161,4.8135,-0.0123
1407,487.66,4.8122,-0.0121
1410,488.159,4.8104,-0.0116
1413,488.657,4.8076,-0.0115
1416,489.157,4.8057,-0.0111
1419,489.656,4.8037,-0.0103
1422,490.156,4.802,-0.0102
1425,490.652,4.7997,-0.0096
1428,491.15,4.7993,-0.009
1431,491.649,4.7979,-0.0084
1434,492.151,4.7951,-0.0074
1437,492.648,4.7927,-0.0067
1440,493.148,4.7914,-0.0056
1443,493.643,4.7883,-0.0043
1446,494.144,4.7876,-0.0034
1449,494.64,4.7859,-0.0026
1452,495.137,4.7831,-0.0023
1455,495.639,4.7804,-0.0015
1458,496.136,4.7778,-0.001
1461,496.636,4.7774,-0.0006
1464,497.135,4.7751,-0.0001
1467,497.633,4.7717,0.0003
1470,498.13,4.7679,0.0007
1473,498.628,4.766,0.0011
1476,499.125,4.7641,0.0014
1479,499.624,4.7625,0.0022
1482,500.122,4.7602,0.0024
1485,500.617,4.758,0.0031
1488,501.119,4.7546,0.0037
1491,501.612,4.7531,0.0041
1494,502.113,4.7512,0.0043
1497,502.611,4.7486,0.0048
1500,503.109,4.7457,0.005
1503,503.604,4.7429,0.005
1506,504.105,4.7413,0.0052
1509,504.603,4.7392,0.0052
1512,505.101,4.7354,0.0053
1515,505.598,4.732,0.0057
1518,506.096,4.7294,0.0058
1521,506.595,4.7287,0.0058
1524,507.092,4.7263,0.0061
1527,507.59,4.7233,0.0062
1530,508.086,4.7194,0.0065
1533,508.583,4.7149,0.0066
1536,509.081,4.7124,0.0072
1539,509.58,4.712,0.0074
1542,510.077,4.7091,0.0077
1545,510.575,4.7061,0.0083
1548,511.074,4.7041,0.0086
1551,511.573,4.6994,0.0092
1554,512.067,4.6967,0.0097
1557,512.565,4.6939,0.0102
1560,513.064,4.6917,0.0105
1563,513.561,4.6901,0.0109
1566,514.057,4.6858,0.0115
1569,514.553,4.6826,0.0118
1572,515.052,4.6785,0.0122
1575,515.551,4.6747,0.0128
1578,516.048,4.6713,0.0132
1581,516.547,4.667,0.0141
1584,517.045,4.6611,0.0148
1587,517.545,4.6561,0.0157
1590,518.043,4.6529,0.0164
1593,518.542,4.6497,0.0171
1596,519.041,4.6452,0.0177
1599,519.537,4.6419,0.0184
1602,520.038,4.6406,0.019
1605,520.536,4.6348,0.0197
1608,521.035,4.6271,0.0205
1611,521.533,4.6255,0.021
1614,522.032,4.6255,0.0213
1617,522.529,4.6255,0.0216
1620,523.027,4.6213,0.022
1623,523.525,4.6171,0.0223
1626,524.025,4.6133,0.0228
1629,524.525,4.6085,0.0234
1632,525.021,4.6025,0.0239
1635,525.52,4.5986,0.0245
1638,526.017,4.5947,0.0249
1641,526.517,4.5886,0.0259
1644,527.015,4.5835,0.0265
1647,527.512,4.5791,0.027
1650,528.009,4.5757,0.0277
1653,528.511,4.5702,0.0283
1656,529.01,4.5683,0.029
1659,529.508,4.5644,0.0293
1662,530.008,4.5568,0.0302
1665,530.505,4.5524,0.031
1668,531.003,4.546,0.0318
1671,531.504,4.5438,0.0324
1674,532,4.539,0.0333
1677,532.501,4.5355,0.0338
1680,533,4.5318,0.0342
1683,533.498,4.5248,0.035
1686,534,4.5194,0.0355
1689,534.499,4.5143,0.0365
1692,534.997,4.5087,0.0371
1695,535.497,4.5054,0.0378
1698,535.995,4.5011,0.0386
1701,536.495,4.495,0.0397
1704,536.998,4.4887,0.0402
1707,537.496,4.4838,0.0408
1710,537.995,4.4803,0.0413
1713,538.496,4.4728,0.0423
1716,538.995,4.4694,0.0431
1719,539.496,4.4616,0.0437
1722,539.996,4.454,0.0446
1725,540.497,4.448,0.0454
1728,540.997,4.4429,0.0461
1731,541.496,4.4385,0.0468
1734,541.996,4.4336,0.0472
1737,542.498,4.4293,0.0477
1740,542.997,4.4219,0.0486
1743,543.496,4.4143,0.0492
1746,544,4.4078,0.0497
1749,544.501,4.4029,0.05
1752,544.999,4.3976,0.0507
1755,545.5,4.39,0.0511
1758,545.999,4.386,0.0513
1761,546.499,4.38,0.0516
1764,546.999,4.3743,0.052
1767,547.499,4.3678,0.0521
1770,547.998,4.3625,0.0525
1773,548.498,4.3564,0.0528
1776,548.999,4.3493,0.0532
1779,549.499,4.3405,0.0533
1782,549.999,4.3362,0.0537
1785,550.5,4.3299,0.0537
1788,550.997,4.3226,0.0541
1791,551.497,4.3202,0.0542
1794,551.996,4.3128,0.0542
1797,552.496,4.3056,0.0545
1800,552.995,4.3001,0.0545
1803,553.497,4.294,0.0547
1806,553.997,4.2886,0.0549
1809,554.494,4.2823,0.055
1812,554.994,4.2741,0.055
1815,555.494,4.2673,0.0549
1818,555.992,4.2613,0.0553
1821,556.493,4.2544,0.0555
1824,556.992,4.2492,0.0553
1827,557.492,4.2421,0.0555
1830,557.991,4.2343,0.0555
1833,558.492,4.2266,0.0559
1836,558.993,4.2187,0.0563
1839,559.493,4.2104,0.0569
1842,559.992,4.2037,0.0568
1845,560.492,4.1977,0.057
1848,560.993,4.1924,0.0571
1851,561.492,4.1867,0.0572
1854,561.992,4.1803,0.0573
1857,562.494,4.1725,0.0572
1860,562.994,4.166,0.0574
1863,563.491,4.1589,0.0574
1866,563.994,4.1497,0.0577
1869,564.494,4.1433,0.0579
1872,564.995,4.137,0.0583
1875,565.494,4.1287,0.0585
1878,565.993,4.1218,0.0586
1881,566.492,4.1136,0.059
1884,566.99,4.1075,0.0592
1887,567.492,4.1005,0.0592
1890,567.99,4.0944,0.0596
1893,568.491,4.0871,0.0601
1896,568.989,4.0791,0.0604
1899,569.488,4.0711,0.0608
1902,569.985,4.0633,0.0614
1905,570.486,4.0558,0.0619
1908,570.985,4.0478,0.0623
1911,571.484,4.0401,0.063
1914,571.981,4.0329,0.0635
1917,572.482,4.0242,0.0641
1920,572.982,4.0167,0.0649
1923,573.481,4.0083,0.0654
1926,573.979,3.9992,0.0661
1929,574.477,3.9904,0.067
1932,574.977,3.9828,0.0676
1935,575.476,3.9773,0.0681
1938,575.975,3.9709,0.0687
1941,576.475,3.961,0.0694
1944,576.975,3.9519,0.0702
1947,577.473,3.9415,0.071
1950,577.972,3.9333,0.0718
1953,578.474,3.9259,0.0725
1956,578.972,3.9204,0.0734
1959,579.469,3.9106,0.0739
1962,579.971,3.9027,0.0746
1965,580.47,3.8925,0.0756
1968,580.971,3.8834,0.0769
1971,581.467,3.8708,0.0782
1974,581.968,3.861,0.0795
1977,582.469,3.8526,0.0807
1980,582.966,3.8432,0.0825
1983,583.467,3.8338,0.0834
1986,583.966,3.8252,0.0849
1989,584.465,3.8152,0.0861
1992,584.967,3.8051,0.0877
1995,585.465,3.7948,0.0891
1998,585.964,3.7853,0.0905
2001,586.467,3.7743,0.0923
2004,586.965,3.7642,0.0939
2007,587.464,3.7527,0.0956
2010,587.966,3.7431,0.0975
2013,588.463,3.7331,0.0993
2016,588.962,3.723,0.1012
2019,589.464,3.7121,0.1032
2022,589.963,3.7005,0.1049
2025,590.462,3.6899,0.1068
2028,590.963,3.6799,0.1086
2031,591.464,3.6695,0.1106
2034,591.96,3.6583,0.1123
2037,592.461,3.6477,0.1144
2040,592.961,3.6366,0.1162
2043,593.46,3.6249,0.1184
2046,593.961,3.6108,0.1207
2049,594.46,3.5985,0.1226
2052,594.961,3.5865,0.1247
2055,595.462,3.5747,0.1268
2058,595.96,3.5652,0.1287
2061,596.46,3.5539,0.1308
2064,596.958,3.5394,0.1326
2067,597.459,3.5261,0.1352
2070,597.958,3.5143,0.1374
2073,598.457,3.5033,0.1392
2076,598.958,3.4896,0.1412
2079,599.455,3.4767,0.1434
2082,599.954,3.4628,0.1455
2085,600.454,3.4497,0.1478
2088,600.952,3.4368,0.1501
2091,601.451,3.4226,0.152
2094,601.952,3.4098,0.1543
2097,602.45,3.3972,0.1565
2100,602.948,3.3849,0.1582
2103,603.447,3.3723,0.1601
2106,603.947,3.3593,0.1616
2109,604.448,3.3428,0.1641
2112,604.945,3.3293,0.1658
2115,605.444,3.3162,0.1679
2118,605.942,3.3026,0.1699
2121,606.443,3.2908,0.1715
2124,606.941,3.2765,0.1734
2127,607.442,3.2588,0.1755
2130,607.943,3.2454,0.1772
2133,608.44,3.2346,0.1788
2136,608.938,3.2211,0.1803
2139,609.437,3.2052,0.1822
2142,609.936,3.1923,0.1836
2145,610.435,3.1786,0.1852
2148,610.933,3.1624,0.1868
2151,611.433,3.1451,0.1889
2154,611.932,3.1303,0.1906
2157,612.43,3.1156,0.1927
2160,612.93,3.1031,0.1939
2163,613.428,3.0885,0.196
2166,613.927,3.0749,0.1975
2169,614.426,3.0602,0.1989
2172,614.924,3.0442,0.2009
2175,615.424,3.0273,0.2024
2178,615.922,3.0135,0.2044
2181,616.422,2.9983,0.2057
2184,616.918,2.9851,0.2074
2187,617.42,2.9705,0.2086
2190,617.917,2.9562,0.2101
2193,618.419,2.9406,0.2118
2196,618.915,2.9239,0.2137
2199,619.416,2.9084,0.2155
2202,619.915,2.8933,0.2173
2205,620.413,2.878,0.219
2208,620.912,2.8639,0.2208
2211,621.412,2.847,0.223
2214,621.915,2.8311,0.2248
2217,622.413,2.815,0.2273
2220,622.912,2.7992,0.2293
2223,623.412,2.7823,0.2315
2226,623.912,2.7667,0.2339
2229,624.414,2.751,0.2362
2232,624.913,2.7349,0.239
2235,625.411,2.7187,0.2416
2238,625.911,2.7028,0.2439
2241,626.412,2.687,0.2466
2244,626.91,2.6696,0.2498
2247,627.409,2.6536,0.2525
2250,627.909,2.6377,0.2553
2253,628.407,2.6189,0.2589
2256,628.907,2.5988,0.2628
2259,629.407,2.5814,0.2664
2262,629.906,2.5657,0.2702
2265,630.405,2.5489,0.274
2268,630.902,2.533,0.2776
2271,631.401,2.5153,0.2813
2274,631.902,2.498,0.2852
2277,632.4,2.4803,0.2896
2280,632.898,2.4617,0.2935
2283,633.399,2.4409,0.2973
2286,633.897,2.4229,0.3021
2289,634.395,2.402,0.3065
2292,634.896,2.3811,0.3108
2295,635.398,2.3646,0.315
2298,635.897,2.3475,0.3194
2301,636.398,2.329,0.3238
2304,636.898,2.3084,0.3284
2307,637.397,2.287,0.3327
2310,637.898,2.2677,0.3369
2313,638.398,2.2479,0.3412
2316,638.899,2.2295,0.3454
2319,639.397,2.2056,0.3497
2322,639.897,2.1846,0.3537
2325,640.397,2.1653,0.3571
2328,640.898,2.1452,0.3612
2331,641.398,2.1254,0.3645
2334,641.896,2.1063,0.368
2337,642.396,2.0847,0.3706
2340,642.898,2.0629,0.373
2343,643.397,2.0424,0.3746
2346,643.895,2.0229,0.3762
2349,644.394,2.0017,0.3771
2352,644.893,1.9808,0.3776
2355,645.396,1.9602,0.3779
2358,645.896,1.9403,0.3772
2361,646.395,1.9178,0.3759
2364,646.895,1.8986,0.3743
2367,647.393,1.8798,0.3724
2370,647.893,1.86,0.3695
2373,648.393,1.8379,0.366
2376,648.892,1.8174,0.3619
2379,649.392,1.7987,0.3562
2382,649.888,1.781,0.3507
2385,650.388,1.7624,0.344
2388,650.889,1.7424,0.3364
2391,651.387,1.7248,0.3281
2394,651.886,1.7078,0.3197
2397,652.382,1.6901,0.3095
2400,652.883,1.6702,0.2987
2403,653.381,1.6523,0.2874
2406,653.882,1.637,0.2754
2409,654.38,1.6219,0.2621
2412,654.878,1.6063,0.2486
2415,655.378,1.5914,0.2343
2418,655.878,1.5769,0.2193
2421,656.376,1.5636,0.2039
2424,656.875,1.5509,0.1881
2427,657.376,1.5388,0.1718
2430,657.878,1.5264,0.1546
2433,658.375,1.5157,0.1378
2436,658.876,1.5052,0.121
2439,659.374,1.4944,0.1037
2442,659.873,1.4863,0.0867
2445,660.373,1.4779,0.07
2448,660.874,1.4686,0.0535
2451,661.373,1.4602,0.0373
2454,661.874,1.4537,0.0211
2457,662.373,1.4475,0.0061
2460,662.875,1.4422,-0.0085
2463,663.376,1.4364,-0.0224
2466,663.877,1.4323,-0.0355
2469,664.377,1.4269,-0.0479
2472,664.879,1.423,-0.0596
2475,665.382,1.4177,-0.0705
2478,665.882,1.414,-0.0803
2481,666.383,1.4119,-0.0892
2484,666.882,1.4072,-0.0973
2487,667.386,1.404,-0.1049
2490,667.882,1.4024,-0.1113
2493,668.385,1.3992,-0.1176
2496,668.888,1.3969,-0.1226
2499,669.386,1.3935,-0.1269
2502,669.888,1.391,-0.1312
2505,670.388,1.3893,-0.135
2508,670.89,1.388,-0.1378
2511,671.389,1.3844,-0.1408
2514,671.889,1.3831,-0.1429
2517,672.39,1.3817,-0.1456
2520,672.892,1.3786,-0.1468
2523,673.392,1.3758,-0.1484
2526,673.892,1.3737,-0.1498
2529,674.392,1.3702,-0.1513
2532,674.891,1.3702,-0.1524
2535,675.391,1.3689,-0.1541
2538,675.893,1.3675,-0.1546
2541,676.391,1.3662,-0.156
2544,676.89,1.3633,-0.1569
2547,677.39,1.3617,-0.1575
2550,677.892,1.3604,-0.1585
2553,678.389,1.359,-0.159
2556,678.889,1.359,-0.1601
2559,679.386,1.357,-0.1606
2562,679.884,1.355,-0.1616
2565,680.387,1.3537,-0.1622
2568,680.884,1.3537,-0.1626
2571,681.384,1.3504,-0.1631
2574,681.884,1.3451,-0.1633
2577,682.384,1.3425,-0.1641
2580,682.882,1.3438,-0.1644
2583,683.382,1.3438,-0.1648
2586,683.88,1.3407,-0.1652
2589,684.379,1.337,-0.1655
2592,684.878,1.3334,-0.1658
2595,685.377,1.3334,-0.1662
2598,685.877,1.3311,-0.1662
2601,686.377,1.3293,-0.1668
2604,686.878,1.3273,-0.1669
2607,687.375,1.325,-0.1675
2610,687.875,1.3236,-0.1676
2613,688.374,1.3222,-0.1678
2616,688.873,1.3208,-0.1685
2619,689.373,1.3192,-0.1687
2622,689.87,1.3179,-0.169
2625,690.369,1.3158,-0.169
2628,690.867,1.3137,-0.1696
2631,691.366,1.3123,-0.1696
2634,691.866,1.311,-0.1696
2637,692.365,1.3096,-0.17
2640,692.862,1.3075,-0.1702
2643,693.362,1.3061,-0.17
2646,693.862,1.3032,-0.1701
2649,694.361,1.3018,-0.1708
2652,694.86,1.3015,-0.1711
2655,695.359,1.3005,-0.1716
2658,695.858,1.2991,-0.172
2661,696.357,1.2978,-0.1722
2664,696.857,1.2957,-0.1727
2667,697.355,1.2943,-0.1731
2670,697.854,1.2933,-0.1732
2673,698.353,1.292,-0.1734
2676,698.853,1.2904,-0.1742
2679,699.353,1.2867,-0.1741
2682,699.853,1.2848,-0.1744
2685,700.354,1.2832,-0.1745
2688,700.851,1.2803,-0.1746
2691,701.352,1.2786,-0.1752
2694,701.85,1.2786,-0.1752
2697,702.349,1.2772,-0.1756
2700,702.85,1.2758,-0.1759
2703,703.351,1.2734,-0.1763
2706,703.85,1.2713,-0.1763
2709,704.349,1.2713,-0.1769
2712,704.846,1.2699,-0.1771
2715,705.349,1.2686,-0.1776
2718,705.847,1.2663,-0.1773
2721,706.347,1.2645,-0.1777
2724,706.847,1.2645,-0.1782
2727,707.347,1.2645,-0.178
2730,707.847,1.2615,-0.1776
2733,708.346,1.2594,-0.1776
2736,708.844,1.2576,-0.1774
2739,709.344,1.2566,-0.1771
2742,709.844,1.2553,-0.1774
2745,710.346,1.254,-0.1775
2748,710.846,1.2526,-0.1769
2751,711.346,1.2505,-0.177
2754,711.845,1.2486,-0.177
2757,712.346,1.2476,-0.1767
2760,712.845,1.2466,-0.1765
2763,713.345,1.2452,-0.1764
2766,713.846,1.2436,-0.1764
2769,714.347,1.2419,-0.1764
2772,714.846,1.2393,-0.1758
2775,715.348,1.238,-0.1756
2778,715.847,1.2354,-0.1753
2781,716.347,1.235,-0.1749
2784,716.848,1.2338,-0.1746
2787,717.348,1.2321,-0.1743
2790,717.847,1.2307,-0.1737
2793,718.349,1.2294,-0.1736
2796,718.846,1.2294,-0.1732
2799,719.348,1.2294,-0.1728
2802,719.846,1.228,-0.1724
2805,720.345,1.2267,-0.172
2808,720.844,1.2253,-0.1714
2811,721.345,1.224,-0.1713
2814,721.843,1.224,-0.1707
2817,722.34,1.2212,-0.1706
2820,722.84,1.2199,-0.1699
2823,723.338,1.2185,-0.169
2826,723.841,1.2175,-0.1687
2829,724.339,1.2167,-0.168
2832,724.836,1.2136,-0.167
2835,725.336,1.2117,-0.1664
2838,725.833,1.2098,-0.1656
2841,726.335,1.2068,-0.1649
2844,726.834,1.2075,-0.1641
2847,727.33,1.2078,-0.1634
2850,727.828,1.2065,-0.1629
2853,728.326,1.2051,-0.1622
2856,728.825,1.2038,-0.1614
2859,729.325,1.2014,-0.1608
2862,729.822,1.2014,-0.1599
2865,730.323,1.1983,-0.1589
2868,730.825,1.1969,-0.1582
2871,731.321,1.198,-0.1573
2874,731.821,1.198,-0.1568
2877,732.32,1.1966,-0.1558
2880,732.821,1.1943,-0.155
2883,733.32,1.1926,-0.1538
2886,733.82,1.1919,-0.1534
2889,734.319,1.1912,-0.1527
2892,734.817,1.1899,-0.1521
2895,735.319,1.1899,-0.1516
2898,735.817,1.1886,-0.1512
2901,736.318,1.1872,-0.1506
2904,736.818,1.1858,-0.1497
2907,737.317,1.1844,-0.1493
2910,737.816,1.1844,-0.1484
2913,738.319,1.1844,-0.1478
2916,738.816,1.1831,-0.1479
2919,739.317,1.1814,-0.1472
2922,739.817,1.1807,-0.1464
2925,740.316,1.1793,-0.1451
2928,740.817,1.1778,-0.1444
2931,741.317,1.1765,-0.1031
2934,741.816,1.1751,-0.1038
2937,742.314,1.1751,-0.1064
2940,742.814,1.1738,-0.1082
2943,743.312,1.1725,-0.1091
2946,743.813,1.1711,-0.1103
2949,744.312,1.1711,-0.111
2952,744.811,1.1715,-0.1111
2955,745.307,1.1701,-0.111
2958,745.806,1.1701,-0.1113
2961,746.305,1.1701,-0.1115
2964,746.805,1.1688,-0.1112
2967,747.303,1.1674,-0.1111
2970,747.8,1.1674,-0.1107
2973,748.3,1.1661,-0.1104
2976,748.8,1.1634,-0.1104
2979,749.3,1.1627,-0.1098
2982,749.799,1.1634,-0.11
2985,750.296,1.1634,-0.1097
2988,750.798,1.1621,-0.1094
2991,751.297,1.1607,-0.1091
2994,751.797,1.1607,-0.1091
2997,752.296,1.1607,-0.1085
3000,752.796,1.1594,-0.1087
3003,753.298,1.158,-0.1088
3006,753.796,1.157,-0.1084
3009,754.296,1.1554,-0.1083
3012,754.795,1.154,-0.1082
3015,755.298,1.154,-0.1079
3018,755.796,1.154,-0.1079
3021,756.294,1.1537,-0.1076
3024,756.795,1.1519,-0.1075
3027,757.295,1.1512,-0.1073
3030,757.796,1.1512,-0.107
3033,758.297,1.1499,-0.1073
3036,758.797,1.1499,-0.1072
3039,759.296,1.1496,-0.1069
3042,759.799,1.1495,-0.1065
3045,760.299,1.1482,-0.1062
3048,760.801,1.1469,-0.1059
3051,761.3,1.1469,-0.1054
3054,761.804,1.1455,-0.1053
3057,762.303,1.1442,-0.1051
3060,762.804,1.1428,-0.105
3063,763.308,1.1428,-0.1048
3066,763.808,1.1428,-0.1049
3069,764.308,1.1415,-0.1047
3072,764.811,1.1415,-0.1045
3075,765.314,1.1402,-0.1047
3078,765.814,1.1388,-0.1046
3081,766.318,1.1378,-0.1039
3084,766.817,1.1375,-0.1036
3087,767.321,1.1375,-0.1032
3090,767.823,1.1371,-0.1031
3093,768.324,1.1355,-0.1029
3096,768.822,1.1338,-0.1026
3099,769.325,1.1338,-0.1024
3102,769.827,1.1348,-0.1026
3105,770.328,1.1331,-0.1022
3108,770.827,1.1331,-0.1019
3111,771.326,1.1318,-0.1017
3114,771.829,1.1318,-0.1014
3117,772.33,1.1304,-0.1012
3120,772.828,1.1294,-0.1008
3123,773.327,1.1291,-0.1007
3126,773.826,1.1291,-0.1006
3129,774.327,1.1291,-0.1004
3132,774.825,1.1277,-0.1004
3135,775.326,1.1264,-0.1005
3138,775.825,1.1274,-0.1004
3141,776.325,1.1274,-0.1006
3144,776.823,1.1274,-0.1004
3147,777.322,1.1263,-0.1004
3150,777.824,1.1258,-0.101
3153,778.324,1.1258,-0.1011
3156,778.82,1.1258,-0.1014
3159,779.321,1.1248,-0.1015
3162,779.82,1.1235,-0.1014
3165,780.321,1.1218,-0.1016
3168,780.822,1.1218,-0.1018
3171,781.324,1.1218,-0.1019
3174,781.825,1.1205,-0.1017
3177,782.326,1.1205,-0.102
3180,782.824,1.1191,-0.1017
3183,783.325,1.1191,-0.1011
3186,783.826,1.1205,-0.101
3189,784.326,1.1191,-0.1005
3192,784.829,1.1181,-0.1
3195,785.332,1.1178,-0.1
3198,785.83,1.1165,-0.0997
3201,786.331,1.1155,-0.099
3204,786.832,1.1155,-0.0986
3207,787.332,1.1155,-0.0991
3210,787.832,1.1155,-0.099
3213,788.335,1.1148,-0.0985
3216,788.835,1.1141,-0.0989
3219,789.335,1.1128,-0.0983
3222,789.837,1.1114,-0.0986
3225,790.338,1.1101,-0.0986
3228,790.84,1.1101,-0.0984
3231,791.34,1.1101,-0.0986
3234,791.841,1.1098,-0.0987
3237,792.341,1.1084,-0.0988
3240,792.843,1.1084,-0.0989
3243,793.344,1.1084,-0.0985
3246,793.847,1.1084,-0.0987
3249,794.347,1.1074,-0.099
3252,794.849,1.1074,-0.0986
3255,795.351,1.1061,-0.0985
3258,795.855,1.1061,-0.0987
3261,796.356,1.1061,-0.0985
3264,796.856,1.1047,-0.0985
3267,797.36,1.1044,-0.0983
3270,797.862,1.1034,-0.0977
3273,798.364,1.103,-0.0975
3276,798.865,1.103,-0.097
3279,799.366,1.1017,-0.0971
3282,799.871,1.1004,-0.0968
3285,800.37,1.0997,-0.0965
3288,800.872,1.0997,-0.0961
3291,801.372,1.101,-0.0963
3294,801.873,1.1007,-0.0961
3297,802.374,1.0997,-0.0964
3300,802.875,1.0997,-0.096
3303,803.377,1.0983,-0.0955
3306,803.876,1.0997,-0.0954
3309,804.378,1.0997,-0.095
3312,804.88,1.097,-0.0946
3315,805.381,1.0957,-0.0942
3318,805.883,1.0957,-0.0939
3321,806.385,1.0943,-0.0935
3324,806.887,1.0943,-0.0932
3327,807.386,1.0943,-0.0927
3330,807.887,1.0943,-0.0924
3333,808.388,1.0943,-0.0922
3336,808.887,1.0933,-0.0919
3339,809.388,1.0933,-0.0916
3342,809.889,1.0933,-0.0914
3345,810.388,1.0923,-0.091
3348,810.889,1.091,-0.0906
3351,811.392,1.0896,-0.09
3354,811.893,1.0896,-0.0895
3357,812.392,1.0896,-0.089
3360,812.893,1.0896,-0.0887
3363,813.395,1.0903,-0.0887
3366,813.893,1.0903,-0.0882
3369,814.393,1.0903,-0.0877
3372,814.891,1.0896,-0.0877
3375,815.393,1.0893,-0.0878
3378,815.892,1.0879,-0.0874
3381,816.395,1.0866,-0.0868
3384,816.896,1.0866,-0.0866
3387,817.395,1.0853,-0.086
3390,817.895,1.0853,-0.0854
3393,818.397,1.0838,-0.0852
3396,818.897,1.0825,-0.0849
3399,819.398,1.0825,-0.0869
3402,819.897,1.0825,-0.0897
3405,820.397,1.0835,-0.0937
3408,820.897,1.0835,-0.0985
3411,821.397,1.0835,-0.1046
3414,821.895,1.0838,-0.11
3417,822.398,1.0838,-0.1147
3420,822.898,1.0821,-0.1182
3423,823.401,1.0805,-0.1207
3426,823.901,1.0805,-0.1222
3429,824.403,1.0805,-0.123
3432,824.904,1.0791,-0.1228
3435,825.405,1.0778,-0.1223
3438,825.909,1.0778,-0.1214
3441,826.407,1.0764,-0.1207
3444,826.91,1.0764,-0.1191
3447,827.411,1.0764,-0.1172
3450,827.91,1.0761,-0.116
3453,828.409,1.0761,-0.1144
3456,828.912,1.0748,-0.1134
3459,829.411,1.0748,-0.1122
3462,829.913,1.0754,-0.1105
3465,830.409,1.0748,-0.1098
3468,830.908,1.0748,-0.1088
3471,831.409,1.0734,-0.1079
3474,831.908,1.0721,-0.1076
3477,832.406,1.0711,-0.1061
3480,832.904,1.0707,-0.1058
3483,833.404,1.0707,-0.1047
3486,833.903,1.0707,-0.1042
3489,834.402,1.0714,-0.1034
3492,834.904,1.0714,-0.1028
3495,835.401,1.0714,-0.1027
3498,835.9,1.0714,-0.1022
3501,836.397,1.0714,-0.102
3504,836.894,1.0704,-0.1012
3507,837.395,1.0697,-0.1002
3510,837.893,1.0684,-0.0994
3513,838.392,1.0669,-0.099
3516,838.887,1.0669,-0.0984
3519,839.387,1.0656,-0.0978
3522,839.884,1.0656,-0.0974
3525,840.383,1.0656,-0.0967
3528,840.881,1.0656,-0.0965
3531,841.38,1.0656,-0.0956
3534,841.876,1.0636,-0.0952
3537,842.375,1.0629,-0.0947
3540,842.874,1.0629,-0.0947
3543,843.372,1.0643,-0.0948
3546,843.871,1.0643,-0.0946
3549,844.371,1.0643,-0.0946
3552,844.87,1.0643,-0.0944
3555,845.368,1.0643,-0.0944
3558,845.865,1.0629,-0.0941
3561,846.365,1.0629,-0.0945
3564,846.862,1.0616,-0.094
3567,847.361,1.0616,-0.0939
3570,847.862,1.0616,-0.0938
3573,848.359,1.0616,-0.0892
3576,848.86,1.0602,-0.0875
3579,849.357,1.0589,-0.0861
3582,849.858,1.0602,-0.0853
3585,850.358,1.0596,-0.0845
3588,850.855,1.0589,-0.084
3591,851.356,1.0589,-0.0835
3594,851.856,1.0574,-0.082
3597,852.357,1.0561,-0.0811
3600,852.855,1.0564,-0.0801
3603,853.357,1.0564,-0.0793
3606,853.855,1.0561,-0.0778
3609,854.357,1.0551,-0.0768
3612,854.857,1.0551,-0.0752
3615,855.356,1.0547,-0.0739
3618,855.856,1.0537,-0.0728
3621,856.358,1.0537,-0.071
3624,856.86,1.0524,-0.0705
3627,857.359,1.0511,-0.0694
3630,857.86,1.0511,-0.0683
3633,858.36,1.0511,-0.0674
3636,858.859,1.0511,-0.0661
3639,859.359,1.0524,-0.0649
3642,859.861,1.0517,-0.0633
3645,860.362,1.049,-0.0621
3648,860.861,1.0475,-0.0604
3651,861.36,1.0488,-0.0596
3654,861.86,1.0488,-0.0596
3657,862.359,1.0488,-0.0594
3660,862.856,1.0488,-0.0593
3663,863.354,1.0475,-0.0596
3666,863.852,1.0475,-0.0598
3669,864.346,1.0488,-0.0591
3672,864.843,1.0475,-0.0591
3675,865.34,1.0475,-0.0587
3678,865.835,1.0475,-0.0584
3681,866.332,1.0475,-0.0577
3684,866.827,1.0468,-0.0563
3687,867.324,1.0468,-0.0551
3690,867.82,1.0468,-0.0539
3693,868.316,1.0468,-0.0525
3696,868.815,1.0468,-0.0502
3699,869.313,1.0468,-0.0491
3702,869.809,1.0461,-0.0482
3705,870.308,1.0461,-0.0475
3708,870.807,1.0468,-0.0465
3711,871.303,1.0468,-0.0463
3714,871.803,1.0455,-0.0463
3717,872.302,1.0435,-0.0465
3720,872.8,1.0418,-0.0458
3723,873.301,1.0404,-0.0441
3726,873.804,1.0404,-0.043
3729,874.304,1.0391,-0.041
3732,874.806,1.0381,-0.0396
3735,875.306,1.0378,-0.0375
3738,875.808,1.0378,-0.0355
3741,876.309,1.0388,-0.0333
3744,876.81,1.0388,-0.0309
3747,877.309,1.0388,-0.0293
3750,877.814,1.0388,-0.0279
3753,878.316,1.0388,-0.0262
3756,878.819,1.0378,-0.0253
3759,879.32,1.0361,-0.0249
3762,879.823,1.0361,-0.0242
3765,880.323,1.0374,-0.0234
3768,880.826,1.0384,-0.0229
3771,881.328,1.0384,-0.0225
3774,881.829,1.0384,-0.0218
3777,882.331,1.0384,-0.0221
3780,882.834,1.0374,-0.022
3783,883.335,1.0371,-0.0213
3786,883.841,1.0361,-0.0212
3789,884.342,1.0357,-0.0212
3792,884.844,1.0357,-0.0206
3795,885.347,1.0344,-0.02
3798,885.85,1.0331,-0.0197
3801,886.35,1.0334,-0.0192
3804,886.853,1.0334,-0.0187
3807,887.354,1.0334,-0.0183
3810,887.86,1.0321,-0.0175
3813,888.363,1.0331,-0.0167
3816,888.863,1.0317,-0.0146
3819,889.365,1.0317,-0.0114
3822,889.866,1.0304,-0.0087
3825,890.367,1.0304,-0.0055
3828,890.869,1.0304,-0.0017
3831,891.369,1.0304,0.0003
3834,891.869,1.0304,0.002
3837,892.367,1.0304,0.0037
3840,892.865,1.029,0.0046
3843,893.367,1.029,0.0045
3846,893.864,1.0277,0.0048
3849,894.366,1.0277,0.0048
3852,894.865,1.0284,0.0047
3855,895.365,1.0277,0.0046
3858,895.865,1.0277,0.0045
3861,896.366,1.0284,0.0042
3864,896.863,1.0291,0.0039
3867,897.364,1.0305,0.0037
3870,897.864,1.0305,0.0039
3873,898.365,1.0291,0.0036
3876,898.866,1.0291,0.0041
3879,899.366,1.0278,0.0044
3882,899.867,1.0278,0.0046
3885,900.369,1.0265,0.0044
3888,900.868,1.0251,0.0043
3891,901.369,1.0265,0.0051
3894,901.87,1.0275,0.0049
3897,902.37,1.026,0.007
3900,902.87,1.0246,0.0094
3903,903.374,1.0232,0.0116
3906,903.87,1.0239,0.0148
3909,904.368,1.0246,0.0177
3912,904.868,1.0232,0.0201
3915,905.366,1.0219,0.0232
3918,905.867,1.0219,0.0255
3921,906.365,1.0229,0.0281
3924,906.864,1.0229,0.0299
3927,907.361,1.0242,0.0319
3930,907.862,1.0222,0.0331
3933,908.362,1.0222,0.0349
3936,908.863,1.0209,0.035
3939,909.362,1.0212,0.0349
3942,909.861,1.0219,0.0336
3945,910.36,1.0239,0.032
3948,910.858,1.0232,0.03
3951,911.36,1.0225,0.0278
3954,911.862,1.0222,0.0261
3957,912.361,1.0196,0.0236
3960,912.863,1.0203,0.0221
3963,913.365,1.0193,0.0199
3966,913.866,1.018,0.0185
3969,914.367,1.0162,0.0174
3972,914.866,1.0148,0.0158
3975,915.367,1.0148,0.0147
3978,915.869,1.0162,0.0137
3981,916.368,1.0162,0.0128
3984,916.867,1.0148,0.0119
3987,917.368,1.0148,0.0113
3990,917.868,1.0152,0.0108
3993,918.368,1.0168,0.0107
3996,918.868,1.0182,0.0098
3999,919.366,1.0189,0.0099
4002,919.865,1.0202,0.0101
4005,920.365,1.0195,0.0098
4008,920.868,1.0195,0.0091
4011,921.367,1.0182,0.0093
4014,921.867,1.0175,0.0094
4017,922.366,1.0161,0.0096
4020,922.867,1.0147,0.0099
4023,923.365,1.0134,0.0105
4026,923.87,1.0147,0.0104
4029,924.369,1.0137,0.0114
4032,924.867,1.0137,0.0131
4035,925.366,1.0137,0.0153
4038,925.864,1.0137,0.0194
4041,926.368,1.0151,0.0216
4044,926.869,1.0137,0.0243
4047,927.368,1.0137,0.0268
4050,927.869,1.0124,0.0288
4053,928.367,1.0114,0.031
4056,928.868,1.0127,0.0318
4059,929.371,1.0127,0.0332
4062,929.868,1.0124,0.0342
4065,930.368,1.0124,0.034
4068,930.87,1.0097,0.0331
4071,931.37,1.011,0.0322
4074,931.871,1.011,0.032
4077,932.368,1.011,0.0307
4080,932.87,1.011,0.0304
4083,933.371,1.01,0.0295
4086,933.869,1.0097,0.0289
4089,934.369,1.0104,0.0282
4092,934.872,1.0104,0.027
4095,935.369,1.0097,0.0257
4098,935.872,1.0097,0.025
4101,936.37,1.0097,0.0243
4104,936.872,1.0097,0.0235
4107,937.371,1.0097,0.0227
4110,937.873,1.0097,0.0224
4113,938.374,1.0097,0.0215
4116,938.871,1.0087,0.0212
4119,939.371,1.009,0.0205
4122,939.869,1.01,0.0203
4125,940.369,1.01,0.0199
4128,940.869,1.01,0.0194
4131,941.367,1.0114,0.0194
4134,941.866,1.01,0.0187
4137,942.367,1.01,0.0185
4140,942.869,1.01,0.0177
4143,943.368,1.01,0.0172
4146,943.869,1.009,0.0169
4149,944.37,1.0074,0.0165
4152,944.869,1.0074,0.0157
4155,945.373,1.0074,0.0149
4158,945.873,1.0087,0.0148
4161,946.376,1.0087,0.014
4164,946.878,1.007,0.0138
4167,947.378,1.0067,0.0134
4170,947.88,1.008,0.0128
4173,948.379,1.008,0.0121
4176,948.882,1.0077,0.0118
4179,949.381,1.0067,0.0106
4182,949.881,1.0074,0.0098
4185,950.384,1.0074,0.0086
4188,950.884,1.006,0.0082
4191,951.384,1.0047,0.0078
4194,951.885,1.0033,0.0076
4197,952.388,1.0033,0.007
4200,952.887,1.0033,0.0068
4203,953.386,1.0033,0.0065
4206,953.889,1.0033,0.0054
4209,954.39,1.0033,0.006
4212,954.892,1.0047,0.007
4215,955.39,1.0047,0.0072
4218,955.887,1.0037,0.0076
4221,956.389,1.0037,0.0075
4224,956.886,1.0037,0.0073
4227,957.384,1.0037,0.0066
4230,957.878,1.0037,0.0063
4233,958.375,1.0033,0.0061
4236,958.876,1.0023,0.005
4239,959.371,1.0037,0.0044
4242,959.871,1.005,0.0033
4245,960.369,1.005,0.0026
4248,960.867,1.005,0.001
4251,961.365,1.0023,0.0004
4254,961.865,1.0023,-0.0005
4257,962.365,1.0037,-0.0007
4260,962.863,1.0037,-0.0014
4263,963.364,1.0037,-0.0021
4266,963.861,1.001,-0.0036
4269,964.36,0.9996,-0.0039
4272,964.862,0.9996,-0.0049
4275,965.362,0.9996,-0.0055
4278,965.859,0.9996,-0.0068
4281,966.36,1.001,-0.0072
4284,966.863,1.0006,-0.0076
4287,967.363,1.0001,-0.0086
4290,967.866,1.0001,-0.0088
4293,968.368,0.9991,-0.0083
4296,968.867,0.9991,-0.008
4299,969.37,0.9998,-0.0092
4302,969.871,0.9998,-0.0094
4305,970.373,0.9998,-0.0104
4308,970.873,0.9998,-0.0107
4311,971.375,1.0001,-0.0118
4314,971.877,1.0024,-0.0113
4317,972.379,1.0011,-0.0122
4320,972.879,0.9998,-0.0128
4323,973.277,0.9998,0