File: Wood/Calibration_Data/TEMPLATE-INSTITUTE-X/INSTITUTE-X_Gasification_25kW_R1.csv
Time (s),Mass (g),TC back 1 (K),TC back 2 (K),TC back 3 (K)
0,69.1,297.55,297.55,NaN
1,69.248,297.41,297.41,NaN
2,69.105,297.38,297.38,NaN
3,69.082,297.42,297.42,NaN
4,69.128,297.49,297.49,NaN
5,69.136,297.49,297.49,NaN
6,69.188,297.48,297.48,NaN
7,69.044,297.42,297.42,NaN
8,69.173,297.41,297.41,NaN
9,69.294,297.41,297.41,NaN
10,69.2,297.51,297.51,NaN
11,69.231,297.49,297.49,NaN
12,69.196,297.46,297.46,NaN
13,69.054,297.51,297.51,NaN
14,69.175,297.55,297.55,NaN
15,69.151,297.57,297.57,NaN
16,69.123,297.67,297.67,NaN
17,69.198,297.78,297.78,NaN
18,69.192,297.84,297.84,NaN
19,68.934,298.04,298.04,NaN
20,69.116,298.2,298.2,NaN
21,69.239,298.35,298.35,NaN
22,69.045,298.49,298.49,NaN
23,69.132,298.78,298.78,NaN
24,69.218,299,299,NaN
25,69.172,299.25,299.25,NaN
26,69.159,299.52,299.52,NaN
27,68.992,299.8,299.8,NaN
28,69.064,300.24,300.24,NaN
29,69.143,300.51,300.51,NaN
30,68.955,300.94,300.94,NaN
31,69.126,301.37,301.37,NaN
32,69.087,301.8,301.8,NaN
33,69.061,302.26,302.26,NaN
34,69.167,302.73,302.73,NaN
35,69.018,303.25,303.25,NaN
36,69.132,303.83,303.83,NaN
37,69.14,304.37,304.37,NaN
38,68.989,304.97,304.97,NaN
39,69.117,305.53,305.53,NaN
40,69.15,305.94,305.94,NaN
41,69.165,306.55,306.55,NaN
42,69.001,307.17,307.17,NaN
43,69.046,307.85,307.85,NaN
44,69.056,308.5,308.5,NaN
45,68.951,309.13,309.13,NaN
46,69.075,309.78,309.78,NaN
47,68.963,310.49,310.49,NaN
48,68.965,311.25,311.25,NaN
49,69.068,311.94,311.94,NaN
50,69.018,312.6,312.6,NaN
51,69.168,313.33,313.33,NaN
52,69.008,314.12,314.12,NaN
53,69.011,314.85,314.85,NaN
54,69.021,315.46,315.46,NaN
55,69.005,316.02,316.02,NaN
56,69.027,316.78,316.78,NaN
57,68.966,317.52,317.52,NaN
58,69.071,318.25,318.25,NaN
59,68.961,319.08,319.08,NaN
60,68.876,319.98,319.98,NaN
61,69.077,320.75,320.75,NaN
62,68.87,321.59,321.59,NaN
63,69.032,322.35,322.35,NaN
64,69.135,323.15,323.15,NaN
65,68.767,324.05,324.05,NaN
66,68.915,324.95,324.95,NaN
67,68.965,325.78,325.78,NaN
68,68.776,326.61,326.61,NaN
69,68.955,327.4,327.4,NaN
70,68.922,328.24,328.24,NaN
71,68.809,329.05,329.05,NaN
72,68.864,329.88,329.88,NaN
73,68.899,330.76,330.76,NaN
74,69.031,331.56,331.56,NaN
75,68.961,332.39,332.39,NaN
76,68.901,333.3,333.3,NaN
77,68.994,334.15,334.15,NaN
78,68.99,335,335,NaN
79,68.979,335.65,335.65,NaN
80,68.866,336.54,336.54,NaN
81,68.853,337.42,337.42,NaN
82,69.074,338.3,338.3,NaN
83,68.819,339.12,339.12,NaN
84,68.833,339.96,339.96,NaN
85,69.062,340.74,340.74,NaN
86,68.924,341.56,341.56,NaN
87,68.953,342.42,342.42,NaN
88,69.048,343.33,343.33,NaN
89,68.938,344.18,344.18,NaN
90,68.874,344.99,344.99,NaN
91,68.784,345.84,345.84,NaN
92,68.819,346.69,346.69,NaN
93,68.831,347.45,347.45,NaN
94,68.989,348.29,348.29,NaN
95,69.051,349.21,349.21,NaN
96,68.868,350.02,350.02,NaN
97,68.81,350.83,350.83,NaN
98,68.925,351.64,351.64,NaN
99,68.798,352.44,352.44,NaN
100,68.87,353.26,353.26,NaN
101,69.016,354.11,354.11,NaN
102,68.782,354.99,354.99,NaN
103,68.853,355.7,355.7,NaN
104,68.859,356.38,356.38,NaN
105,68.739,357.27,357.27,NaN
106,68.918,358.08,358.08,NaN
107,69.054,358.9,358.9,NaN
108,68.881,359.75,359.75,NaN
109,68.883,360.56,360.56,NaN
110,68.812,361.37,361.37,NaN
111,68.879,362.13,362.13,NaN
112,68.765,362.96,362.96,NaN
113,68.925,363.75,363.75,NaN
114,68.808,364.53,364.53,NaN
115,68.714,365.3,365.3,NaN
116,68.847,366.11,366.11,NaN
117,68.833,366.87,366.87,NaN
118,68.967,367.61,367.61,NaN
119,68.798,368.39,368.39,NaN
120,68.744,369.11,369.11,NaN
121,68.8,369.85,369.85,NaN
122,68.76,370.65,370.65,NaN
123,68.676,371.42,371.42,NaN
124,68.663,372.09,372.09,NaN
125,68.735,372.84,372.84,NaN
126,68.594,373.56,373.56,NaN
127,68.65,374.27,374.27,NaN
128,68.719,374.96,374.96,NaN
129,68.644,375.61,375.61,NaN
130,68.682,376.33,376.33,NaN
131,68.616,376.98,376.98,NaN
132,68.592,377.68,377.68,NaN
133,68.678,378.31,378.31,NaN
134,68.546,378.96,378.96,NaN
135,68.656,379.54,379.54,NaN
136,68.532,380.08,380.08,NaN
137,68.609,380.46,380.46,NaN
138,68.441,381.23,381.23,NaN
139,68.492,381.8,381.8,NaN
140,68.543,382.38,382.38,NaN
141,68.501,382.89,382.89,NaN
142,68.536,383.45,383.45,NaN
143,68.365,383.97,383.97,NaN
144,68.511,384.51,384.51,NaN
145,68.342,385.06,385.06,NaN
146,68.452,385.55,385.55,NaN
147,68.436,386.08,386.08,NaN
148,68.282,386.69,386.69,NaN
149,68.463,387.28,387.28,NaN
150,68.406,387.85,387.85,NaN
151,68.198,388.47,388.47,NaN
152,68.155,389.03,389.03,NaN
153,68.274,389.63,389.63,NaN
154,68.243,390.16,390.16,NaN
155,68.187,390.74,390.74,NaN
156,68.222,391.26,391.26,NaN
157,68.325,391.86,391.86,NaN
158,68.065,392.45,392.45,NaN
159,68.103,393.04,393.04,NaN
160,68.121,393.67,393.67,NaN
161,68.13,394.26,394.26,NaN
162,68.237,394.84,394.84,NaN
163,67.997,395.44,395.44,NaN
164,68.068,395.98,395.98,NaN
165,68.233,396.6,396.6,NaN
166,68.066,397.23,397.23,NaN
167,67.952,397.85,397.85,NaN
168,67.943,398.47,398.47,NaN
169,67.87,399.07,399.07,NaN
170,67.78,399.68,399.68,NaN
171,67.918,400.22,400.22,NaN
172,67.881,400.76,400.76,NaN
173,67.724,401.33,401.33,NaN
174,67.811,401.81,401.81,NaN
175,67.818,402.38,402.38,NaN
176,67.665,402.89,402.89,NaN
177,67.65,403.39,403.39,NaN
178,67.726,403.96,403.96,NaN
179,67.626,404.46,404.46,NaN
180,67.603,404.95,404.95,NaN
181,67.598,405.43,405.43,NaN
182,67.445,406.01,406.01,NaN
183,67.601,406.5,406.5,NaN
184,67.441,406.91,406.91,NaN
185,67.253,407.41,407.41,NaN
186,67.411,407.99,407.99,NaN
187,67.363,408.46,408.46,NaN
188,67.325,408.99,408.99,NaN
189,67.24,409.5,409.5,NaN
190,67.303,410.03,410.03,NaN
191,67.293,410.55,410.55,NaN
192,67.206,411.07,411.07,NaN
193,67.228,411.61,411.61,NaN
194,67.134,412.15,412.15,NaN
195,67.102,412.67,412.67,NaN
196,67.156,413.14,413.14,NaN
197,67.057,413.64,413.64,NaN
198,66.865,414.15,414.15,NaN
199,67.065,414.69,414.69,NaN
200,66.872,415.16,415.16,NaN
201,66.869,415.69,415.69,NaN
202,66.76,416.14,416.14,NaN
203,66.84,416.65,416.65,NaN
204,66.775,417.15,417.15,NaN
205,66.718,417.65,417.65,NaN
206,66.753,418.16,418.16,NaN
207,66.571,418.66,418.66,NaN
208,66.644,419.13,419.13,NaN
209,66.692,419.46,419.46,NaN
210,66.439,420,420,NaN
211,66.545,420.5,420.5,NaN
212,66.475,421.02,421.02,NaN
213,66.253,421.49,421.49,NaN
214,66.52,421.98,421.98,NaN
215,66.446,422.47,422.47,NaN
216,66.278,422.89,422.89,NaN
217,66.299,423.34,423.34,NaN
218,66.122,423.77,423.77,NaN
219,66.007,424.25,424.25,NaN
220,65.978,424.7,424.7,NaN
221,66.124,425.15,425.15,NaN
222,65.988,425.57,425.57,NaN
223,65.928,426.08,426.08,NaN
224,65.976,426.48,426.48,NaN
225,65.882,426.92,426.92,NaN
226,65.842,427.35,427.35,NaN
227,65.789,427.78,427.78,NaN
228,65.76,428.22,428.22,NaN
229,65.625,428.64,428.64,NaN
230,65.659,429.03,429.03,NaN
231,65.547,429.5,429.5,NaN
232,65.685,429.94,429.94,NaN
233,65.411,430.39,430.39,NaN
234,65.365,430.76,430.76,NaN
235,65.322,431.22,431.22,NaN
236,65.305,431.64,431.64,NaN
237,65.227,432.03,432.03,NaN
238,65.262,432.49,432.49,NaN
239,65.137,432.9,432.9,NaN
240,65.103,433.34,433.34,NaN
241,64.953,433.73,433.73,NaN
242,65.043,434.12,434.12,NaN
243,65.035,434.55,434.55,NaN
244,64.909,434.97,434.97,NaN
245,64.847,435.33,435.33,NaN
246,64.714,435.72,435.72,NaN
247,64.82,436.14,436.14,NaN
248,64.664,436.54,436.54,NaN
249,64.733,436.9,436.9,NaN
250,64.45,437.22,437.22,NaN
251,64.525,437.58,437.58,NaN
252,64.314,437.97,437.97,NaN
253,64.42,438.35,438.35,NaN
254,64.383,438.73,438.73,NaN
255,64.475,439.07,439.07,NaN
256,64.313,439.43,439.43,NaN
257,64.227,439.72,439.72,NaN
258,64.147,440.16,440.16,NaN
259,64.027,440.51,440.51,NaN
260,64.112,440.82,440.82,NaN
261,63.813,441.12,441.12,NaN
262,63.946,441.35,441.35,NaN
263,63.861,441.66,441.66,NaN
264,63.826,442.04,442.04,NaN
265,63.6,442.33,442.33,NaN
266,63.672,442.49,442.49,NaN
267,63.709,442.58,442.58,NaN
268,63.52,442.73,442.73,NaN
269,63.43,442.97,442.97,NaN
270,63.565,443.23,443.23,NaN
271,63.425,443.51,443.51,NaN
272,63.349,443.82,443.82,NaN
273,63.293,444.09,444.09,NaN
274,63.266,444.44,444.44,NaN
275,63.255,444.78,444.78,NaN
276,63.118,445.08,445.08,NaN
277,63.005,445.43,445.43,NaN
278,62.933,445.78,445.78,NaN
279,62.881,446.12,446.12,NaN
280,62.808,446.41,446.41,NaN
281,62.943,446.78,446.78,NaN
282,62.744,447.08,447.08,NaN
283,62.634,447.41,447.41,NaN
284,62.757,447.68,447.68,NaN
285,62.444,448.02,448.02,NaN
286,62.466,448.3,448.3,NaN
287,62.516,448.69,448.69,NaN
288,62.311,448.97,448.97,NaN
289,62.37,449.31,449.31,NaN
290,62.252,449.6,449.6,NaN
291,62.186,449.89,449.89,NaN
292,62.182,450.24,450.24,NaN
293,62.055,450.54,450.54,NaN
294,62.073,450.81,450.81,NaN
295,61.956,451.15,451.15,NaN
296,61.777,451.41,451.41,NaN
297,61.746,451.71,451.71,NaN
298,61.731,452.02,452.02,NaN
299,61.615,452.21,452.21,NaN
300,61.593,452.58,452.58,NaN
301,61.534,452.84,452.84,NaN
302,61.358,453.14,453.14,NaN
303,61.485,453.44,453.44,NaN
304,61.446,453.74,453.74,NaN
305,61.17,454.06,454.06,NaN
306,61.392,454.33,454.33,NaN
307,61.133,454.61,454.61,NaN
308,61.036,454.83,454.83,NaN
309,61.084,455.16,455.16,NaN
310,60.909,455.49,455.49,NaN
311,60.879,455.72,455.72,NaN
312,60.772,456.04,456.04,NaN
313,60.857,456.27,456.27,NaN
314,60.779,456.63,456.63,NaN
315,60.441,456.82,456.82,NaN
316,60.729,457.05,457.05,NaN
317,60.461,457.26,457.26,NaN
318,60.521,457.61,457.61,NaN
319,60.511,457.86,457.86,NaN
320,60.47,458.11,458.11,NaN
321,60.293,458.38,458.38,NaN
322,60.266,458.63,458.63,NaN
323,60.199,458.74,458.74,NaN
324,60.058,459.11,459.11,NaN
325,60.046,459.4,459.4,NaN
326,59.904,459.66,459.66,NaN
327,59.904,459.98,459.98,NaN
328,59.88,460.23,460.23,NaN
329,59.697,460.45,460.45,NaN
330,59.614,460.71,460.71,NaN
331,59.67,460.97,460.97,NaN
332,59.555,461.3,461.3,NaN
333,59.415,461.54,461.54,NaN
334,59.318,461.86,461.86,NaN
335,59.273,462.07,462.07,NaN
336,59.219,462.3,462.3,NaN
337,59.19,462.56,462.56,NaN
338,59.162,462.86,462.86,NaN
339,58.969,463.1,463.1,NaN
340,58.985,463.33,463.33,NaN
341,58.922,463.56,463.56,NaN
342,58.776,463.82,463.82,NaN
343,58.814,464.01,464.01,NaN
344,58.722,464.29,464.29,NaN
345,58.573,464.59,464.59,NaN
346,58.44,464.85,464.85,NaN
347,58.41,465,465,NaN
348,58.34,465.22,465.22,NaN
349,58.131,465.44,465.44,NaN
350,58.217,465.71,465.71,NaN
351,58.207,465.96,465.96,NaN
352,58.057,466.22,466.22,NaN
353,57.883,466.41,466.41,NaN
354,57.902,466.69,466.69,NaN
355,57.95,466.88,466.88,NaN
356,57.668,467.2,467.2,NaN
357,57.608,467.43,467.43,NaN
358,57.587,467.67,467.67,NaN
359,57.389,467.94,467.94,NaN
360,57.406,468.11,468.11,NaN
361,57.414,468.31,468.31,NaN
362,57.27,468.55,468.55,NaN
363,57.145,468.78,468.78,NaN
364,57.067,468.97,468.97,NaN
365,57.015,469.17,469.17,NaN
366,56.817,469.32,469.32,NaN
367,56.878,469.55,469.55,NaN
368,56.773,469.79,469.79,NaN
369,56.587,470.02,470.02,NaN
370,56.7,470.18,470.18,NaN
371,56.443,470.43,470.43,NaN
372,56.455,470.62,470.62,NaN
373,56.428,470.86,470.86,NaN
374,56.201,471.03,471.03,NaN
375,56.302,471.14,471.14,NaN
376,56.021,471.35,471.35,NaN
377,56.127,471.6,471.6,NaN
378,56.009,471.78,471.78,NaN
379,55.892,471.91,471.91,NaN
380,55.911,472.15,472.15,NaN
381,55.646,472.35,472.35,NaN
382,55.67,472.56,472.56,NaN
383,55.479,472.78,472.78,NaN
384,55.448,472.95,472.95,NaN
385,55.449,473.12,473.12,NaN
386,55.296,473.35,473.35,NaN
387,55.333,473.54,473.54,NaN
388,55.037,473.79,473.79,NaN
389,55.161,473.95,473.95,NaN
390,54.982,474.21,474.21,NaN
391,54.992,474.41,474.41,NaN
392,54.862,474.76,474.76,NaN
393,54.74,474.86,474.86,NaN
394,54.596,475.01,475.01,NaN
395,54.554,475.21,475.21,NaN
396,54.433,475.39,475.39,NaN
397,54.342,475.6,475.6,NaN
398,54.328,475.86,475.86,NaN
399,54.271,476.09,476.09,NaN
400,54.14,476.26,476.26,NaN
401,54.165,476.44,476.44,NaN
402,54.054,476.63,476.63,NaN
403,53.744,476.76,476.76,NaN
404,53.776,477.02,477.02,NaN
405,53.806,477.19,477.19,NaN
406,53.533,477.3,477.3,NaN
407,53.52,477.48,477.48,NaN
408,53.48,477.57,477.57,NaN
409,53.289,477.79,477.79,NaN
410,53.33,477.98,477.98,NaN
411,53.261,478.16,478.16,NaN
412,53.11,478.36,478.36,NaN
413,53.048,478.49,478.49,NaN
414,53.029,478.66,478.66,NaN
415,52.833,478.78,478.78,NaN
416,52.638,478.95,478.95,NaN
417,52.744,479,479,NaN
418,52.64,479.1,479.1,NaN
419,52.48,479.31,479.31,NaN
420,52.488,479.56,479.56,NaN
421,52.294,479.73,479.73,NaN
422,52.333,480.04,480.04,NaN
423,52.189,480.23,480.23,NaN
424,52.241,480.44,480.44,NaN
425,51.873,480.66,480.66,NaN
426,52.042,480.8,480.8,NaN
427,51.874,480.98,480.98,NaN
428,51.72,481.26,481.26,NaN
429,51.765,481.33,481.33,NaN
430,51.516,481.65,481.65,NaN
431,51.53,481.74,481.74,NaN
432,51.354,481.87,481.87,NaN
433,51.468,482.01,482.01,NaN
434,51.232,482.24,482.24,NaN
435,51.05,482.49,482.49,NaN
436,51.245,482.76,482.76,NaN
437,51.045,482.95,482.95,NaN
438,50.979,483.07,483.07,NaN
439,50.773,483.31,483.31,NaN
440,50.792,483.41,483.41,NaN
441,50.645,483.58,483.58,NaN
442,50.495,483.65,483.65,NaN
443,50.438,483.85,483.85,NaN
444,50.216,483.95,483.95,NaN
445,50.262,484.17,484.17,NaN
446,50.2,484.3,484.3,NaN
447,49.987,484.51,484.51,NaN
448,50.008,484.65,484.65,NaN
449,49.762,484.71,484.71,NaN
450,49.83,485.08,485.08,NaN
451,49.764,485.19,485.19,NaN
452,49.609,485.42,485.42,NaN
453,49.578,485.46,485.46,NaN
454,49.327,485.64,485.64,NaN
455,49.438,485.77,485.77,NaN
456,49.212,485.97,485.97,NaN
457,49.184,486.09,486.09,NaN
458,49.171,486.25,486.25,NaN
459,48.877,486.34,486.34,NaN
460,48.908,486.41,486.41,NaN
461,48.834,486.57,486.57,NaN
462,48.822,486.71,486.71,NaN
463,48.659,486.82,486.82,NaN
464,48.582,486.8,486.8,NaN
465,48.522,487.03,487.03,NaN
466,48.429,487.18,487.18,NaN
467,48.256,487.31,487.31,NaN
468,48.05,487.5,487.5,NaN
469,48.015,487.66,487.66,NaN
470,48.142,487.81,487.81,NaN
471,47.777,488.07,488.07,NaN
472,47.803,488.05,488.05,NaN
473,47.681,488.13,488.13,NaN
474,47.709,488.32,488.32,NaN
475,47.387,488.45,488.45,NaN
476,47.462,488.6,488.6,NaN
477,47.251,488.71,488.71,NaN
478,47.207,488.95,488.95,NaN
479,47.227,489.18,489.18,NaN
480,47.05,489.34,489.34,NaN
481,46.913,489.45,489.45,NaN
482,46.776,489.5,489.5,NaN
483,46.792,489.66,489.66,NaN
484,46.713,489.75,489.75,NaN
485,46.357,489.9,489.9,NaN
486,46.483,490.14,490.14,NaN
487,46.255,490.22,490.22,NaN
488,46.301,490.29,490.29,NaN
489,46.19,490.48,490.48,NaN
490,46.176,490.64,490.64,NaN
491,46.062,490.74,490.74,NaN
492,45.924,490.84,490.84,NaN
493,45.959,490.93,490.93,NaN
494,45.654,491.14,491.14,NaN
495,45.767,491.2,491.2,NaN
496,45.503,491.31,491.31,NaN
497,45.415,491.42,491.42,NaN
498,45.291,491.55,491.55,NaN
499,45.41,491.56,491.56,NaN
500,45.132,491.67,491.67,NaN
501,44.941,491.87,491.87,NaN
502,45.032,491.97,491.97,NaN
503,44.943,492.08,492.08,NaN
504,44.689,492.21,492.21,NaN
505,44.826,492.25,492.25,NaN
506,44.698,492.32,492.32,NaN
507,44.43,492.44,492.44,NaN
508,44.34,492.53,492.53,NaN
509,44.325,492.71,492.71,NaN
510,44.226,492.96,492.96,NaN
511,44.11,493.05,493.05,NaN
512,43.955,493.1,493.1,NaN
513,43.879,493.25,493.25,NaN
514,43.882,493.46,493.46,NaN
515,43.62,493.68,493.68,NaN
516,43.634,493.76,493.76,NaN
517,43.497,493.71,493.71,NaN
518,43.512,493.95,493.95,NaN
519,43.354,494.14,494.14,NaN
520,43.14,494.23,494.23,NaN
521,43.203,494.36,494.36,NaN
522,42.916,494.48,494.48,NaN
523,42.961,494.66,494.66,NaN
524,42.73,494.82,494.82,NaN
525,42.871,494.99,494.99,NaN
526,42.534,495.01,495.01,NaN
527,42.56,495.14,495.14,NaN
528,42.326,495.34,495.34,NaN
529,42.295,495.41,495.41,NaN
530,42.332,495.63,495.63,NaN
531,42.089,495.74,495.74,NaN
532,42.14,495.84,495.84,NaN
533,41.96,496,496,NaN
534,41.768,496.15,496.15,NaN
535,41.738,496.25,496.25,NaN
536,41.534,496.4,496.4,NaN
537,41.593,496.52,496.52,NaN
538,41.393,496.59,496.59,NaN
539,41.333,496.68,496.68,NaN
540,41.392,496.88,496.88,NaN
541,41.085,497.02,497.02,NaN
542,41.13,497.02,497.02,NaN
543,40.883,497.13,497.13,NaN
544,40.892,497.29,497.29,NaN
545,40.651,497.42,497.42,NaN
546,40.645,497.64,497.64,NaN
547,40.469,497.69,497.69,NaN
548,40.357,497.83,497.83,NaN
549,40.274,497.96,497.96,NaN
550,40.078,498.1,498.1,NaN
551,40.093,498.16,498.16,NaN
552,40.024,498.36,498.36,NaN
553,39.869,498.46,498.46,NaN
554,39.817,498.47,498.47,NaN
555,39.751,498.74,498.74,NaN
556,39.503,498.94,498.94,NaN
557,39.556,498.98,498.98,NaN
558,39.421,499.19,499.19,NaN
559,39.245,499.29,499.29,NaN
560,39.306,499.49,499.49,NaN
561,39.075,499.64,499.64,NaN
562,38.934,499.83,499.83,NaN
563,38.857,499.95,499.95,NaN
564,38.766,499.97,499.97,NaN
565,38.646,500.05,500.05,NaN
566,38.562,500.2,500.2,NaN
567,38.463,500.41,500.41,NaN
568,38.332,500.48,500.48,NaN
569,38.333,500.61,500.61,NaN
570,38.168,500.94,500.94,NaN
571,38.087,501.05,501.05,NaN
572,37.937,500.99,500.99,NaN
573,37.906,501.04,501.04,NaN
574,37.772,501.14,501.14,NaN
575,37.621,501.5,501.5,NaN
576,37.681,501.65,501.65,NaN
577,37.387,501.67,501.67,NaN
578,37.198,501.82,501.82,NaN
579,37.243,501.92,501.92,NaN
580,37.196,502.08,502.08,NaN
581,36.943,501.99,501.99,NaN
582,36.921,502.11,502.11,NaN
583,36.822,502.24,502.24,NaN
584,36.763,502.37,502.37,NaN
585,36.623,502.49,502.49,NaN
586,36.573,502.62,502.62,NaN
587,36.323,502.64,502.64,NaN
588,36.186,502.83,502.83,NaN
589,36.288,503.07,503.07,NaN
590,36.291,503.15,503.15,NaN
591,35.96,503.22,503.22,NaN
592,36.04,503.44,503.44,NaN
593,35.839,503.62,503.62,NaN
594,35.712,503.81,503.81,NaN
595,35.756,504.01,504.01,NaN
596,35.388,504.05,504.05,NaN
597,35.405,504.25,504.25,NaN
598,35.406,504.33,504.33,NaN
599,35.126,504.44,504.44,NaN
600,35.077,504.53,504.53,NaN
601,35.137,504.63,504.63,NaN
602,34.886,504.87,504.87,NaN
603,34.824,504.94,504.94,NaN
604,34.755,505.1,505.1,NaN
605,34.695,505.27,505.27,NaN
606,34.451,505.38,505.38,NaN
607,34.459,505.61,505.61,NaN
608,34.303,505.83,505.83,NaN
609,34.003,505.91,505.91,NaN
610,34.034,506.01,506.01,NaN
611,33.922,506.2,506.2,NaN
612,33.823,506.34,506.34,NaN
613,33.673,506.46,506.46,NaN
614,33.508,506.58,506.58,NaN
615,33.627,506.67,506.67,NaN
616,33.529,506.83,506.83,NaN
617,33.289,506.96,506.96,NaN
618,33.148,507.1,507.1,NaN
619,33.202,507.31,507.31,NaN
620,32.958,507.39,507.39,NaN
621,32.837,507.62,507.62,NaN
622,32.968,507.73,507.73,NaN
623,32.659,507.66,507.66,NaN
624,32.586,507.99,507.99,NaN
625,32.646,508.02,508.02,NaN
626,32.298,508.26,508.26,NaN
627,32.214,508.5,508.5,NaN
628,32.152,508.45,508.45,NaN
629,32.118,508.73,508.73,NaN
630,31.947,508.92,508.92,NaN
631,31.757,509.04,509.04,NaN
632,31.782,509.2,509.2,NaN
633,31.593,509.4,509.4,NaN
634,31.342,509.48,509.48,NaN
635,31.472,509.61,509.61,NaN
636,31.333,509.82,509.82,NaN
637,31.193,509.92,509.92,NaN
638,31.08,510.15,510.15,NaN
639,30.905,510.16,510.16,NaN
640,30.868,510.29,510.29,NaN
641,30.778,510.53,510.53,NaN
642,30.705,510.66,510.66,NaN
643,30.476,510.68,510.68,NaN
644,30.382,510.82,510.82,NaN
645,30.29,511.08,511.08,NaN
646,30.147,511.26,511.26,NaN
647,30.003,511.36,511.36,NaN
648,29.816,511.46,511.46,NaN
649,29.94,511.54,511.54,NaN
650,29.87,511.7,511.7,NaN
651,29.786,511.86,511.86,NaN
652,29.646,511.91,511.91,NaN
653,29.529,512.09,512.09,NaN
654,29.254,512.08,512.08,NaN
655,29.192,512.28,512.28,NaN
656,29.1,512.28,512.28,NaN
657,29.005,512.49,512.49,NaN
658,28.958,512.69,512.69,NaN
659,28.777,512.82,512.82,NaN
660,28.661,512.77,512.77,NaN
661,28.412,512.94,512.94,NaN
662,28.553,513.28,513.28,NaN
663,28.319,513.33,513.33,NaN
664,28.256,513.5,513.5,NaN
665,28.139,513.55,513.55,NaN
666,28.042,513.84,513.84,NaN
667,27.872,513.94,513.94,NaN
668,27.734,514.02,514.02,NaN
669,27.86,514.2,514.2,NaN
670,27.547,514.47,514.47,NaN
671,27.579,514.79,514.79,NaN
672,27.26,514.87,514.87,NaN
673,27.199,514.94,514.94,NaN
674,27.158,514.99,514.99,NaN
675,27.07,515.05,515.05,NaN
676,27.009,515.19,515.19,NaN
677,26.683,515.38,515.38,NaN
678,26.764,515.51,515.51,NaN
679,26.603,515.58,515.58,NaN
680,26.42,515.88,515.88,NaN
681,26.472,515.94,515.94,NaN
682,26.062,516.17,516.17,NaN
683,25.951,516.23,516.23,NaN
684,26.106,516.36,516.36,NaN
685,25.834,516.46,516.46,NaN
686,25.782,516.62,516.62,NaN
687,25.707,516.69,516.69,NaN
688,25.634,516.91,516.91,NaN
689,25.502,516.88,516.88,NaN
690,25.474,517.12,517.12,NaN
691,25.333,517.17,517.17,NaN
692,25.17,517.33,517.33,NaN
693,25.165,517.49,517.49,NaN
694,25.083,517.78,517.78,NaN
695,24.805,517.88,517.88,NaN
696,24.784,518.05,518.05,NaN
697,24.702,518.13,518.13,NaN
698,24.545,518.16,518.16,NaN
699,24.478,518.24,518.24,NaN
700,24.429,518.33,518.33,NaN
701,24.104,518.34,518.34,NaN
702,24.127,518.68,518.68,NaN
703,24.11,518.88,518.88,NaN
704,23.91,518.87,518.87,NaN
705,23.865,518.95,518.95,NaN
706,23.611,519.23,519.23,NaN
707,23.646,519.41,519.41,NaN
708,23.465,519.29,519.29,NaN
709,23.391,519.4,519.4,NaN
710,23.269,519.52,519.52,NaN
711,23.155,519.83,519.83,NaN
712,23.176,519.97,519.97,NaN
713,22.974,520.09,520.09,NaN
714,22.834,520.27,520.27,NaN
715,22.87,520.51,520.51,NaN
716,22.632,520.66,520.66,NaN
717,22.634,520.82,520.82,NaN
718,22.429,520.95,520.95,NaN
719,22.215,521.11,521.11,NaN
720,22.298,521.18,521.18,NaN
721,22.173,521.26,521.26,NaN
722,21.89,521.39,521.39,NaN
723,21.846,521.43,521.43,NaN
724,21.727,521.78,521.78,NaN
725,21.633,521.93,521.93,NaN
726,21.403,522.01,522.01,NaN
727,21.274,522.23,522.23,NaN
728,21.361,522.31,522.31,NaN
729,21.17,522.32,522.32,NaN
730,21.016,522.49,522.49,NaN
731,21.123,522.71,522.71,NaN
732,20.838,522.85,522.85,NaN
733,20.717,522.89,522.89,NaN
734,20.58,523.14,523.14,NaN
735,20.368,523.15,523.15,NaN
736,20.442,523.38,523.38,NaN
737,20.339,523.44,523.44,NaN
738,20.234,523.66,523.66,NaN
739,20.16,523.71,523.71,NaN
740,19.842,523.74,523.74,NaN
741,19.793,523.89,523.89,NaN
742,19.881,523.99,523.99,NaN
743,19.713,524.05,524.05,NaN
744,19.52,524.45,524.45,NaN
745,19.448,524.58,524.58,NaN
746,19.259,524.77,524.77,NaN
747,19.247,524.75,524.75,NaN
748,19.073,524.97,524.97,NaN
749,18.775,525.18,525.18,NaN
750,18.873,525.13,525.13,NaN
751,18.742,525.35,525.35,NaN
752,18.77,525.51,525.51,NaN
753,18.484,525.59,525.59,NaN
754,18.263,525.79,525.79,NaN
755,18.446,526.03,526.03,NaN
756,18.276,526.14,526.14,NaN
757,18.003,526,526,NaN
758,17.981,526.12,526.12,NaN
759,17.843,526.32,526.32,NaN
760,17.742,526.38,526.38,NaN
761,17.689,526.52,526.52,NaN
762,17.667,526.59,526.59,NaN
763,17.559,526.82,526.82,NaN
764,17.323,527.14,527.14,NaN
765,17.273,527.23,527.23,NaN
766,17.177,527.47,527.47,NaN
767,17.204,527.61,527.61,NaN
768,17.033,527.81,527.81,NaN
769,16.752,527.92,527.92,NaN
770,16.911,528.05,528.05,NaN
771,16.646,528.09,528.09,NaN
772,16.614,528.32,528.32,NaN
773,16.651,528.37,528.37,NaN
774,16.274,528.61,528.61,NaN
775,16.369,528.77,528.77,NaN
776,16.222,528.87,528.87,NaN
777,15.987,529.04,529.04,NaN
778,16.088,529.12,529.12,NaN
779,15.839,529.26,529.26,NaN
780,15.616,529.24,529.24,NaN
781,15.759,529.35,529.35,NaN
782,15.659,529.56,529.56,NaN
783,15.533,529.53,529.53,NaN
784,15.321,529.59,529.59,NaN
785,15.403,529.73,529.73,NaN
786,15.198,529.95,529.95,NaN
787,15.171,530.26,530.26,NaN
788,15.26,530.42,530.42,NaN
789,14.858,530.58,530.58,NaN
790,14.738,530.68,530.68,NaN
791,14.852,530.79,530.79,NaN
792,14.536,530.92,530.92,NaN
793,14.575,530.96,530.96,NaN
794,14.647,531.05,531.05,NaN
795,14.521,531.17,531.17,NaN
796,14.195,531.4,531.4,NaN
797,14.335,531.63,531.63,NaN
798,14.212,531.74,531.74,NaN
799,14.014,531.78,531.78,NaN
800,14.123,531.92,531.92,NaN
801,13.913,532.09,532.09,NaN
802,13.857,532.23,532.23,NaN
803,13.875,532.53,532.53,NaN
804,13.616,532.52,532.52,NaN
805,13.756,532.62,532.62,NaN
806,13.577,532.78,532.78,NaN
807,13.496,532.89,532.89,NaN
808,13.502,532.96,532.96,NaN
809,13.268,533.03,533.03,NaN
810,13.302,533.2,533.2,NaN
811,13.296,533.41,533.41,NaN
812,13.074,533.66,533.66,NaN
813,13.117,533.58,533.58,NaN
814,12.959,533.84,533.84,NaN
815,12.902,533.99,533.99,NaN
816,12.986,534,534,NaN
817,12.96,534.31,534.31,NaN
818,12.819,534.46,534.46,NaN
819,12.737,534.55,534.55,NaN
820,12.768,534.65,534.65,NaN
821,12.562,534.79,534.79,NaN
822,12.361,534.76,534.76,NaN
823,12.449,534.95,534.95,NaN
824,12.397,535.01,535.01,NaN
825,12.276,535.28,535.28,NaN
826,12.145,535.4,535.4,NaN
827,12.092,535.61,535.61,NaN
828,12.231,535.76,535.76,NaN
829,12.129,535.69,535.69,NaN
830,12.068,535.98,535.98,NaN
831,11.97,536.11,536.11,NaN
832,11.752,536.25,536.25,NaN
833,11.849,536.27,536.27,NaN
834,11.779,536.36,536.36,NaN
835,11.568,536.37,536.37,NaN
836,11.664,536.33,536.33,NaN
837,11.575,536.4,536.4,NaN
838,11.494,536.5,536.5,NaN
839,11.49,536.71,536.71,NaN
840,11.409,536.94,536.94,NaN
841,11.256,537.07,537.07,NaN
842,11.216,537.18,537.18,NaN
843,11.21,537.07,537.07,NaN
844,11.043,537.25,537.25,NaN
845,11.062,537.56,537.56,NaN
846,11.175,537.68,537.68,NaN
847,10.887,537.82,537.82,NaN
848,10.86,537.77,537.77,NaN
849,10.978,537.87,537.87,NaN
850,10.818,537.95,537.95,NaN
851,10.681,538.04,538.04,NaN
852,10.619,538.19,538.19,NaN
853,10.613,538.33,538.33,NaN
854,10.553,538.23,538.23,NaN
855,10.533,538.41,538.41,NaN
856,10.617,538.52,538.52,NaN
857,10.283,538.85,538.85,NaN
858,10.331,538.9,538.9,NaN
859,10.355,539.1,539.1,NaN
860,10.188,539.1,539.1,NaN
861,10.114,539.16,539.16,NaN
862,10.106,539.31,539.31,NaN
863,10.069,539.34,539.34,NaN
864,10.07,539.39,539.39,NaN
865,9.932,539.48,539.48,NaN
866,10.073,539.78,539.78,NaN
867,9.922,540.03,540.03,NaN
868,9.784,540.28,540.28,NaN
869,9.82,540.22,540.22,NaN
870,9.711,540.26,540.26,NaN
871,9.603,540.28,540.28,NaN
872,9.613,540.39,540.39,NaN
873,9.504,540.48,540.48,NaN
874,9.511,540.78,540.78,NaN
875,9.339,540.7,540.7,NaN
876,9.359,540.87,540.87,NaN
877,9.38,541.01,541.01,NaN
878,9.334,540.98,540.98,NaN
879,9.37,541.03,541.03,NaN
880,9.095,541.06,541.06,NaN
881,9.088,541.19,541.19,NaN
882,9.209,541.29,541.29,NaN
883,9.087,541.33,541.33,NaN
884,8.954,541.28,541.28,NaN
885,9.013,541.54,541.54,NaN
886,8.856,541.75,541.75,NaN
887,8.765,541.87,541.87,NaN
888,8.825,542.03,542.03,NaN
889,8.828,542.14,542.14,NaN
890,8.785,542.34,542.34,NaN
891,8.608,542.18,542.18,NaN
892,8.757,542.37,542.37,NaN
893,8.572,542.5,542.5,NaN
894,8.656,542.59,542.59,NaN
895,8.634,542.59,542.59,NaN
896,8.271,542.45,542.45,NaN
897,8.517,542.55,542.55,NaN
898,8.264,542.7,542.7,NaN
899,8.397,542.93,542.93,NaN
900,8.267,542.99,542.99,NaN
901,8.26,542.92,542.92,NaN
902,8.205,543.21,543.21,NaN
903,8.182,543.36,543.36,NaN
904,8.104,543.62,543.62,NaN
905,8.111,543.6,543.6,NaN
906,8.057,543.59,543.59,NaN
907,8.075,543.82,543.82,NaN
908,7.901,543.94,543.94,NaN
909,7.974,543.92,543.92,NaN
910,7.798,543.9,543.9,NaN
911,7.756,544.12,544.12,NaN
912,7.853,544.24,544.24,NaN
913,7.74,544.29,544.29,NaN
914,7.796,544.64,544.64,NaN
915,7.726,544.73,544.73,NaN
916,7.813,544.84,544.84,NaN
917,7.679,544.81,544.81,NaN
918,7.599,544.76,544.76,NaN
919,7.723,544.82,544.82,NaN
920,7.523,545.04,545.04,NaN
921,7.591,545.2,545.2,NaN
922,7.638,545.23,545.23,NaN
923,7.489,545.12,545.12,NaN
924,7.346,545.34,545.34,NaN
925,7.373,545.37,545.37,NaN
926,7.361,545.38,545.38,NaN
927,7.2,545.42,545.42,NaN
928,7.322,545.51,545.51,NaN
929,7.227,545.41,545.41,NaN
930,7.072,545.46,545.46,NaN
931,7.13,545.72,545.72,NaN
932,7.025,545.81,545.81,NaN
933,6.95,545.74,545.74,NaN
934,7.156,545.58,545.58,NaN
935,7.118,545.93,545.93,NaN
936,6.861,545.86,545.86,NaN
937,6.842,545.73,545.73,NaN
938,6.776,545.98,545.98,NaN
939,6.865,546.01,546.01,NaN
940,6.865,546.17,546.17,NaN
941,6.771,546.27,546.27,NaN
942,6.717,546.14,546.14,NaN
943,6.648,546.38,546.38,NaN
944,6.692,546.41,546.41,NaN
945,6.744,546.57,546.57,NaN
946,6.543,546.52,546.52,NaN
947,6.59,546.69,546.69,NaN
948,6.653,546.69,546.69,NaN
949,6.476,546.68,546.68,NaN
950,6.459,546.67,546.67,NaN
951,6.412,546.61,546.61,NaN
952,6.448,546.83,546.83,NaN
953,6.339,546.79,546.79,NaN
954,6.206,547.11,547.11,NaN
955,6.407,547.23,547.23,NaN
956,6.155,547.42,547.42,NaN
957,6.215,547.53,547.53,NaN
958,6.315,547.62,547.62,NaN
959,6.069,547.88,547.88,NaN
960,6.196,548.23,548.23,NaN
961,6.057,548.53,548.53,NaN
962,6.002,548.68,548.68,NaN
963,6.09,548.93,548.93,NaN
964,5.881,549.03,549.03,NaN
965,6.059,549.12,549.12,NaN
966,6.009,548.94,548.94,NaN
967,5.86,549.09,549.09,NaN
968,5.872,549.32,549.32,NaN
969,5.774,549.51,549.51,NaN
970,5.771,549.66,549.66,NaN
971,5.626,549.83,549.83,NaN
972,5.806,549.85,549.85,NaN
973,5.665,550.04,550.04,NaN
974,5.636,550.25,550.25,NaN
975,5.547,550.26,550.26,NaN
976,5.546,550.37,550.37,NaN
977,5.604,550.61,550.61,NaN
978,5.484,550.75,550.75,NaN
979,5.522,551.02,551.02,NaN
980,5.544,551.14,551.14,NaN
981,5.44,551.07,551.07,NaN
982,5.41,551.37,551.37,NaN
983,5.31,551.64,551.64,NaN
984,5.428,551.95,551.95,NaN
985,5.237,552.22,552.22,NaN
986,5.281,552.56,552.56,NaN
987,5.288,552.71,552.71,NaN
988,5.053,552.66,552.66,NaN
989,5.173,553.06,553.06,NaN
990,5.14,553.23,553.23,NaN
991,5.06,553.24,553.24,NaN
992,5.001,553.49,553.49,NaN
993,5.019,553.66,553.66,NaN
994,5.07,553.82,553.82,NaN
995,5.006,553.92,553.92,NaN
996,4.98,553.96,553.96,NaN
997,4.934,553.87,553.87,NaN
998,4.883,554.14,554.14,NaN
999,4.979,553.93,553.93,NaN
1000,4.704,554.23,554.23,NaN
1001,4.787,554.08,554.08,NaN
1002,4.942,554.13,554.13,NaN
1003,4.809,554.33,554.33,NaN
1004,4.715,554.76,554.76,NaN
1005,4.642,555.13,555.13,NaN
1006,4.597,555.37,555.37,NaN
1007,4.727,555.39,555.39,NaN
1008,4.605,555.53,555.53,NaN
1009,4.573,555.89,555.89,NaN
1010,4.649,556.04,556.04,NaN
1011,4.5,555.75,555.75,NaN
1012,4.502,556.11,556.11,NaN
1013,4.546,556.57,556.57,NaN
1014,4.564,556.69,556.69,NaN
1015,4.439,557.1,557.1,NaN
1016,4.299,557.24,557.24,NaN
1017,4.522,557.12,557.12,NaN
1018,4.316,557.69,557.69,NaN
1019,4.146,558.03,558.03,NaN
1020,4.418,558.34,558.34,NaN
1021,4.256,558.58,558.58,NaN
1022,4.176,558.51,558.51,NaN
1023,4.436,558.84,558.84,NaN
1024,4.234,559.36,559.36,NaN
1025,4.18,559.63,559.63,NaN
1026,4.222,559.68,559.68,NaN
1027,4.083,560.03,560.03,NaN
1028,4.093,560.19,560.19,NaN
1029,4.126,560.47,560.47,NaN
1030,4.158,560.71,560.71,NaN
1031,4.058,560.67,560.67,NaN
1032,3.963,561.02,561.02,NaN
1033,3.899,561.04,561.04,NaN
1034,3.987,561.4,561.4,NaN
1035,3.987,561.53,561.53,NaN
1036,3.979,561.76,561.76,NaN
1037,4.011,561.86,561.86,NaN
1038,3.776,562.04,562.04,NaN
1039,3.879,562.25,562.25,NaN
1040,3.912,562.44,562.44,NaN
1041,3.702,562.41,562.41,NaN
1042,3.901,562.65,562.65,NaN
1043,3.707,562.91,562.91,NaN
1044,3.669,563.19,563.19,NaN
1045,3.804,563.3,563.3,NaN
1046,3.706,563.45,563.45,NaN
1047,3.693,563.86,563.86,NaN
1048,3.747,564.03,564.03,NaN
1049,3.733,564.1,564.1,NaN
1050,3.655,564.29,564.29,NaN
1051,3.585,564.55,564.55,NaN
1052,3.64,564.72,564.72,NaN
1053,3.631,564.73,564.73,NaN
1054,3.52,564.74,564.74,NaN
1055,3.427,565.24,565.24,NaN
1056,3.477,565.47,565.47,NaN
1057,3.589,566.02,566.02,NaN
1058,3.503,566.83,566.83,NaN
1059,3.252,567.47,567.47,NaN
1060,3.402,567.74,567.74,NaN
1061,3.522,568.33,568.33,NaN
1062,3.286,568.86,568.86,NaN
1063,3.311,569.15,569.15,NaN
1064,3.43,569.5,569.5,NaN
1065,3.383,569.95,569.95,NaN
1066,3.28,570.05,570.05,NaN
1067,3.21,570.03,570.03,NaN
1068,3.314,570.28,570.28,NaN
1069,3.152,570.92,570.92,NaN
1070,3.2,571.24,571.24,NaN
1071,3.235,571.09,571.09,NaN
1072,3.18,571.18,571.18,NaN
1073,3.15,571.72,571.72,NaN
1074,2.92,571.94,571.94,NaN
1075,3.157,572.37,572.37,NaN
1076,3.171,572.42,572.42,NaN
1077,2.953,572.96,572.96,NaN
1078,3.161,573.26,573.26,NaN
1079,2.848,573.5,573.5,NaN
1080,3.04,573.92,573.92,NaN
1081,2.942,574.13,574.13,NaN
1082,2.916,574.34,574.34,NaN
1083,3.034,574.7,574.7,NaN
1084,2.871,574.87,574.87,NaN
1085,3.009,574.99,574.99,NaN
1086,2.803,575.4,575.4,NaN
1087,2.909,575.54,575.54,NaN
1088,2.798,575.57,575.57,NaN
1089,2.832,575.79,575.79,NaN
1090,2.921,576.38,576.38,NaN
1091,2.728,576.31,576.31,NaN
1092,2.706,576.18,576.18,NaN
1093,2.792,576.41,576.41,NaN
1094,2.666,576.73,576.73,NaN
1095,2.79,576.87,576.87,NaN
1096,2.702,577.25,577.25,NaN
1097,2.813,577.19,577.19,NaN
1098,2.522,577.59,577.59,NaN
1099,2.708,577.92,577.92,NaN
1100,2.516,578.43,578.43,NaN
1101,2.643,578.57,578.57,NaN
1102,2.604,578.8,578.8,NaN
1103,2.622,579.09,579.09,NaN
1104,2.524,579.53,579.53,NaN
1105,2.54,579.85,579.85,NaN
1106,2.547,579.84,579.84,NaN
1107,2.312,579.89,579.89,NaN
1108,2.574,579.88,579.88,NaN
1109,2.539,580.08,580.08,NaN
1110,2.293,580.13,580.13,NaN
1111,2.573,580.54,580.54,NaN
1112,2.372,580.85,580.85,NaN
1113,2.367,580.72,580.72,NaN
1114,2.474,580.87,580.87,NaN
1115,2.283,581.17,581.17,NaN
1116,2.422,581.43,581.43,NaN
1117,2.37,581.68,581.68,NaN
1118,2.425,581.78,581.78,NaN
1119,2.344,582.17,582.17,NaN
1120,2.302,582.19,582.19,NaN
1121,2.401,582.29,582.29,NaN
1122,2.234,582.57,582.57,NaN
1123,2.24,582.9,582.9,NaN
1124,2.455,583.03,583.03,NaN
1125,2.333,583.33,583.33,NaN
1126,2.248,583.88,583.88,NaN
1127,2.254,584.16,584.16,NaN
1128,2.117,584.02,584.02,NaN
1129,2.101,584.13,584.13,NaN
1130,2.211,584.62,584.62,NaN
1131,2.216,584.93,584.93,NaN
1132,2.158,585.39,585.39,NaN
1133,2.295,585.64,585.64,NaN
1134,2.039,586.16,586.16,NaN
1135,2.02,586.2,586.2,NaN
1136,2.281,586.42,586.42,NaN
1137,2.015,587.03,587.03,NaN
1138,2.034,587.37,587.37,NaN
1139,2.263,587.54,587.54,NaN
1140,2.029,587.81,587.81,NaN
1141,1.948,587.83,587.83,NaN
1142,2.102,588.26,588.26,NaN
1143,1.985,588.34,588.34,NaN
1144,1.904,588.53,588.53,NaN
1145,2.113,588.95,588.95,NaN
1146,2.084,588.8,588.8,NaN
1147,1.853,589.09,589.09,NaN
1148,2.047,589.23,589.23,NaN
1149,2.042,589.37,589.37,NaN
1150,1.851,589.73,589.73,NaN
1151,2.063,590.2,590.2,NaN
1152,1.873,590.36,590.36,NaN
1153,1.982,590.98,590.98,NaN
1154,1.981,590.88,590.88,NaN
1155,1.817,590.94,590.94,NaN
1156,2.058,590.93,590.93,NaN
1157,1.837,591.05,591.05,NaN
1158,1.806,591.45,591.45,NaN
1159,1.85,591.43,591.43,NaN
1160,1.739,591.8,591.8,NaN
1161,1.914,592.05,592.05,NaN
1162,1.622,592.25,592.25,NaN
1163,1.858,592.73,592.73,NaN
1164,1.712,592.94,592.94,NaN
1165,1.753,592.81,592.81,NaN
1166,1.7,593.47,593.47,NaN
1167,1.63,593.51,593.51,NaN
1168,1.845,593.98,593.98,NaN
1169,1.668,594.22,594.22,NaN
1170,1.771,594.79,594.79,NaN
1171,1.592,595.33,595.33,NaN
1172,1.699,595.8,595.8,NaN
1173,1.674,596.18,596.18,NaN
1174,1.606,596.09,596.09,NaN
1175,1.627,596.6,596.6,NaN
1176,1.657,597.08,597.08,NaN
1177,1.651,597.5,597.5,NaN
1178,1.541,597.76,597.76,NaN
1179,1.54,597.94,597.94,NaN
1180,1.596,598.49,598.49,NaN
1181,1.511,598.68,598.68,NaN
1182,1.412,599.3,599.3,NaN
1183,1.476,599.57,599.57,NaN
1184,1.393,600.12,600.12,NaN
1185,1.611,600.12,600.12,NaN
1186,1.508,600.41,600.41,NaN
1187,1.508,600.76,600.76,NaN
1188,1.396,601.11,601.11,NaN
1189,1.477,601.32,601.32,NaN
1190,1.349,601.38,601.38,NaN
1191,1.494,601.71,601.71,NaN
1192,1.34,602.08,602.08,NaN
1193,1.403,602.47,602.47,NaN
1194,1.453,602.42,602.42,NaN
1195,1.321,602.56,602.56,NaN
1196,1.374,603.03,603.03,NaN
1197,1.307,602.75,602.75,NaN
1198,1.458,603.09,603.09,NaN
1199,1.325,603.22,603.22,NaN
1200,1.365,603.09,603.09,NaN
1201,1.418,603.23,603.23,NaN
1202,1.117,603.38,603.38,NaN
1203,1.357,603.98,603.98,NaN
1204,1.373,604.84,604.84,NaN
1205,1.102,604.8,604.8,NaN
1206,1.4,605.05,605.05,NaN
1207,1.32,605.39,605.39,NaN
1208,1.083,605.81,605.81,NaN
1209,1.225,606.26,606.26,NaN
1210,1.22,606.53,606.53,NaN
1211,1.191,606.63,606.63,NaN
1212,1.143,606.91,606.91,NaN
1213,1.239,607.02,607.02,NaN
1214,1.199,607.24,607.24,NaN
1215,0.978,607.68,607.68,NaN
1216,1.171,607.59,607.59,NaN
1217,1.202,607.85,607.85,NaN
1218,1.126,607.93,607.93,NaN
1219,1.221,608.31,608.31,NaN
1220,1.205,608.47,608.47,NaN
1221,1.165,608.86,608.86,NaN
1222,1.211,609.27,609.27,NaN
1223,0.892,609.37,609.37,NaN
1224,1.1,609.6,609.6,NaN
1225,1.177,609.76,609.76,NaN
1226,0.965,610.06,610.06,NaN
1227,1.119,610.16,610.16,NaN
1228,1.136,610.81,610.81,NaN
1229,1.028,610.84,610.84,NaN
1230,1.058,610.98,610.98,NaN
1231,1.119,611.41,611.41,NaN
1232,1.105,611.65,611.65,NaN
1233,1.043,611.74,611.74,NaN
1234,0.993,612.46,612.46,NaN
1235,1.129,612.48,612.48,NaN
1236,0.968,612.77,612.77,NaN
1237,1.042,613.16,613.16,NaN
1238,1.092,613.47,613.47,NaN
1239,0.87,613.77,613.77,NaN
1240,0.987,614.13,614.13,NaN
1241,0.934,614.33,614.33,NaN
1242,1.061,614.28,614.28,NaN
1243,0.851,614.23,614.23,NaN
1244,0.966,614.46,614.46,NaN
1245,0.808,615,615,NaN
1246,1.088,614.82,614.82,NaN
1247,0.925,615.23,615.23,NaN
1248,1.043,615.67,615.67,NaN
1249,0.805,615.85,615.85,NaN
1250,0.928,616.08,616.08,NaN
1251,0.816,616.41,616.41,NaN
1252,0.902,616.87,616.87,NaN
1253,0.899,616.86,616.86,NaN
1254,0.98,616.85,616.85,NaN
1255,0.843,617.08,617.08,NaN
1256,0.785,617.68,617.68,NaN
1257,0.834,617.83,617.83,NaN
1258,0.865,618.09,618.09,NaN
1259,0.693,618.13,618.13,NaN
1260,0.806,618.53,618.53,NaN
1261,0.77,618.83,618.83,NaN
1262,0.912,618.82,618.82,NaN
1263,0.697,619.25,619.25,NaN
1264,0.805,619.2,619.2,NaN
1265,0.694,619.66,619.66,NaN
1266,0.725,620.26,620.26,NaN
1267,0.769,620.65,620.65,NaN
1268,0.725,620.73,620.73,NaN
1269,0.699,621.18,621.18,NaN
1270,0.708,620.98,620.98,NaN
1271,0.776,621.36,621.36,NaN
1272,0.734,621.49,621.49,NaN
1273,0.668,622,622,NaN
1274,0.789,622.47,622.47,NaN
1275,0.701,622.44,622.44,NaN
1276,0.666,622.65,622.65,NaN
1277,0.619,623.2,623.2,NaN
1278,0.602,623.15,623.15,NaN
1279,0.66,623.39,623.39,NaN
1280,0.54,623.98,623.98,NaN
1281,0.662,624.27,624.27,NaN
1282,0.578,624.62,624.62,NaN
1283,0.565,625.12,625.12,NaN
1284,0.56,625.31,625.31,NaN
1285,0.548,625.06,625.06,NaN
1286,0.543,625.63,625.63,NaN
1287,0.519,625.64,625.64,NaN
1288,0.566,625.64,625.64,NaN
1289,0.687,626.39,626.39,NaN
1290,0.611,626.6,626.6,NaN
1291,0.594,626.59,626.59,NaN
1292,0.458,627.26,627.26,NaN
1293,0.631,627.43,627.43,NaN
1294,0.411,627.3,627.3,NaN
1295,0.59,627.57,627.57,NaN
1296,0.541,627.66,627.66,NaN
1297,0.502,627.89,627.89,NaN
1298,0.493,628.1,628.1,NaN
1299,0.405,628.2,628.2,NaN
1300,0.563,628.97,628.97,NaN
1301,0.421,629.47,629.47,NaN
1302,0.464,629.83,629.83,NaN
1303,0.425,629.94,629.94,NaN
1304,0.357,629.97,629.97,NaN
1305,0.494,630.01,630.01,NaN
1306,0.329,629.95,629.95,NaN
1307,0.43,630.09,630.09,NaN
1308,0.517,630.57,630.57,NaN
1309,0.455,630.63,630.63,NaN
1310,0.433,631.21,631.21,NaN
1311,0.529,631.35,631.35,NaN
1312,0.408,631.51,631.51,NaN
1313,0.292,631.52,631.52,NaN
1314,0.33,631.5,631.5,NaN
1315,0.507,631.61,631.61,NaN
1316,0.414,632.37,632.37,NaN
1317,0.489,632.52,632.52,NaN
1318,0.494,632.75,632.75,NaN
1319,0.32,633.28,633.28,NaN
1320,0.397,633.69,633.69,NaN
1321,0.419,634.02,634.02,NaN
1322,0.38,634.14,634.14,NaN
1323,0.414,634.22,634.22,NaN
1324,0.4,634.41,634.41,NaN
1325,0.436,634.75,634.75,NaN
1326,0.332,634.95,634.95,NaN
1327,0.414,635.02,635.02,NaN
1328,0.46,635.13,635.13,NaN
1329,0.188,635.43,635.43,NaN
1330,0.475,635.68,635.68,NaN
1331,0.384,635.76,635.76,NaN
1332,0.359,635.7,635.7,NaN
1333,0.48,636.27,636.27,NaN
1334,0.231,637.01,637.01,NaN
1335,0.383,637.17,637.17,NaN
1336,0.225,637.05,637.05,NaN
1337,0.275,637.12,637.12,NaN
1338,0.29,636.87,636.87,NaN
1339,0.229,637.06,637.06,NaN
1340,0.33,637.71,637.71,NaN
1341,0.207,637.87,637.87,NaN
1342,0.264,638.2,638.2,NaN
1343,0.277,638.5,638.5,NaN
1344,0.125,638.73,638.73,NaN
1345,0.198,638.88,638.88,NaN
1346,0.12,638.81,638.81,NaN
1347,0.195,639.39,639.39,NaN
1348,0.185,639.47,639.47,NaN
1349,0.122,639.36,639.36,NaN
1350,0.366,639.69,639.69,NaN
1351,0.118,639.97,639.97,NaN
1352,0.31,640.03,640.03,NaN
1353,0.133,640.57,640.57,NaN
1354,0.336,640.67,640.67,NaN
1355,0.087,640.42,640.42,NaN
1356,0.321,640.87,640.87,NaN
1357,0.128,641.13,641.13,NaN
1358,0.19,641.54,641.54,NaN
1359,0.227,642.18,642.18,NaN
1360,0.071,642.02,642.02,NaN
1361,0.219,641.96,641.96,NaN
1362,-0.024,642.1,642.1,NaN
1363,0.214,642.56,642.56,NaN
1364,0.058,642.87,642.87,NaN
1365,0.153,642.95,642.95,NaN
1366,0.174,643.07,643.07,NaN
1367,0.006,642.97,642.97,NaN
1368,0.146,643.16,643.16,NaN
1369,0.043,643.7,643.7,NaN
1370,0.185,644.15,644.15,NaN
1371,0.067,644.5,644.5,NaN
1372,0.073,644.46,644.46,NaN
1373,0.165,644.61,644.61,NaN
1374,-0.028,644.98,644.98,NaN
1375,0.051,645.33,645.33,NaN
1376,-0.015,645.57,645.57,NaN
1377,-0.016,646.38,646.38,NaN
1378,0.067,646.36,646.36,NaN
1379,0.059,646.06,646.06,NaN
1380,0.029,646.41,646.41,NaN
1381,-0.062,647.03,647.03,NaN
1382,0.07,647.54,647.54,NaN
1383,0.013,647.81,647.81,NaN
1384,0.081,647.54,647.54,NaN
1385,0.002,647.5,647.5,NaN
1386,0.017,647.9,647.9,NaN
1387,0.054,648.04,648.04,NaN
1388,0.047,647.88,647.88,NaN
1389,0.073,648.54,648.54,NaN
1390,-0.065,648.64,648.64,NaN
1391,0.022,648.82,648.82,NaN
1392,-0.063,648.7,648.7,NaN
1393,-0.095,649.35,649.35,NaN
1394,0.001,649.88,649.88,NaN
1395,-0.069,650.1,650.1,NaN
1396,-0.009,650.24,650.24,NaN
1397,-0.077,649.66,649.66,NaN
1398,-0.035,650.02,650.02,NaN
1399,-0.099,650.47,650.47,NaN
1400,-0.053,650.65,650.65,NaN
1401,0.098,650.83,650.83,NaN
1402,-0.091,650.91,650.91,NaN
1403,0.057,651.46,651.46,NaN
1404,-0.004,651.85,651.85,NaN
1405,-0.132,651.72,651.72,NaN
1406,-0.037,651.61,651.61,NaN
1407,-0.163,651.5,651.5,NaN
1408,-0.151,652.07,652.07,NaN
1409,-0.028,652.25,652.25,NaN
1410,-0.228,652.07,652.07,NaN
1411,-0.12,651.87,651.87,NaN
1412,0.053,652.14,652.14,NaN
1413,-0.065,652.62,652.62,NaN
1414,-0.232,652.79,652.79,NaN
1415,-0.105,653.13,653.13,NaN
1416,-0.143,653.18,653.18,NaN
1417,-0.073,652.84,652.84,NaN
1418,-0.089,653.03,653.03,NaN
1419,-0.236,653.44,653.44,NaN
1420,-0.165,653.65,653.65,NaN
1421,-0.289,653.93,653.93,NaN
1422,0.005,654.15,654.15,NaN
1423,-0.125,654.17,654.17,NaN
1424,-0.253,654.28,654.28,NaN
1425,-0.059,654.16,654.16,NaN
1426,-0.158,654.27,654.27,NaN
1427,-0.113,654.44,654.44,NaN
1428,-0.196,654,654,NaN
1429,-0.074,654.28,654.28,NaN
1430,-0.175,654.44,654.44,NaN
1431,-0.155,654.55,654.55,NaN
1432,-0.236,654.49,654.49,NaN
1433,-0.102,655.3,655.3,NaN
1434,-0.198,655.03,655.03,NaN
1435,-0.12,655.01,655.01,NaN
1436,-0.317,655.25,655.25,NaN
1437,-0.145,655.45,655.45,NaN
1438,-0.267,655.69,655.69,NaN
1439,-0.128,655.62,655.62,NaN
1440,-0.219,655.67,655.67,NaN
1441,-0.155,656.17,656.17,NaN
1442,-0.207,656.46,656.46,NaN
1443,-0.205,656.64,656.64,NaN
1444,-0.085,656.69,656.69,NaN
1445,-0.391,656.88,656.88,NaN
1446,-0.117,657.12,657.12,NaN
1447,-0.291,657.22,657.22,NaN
1448,-0.1,657.14,657.14,NaN
1449,-0.331,657.6,657.6,NaN
1450,-0.135,657.29,657.29,NaN
1451,-0.332,657.22,657.22,NaN
1452,-0.23,657.11,657.11,NaN
1453,-0.301,657.18,657.18,NaN
1454,-0.244,657.1,657.1,NaN
1455,-0.282,657.21,657.21,NaN
1456,-0.205,657.56,657.56,NaN
1457,-0.267,657.62,657.62,NaN
1458,-0.215,657.8,657.8,NaN
1459,-0.439,657.97,657.97,NaN
1460,-0.264,658.11,658.11,NaN
1461,-0.299,658.16,658.16,NaN
1462,-0.256,658.42,658.42,NaN
1463,-0.294,658.42,658.42,NaN
1464,-0.322,658.93,658.93,NaN
1465,-0.191,658.59,658.59,NaN
1466,-0.296,658.75,658.75,NaN
1467,-0.228,659.12,659.12,NaN
1468,-0.248,659.19,659.19,NaN
1469,-0.359,658.86,658.86,NaN
1470,-0.343,658.96,658.96,NaN
1471,-0.357,659.25,659.25,NaN
1472,-0.383,659.54,659.54,NaN
1473,-0.384,659.96,659.96,NaN