File: Wood/Calibration_Data/TEMPLATE-INSTITUTE-X/INSTITUTE-X_TGA_N2_20K_r1.csv
time (s),Temperature (K),Mass (mg)
0,325,4.947
3.3,325.5,4.947
6.4,326,4.947
9.2,326.5,4.947
11.9,327,4.947
14.5,327.5,4.946
17,328,4.946
19.4,328.5,4.946
21.7,329,4.946
24,329.5,4.946
26.2,330,4.946
28.3,330.5,4.946
30.4,331,4.946
32.4,331.5,4.947
34.4,332,4.947
36.4,332.5,4.947
38.4,333,4.947
40.3,333.5,4.947
42.2,334,4.946
44,334.5,4.946
45.9,335,4.946
47.7,335.5,4.946
49.5,336,4.946
51.3,336.5,4.946
53.1,337,4.946
54.8,337.5,4.946
56.6,338,4.946
58.3,338.5,4.946
60,339,4.946
61.8,339.5,4.946
63.5,340,4.946
65.1,340.5,4.946
66.8,341,4.946
68.5,341.5,4.946
70.2,342,4.946
71.8,342.5,4.946
73.5,343,4.946
75.1,343.5,4.945
76.8,344,4.945
78.4,344.5,4.946
80.1,345,4.946
81.7,345.5,4.945
83.3,346,4.945
84.9,346.5,4.946
86.6,347,4.945
88.2,347.5,4.946
89.8,348,4.946
91.4,348.5,4.946
93,349,4.946
94.6,349.5,4.946
96.2,350,4.946
97.8,350.5,4.946
99.4,351,4.946
101,351.5,4.946
102.6,352,4.946
104.2,352.5,4.946
105.8,353,4.946
107.4,353.5,4.946
109,354,4.945
110.5,354.5,4.945
112.1,355,4.945
113.7,355.5,4.945
115.3,356,4.945
116.8,356.5,4.945
118.4,357,4.946
120,357.5,4.946
121.6,358,4.946
123.1,358.5,4.946
124.7,359,4.945
126.2,359.5,4.945
127.8,360,4.945
129.3,360.5,4.945
130.9,361,4.945
132.5,361.5,4.945
134,362,4.944
135.6,362.5,4.944
137.1,363,4.944
138.6,363.5,4.944
140.2,364,4.944
141.7,364.5,4.943
143.3,365,4.943
144.8,365.5,4.943
146.3,366,4.943
147.9,366.5,4.943
149.4,367,4.943
151,367.5,4.943
152.5,368,4.943
154,368.5,4.943
155.5,369,4.943
157.1,369.5,4.943
158.6,370,4.943
160.1,370.5,4.943
161.6,371,4.943
163.2,371.5,4.942
164.7,372,4.942
166.2,372.5,4.942
167.7,373,4.942
169.2,373.5,4.942
170.7,374,4.942
172.3,374.5,4.942
173.8,375,4.942
175.3,375.5,4.942
176.8,376,4.942
178.3,376.5,4.942
179.8,377,4.942
181.3,377.5,4.942
182.8,378,4.942
184.3,378.5,4.942
185.8,379,4.942
187.4,379.5,4.942
188.9,380,4.942
190.4,380.5,4.942
191.9,381,4.942
193.4,381.5,4.942
194.8,382,4.942
196.3,382.5,4.942
197.8,383,4.942
199.3,383.5,4.941
200.8,384,4.941
202.3,384.5,4.941
203.8,385,4.941
205.3,385.5,4.941
206.8,386,4.940
208.3,386.5,4.940
209.8,387,4.940
211.2,387.5,4.940
212.8,388,4.940
214.3,388.5,4.940
215.8,389,4.940
217.3,389.5,4.940
218.7,390,4.940
220.2,390.5,4.940
221.7,391,4.940
223.2,391.5,4.940
224.7,392,4.940
226.2,392.5,4.940
227.7,393,4.940
229.1,393.5,4.939
230.6,394,4.939
232.1,394.5,4.939
233.6,395,4.939
235,395.5,4.939
236.5,396,4.939
238,396.5,4.939
239.5,397,4.939
240.9,397.5,4.939
242.4,398,4.939
243.9,398.5,4.939
245.3,399,4.939
246.8,399.5,4.939
248.3,400,4.939
249.7,400.5,4.939
251.2,401,4.939
252.7,401.5,4.939
254.1,402,4.939
255.6,402.5,4.939
257.1,403,4.939
258.5,403.5,4.939
260,404,4.939
261.4,404.5,4.939
262.9,405,4.938
264.4,405.5,4.938
265.8,406,4.938
267.3,406.5,4.938
268.7,407,4.938
270.2,407.5,4.938
271.6,408,4.938
273.1,408.5,4.938
274.5,409,4.937
276,409.5,4.937
277.4,410,4.937
278.9,410.5,4.937
280.3,411,4.937
281.8,411.5,4.937
283.2,412,4.937
284.6,412.5,4.937
286.1,413,4.937
287.5,413.5,4.937
289,414,4.937
290.4,414.5,4.937
291.9,415,4.937
293.3,415.5,4.936
294.7,416,4.936
296.1,416.5,4.935
297.6,417,4.935
299,417.5,4.935
300.5,418,4.934
301.9,418.5,4.934
303.4,419,4.934
304.8,419.5,4.933
306.2,420,4.933
307.7,420.5,4.933
309.1,421,4.933
310.5,421.5,4.933
311.9,422,4.933
313.4,422.5,4.933
314.8,423,4.933
316.3,423.5,4.933
317.7,424,4.933
319.1,424.5,4.932
320.5,425,4.932
322,425.5,4.932
323.4,426,4.932
324.8,426.5,4.932
326.3,427,4.931
327.7,427.5,4.931
329.1,428,4.931
330.5,428.5,4.931
332,429,4.930
333.4,429.5,4.930
334.8,430,4.930
336.2,430.5,4.930
337.7,431,4.929
339.1,431.5,4.929
340.5,432,4.929
341.9,432.5,4.928
343.4,433,4.928
344.8,433.5,4.927
346.2,434,4.927
347.6,434.5,4.926
349,435,4.926
350.5,435.5,4.926
351.9,436,4.925
353.3,436.5,4.924
354.7,437,4.924
356.1,437.5,4.924
357.6,438,4.923
359,438.5,4.923
360.4,439,4.923
361.8,439.5,4.922
363.2,440,4.922
364.6,440.5,4.921
366.1,441,4.921
367.5,441.5,4.920
368.9,442,4.920
370.3,442.5,4.919
371.8,443,4.919
373.2,443.5,4.919
374.6,444,4.918
376,444.5,4.918
377.4,445,4.917
378.9,445.5,4.917
380.3,446,4.916
381.7,446.5,4.916
383.1,447,4.915
384.5,447.5,4.915
386,448,4.914
387.4,448.5,4.914
388.8,449,4.913
390.2,449.5,4.912
391.6,450,4.912
393.1,450.5,4.911
394.5,451,4.910
395.9,451.5,4.909
397.3,452,4.908
398.7,452.5,4.908
400.1,453,4.907
401.6,453.5,4.906
403,454,4.905
404.4,454.5,4.904
405.8,455,4.903
407.2,455.5,4.902
408.6,456,4.901
410,456.5,4.900
411.4,457,4.899
412.9,457.5,4.898
414.3,458,4.896
415.7,458.5,4.895
417.1,459,4.894
418.5,459.5,4.893
419.9,460,4.891
421.3,460.5,4.890
422.7,461,4.889
424.1,461.5,4.887
425.6,462,4.886
427,462.5,4.884
428.4,463,4.883
429.8,463.5,4.881
431.2,464,4.880
432.6,464.5,4.879
434,465,4.878
435.4,465.5,4.876
436.8,466,4.875
438.2,466.5,4.874
439.6,467,4.872
441,467.5,4.871
442.4,468,4.870
443.8,468.5,4.869
445.2,469,4.868
446.6,469.5,4.866
448,470,4.865
449.4,470.5,4.864
450.8,471,4.862
452.2,471.5,4.861
453.6,472,4.860
455,472.5,4.858
456.4,473,4.857
457.8,473.5,4.855
459.2,474,4.854
460.6,474.5,4.853
462,475,4.851
463.4,475.5,4.850
464.8,476,4.849
466.2,476.5,4.847
467.6,477,4.846
469,477.5,4.845
470.4,478,4.843
471.8,478.5,4.842
473.2,479,4.841
474.6,479.5,4.840
476,480,4.839
477.4,480.5,4.838
478.8,481,4.837
480.2,481.5,4.836
481.6,482,4.835
483,482.5,4.834
484.4,483,4.833
485.8,483.5,4.831
487.2,484,4.830
488.6,484.5,4.829
490,485,4.828
491.4,485.5,4.827
492.8,486,4.826
494.2,486.5,4.826
495.6,487,4.825
497,487.5,4.823
498.4,488,4.822
499.8,488.5,4.821
501.2,489,4.820
502.6,489.5,4.819
503.9,490,4.817
505.3,490.5,4.816
506.7,491,4.815
508.1,491.5,4.813
509.5,492,4.812
510.9,492.5,4.810
512.3,493,4.809
513.7,493.5,4.808
515.1,494,4.807
516.5,494.5,4.806
517.9,495,4.805
519.3,495.5,4.804
520.7,496,4.803
522.1,496.5,4.802
523.5,497,4.800
524.9,497.5,4.799
526.3,498,4.798
527.7,498.5,4.797
529.1,499,4.796
530.5,499.5,4.795
531.9,500,4.795
533.3,500.5,4.793
534.7,501,4.792
536.1,501.5,4.791
537.5,502,4.791
538.9,502.5,4.790
540.3,503,4.789
541.7,503.5,4.788
543.1,504,4.787
544.5,504.5,4.787
545.9,505,4.786
547.3,505.5,4.785
548.7,506,4.785
550,506.5,4.784
551.4,507,4.784
552.8,507.5,4.783
554.2,508,4.783
555.6,508.5,4.782
557,509,4.782
558.4,509.5,4.781
559.8,510,4.781
561.2,510.5,4.781
562.6,511,4.780
564,511.5,4.780
565.4,512,4.780
566.8,512.5,4.780
568.2,513,4.779
569.6,513.5,4.779
570.9,514,4.779
572.3,514.5,4.778
573.7,515,4.778
575.1,515.5,4.778
576.5,516,4.777
577.9,516.5,4.777
579.3,517,4.776
580.7,517.5,4.776
582.1,518,4.776
583.5,518.5,4.775
584.9,519,4.775
586.3,519.5,4.775
587.7,520,4.775
589.1,520.5,4.775
590.5,521,4.775
591.8,521.5,4.775
593.2,522,4.774
594.6,522.5,4.774
596,523,4.774
597.4,523.5,4.774
598.8,524,4.773
600.2,524.5,4.773
601.6,525,4.773
603,525.5,4.773
604.4,526,4.773
605.8,526.5,4.772
607.2,527,4.772
608.6,527.5,4.772
610,528,4.772
611.4,528.5,4.771
612.8,529,4.771
614.2,529.5,4.771
615.6,530,4.770
617,530.5,4.770
618.3,531,4.769
619.7,531.5,4.769
621.1,532,4.768
622.5,532.5,4.768
623.9,533,4.767
625.3,533.5,4.767
626.7,534,4.767
628.1,534.5,4.766
629.5,535,4.766
630.9,535.5,4.766
632.3,536,4.765
633.7,536.5,4.765
635.1,537,4.764
636.5,537.5,4.764
637.9,538,4.764
639.3,538.5,4.764
640.7,539,4.763
642.1,539.5,4.762
643.5,540,4.762
644.9,540.5,4.761
646.3,541,4.761
647.7,541.5,4.761
649.1,542,4.760
650.4,542.5,4.760
651.8,543,4.759
653.2,543.5,4.759
654.6,544,4.758
656,544.5,4.758
657.4,545,4.757
658.8,545.5,4.757
660.2,546,4.757
661.6,546.5,4.756
663,547,4.756
664.4,547.5,4.755
665.8,548,4.754
667.2,548.5,4.754
668.6,549,4.753
670,549.5,4.752
671.4,550,4.751
672.8,550.5,4.750
674.2,551,4.749
675.6,551.5,4.748
677,552,4.747
678.4,552.5,4.746
679.8,553,4.745
681.2,553.5,4.744
682.6,554,4.744
684,554.5,4.743
685.4,555,4.742
686.8,555.5,4.741
688.2,556,4.740
689.6,556.5,4.739
691,557,4.738
692.4,557.5,4.737
693.8,558,4.736
695.2,558.5,4.734
696.6,559,4.733
698,559.5,4.732
699.4,560,4.731
700.8,560.5,4.729
702.2,561,4.728
703.6,561.5,4.727
705,562,4.726
706.4,562.5,4.725
707.8,563,4.723
709.2,563.5,4.722
710.6,564,4.720
712,564.5,4.719
713.4,565,4.717
714.8,565.5,4.716
716.2,566,4.714
717.6,566.5,4.712
719,567,4.710
720.4,567.5,4.709
721.8,568,4.707
723.2,568.5,4.706
724.6,569,4.704
726,569.5,4.702
727.4,570,4.701
728.8,570.5,4.699
730.2,571,4.697
731.6,571.5,4.696
733,572,4.694
734.4,572.5,4.692
735.8,573,4.689
737.2,573.5,4.687
738.6,574,4.685
740,574.5,4.683
741.4,575,4.680
742.8,575.5,4.678
744.2,576,4.676
745.6,576.5,4.673
747,577,4.671
748.4,577.5,4.669
749.8,578,4.666
751.2,578.5,4.664
752.6,579,4.661
754,579.5,4.659
755.4,580,4.656
756.8,580.5,4.654
758.2,581,4.651
759.6,581.5,4.648
761.1,582,4.646
762.5,582.5,4.643
763.9,583,4.640
765.3,583.5,4.637
766.7,584,4.635
768.1,584.5,4.632
769.5,585,4.629
770.9,585.5,4.626
772.3,586,4.623
773.7,586.5,4.620
775.1,587,4.617
776.5,587.5,4.615
777.9,588,4.612
779.3,588.5,4.608
780.7,589,4.605
782.1,589.5,4.602
783.5,590,4.598
785,590.5,4.594
786.4,591,4.591
787.8,591.5,4.587
789.2,592,4.583
790.6,592.5,4.579
792,593,4.575
793.4,593.5,4.571
794.8,594,4.567
796.2,594.5,4.563
797.6,595,4.559
799,595.5,4.556
800.4,596,4.552
801.8,596.5,4.548
803.2,597,4.544
804.6,597.5,4.540
806.1,598,4.535
807.5,598.5,4.530
808.9,599,4.526
810.3,599.5,4.521
811.7,600,4.515
813.1,600.5,4.510
814.5,601,4.505
815.9,601.5,4.499
817.3,602,4.493
818.8,602.5,4.487
820.2,603,4.481
821.6,603.5,4.475
823,604,4.469
824.4,604.5,4.462
825.8,605,4.455
827.2,605.5,4.448
828.6,606,4.440
830.1,606.5,4.433
831.5,607,4.425
832.9,607.5,4.417
834.3,608,4.408
835.7,608.5,4.400
837.1,609,4.391
838.6,609.5,4.382
840,610,4.372
841.4,610.5,4.363
842.8,611,4.353
844.2,611.5,4.343
845.6,612,4.333
847,612.5,4.322
848.5,613,4.311
849.9,613.5,4.300
851.3,614,4.288
852.7,614.5,4.276
854.1,615,4.263
855.6,615.5,4.250
857,616,4.237
858.4,616.5,4.223
859.8,617,4.209
861.2,617.5,4.195
862.7,618,4.181
864.1,618.5,4.166
865.5,619,4.150
866.9,619.5,4.134
868.4,620,4.117
869.8,620.5,4.100
871.2,621,4.083
872.6,621.5,4.065
874.1,622,4.047
875.5,622.5,4.027
876.9,623,4.008
878.3,623.5,3.987
879.8,624,3.966
881.2,624.5,3.945
882.6,625,3.923
884,625.5,3.901
885.5,626,3.878
886.9,626.5,3.854
888.4,627,3.830
889.8,627.5,3.805
891.3,628,3.780
892.7,628.5,3.754
894.1,629,3.728
895.6,629.5,3.701
897,630,3.674
898.4,630.5,3.646
899.9,631,3.618
901.3,631.5,3.589
902.7,632,3.560
904.1,632.5,3.529
905.6,633,3.498
907,633.5,3.467
908.5,634,3.434
909.9,634.5,3.402
911.4,635,3.368
912.8,635.5,3.334
914.3,636,3.299
915.7,636.5,3.264
917.1,637,3.228
918.6,637.5,3.192
920,638,3.155
921.5,638.5,3.117
922.9,639,3.079
924.4,639.5,3.041
925.8,640,3.002
927.2,640.5,2.963
928.7,641,2.924
930.1,641.5,2.883
931.6,642,2.843
933,642.5,2.802
934.5,643,2.760
935.9,643.5,2.719
937.4,644,2.676
938.8,644.5,2.634
940.2,645,2.592
941.7,645.5,2.549
943.1,646,2.507
944.5,646.5,2.463
946,647,2.421
947.4,647.5,2.378
948.9,648,2.335
950.3,648.5,2.292
951.7,649,2.248
953.2,649.5,2.205
954.6,650,2.162
956,650.5,2.118
957.5,651,2.075
958.9,651.5,2.031
960.4,652,1.988
961.8,652.5,1.944
963.2,653,1.901
964.7,653.5,1.857
966.1,654,1.814
967.5,654.5,1.771
969,655,1.728
970.4,655.5,1.685
971.8,656,1.643
973.3,656.5,1.601
974.7,657,1.559
976.1,657.5,1.517
977.5,658,1.476
979,658.5,1.436
980.4,659,1.395
981.8,659.5,1.356
983.3,660,1.317
984.7,660.5,1.278
986.1,661,1.240
987.5,661.5,1.202
988.9,662,1.165
990.4,662.5,1.129
991.8,663,1.093
993.2,663.5,1.058
994.6,664,1.023
996.1,664.5,0.989
997.5,665,0.956
998.9,665.5,0.924
1000.3,666,0.892
1001.7,666.5,0.860
1003.1,667,0.830
1004.5,667.5,0.800
1005.9,668,0.771
1007.4,668.5,0.743
1008.8,669,0.715
1010.2,669.5,0.688
1011.6,670,0.662
1013,670.5,0.637
1014.4,671,0.612
1015.8,671.5,0.588
1017.2,672,0.564
1018.7,672.5,0.541
1020.1,673,0.520
1021.5,673.5,0.498
1022.9,674,0.478
1024.3,674.5,0.457
1025.7,675,0.438
1027.1,675.5,0.419
1028.5,676,0.401
1029.9,676.5,0.383
1031.3,677,0.366
1032.7,677.5,0.349
1034.2,678,0.333
1035.6,678.5,0.317
1037,679,0.302
1038.4,679.5,0.287
1039.8,680,0.274
1041.2,680.5,0.260
1042.6,681,0.247
1044,681.5,0.235
1045.4,682,0.223
1046.9,682.5,0.212
1048.3,683,0.201
1049.7,683.5,0.191
1051.1,684,0.181
1052.5,684.5,0.171
1053.9,685,0.162
1055.3,685.5,0.153
1056.7,686,0.145
1058.1,686.5,0.137
1059.6,687,0.129
1061,687.5,0.122
1062.4,688,0.115
1063.8,688.5,0.108
1065.2,689,0.102
1066.6,689.5,0.096
1068,690,0.090
1069.4,690.5,0.085
1070.9,691,0.080
1072.3,691.5,0.075
1073.7,692,0.070
1075.1,692.5,0.066
1076.5,693,0.062
1077.9,693.5,0.058
1079.4,694,0.054
1080.8,694.5,0.051
1082.2,695,0.048
1083.6,695.5,0.044
1085.1,696,0.041
1086.5,696.5,0.038
1087.9,697,0.035
1089.4,697.5,0.033
1090.8,698,0.030
1092.2,698.5,0.028
1093.7,699,0.026
1095.1,699.5,0.024
1096.5,700,0.022
1098,700.5,0.020
1099.4,701,0.018
1100.8,701.5,0.017
1102.3,702,0.015
1103.7,702.5,0.014
1105.1,703,0.012
1106.6,703.5,0.011
1108,704,0.010
1109.4,704.5,0.009
1110.9,705,0.008
1112.3,705.5,0.007
1113.7,706,0.006
1115.2,706.5,0.005
1116.6,707,0.004
1118,707.5,0.004
1119.5,708,0.003
1120.9,708.5,0.002
1122.4,709,0.002
1123.8,709.5,0.002
1125.2,710,0.001
1126.7,710.5,0.001
1128.1,711,0.000
1129.5,711.5,0.000
1131,712,0.000
1132.4,712.5,-0.001
1133.9,713,-0.001
1135.3,713.5,-0.002
1136.7,714,-0.002
1138.2,714.5,-0.003
1139.6,715,-0.003
1141.1,715.5,-0.004
1142.5,716,-0.004
1143.9,716.5,-0.005
1145.4,717,-0.005
1146.8,717.5,-0.005
1148.3,718,-0.006
1149.7,718.5,-0.006
1151.1,719,-0.006
1152.6,719.5,-0.006
1154,720,-0.006
1155.5,720.5,-0.006
1156.9,721,-0.006
1158.4,721.5,-0.006
1159.8,722,-0.006
1161.3,722.5,-0.007
1162.7,723,-0.007
1164.2,723.5,-0.007
1165.6,724,-0.007
1167.1,724.5,-0.007
1168.5,725,-0.008
1170,725.5,-0.008
1171.4,726,-0.008
1172.9,726.5,-0.009
1174.3,727,-0.009
1175.8,727.5,-0.009
1177.2,728,-0.009
1178.7,728.5,-0.008
1180.1,729,-0.008
1181.6,729.5,-0.008
1183,730,-0.008
1184.5,730.5,-0.008
1185.9,731,-0.007
1187.4,731.5,-0.007
1188.9,732,-0.007
1190.3,732.5,-0.007
1191.8,733,-0.008
1193.2,733.5,-0.008
1194.7,734,-0.008
1196.1,734.5,-0.008
1197.6,735,-0.008
1199,735.5,-0.009
1200.5,736,-0.009
1201.9,736.5,-0.009
1203.4,737,-0.009
1204.8,737.5,-0.009
1206.3,738,-0.009
1207.8,738.5,-0.009
1209.2,739,-0.009
1210.7,739.5,-0.009
1212.1,740,-0.010
1213.6,740.5,-0.010
1215,741,-0.010
1216.5,741.5,-0.010
1217.9,742,-0.010
1219.4,742.5,-0.010
1220.9,743,-0.010
1222.3,743.5,-0.010
1223.8,744,-0.010
1225.2,744.5,-0.010
1226.7,745,-0.010
1228.1,745.5,-0.010
1229.6,746,-0.010
1231.1,746.5,-0.010
1232.5,747,-0.010
1234,747.5,-0.010
1235.4,748,-0.011
1236.9,748.5,-0.011
1238.3,749,-0.011
1239.8,749.5,-0.011
1241.3,750,-0.011
1242.7,750.5,-0.011
1244.2,751,-0.011
1245.6,751.5,-0.011
1247.1,752,-0.011
1248.5,752.5,-0.011
1250,753,-0.011
1251.4,753.5,-0.011
1252.9,754,-0.011
1254.4,754.5,-0.012
1255.8,755,-0.012
1257.3,755.5,-0.012
1258.8,756,-0.012
1260.2,756.5,-0.012
1261.7,757,-0.012
1263.2,757.5,-0.012
1264.6,758,-0.012
1266.1,758.5,-0.011
1267.5,759,-0.011
1269,759.5,-0.011
1270.5,760,-0.011
1271.9,760.5,-0.011
1273.4,761,-0.011
1274.8,761.5,-0.011
1276.3,762,-0.011
1277.8,762.5,-0.010
1279.2,763,-0.010
1280.7,763.5,-0.010
1282.2,764,-0.010
1283.6,764.5,-0.011
1285.1,765,-0.010
1286.5,765.5,-0.010
1288,766,-0.010
1289.5,766.5,-0.010
1290.9,767,-0.010
1292.4,767.5,-0.010
1293.9,768,-0.010
1295.3,768.5,-0.010
1296.8,769,-0.010
1298.3,769.5,-0.010
1299.7,770,-0.010
1301.2,770.5,-0.010
1302.7,771,-0.010
1304.1,771.5,-0.010
1305.6,772,-0.010
1307.1,772.5,-0.010
1308.5,773,-0.010
1310,773.5,-0.010
1311.5,774,-0.011
1312.9,774.5,-0.011
1314.4,775,-0.011
1315.8,775.5,-0.011
1317.3,776,-0.011
1318.8,776.5,-0.010
1320.3,777,-0.010
1321.7,777.5,-0.010
1323.2,778,-0.010
1324.7,778.5,-0.010
1326.1,779,-0.010
1327.6,779.5,-0.010
1329.1,780,-0.010
1330.5,780.5,-0.010
1332,781,-0.010
1333.5,781.5,-0.010
1334.9,782,-0.010
1336.4,782.5,-0.010
1337.9,783,-0.010
1339.3,783.5,-0.010
1340.8,784,-0.010
1342.3,784.5,-0.010
1343.7,785,-0.010
1345.2,785.5,-0.010
1346.7,786,-0.010
1348.2,786.5,-0.010
1349.6,787,-0.010
1351.1,787.5,-0.010
1352.6,788,-0.010
1354,788.5,-0.010
1355.5,789,-0.010
1357,789.5,-0.011
1358.4,790,-0.011
1359.9,790.5,-0.011
1361.4,791,-0.011
1362.8,791.5,-0.011
1364.3,792,-0.011
1365.8,792.5,-0.011
1367.2,793,-0.011
1368.7,793.5,-0.011
1370.2,794,-0.011
1371.7,794.5,-0.011
1373.1,795,-0.011
1374.6,795.5,-0.011
1376.1,796,-0.011
1377.5,796.5,-0.011
1379,797,-0.011
1380.5,797.5,-0.011
1382,798,-0.011
1383.4,798.5,-0.011
1384.9,799,-0.010
1386.4,799.5,-0.010
1387.8,800,-0.010
1389.3,800.5,-0.010
1390.8,801,-0.010
1392.3,801.5,-0.010
1393.7,802,-0.010
1395.2,802.5,-0.010
1396.7,803,-0.010
1398.2,803.5,-0.010
1399.6,804,-0.011
1401.1,804.5,-0.011
1402.6,805,-0.011
1404,805.5,-0.011
1405.5,806,-0.011
1407,806.5,-0.011
1408.4,807,-0.011
1409.9,807.5,-0.011
1411.4,808,-0.011
1412.9,808.5,-0.011
1414.3,809,-0.011
1415.8,809.5,-0.011
1417.3,810,-0.011
1418.8,810.5,-0.011
1420.2,811,-0.011
1421.7,811.5,-0.011
1423.2,812,-0.011
1424.7,812.5,-0.011
1426.1,813,-0.011
1427.6,813.5,-0.011
1429.1,814,-0.011
1430.6,814.5,-0.011
1432,815,-0.011
1433.5,815.5,-0.011
1435,816,-0.011
1436.5,816.5,-0.011
1437.9,817,-0.011
1439.4,817.5,-0.011