File: Non-charring/PMMA/UQ/UQ_Cone65kW_1.csv
Time,Mass,HRR,Back Surface Temperature 1,Back Surface Temperature 2,Back Surface Temperature 3
[s],[g],[kW/m2],[K],[K],[K]
0,71.4,-2.98255,307.8,306.1,306.8
1,71.30871,-3.14672,307.8,306.2,307.1
2,71.33109,-3.17334,307.9,306.4,307.4
3,71.45519,-3.03434,308,306.6,307.8
4,71.39069,-2.72505,308.2,306.9,308.2
5,71.33845,-2.83994,308.3,307.1,308.6
6,71.42298,-3.13021,308.5,307.4,309.1
7,71.41519,-3.29822,308.6,307.7,309.6
8,71.37877,-2.47833,308.9,308.1,310.1
9,71.46357,-2.05359,309.1,308.4,310.6
10,71.4975,-1.73501,309.4,308.9,311.2
11,71.48671,-1.87189,309.7,309.3,311.8
12,71.39713,-2.15091,310.1,309.7,312.4
13,71.43655,-1.5713,310.4,310.2,313
14,71.42644,-1.23285,310.8,310.8,313.6
15,71.35779,-0.970378,311.2,311.3,314.3
16,71.45764,-0.709891,311.6,311.9,315
17,71.35106,-0.901011,312.1,312.4,315.9
18,71.35435,-1.1889,312.6,313,316.7
19,71.4395,-1.34652,313.1,313.6,317.5
20,71.42555,-1.65259,313.7,314.2,318.3
21,71.42286,-2.96379,314.3,314.8,319.2
22,71.3264,-5.02176,314.9,315.4,320
23,71.34107,-3.9553,315.5,316,320.9
24,71.38344,2.70176,316.2,316.7,321.7
25,71.36566,13.5187,316.8,317.4,322.6
26,71.30956,30.7661,317.5,318.1,323.6
27,71.49017,50.6443,318.2,318.8,324.6
28,71.3731,69.9149,319,319.4,325.5
29,71.4973,90.8426,319.8,320.1,326.4
30,71.5007,111.457,320.5,320.9,327.5
31,71.4602,129.183,321.4,321.6,328.5
32,71.3595,147.375,322.2,322.4,329.4
33,71.2567,165.809,323,323.1,330.5
34,71.1871,185.515,323.8,323.9,331.5
35,71.13609,204.292,324.7,324.7,332.5
36,71.0929,220.81,325.6,325.5,333.6
37,70.9255,231.923,326.4,326.3,334.6
38,70.8063,239.551,327.4,327.2,335.6
39,70.7267,247.401,328.3,328,336.6
40,70.6183,256.661,329.2,328.9,337.7
41,70.52359,272.63,330.2,329.8,338.6
42,70.4274,290.778,331.1,330.8,339.7
43,70.3285,306.47,332.1,331.8,340.7
44,70.2158,318.214,333.1,332.8,341.9
45,70.108,329.527,334.1,333.8,342.9
46,70.0019,342.131,335.1,334.9,343.8
47,69.8691,359.114,336.1,336,344.8
48,69.728,375.243,337,337.2,346
49,69.5819,393.35,337.8,338.3,347.2
50,69.4325,409.656,339.4,340.5,348.3
51,69.2984,424.156,341,342.3,349.4
52,69.132,438.411,342.5,343.3,350.5
53,68.9729,451.658,343.9,344.4,351.6
54,68.8297,470.471,345.2,345.4,352.7
55,68.6416,487.032,346.4,346.4,353.8
56,68.4536,501.8,347.7,347.5,354.8
57,68.2758,515.419,348.9,348.5,355.9
58,68.1065,526.132,350.1,349.6,357
59,67.9255,538.492,351.4,350.6,358.1
60,67.7438,551.025,352.7,351.7,359.1
61,67.5945,563.794,353.9,352.7,360.2
62,67.3965,581.904,355.2,353.7,361.2
63,67.2016,597.019,356.5,354.7,362.2
64,67.0488,614.644,357.7,355.7,363.2
65,66.9979,623.324,358.9,356.7,364.1
66,66.8447,631.617,360,357.7,365.2
67,66.4029,634.726,361,358.7,366.2
68,66.0928,643.888,362.1,359.7,367
69,65.8617,649.003,363.2,360.7,367.7
70,65.6767,650.892,364.2,361.7,368.7
71,65.4651,658.196,365.2,362.6,369.7
72,65.26051,659.047,366.2,363.6,370.4
73,65.0487,667.011,367.1,364.6,371.4
74,64.8152,678.296,368.1,365.5,372.3
75,64.5914,685.071,369,366.5,373.2
76,64.353,693.474,369.9,367.5,374.1
77,64.0556,700.611,370.8,368.4,374.9
78,63.7702,708.249,371.8,369.4,376
79,63.08192,717.946,372.7,370.4,377
80,62.7881,731.051,373.7,371.4,378
81,62.7314,734.696,374.7,372.5,379
82,62.4614,748.982,375.7,373.6,380.1
83,62.2168,765.433,376.9,374.7,381.2
84,61.9305,770.898,378,375.7,382.3
85,61.5829,779.781,379.1,376.7,383.4
86,61.2986,785.663,380.2,377.9,384.6
87,61.1857,785.141,381.3,379,385.8
88,60.9237,783.841,382.5,380.1,386.9
89,60.61586,787.854,383.6,381.3,388.2
90,60.2731,787.686,384.7,382.5,389.4
91,60.4228,782.868,385.9,383.5,390.6
92,60.439,776.556,387,384.8,391.9
93,60.0602,770.448,388.2,385.8,393.2
94,59.7331,764.665,389.3,387,394.4
95,59.5053,761.562,390.5,388,395.7
96,59.2842,757.527,391.6,389.3,397
97,59.1236,754.598,392.8,390.4,398.3
98,58.8895,756.454,393.9,391.5,399.6
99,58.653,757.265,395.1,392.8,400.8
100,58.3582,751.796,396.2,393.9,402
101,58.0326,751.773,397.3,395,403.3
102,57.788,744.282,398.5,396.2,404.6
103,57.5596,742.434,399.6,397.3,405.9
104,57.3277,737.034,400.7,398.4,407.1
105,57.1133,728.871,401.8,399.6,408.5
106,56.9078,726.245,403,400.8,409.7
107,56.6658,729.162,404.2,402,411
108,56.4107,732.544,405.3,403.1,412.3
109,56.1689,738.582,406.5,404.4,413.6
110,55.9544,741.947,407.6,405.5,415
111,55.7138,750.35,408.8,406.7,416.2
112,55.4599,759.102,410.1,407.9,417.5
113,55.2108,762.435,411.2,409.2,418.9
114,54.9433,766.033,412.4,410.3,420.2
115,54.6707,777.264,413.6,411.6,421.5
116,54.39837,785.667,414.7,412.8,422.8
117,54.1112,790.121,415.9,414,424.1
118,53.8429,787.864,417.2,415.3,425.5
119,53.5835,792.032,418.4,416.5,426.8
120,53.3341,796.003,419.6,417.8,428.1
121,53.0509,801.953,420.9,419,429.4
122,52.7815,810.4,421.9,420.3,430.9
123,52.5154,810.667,423.2,421.6,432.3
124,52.2406,810.989,424.5,422.9,433.6
125,51.9635,828.938,425.7,424.2,435
126,51.695,837.26,426.9,425.5,436.3
127,51.4014,841.53,428.2,426.8,437.7
128,51.1473,842.742,429.4,428.1,439.1
129,50.8163,837.026,430.7,429.4,440.5
130,50.5328,843.394,431.9,430.7,441.9
131,50.27191,844.65,433.2,432,443.3
132,50.0153,839.732,434.4,433.3,444.7
133,49.7286,839.974,435.7,434.7,446.1
134,49.4325,846.097,437.2,436,447.6
135,49.237,838.639,438.3,437.4,449
136,48.9505,838.519,439.7,438.8,450.5
137,48.7107,838.549,441,440.2,451.9
138,48.4809,835.842,442.5,441.5,453.4
139,48.2555,832.76,443.7,442.9,454.7
140,47.8769,838.964,445.1,444.3,456.4
141,47.64891,844.19,446.5,445.7,458.1
142,47.3784,846.384,447.8,447,459.8
143,46.8168,844.782,449.1,448.5,461.4
144,46.4578,847.677,450.6,449.8,463.1
145,46.1759,847.75,452,451.3,464.8
146,45.8753,847.432,453.3,452.7,466.5
147,45.5961,843.481,454.8,454.1,468.2
148,45.3001,843.38,456.2,455.4,469.9
149,45.0058,843.946,457.7,457,471.7
150,44.738,841.649,459.1,458.3,473.4
151,44.4146,847.987,460.5,459.8,475.1
152,44.1619,858.961,462,461.2,476.9
153,43.9094,858.769,463.5,462.7,478.4
154,43.6326,854.547,465,464.2,480.4
155,43.3555,851.025,466.5,465.5,482.2
156,43.0678,853.69,468,466.9,484.2
157,42.7917,858.507,469.5,468.4,486.1
158,42.4652,857.724,471.1,470.1,488.1
159,42.1879,853.527,472.6,471.4,489.8
160,41.9087,856.289,474.2,473.2,491.8
161,41.6189,858.648,475.8,474.7,493.9
162,41.3345,865.131,477.4,476.3,495.5
163,41.05694,864.504,479.2,477.8,497.4
164,40.756,865.263,481,479.5,499.2
165,40.46426,866.162,482.8,481.1,501
166,40.1964,868.032,484.5,482.6,502.9
167,39.905,871.983,486.4,484.1,504.8
168,39.6232,873.658,488,485.6,506.5
169,39.33854,873.942,489.6,487.3,508.3
170,39.0423,879.414,491.3,488.9,510.1
171,38.7512,880.066,493,490.2,511.8
172,38.4432,874.213,494.7,491.9,513.6
173,38.1418,876.74,496.6,493.7,515.1
174,37.8503,875.879,498.5,495.4,516.9
175,37.5465,871.683,500.4,497.1,518.4
176,37.2405,871.604,502.4,498.6,520.1
177,36.9408,875.311,504.2,500.1,521.9
178,36.6424,874.368,506,502,523.6
179,36.3591,874.011,508.2,503.7,525.6
180,36.0772,873.532,510.2,505.5,527.5
181,35.78545,866.614,512.3,507,529.5
182,35.4991,861.342,514.2,508.8,531.6
183,35.228,862.727,516.3,510.8,533.7
184,34.9735,861.548,518.4,512.7,535.8
185,34.6875,866.343,520.7,514.4,538
186,34.4133,867.333,522.8,516.2,540.1
187,34.1181,862.798,525,518.5,542.6
188,33.8063,863.934,527.1,520.7,544.9
189,33.5403,871.34,529.4,523.4,547.4
190,33.2492,884.258,531.7,526,550
191,32.9438,889.027,534,528.4,552.4
192,32.6264,888.557,536.3,531.3,555
193,32.3209,887.72,538.4,533.9,557.7
194,32.0197,891.828,540.6,536.8,560.4
195,31.7285,895.12,542.9,539.7,563.2
196,31.4511,891.694,545.3,542.8,566
197,31.1711,894.678,547.9,545.7,568.9
198,30.8735,894.529,550.6,548.8,571.8
199,30.5552,892.9,553.3,551.7,574.7
200,30.2536,893.903,556.2,554.9,577.5
201,29.9826,892.043,559.1,558,580.7
202,29.7217,895.364,562,561.2,584.1
203,29.4095,905.388,565,564.4,587.8
204,29.0708,907.709,567.8,567.7,591.6
205,28.7399,905.14,570.7,571.1,595.7
206,28.4353,906.736,573.7,574.6,599.8
207,28.1392,917.987,576.8,578.3,604
208,27.8635,920.644,579.8,582.4,608.6
209,27.555,924.096,582.7,586.8,613.5
210,27.2418,933.534,585.8,591.7,618.4
211,26.9551,942.284,588.8,596.5,623.7
212,26.6696,942.424,591.9,602.1,629.2
213,26.3735,948.201,594.9,609,635.1
214,26.057,943.456,598.1,619.2,641.5
215,25.7232,940.399,601.3,633,648.2
216,25.3893,942.562,604.6,641.5,655.2
217,25.0639,933.913,607.8,647.5,663
218,24.73973,938.083,610.8,652.3,672.1
219,24.4184,939.243,613.6,656.9,681.3
220,24.1264,936.201,616.5,661.1,689.6
221,23.8173,933.303,619.4,664.7,699
222,23.4816,937.303,622.5,668,708.7
223,23.141,935.935,625.9,671.2,719.1
224,22.8208,939.405,629.7,674.4,730
225,22.5075,936.026,633.8,677.6,741.1
226,22.1931,930.144,638.2,681,751.1
227,21.87259,927.584,642.9,684.6,760.5
228,21.55998,930.644,648.6,688.1,768.8
229,21.2592,933.737,655.2,692.6,776.2
230,20.9639,935.12,662.1,698.9,782.8
231,20.6255,935.37,668.5,706.6,788.8
232,20.3064,928.909,676.5,715,795.4
233,19.9897,924.522,686.5,724.4,802.2
234,19.6899,924.166,696.8,733.9,808.7
235,19.3798,917.671,707.1,743,814.4
236,19.0766,920.766,717.1,751.2,820.5
237,18.8145,911.089,727,758.4,826.2
238,18.5271,910.833,736.6,764.9,831
239,18.20369,910.459,746,771.2,836.2
240,17.8808,910.695,754.5,777.3,841.2
241,17.5651,912.642,762.7,783.6,845.7
242,17.2682,910.265,770.5,789.6,850.1
243,16.9858,914.223,777.9,795.3,854.6
244,16.67676,922.325,785.1,800.9,859
245,16.3402,923.283,792,806,863.3
246,16.0364,921.544,798.6,811,867.7
247,15.7407,918.455,805.1,815.8,872
248,15.41976,925.3,811.3,820.2,876.1
249,15.1201,925.933,817.2,824.4,880.2
250,14.8216,920.068,823.1,828.7,884.6
251,14.522,909.273,828.7,832.9,888.8
252,14.2316,905.228,834.1,836.8,893.9
253,13.9627,895.901,839.3,840.7,897.9
254,13.69591,883.753,844.1,844.2,901.7
255,13.4438,871.229,848.6,847.9,906.6
256,13.1366,857.815,853.1,851.6,911.5
257,12.84472,850.48,856.9,855,913.3
258,12.5629,839.868,860.5,858.4,915.8
259,12.2903,838.556,863.7,861.4,918.8
260,12.0289,830.202,866.5,864.4,921
261,11.7719,817.427,869.2,867.3,924
262,11.5338,806.518,871.8,870.3,927.7
263,11.2936,785.316,874.1,873.1,931.4
264,11.0632,764.197,876.5,875.8,934.9
265,10.8075,738.352,878.6,878.3,937.3
266,10.5434,720.796,880.5,880.6,939.4
267,10.3145,699.501,882,883.2,940.7
268,10.1019,678.304,883.8,885.7,943.4
269,9.888218,653.082,885.7,888.1,944.8
270,9.639533,630.966,887.4,890.3,946.3
271,9.420998,611.318,889.1,892.6,948.6
272,9.257956,595.108,891,895.1,951.6
273,9.084884,579.525,893.1,897.5,955.4
274,8.937328,557.596,894.9,899.6,956.5
275,8.790627,532.822,896.6,901.5,958.2
276,8.607116,508.671,898.3,903.3,961
277,8.471918,486.101,900.2,905.4,965.1
278,8.301683,466.705,902,907,967.3
279,8.157304,449.849,903.3,908.8,969.7
280,8.01388,433.128,904.2,910.8,970.2
281,7.871279,417.346,905,912.8,969.1
282,7.751077,401.225,906.2,914.5,969.8
283,7.599414,390.803,907,916.3,970.2
284,7.481069,380.916,908,918.2,969.6
285,7.35288,371.513,909.4,920.4,969.8
286,7.225493,359.491,910.4,922.3,971.2
287,7.128025,349.052,911.6,924,972.5
288,7.039764,341.042,913,925.7,975.7
289,6.895436,333.571,914.4,927.5,980
290,6.779209,327.754,915.7,929,980.8
291,6.654856,323.052,917.2,930.9,980.9
292,6.530677,318.495,918.2,932.9,982.2
293,6.432355,314.898,919.2,934.5,984.7
294,6.282645,310.169,920,935.7,985.7
295,6.182495,306.677,921.1,937.1,987.5
296,6.057721,306.82,922.2,937.9,988.3
297,5.973874,306.227,924.2,939.4,990.6
298,5.907367,304.213,925.9,940.7,993.5
299,5.78473,299.576,927.5,942.5,994.8
300,5.683426,295.887,929.6,944.4,998.7
301,5.578108,294.362,930.8,945.8,999
302,5.450337,294.49,932,947.3,1000.6
303,5.351964,292.429,932.8,948.9,1003.5
304,5.222299,292.723,933.9,950.2,1007.7
305,5.12274,291.421,935.4,951.7,1010.5
306,4.995883,288.86,937.2,953,1011.1
307,4.877102,284.131,940.8,954.7,1009.5
308,4.762022,280.739,943.4,956.2,1010.2
309,4.653786,278.376,946.2,958.1,1013.8
310,4.559121,277.017,948.3,959.3,1015.5
311,4.509745,274.632,952.2,960.8,1018.9
312,4.470736,272.444,957.3,962.3,1022.8
313,4.419813,269.485,962.2,963.9,1023.6
314,4.260759,264.408,965.2,965.3,1026
315,4.115437,259.747,967.4,966.6,1032.2
316,4.045282,254.789,971.7,968,1033.5
317,3.991982,251.397,974.3,969.5,1038.8
318,3.899157,246.321,978.7,970.7,1041.4
319,3.82624,242.397,981.9,972.2,1044.8
320,3.752025,236.522,983.1,973,1047.1
321,3.647648,229.324,984.9,974.6,1046.9
322,3.583836,224.371,989.5,976.2,1048
323,3.541718,221.753,994.2,979.5,1047.3
324,3.502538,218.636,998.3,980.9,1046.7
325,3.412022,214.54,1000.4,982.1,1047.2
326,3.285311,209.995,1001.3,983.3,1044.5
327,3.23835,205.532,1005.3,984.8,1041
328,3.21266,201.526,1006.2,985.9,1038.9
329,3.172009,199.111,1006.8,987.6,1033.2
330,3.090688,197.31,1009.6,989.5,1031.8
331,2.987599,194.55,1011.3,991.8,1029.4
332,2.939411,191.57,1012.8,994.3,1024.1
333,2.908828,186.813,1012.8,995.4,1024
334,2.864379,183.672,1014.2,999,1019.7
335,2.721516,181.152,1016.6,1000,1014
336,2.636816,179.195,1011.6,1000.1,1011.9
337,2.598606,176.085,1007,1004,1013.2
338,2.576671,172.646,1002.9,1005.6,1010.7
339,2.551458,169.299,999.4,1007.6,1009.4
340,2.430869,167.224,996.4,1010.5,1009.6
341,2.324884,165.582,994.1,1011.6,1006.6
342,2.266118,164.238,992.9,1013.1,1005.7
343,2.221791,162.213,990.7,1014.2,1003.7
344,2.192663,159.351,989.4,1017.2,1004.3
345,2.165329,156.216,988.2,1014.8,1003.5
346,2.113955,153.966,986.3,1017.7,1000.9
347,2.037998,150.766,984.4,1019.6,999.2
348,2.003635,147.861,982.7,1022,997.7
349,1.970552,144.925,981.5,1021.5,995.2
350,1.913488,142.011,980.5,1023.2,993.9
351,1.876153,139.398,979.2,1025.1,992.5
352,1.8415,136.717,977.5,1028.2,990.8
353,1.803854,134.735,976.1,1029.2,989.9
354,1.741201,133.363,975,1027.2,988.1
355,1.678785,131.174,974,1027.3,987.9
356,1.647297,128.581,973.5,1026.2,987.2
357,1.621059,126.622,972.1,1025.6,985.6
358,1.5811,126.032,970.7,1023.7,983.4
359,1.541269,125.351,969.5,1020.6,982.9
360,1.507509,124.537,968.6,1018.3,981.5
361,1.468968,122.38,967.5,1015.3,979.1
362,1.399199,119.167,966.6,1014.1,978.1
363,1.362297,116.644,966.9,1016.1,976.7
364,1.341693,115.348,966.8,1017,977.2
365,1.310122,114.444,966.3,1014.9,977.7
366,1.281274,113.046,965.2,1015.1,976.7
367,1.258977,111.502,963.5,1013.6,977.9
368,1.227398,110.167,962.6,1011.3,977
369,1.138824,109.367,961.9,1009.2,974
370,1.066168,108.364,960.9,1005.7,972.3
371,1.023778,107.433,959.6,1004.4,971.1
372,0.998468,106.232,959.6,1001.8,972.2
373,0.975212,105.474,958.7,1000.2,971.4
374,0.949637,103.977,957.9,1003.2,972.1
375,0.914525,102.552,957.1,1003.7,971.9
376,0.873057,101.354,956,1001.9,970.7
377,0.838639,100.114,955.1,1000.5,970.6
378,0.809235,99.246,955.2,1001.2,970
379,0.790074,98.4236,955.3,1001.6,970.2
380,0.778719,96.9045,954.9,1002.4,968.5
381,0.748735,95.5869,953.8,1000.2,968.3
382,0.715076,94.8878,953.2,998.1,968.3
383,0.692038,94.3675,952.8,997,966
384,0.679127,94.4653,952.4,996.8,964.4
385,0.662459,93.7547,952.3,995.1,965.5
386,0.636807,93.6694,951.6,993.4,966
387,0.598327,93.0151,951.5,991.6,964.2
388,0.518741,92.1841,951.5,990.9,965.1
389,0.478376,92.2618,950.7,989.1,963
390,0.46014,91.5584,949.9,988.2,962.5
391,0.437444,90.8667,949.5,987.2,962.4
392,0.399428,90.8415,948.8,986.5,963.4
393,0.359692,90.2631,949,989.7,962.5
394,0.331028,90.3088,948.7,987.7,960.9
395,0.298908,90.4088,947.7,985.7,960.8
396,0.266996,90.0054,947,984.1,962.3
397,0.245579,89.2213,946.8,982.4,963.9
398,0.214773,88.0544,946.6,981.9,964.7
399,0.175734,86.8118,947,980.9,963.5
400,0.108626,86.8117,946.7,979.9,962.5
401,0.085331,86.2637,946.2,979,963.2
402,0.071747,85.6719,945.9,978.1,963.2
403,0.052888,85.3155,945.8,977.7,963.4
404,0.047386,85.3605,945.1,977,963.5
405,0.03796,85.8014,944.4,976.2,963.3
406,0.020541,86.1099,944.1,975.5,963.8
407,0.027102,86.1481,943.5,975.2,962.5
408,0.034553,86.1433,943.4,975.1,960.6
409,0.027198,86.2336,942.9,974.6,958.8
410,0.025923,85.8024,942.4,974.1,957.3
411,0.025035,85.2184,942.4,974,957.4
412,0.025572,84.1161,942.4,973.3,957.4
413,0.024451,82.5779,942.7,973,956.9
414,0.029489,81.1882,942.6,972.4,957.9
415,0.034762,81.1576,942.2,972.1,957.2
416,0.02993,80.8672,941.7,971.3,957.6
417,0.026119,80.6154,941.4,970.8,956.1
418,0.022039,79.6683,941.1,970.4,955.3
419,0.028365,79.2553,940.5,969.7,953.7
420,0.034324,79.8217,940,969.5,952
421,0.032036,80.854,939.4,968.9,952.1
422,0.022579,81.0853,938.6,968.3,953.6
423,0.023267,81.7783,937.7,967.9,954.7
424,0.030269,82.4786,937.8,967.9,954.9
425,0.034912,82.4667,938.5,968.3,955.8
426,0.025363,82.0186,939,968.2,955.5
427,0.02703,81.3102,939,967.9,956.1
428,0.024987,80.6099,938.2,967.3,954.9
429,0.029602,78.8142,937.3,966.6,955.2
430,0.022507,77.479,936.1,966.3,955.5
431,0.034464,75.5057,935.5,966.2,955.7
432,0.028899,73.8339,935.5,966.1,955.9
433,0.026896,71.1789,936,966,955.7
434,0.025582,69.3865,936.8,966,955.4
435,0.027223,68.6649,937.2,965.5,954.7
436,0.029163,67.7767,937.3,964.9,954.6
437,0.033257,66.6403,937.3,964.2,954.8
438,0.02841,66.3547,937,964.2,954.9
439,0.02237,65.1466,936.7,963.9,955.2
440,0.027651,64.6221,936.3,963.6,953.7
441,0.032918,64.3701,935.9,963.4,954.4
442,0.025227,64.5346,935.8,962.8,954.2
443,0.024398,64.3431,935.4,962.6,953.9
444,0.027422,63.6559,935.5,962.6,953.3
445,0.024442,63.2917,935.7,962.4,953.4
446,0.025613,63.156,935.1,962.2,952.3
447,0.025759,62.4697,934.9,961.3,952.1
448,0.025094,62.1962,934.5,961.2,952.9
449,0.025741,61.9801,934.7,960.9,952.5
450,0.022895,61.7746,934.5,961.2,953.1
451,0.024966,62.9629,934.7,960.8,952.3
452,0.025487,63.8447,934.6,960.3,950.9
453,0.029701,64.953,934.2,959.5,949.5
454,0.021385,65.3118,933.4,959,948.7
455,0.030094,64.5749,932.3,958.4,948.2
456,0.03308,63.5786,931.6,958.2,948.9
457,0.028288,62.4099,931,957.7,947.2
458,0.021186,61.6919,931.6,957.7,947.7
459,0.030387,61.6648,932.1,957.9,948.3
460,0.028425,60.9654,931.8,957.6,949.2
461,0.033461,60.6825,932.1,957.3,950.3
462,0.029234,60.7407,932.1,956.7,950.5
463,0.026167,60.1571,931.5,956.2,948.2
464,0.026977,59.4502,930.6,956,948.3
465,0.032587,58.8385,930.4,955.7,947
466,0.029989,57.8729,930.3,955.1,947
467,0.022036,57.0428,930.3,954.3,946.7
468,0.034559,57.1726,930.8,954.2,946.2
469,0.034984,57.2528,931.2,953.6,945.8
470,0.030769,57.1802,931,953.3,945.1
471,0.029545,57.1463,930.7,953.2,945.3
472,0.02903,56.3034,930.1,953,946.9
473,0.028506,55.7393,929.7,952.9,946.6
474,0.031425,55.3567,929.8,952.7,946.2
475,0.030624,55.3586,929.7,952.7,946.1
476,0.029192,55.0405,930.2,952.7,946.4
477,0.027263,54.4492,930.5,952,944.2
478,0.031569,53.5139,930.6,951.9,945.2
479,0.030036,52.3829,930.3,951.5,945.2
480,0.02912,51.6494,929.8,951.5,945.3
481,0.020884,51.0271,929.5,951.1,945.3
482,0.020494,50.5876,929.2,950.9,945.1
483,0.02286,50.5486,929.1,950.8,944
484,0.033469,49.5855,929.1,951,942.6
485,0.024204,49.3367,928.9,951,941.4
486,0.029357,49.4442,928.6,950.9,942.3
487,0.020826,48.9547,928.9,950.8,941.3
488,0.033986,49.0587,928.8,950.6,941.8
489,0.024874,49.0883,929,950.5,943.1
490,0.029153,48.9149,928.7,950.1,943.7
491,0.029468,48.2529,928.3,949.8,944.6
492,0.027236,48.2344,928.3,949.7,945.9
493,0.026506,47.8364,928.1,949.5,946.2
494,0.03142,47.4115,928.5,949.3,946.3
495,0.02599,46.6376,928.7,949.2,946
496,0.029498,45.8236,928.3,948.6,945.7
497,0.034196,45.253,928,948.1,945.4
498,0.031964,44.1117,928.1,947.6,945.1
499,0.024359,43.3484,927.8,947.6,942.8
500,0.03083,43.2528,927.6,947.4,943
501,0.028927,42.4203,927.6,947.4,943.5
502,0.024729,41.9567,927,947.3,944
503,0.031815,41.1485,926.5,946.9,944.2
504,0.029039,40.8691,926.5,946.7,944.5
505,0.02408,40.6858,926.4,946.5,943.6
506,0.024602,40.0374,926.2,946.1,943.8
507,0.030141,39.7135,926.9,945.9,942.7
508,0.034908,39.6167,927.3,945.7,942.5
509,0.030544,38.9233,927.9,945.5,942.3
510,0.028726,38.9432,928.1,945.3,942.1
511,0.023105,39.3082,927.9,945.1,941.6
512,0.024069,39.46,927.9,944.7,941.5
513,0.021502,38.676,927.7,944.4,940.6
514,0.026288,37.5178,927.4,944.3,940.3
515,0.020441,37.4727,926.5,944.4,940.3
516,0.021461,37.7239,926.2,943.9,940.3
517,0.029818,37.9463,926.3,943.9,941.2
518,0.031593,37.4526,926.3,943.7,941.7
519,0.029403,37.0337,926.6,943.5,941.9
520,0.033612,36.2324,926.4,943.4,942
521,0.02284,36.1189,926.1,943.1,942.9
522,0.020713,35.7394,926.1,943.1,942.8
523,0.021655,35.8987,925.7,942.9,942.5
524,0.022516,35.8121,925.9,942.9,941.8
525,0.026189,35.3268,926.7,942.3,940.6
526,0.029811,34.7918,926.8,942.2,940.1
527,0.033013,34.7815,927,942,940.3
528,0.031495,34.2874,926.8,942,938.6
529,0.029886,34.0348,926.7,942,938.4
530,0.033895,33.5817,926.6,941.9,938.7
531,0.020748,32.4881,926.4,941.5,938.8
532,0.028331,32.3397,926.9,941.2,939
533,0.028287,31.8294,927.1,941,938.9
534,0.03104,31.9399,927.1,941,939
535,0.032111,32.2952,927.2,940.9,938.3
536,0.022434,32.1979,926.6,940.8,937.7
537,0.029713,32.0392,925.9,940.7,937.4
538,0.031607,32.0303,925.7,940.5,938.7
539,0.03132,31.472,925.6,940.3,939.8
540,0.026861,31.0624,925,940.3,940.7
541,0.022968,31.0284,924.9,940.3,939.7
542,0.030837,30.2305,925.1,940.1,938.5
543,0.024362,29.172,925.6,940.1,938.3
544,0.023504,28.2875,925.2,939.8,938.4
545,0.029815,28.3732,925.4,939.9,938.8
546,0.027905,28.1956,925.9,939.5,938.8
547,0.031272,27.7507,925.8,939,938.3
548,0.033947,27.0789,925.7,939,938.1
549,0.02947,26.026,925.9,939,938.8
550,0.028507,25.017,925.6,938.5,938.4
551,0.030375,24.7541,925,938.4,938.4
552,0.030764,24.323,925,938.2,937.9
553,0.02106,23.7916,924.5,937.6,939
554,0.026281,22.9984,924.7,937.6,939.2
555,0.034384,22.7427,925,937.2,939
556,0.022857,22.1178,924.8,936.8,939.4
557,0.024722,22.1785,925.1,936.9,938.7
558,0.031281,22.5193,924.8,936.8,938.9
559,0.025451,22.5321,924.8,936.9,938.1
560,0.025641,21.6012,925.1,937.3,937.4
561,0.023556,20.6296,925.4,937.4,937.2
562,0.028385,19.9231,925.9,937.5,936.7
563,0.021656,19.3793,926,937.5,935.7
564,0.02529,19.2628,926.7,937.7,936.6
565,0.022635,19.1382,927,937.8,937.4
566,0.023682,18.2727,927,937.7,937.9
567,0.022935,17.9328,927.1,937.6,937.6
568,0.022744,17.3374,926.8,937.3,936.9
569,0.034026,17.2991,926.3,937.1,937.3
570,0.025014,17.582,926.2,937.1,938.2
571,0.026162,17.3887,926.1,937.1,937.8
572,0.02443,17.1311,926,937,937.7
573,0.023833,17.1373,926.4,936.6,938.2
574,0.026256,17.2445,926.2,936.4,938.5
575,0.034088,17.6078,926.1,936.2,938.7
576,0.032294,17.7963,926.1,936.3,938.8
577,0.034812,16.8331,926.1,936.3,937.9
578,0.03175,16.4682,925.7,936.1,937.6
579,0.033047,16.4197,925.9,935.9,937.5
580,0.029542,15.8482,925.7,935.7,936.6
581,0.025629,15.922,926.1,935.3,935
582,0.034536,16.0043,925.7,935.4,936
583,0.022377,16.441,925.5,935.7,935.4
584,0.022114,16.4835,925.4,936,936.1
585,0.02037,16.5202,925.5,936.2,936
586,0.023564,16.7179,925.3,935.7,935.4
587,0.033601,17.0618,925.1,935.5,935.4
588,0.026169,17.1072,925.4,935.1,936.2
589,0.03086,16.1777,925.5,935.4,937.1
590,0.032447,15.7535,925.3,935.7,937.6
591,0.021449,15.8018,925.5,935.3,937.6
592,0.02364,15.3925,925.6,935.3,937.1
593,0.031654,15.4452,925.8,934.8,937.8
594,0.021711,15.3064,925.8,935,938.2
595,0.02182,15.0718,925.9,934.7,938.3
596,0.029662,14.19,925.7,934.9,938.7
597,0.030753,13.399,925.8,934.5,938.9
598,0.033588,13.4493,926,934.7,938.5
599,0.030598,13.1615,925.9,935,937.2
600,0.031369,12.7362,926,935,937.4
,,,,,
,,,,,
,,,,,
,,,,,
,,,,,
,,,,,
,,,,,
,,,,,
,,,,,
,,,,,
,,,,,
,,,,,
,,,,,
,,,,,
,,,,,
,,,,,
,,,,,
,,,,,
,,,,,
,,,,,
,,,,,
,,,,,
,,,,,
,,,,,
,,,,,
,,,,,
,,,,,
,,,,,
,,,,,
,,,,,
,,,,,
,,,,,
,,,,,
,,,,,
,,,,,
,,,,,
,,,,,
,,,,,
,,,,,
,,,,,
,,,,,
,,,,,
,,,,,
,,,,,
,,,,,
,,,,,
,,,,,
,,,,,
,,,,,
,,,,,
,,,,,
,,,,,
,,,,,