File: Non-charring/PMMA/UQ/UQ_Cone_65kW_2.csv
Time,Mass,HRR,Back Surface Temperature 1,Back Surface Temperature 2,Back Surface Temperature 3
[s],[g],[kW/m2],[K],[K],[K]
0,70.44811,0.139231,308.8,307.1,307.1
1,70.35936,0.230894,309.1,307.3,307.4
2,70.19916,0.454309,309.4,307.7,307.7
3,70.10478,-0.133045,309.6,308,308.2
4,70.13483,-0.524789,310.1,308.4,308.6
5,70.09248,-0.794572,310.4,308.8,309
6,70.04514,-0.93145,310.7,309.3,309.5
7,70.08791,-0.907997,311.1,309.7,310
8,70.25758,0.130609,311.6,310.2,310.5
9,70.11897,0.343975,312,310.7,311.1
10,70.22326,0.12625,312.6,311.3,311.7
11,70.28271,-0.0220414,313.1,311.8,312.3
12,70.45176,-0.0364234,313.6,312.4,313
13,70.27208,0.171147,314.2,313,313.5
14,70.13999,0.492224,314.8,313.5,314.2
15,70.01445,0.463102,315.5,314.1,315
16,70.33007,-0.119137,316.1,314.7,315.9
17,70.22996,-1.27968,316.8,315.3,316.6
18,70.10614,-1.78405,317.5,315.9,317.4
19,70.07577,-2.53829,318.2,316.6,318.3
20,70.4283,-0.358706,318.9,317.3,319.1
21,70.47358,6.41757,319.7,318,320
22,70.25314,18.1616,320.5,318.7,320.8
23,70.3443,35.456,321.3,319.4,321.7
24,70.02793,63.2656,322.1,320.1,322.6
25,70.29615,90.5878,323,320.8,323.5
26,70.22847,114.944,323.8,321.5,324.5
27,70.31726,139.598,324.6,322.3,325.5
28,70.46138,161.249,325.5,323.1,326.4
29,70.29919,179.175,326.4,323.9,327.4
30,70.34594,193.936,327.3,324.7,328.4
31,70.5077,207.48,328.2,325.5,329.4
32,70.5168,222.225,329.2,326.3,330.4
33,70.4757,234.676,330.1,327.1,331.4
34,70.4472,245.913,331.1,328,332.5
35,70.4425,258.375,332,328.9,333.6
36,70.3905,269.969,333,329.8,334.6
37,70.285,282.698,334,330.8,335.6
38,70.1597,298.432,335,331.7,336.6
39,70.07662,312.999,336,332.8,337.6
40,70.0301,326.908,337,333.8,338.6
41,69.9845,344.263,338,334.9,339.6
42,69.9449,359.422,339,336,340.7
43,69.8348,375.791,340,337.1,341.8
44,69.7426,394.968,341.1,338.3,342.8
45,69.6186,414.034,342.1,339.5,343.7
46,69.5025,432.82,343.1,340.7,344.7
47,69.375,453.734,344.1,341.9,345.9
48,69.2375,468.97,345.2,343.1,347
49,69.0888,487.81,346.2,344.4,347.9
50,68.9551,509.889,347.2,345.6,348.9
51,68.7847,531.875,348.2,346.8,350
52,68.62991,552.723,349.2,348,351
53,68.5033,569.6,350.2,349.2,351.9
54,68.412,578.726,351.3,350.4,352.9
55,68.2505,588.382,352.4,351.6,353.8
56,68.1426,600.874,353.4,352.7,354.7
57,67.9669,613.476,354.4,353.9,355.7
58,67.8158,623.841,355.4,355.1,356.6
59,67.666,632.191,356.4,356.3,357.7
60,67.4708,637.258,357.4,357.4,358.5
61,67.311,648.634,358.4,358.6,359.5
62,67.1282,664.091,359.4,359.8,360.4
63,66.96,677.777,360.4,361,361.4
64,66.8034,687.836,361.4,362.1,362.2
65,66.5961,695.172,362.4,363.3,363.1
66,66.4328,704.123,363.3,364.5,364
67,66.2117,707.471,364.2,365.7,364.8
68,66.013,708.989,365,366.9,365.6
69,65.8639,706.597,365.8,368.1,366.4
70,65.6497,709.321,366.6,369.2,367.2
71,65.4661,714.745,367.3,370.2,368.1
72,65.3006,714.612,368.1,371.2,368.9
73,65.1023,720.575,368.9,372.2,369.5
74,64.9264,720.92,369.7,373.2,370.4
75,64.7342,719.3,370.5,374.2,371.2
76,64.5381,724.038,371.3,375.2,372.1
77,64.3618,733.136,372.2,376.2,373.1
78,64.2002,736.151,373.2,377.2,374
79,64.0144,738.946,374.1,378.2,375
80,63.8199,741.254,375.1,379.2,376
81,63.6229,738.889,376,380.3,377.1
82,63.448,741.903,377,381.4,378
83,63.2824,749.965,378,382.5,379.1
84,63.0762,760.081,379.1,383.6,380.2
85,62.8667,776.037,380.1,384.7,381.4
86,62.6631,789.618,381.1,385.9,382.6
87,62.4881,800.17,382.2,387,383.8
88,62.2411,806.27,383.2,388.1,385
89,62.013,808.128,384.4,389.3,386.2
90,61.7654,811.094,385.6,390.5,387.5
91,61.59142,815.212,386.8,391.6,388.7
92,61.3683,814.776,387.9,392.8,389.9
93,61.1571,810.954,389.1,394,391.2
94,60.9358,816.586,390.2,395.2,392.4
95,60.7231,819.094,391.4,396.4,393.7
96,60.4844,818.65,392.5,397.6,394.9
97,60.2475,816.484,393.7,398.7,396.1
98,60.0829,818.719,395,399.9,397.3
99,59.8637,814.767,396.1,401.1,398.7
100,59.6494,814.004,397.3,402.3,399.7
101,59.4223,810.482,398.5,403.6,401
102,59.166,805.569,399.6,404.8,402
103,58.9576,801.51,400.9,406,403.4
104,58.7331,801.703,402,407.2,404.5
105,58.5154,800.342,403.1,408.4,405.8
106,58.2589,803.503,404.4,409.6,407
107,58.0121,801.276,405.6,410.8,408.4
108,57.8059,799.569,406.8,412,409.6
109,57.5617,795.352,408,413.2,410.7
110,57.2891,795.687,409.2,414.5,412
111,57.0376,798.706,410.2,415.7,413.2
112,56.8024,797.565,411.3,416.9,414.4
113,56.5251,794.755,412.5,418.1,415.7
114,56.2992,794.18,413.7,419.3,417
115,56.0415,804.149,414.9,420.5,418.3
116,55.8046,814.386,416.2,421.7,419.5
117,55.5985,823.49,417.3,423,420.9
118,55.4121,833.346,418.5,424.2,422.3
119,55.1761,838.283,419.8,425.4,423.7
120,54.9331,839.659,421,426.7,425.2
121,54.6144,843.633,422.2,427.9,426.5
122,54.3318,850.954,423.4,429.2,427.9
123,54.1027,859.822,424.7,430.4,429.3
124,53.9305,865.355,425.9,431.7,430.7
125,53.639,874.412,427,433,432.2
126,53.3716,875.438,428.4,434.2,433.5
127,53.1555,883.428,429.6,435.6,435.2
128,52.9245,892.763,430.9,436.9,436.8
129,52.63846,892.496,432.2,438.2,438.3
130,52.3446,888.945,433.5,439.5,439.9
131,52.0537,891.743,434.8,440.9,441.5
132,51.816,894.84,436.1,442.2,443.1
133,51.5007,900.009,437.5,443.6,444.7
134,51.2139,903.726,438.8,444.9,446.2
135,50.97921,903.474,440.1,446.3,447.8
136,50.7156,903.645,441.5,447.7,449.4
137,50.3994,902.075,442.8,449.1,451.1
138,50.1429,902.616,444.3,450.5,452.7
139,49.9324,909.577,445.8,452,454.4
140,49.6789,908.157,447.1,453.4,456.1
141,49.3693,908.529,448.4,454.8,457.7
142,49.0725,905.22,449.9,456.3,459.4
143,48.8376,907.97,451.2,457.8,461.1
144,48.5903,917.018,452.6,459.2,462.9
145,48.2324,916.599,454,460.7,464.7
146,47.9231,911.807,455.3,462.1,466.4
147,47.577,910.291,456.5,463.5,468.1
148,47.2974,909.597,457.9,465,469.8
149,47.1046,911.827,459.2,466.4,471.5
150,46.8087,910.914,460.5,467.9,473.1
151,46.51884,913.542,461.5,469.3,474.8
152,46.2997,917.061,462.6,470.8,476.4
153,46.0221,918.816,463.7,472.2,478.1
154,45.6312,929.934,464.6,473.7,479.6
155,45.3816,939.781,465.7,475.2,481.2
156,45.0136,944.099,467.1,476.6,482.5
157,44.6506,944.849,468.4,478.1,483.9
158,44.3068,945.257,469.7,479.6,485.4
159,44.0633,940.169,471.2,481.1,486.8
160,43.823,941.092,472.6,482.6,488.5
161,43.4696,939.902,473.8,484.2,490.1
162,43.1032,940.84,475.2,485.8,491.7
163,42.7623,941.904,476.6,487.2,493
164,42.4946,942.68,478.2,488.8,494.4
165,42.2776,949.99,479.7,490.3,495.4
166,41.9987,946.821,481.2,491.9,496.9
167,41.7021,945.216,482.9,493.5,498.2
168,41.4051,945.08,484.4,495,499.6
169,41.0702,944.38,485.9,496.6,501
170,40.7638,947.5,487.5,498.3,502.5
171,40.4948,947.155,489,500.1,504.1
172,40.1945,951.539,490.7,501.8,505.6
173,39.8562,954.081,492.2,503.5,507.2
174,39.5697,952.595,493.9,505.4,508.9
175,39.2671,950.134,495.6,507.1,510.6
176,38.9057,951.478,497.5,509,512.3
177,38.5888,955.575,499.3,510.8,514.3
178,38.3001,959.691,501,512.7,516.4
179,37.9991,959.962,502.7,514.5,518.8
180,37.6677,960.506,504.6,516.6,521.1
181,37.4038,965.089,506.8,518.4,523.4
182,37.1045,971.919,508.7,520.2,525.5
183,36.8026,976.548,510.9,522.3,528.4
184,36.4995,976.613,513.1,524.5,531
185,36.1614,974.323,515.4,526.5,533.8
186,35.7705,973.699,517.7,528.5,536.7
187,35.4203,981.359,520.1,530.5,539.3
188,35.0484,982.452,523,532.5,542.2
189,34.6678,984.798,525.6,534.6,545.1
190,34.381,985.773,528.5,536.6,548.2
191,34.1095,992.43,531.3,538.6,551
192,33.8259,994.326,534,540.7,553.8
193,33.3896,994.207,536.8,543,556.8
194,33.0681,992.192,540.3,545.3,559.8
195,32.70311,984.543,543.3,547.6,562.9
196,32.387,973.717,546.3,550.1,566.2
197,32.0609,969.465,549.3,552.7,569.3
198,31.784,964.793,552.1,555.4,572.4
199,31.5051,960.305,555,558.1,575.8
200,31.1422,956.244,557.9,560.9,579.3
201,30.8149,953.921,560.7,563.9,582.9
202,30.509,949.794,563.6,566.8,586.5
203,30.17123,947.515,566.6,569.9,590.1
204,29.86872,951.01,569.3,573.3,593.7
205,29.5939,956.988,572.2,576.8,597.4
206,29.3461,963.209,575.2,580.3,601.2
207,28.9727,971.279,578.4,583.7,605
208,28.5555,976.85,581.4,587.2,608.9
209,28.2536,973.983,584.8,590.7,613.2
210,27.9604,973.998,587.9,594.3,617.7
211,27.7032,971.108,591.3,597.7,622.5
212,27.4423,964.346,594.8,601.1,627.7
213,27.0538,962.613,598.4,604.6,632.9
214,26.7468,963.306,602.3,608.1,638.3
215,26.4261,960.396,606.1,611.2,644.3
216,26.0694,965.009,610,614.5,652.2
217,25.722,968.545,614,617.9,661.4
218,25.4044,976.162,618.2,621.3,672.2
219,25.0504,980.67,622.5,625,684.8
220,24.6373,985.202,626.9,629.1,699.4
221,24.2554,988.61,631.4,633.3,714.2
222,23.9358,991.236,635.7,637.3,730.2
223,23.6722,990.964,640.3,642.1,745.7
224,23.376,990.263,646.3,647.8,759.3
225,23.0773,993.4775,653.2,654.4,772
226,22.7572,1001.27,661,661.1,783
227,22.4737,1008.58,669.8,668,792.5
228,22.1067,1016.35,680.4,675.9,801.1
229,21.66117,1020.5,691.2,683.8,809
230,21.2623,1020.42,702.4,692.3,816.1
231,20.91298,1023.6,714,701.3,822.7
232,20.5881,1022.97,723.8,710.1,828.7
233,20.3067,1030.57,734.2,718,834.3
234,20.0031,1037.51,745.7,725.7,839.3
235,19.6867,1037.15,757.6,733.1,844.4
236,19.38,1030.55,769.6,739.9,849.2
237,19.05091,1020.46,779.5,746.6,853.9
238,18.7222,1008.93,787.7,753.4,858.5
239,18.4619,990.211,795.2,760.5,862.8
240,18.2656,962.912,801.7,767.2,867.2
241,18.0918,936.157,807.7,773.7,871.4
242,17.8063,908.539,813.3,780.3,875.6
243,17.4889,878.869,818.8,786.9,879.7
244,17.1508,848.79,824.1,793.4,883.8
245,16.9025,825.346,829.4,799.8,887.9
246,16.7234,795.71,834.5,806.2,891.4
247,16.5083,767.721,839.5,812.4,895
248,16.2129,741.369,844.1,818.5,898.6
249,15.9309,708.231,848.6,824.7,902
250,15.5891,678.529,853,831,905.3
251,15.3104,655.715,857.2,837.2,908.5
252,15.1357,637.139,861.1,843.6,911.7
253,14.8996,620.33,865,849.5,915.9
254,14.7221,606.845,868.7,853.8,918.7
255,14.5595,592.453,872,858.9,920.8
256,14.4197,578.781,875.4,863.9,922.6
257,14.1355,566.224,878.7,868.9,925.2
258,13.8755,557.072,881.8,873.1,928.1
259,13.717,546.766,884.9,877.3,930.7
260,13.5866,534.658,887.9,880.6,933.8
261,13.45,523.462,890.5,883.3,936.6
262,13.1518,514.067,893.3,886.2,939.2
263,13.0257,505.821,896.1,889.4,941.1
264,12.8779,496.885,898.4,891.8,943.7
265,12.7033,488.638,900.9,894.7,946.1
266,12.5588,484.05,903.4,897.6,948.3
267,12.4292,481.274,905.6,900.1,949.3
268,12.3099,473.003,907.8,902.5,950
269,12.1298,462.882,909.7,904.8,951.5
270,11.9802,451.08,911.6,907.2,952.7
271,11.8967,441.65,913.4,909.2,954.4
272,11.6989,434.012,915.1,911.1,956
273,11.5725,425.319,916.6,912.6,957.4
274,11.4247,416.876,918,914.1,958.5
275,11.29212,409.657,919.5,915.8,959.7
276,10.9476,404.416,920.7,917.4,960.8
277,10.7112,398.537,922,918.8,961.7
278,10.6483,396.186,923.3,920.3,962.5
279,10.5092,394.795,924.4,921.8,963.8
280,10.4026,393.769,925.8,923.7,965
281,10.334,393.465,927,925.4,965.5
282,10.1564,392.206,928.1,926.9,966.3
283,9.97441,385.88,929.3,928.5,967.5
284,9.796167,378.598,930.4,929.9,969
285,9.61755,372.826,931.4,931.3,970.3
286,9.476884,368.546,932.5,933,971
287,9.299726,367.326,933.5,934.6,972
288,9.239637,365.504,934.5,935.7,973
289,9.104182,363.891,935.4,936.7,973.4
290,9.015041,361.762,936.3,937.8,974.3
291,9.030062,359.628,937.3,939.2,975.8
292,8.919021,357.264,938.4,940.6,977.1
293,8.760555,353.315,939.3,941.6,978
294,8.63789,345.21,940.3,942.8,979.1
295,8.518187,336.991,941.2,944.1,979.6
296,8.426416,329.837,942.3,945.4,980.5
297,8.300324,322.585,943.3,946.4,981.7
298,8.170063,319.328,944.4,947.9,983
299,8.100723,314.835,945.6,949.6,984.3
300,8.060969,309.534,946.7,950.4,985.4
301,7.922321,302.934,947.8,951.3,986.5
302,7.820686,296.001,948.7,952.8,987.9
303,7.728726,290.983,949.7,954,989.2
304,7.632089,286.562,950.8,954.8,990.1
305,7.489387,281.854,951.8,956,991.4
306,7.488015,276.724,952.7,957,992.7
307,7.326808,271.83,953.5,957.7,993.9
308,7.216089,268.063,954.5,958.4,995.1
309,7.143187,263.483,955.4,959.4,996.7
310,7.070866,260.024,956.3,959.9,998.1
311,6.970479,255.497,957.3,960.7,999.3
312,6.936271,250.886,958.5,962.2,1000.7
313,6.853793,247.581,959.7,963,1001.5
314,6.841709,244.055,961,963.7,1002.4
315,6.785766,240.868,962.2,964.4,1003.3
316,6.63344,238.165,963.5,965.4,1004.3
317,6.548472,236.011,964.8,966.5,1005.5
318,6.535356,233.722,966.1,967.4,1006.5
319,6.433691,231.784,967.2,968.8,1008.2
320,6.372181,228.099,968.3,969.7,1010.1
321,6.274136,225.295,969.8,970.9,1011.5
322,6.11959,222.986,971.3,971.6,1013
323,6.065656,221.799,973,973,1014.2
324,5.930285,217.922,974.8,973.9,1015.2
325,5.846218,214.948,976.5,974.3,1016.1
326,5.65122,212.759,978.3,974.7,1018.2
327,5.518247,210.381,980.2,975.7,1019.7
328,5.428898,207.72,982.4,977.7,1021.3
329,5.440784,205.554,984.7,978.9,1022.1
330,5.575387,202.666,986.7,979.8,1024
331,5.628657,200.934,988.8,979.9,1024.4
332,5.412932,199.524,990.3,981.1,1025.3
333,5.397966,198.262,992.2,982.2,1026.7
334,5.269987,194.907,994.5,983,1028.5
335,5.109965,190.353,996.8,986.6,1030.5
336,5.221699,186.831,999.1,987,1031.6
337,5.183262,183.453,1000.6,988,1033.7
338,5.173461,181.197,1002.7,989,1035.8
339,5.053679,178.561,1005.8,992.6,1036.4
340,5.019239,176.645,1008.6,994.7,1037.1
341,4.875446,175.304,1011.5,1002.1,1038.2
342,4.85341,172.932,1014.1,1007,1038.8
343,4.801698,169.821,1016.1,1004.5,1039.1
344,4.706735,167.62,1018.2,1004.5,1039.4
345,4.620872,165.991,1020.5,1008.3,1039.2
346,4.547846,164.102,1023.6,1007.7,1039.1
347,4.517884,161.708,1025.8,1006.4,1038.3
348,4.350666,158.822,1027.2,1005.3,1036.5
349,4.314187,155.525,1030,1009.1,1035.1
350,4.328008,153.248,1033.1,1025.2,1034.3
351,4.354179,152.509,1034.8,1021.2,1032.9
352,4.29865,151.277,1035.8,1019.8,1031.3
353,4.332769,149.223,1037.9,1025.3,1029.7
354,4.333371,146.882,1040.3,1044.7,1028.3
355,4.233389,142.051,1042,1052.1,1026.8
356,4.245411,136.803,1043.7,1044.8,1025.2
357,4.248268,131.722,1044.9,1054.9,1023.1
358,4.217443,128.138,1045.3,1056.6,1021.2
359,4.168051,125.248,1045.6,1062.5,1019.5
360,4.060605,122.039,1045.4,1066.8,1017.5
361,3.959526,119.224,1044.9,1069.4,1015.6
362,3.884954,116.333,1043.8,1071.9,1013.9
363,3.736575,113.271,1042.6,1074.7,1012.1
364,3.689101,110.674,1040.9,1077.1,1010.6
365,3.557595,108.398,1039.1,1079.8,1009.4
366,3.574286,106.915,1037.8,1078.3,1008.4
367,3.620257,106.091,1036.3,1077.5,1007.2
368,3.593911,104.532,1034.9,1080.4,1005.9
369,3.579416,102.485,1033.2,1081.4,1004.5
370,3.514271,100.017,1031.5,1080,1003.3
371,3.520598,98.0325,1030.1,1078,1001.9
372,3.495667,96.7396,1028.7,1079.9,1001
373,3.476751,96.0629,1027.2,1077.8,999.9
374,3.464186,95.4792,1025.8,1083.6,999
375,3.417739,95.0313,1024.3,1083.3,998.3
376,3.324706,94.807,1022.9,1083.4,998.1
377,3.32196,93.5171,1021.7,1084.5,997.7
378,3.325178,92.5255,1020.6,1085.6,996.8
379,3.298151,90.5794,1019.4,1078.6,995.8
380,3.214066,88.3631,1018.1,1077.3,995.1
381,3.114637,86.9773,1016.8,1073.6,994.1
382,3.063598,85.1754,1015,1073.2,993.2
383,3.055811,83.1682,1013.1,1075.1,992.3
384,3.076466,81.7758,1011.4,1079.1,991.2
385,2.988923,80.4713,1010,1077.5,990.2
386,2.862245,79.0716,1008.9,1072.6,989.3
387,2.814387,78.3386,1007.8,1072.4,988.4
388,2.839826,77.6636,1006.4,1057.2,987.5
389,2.882559,77.5207,1004.9,1048.3,986.8
390,2.87296,76.8062,1003.5,1050.8,986.3
391,2.858385,76.3978,1002.4,1050.9,985.3
392,2.821743,75.0904,1001.2,1047.6,984.6
393,2.759218,73.8982,999.8,1039.2,983.6
394,2.716704,72.5068,998.5,1041.2,982.6
395,2.630846,71.1163,997.3,1040,981.8
396,2.580542,69.8346,996.2,1048.6,981.1
397,2.550013,69.3076,995.2,1044.6,980.8
398,2.5058,69.0094,994.6,1043,980.5
399,2.439344,68.8375,993.9,1051.7,980.2
400,2.437773,67.0138,993.2,1043.7,979.3
401,2.451268,65.3218,992.2,1035.9,978.8
402,2.462006,64.4266,991.4,1032.1,978.2
403,2.449333,63.9123,990.7,1038,977.8
404,2.422606,63.4775,989.9,1031.2,977
405,2.370275,62.7153,989.1,1026.9,976.1
406,2.339321,62.0233,988.3,1020.5,975.4
407,2.293607,61.4802,987.4,1015.5,974.4
408,2.252726,60.8,986.5,1008.4,973.5
409,2.226136,60.3945,985.5,1001.5,973.2
410,2.192604,59.9597,984.8,999.7,973
411,2.159926,59.3618,984.1,997.6,972.1
412,2.139301,58.3566,983.4,996.9,971.1
413,2.131166,57.4857,982.4,996.2,970.4
414,2.10386,56.7689,981.5,997.7,970.1
415,2.072931,56.6138,980.6,995,969.3
416,2.060546,57.092,979.8,991.6,968.5
417,2.040099,56.7503,979,990.9,968.1
418,1.992879,56.4116,978.4,988.8,967.7
419,1.927797,55.8032,977.7,986.1,967.3
420,1.910932,54.5481,976.9,985.9,966.7
421,1.899564,53.7544,976.4,986.2,966.5
422,1.873399,52.8765,975.7,986.2,966.1
423,1.835255,51.706,975.1,983.5,965.9
424,1.779538,50.6573,974.7,981.2,965.4
425,1.738185,49.7356,974.1,980.8,964.7
426,1.683444,49.2907,973.5,981.9,964.1
427,1.626737,48.971,972.6,981.6,963.4
428,1.622591,48.7512,972.1,981.6,962.8
429,1.610135,47.7967,971.3,979,962.2
430,1.57974,46.9406,970.6,977.1,961.7
431,1.559995,46.007,970,975,961.3
432,1.552099,45.0986,969.4,973.4,961.1
433,1.538296,44.8905,969,971.5,960.9
434,1.513356,44.6153,968.4,971.4,960.6
435,1.489448,44.4483,967.8,970.8,960
436,1.518928,44.1905,967.1,970.5,959.6
437,1.539954,43.6157,966.5,970.7,959.2
438,1.535703,43.6217,965.9,968.1,958.7
439,1.512872,42.976,965.4,967.3,957.9
440,1.436313,42.6415,964.8,968.5,957.3
441,1.403925,41.9792,964.2,968.1,956.9
442,1.393586,41.9042,963.8,968.2,956.3
443,1.379142,41.4478,963.3,965,956
444,1.351856,40.8945,962.8,964,955.6
445,1.312122,40.4462,962.4,962.3,955
446,1.269229,40.434,961.9,962.6,954.6
447,1.240755,39.565,961.3,960.7,954.1
448,1.226261,38.5636,960.6,960.5,953.4
449,1.22969,37.7806,960.1,959.2,952.8
450,1.239146,37.7258,959.6,958.6,952.5
451,1.218495,38.0198,959.3,958.7,952
452,1.186514,37.5041,958.7,959.6,951.7
453,1.151867,37.1413,958.1,959.2,951.6
454,1.114077,37.1184,957.5,957.3,951.5
455,1.087794,37.0382,957.2,955.8,951.6
456,1.063343,36.6709,956.7,955.5,951.2
457,1.029452,36.2744,956.3,954.6,951
458,0.999332,35.9459,956,954,950.7
459,0.990696,34.861,955.6,953.6,950.2
460,0.96732,34.1978,955.2,953.3,949.8
461,0.91011,33.8076,954.7,954.1,949.6
462,0.894777,34.0027,954.2,955.9,949.3
463,0.88354,33.884,953.9,955.7,949.1
464,0.856826,33.6602,953.5,954.1,948.4
465,0.824349,32.8431,953.2,952.3,948.3
466,0.808294,32.446,953,953.1,948.1
467,0.803568,31.6232,952.9,952.4,948.3
468,0.748548,30.8387,952.7,952.4,948
469,0.742633,30.686,952.4,952,947.9
470,0.747999,30.1985,952,950.9,947.9
471,0.72133,29.3053,951.6,951.7,947.6
472,0.707854,29.084,951.1,951.9,947.2
473,0.718024,29.1777,950.8,951.1,947.1
474,0.712934,28.7542,950.5,951.1,947
475,0.696459,28.9014,950.2,950.6,946.7
476,0.684094,28.7274,950,949.7,946.5
477,0.639027,27.8193,949.8,949.1,946.2
478,0.585931,27.5731,949.5,948,945.7
479,0.555956,27.1723,949.2,948.7,945.1
480,0.517375,27.2666,949.1,949,944.8
481,0.498577,27.4362,948.8,947.2,944.7
482,0.497607,26.597,948.4,948.4,944.3
483,0.43603,26.1857,948.4,948.4,944.5
484,0.404061,26.1664,948.1,948.7,944.7
485,0.419407,26.4001,947.8,947.6,944.6
486,0.418331,26.0133,947.5,946.2,944.4
487,0.399144,25.9119,947.3,946.3,944
488,0.412882,25.5445,947.3,945.8,944
489,0.437044,25.2603,947.5,944.5,943.9
490,0.443576,25.1577,947.6,943.3,943.7
491,0.444,24.7024,947.3,944.4,943.4
492,0.441589,24.9372,947.2,941.7,943.1
493,0.439389,25.1139,946.9,942,943
494,0.438217,24.3013,946.8,942.7,942.9
495,0.414336,23.9226,946.4,941.3,942.9
496,0.38417,23.6507,946.1,941.8,942.9
497,0.350503,23.348,945.7,941.4,942.6
498,0.321578,23.4299,945.3,942,942.3
499,0.313601,23.3757,945.2,941.6,942.1
500,0.28257,23.2301,945,941.8,941.7
501,0.205976,23.1104,944.8,940.4,941.7
502,0.191414,22.5252,944.9,940.8,941.8
503,0.180719,22.5128,945,940.3,942.1
504,0.166693,22.1892,944.9,941.6,942
505,0.167235,21.7358,944.9,941.5,942
506,0.158273,21.5665,944.8,944.1,942
507,0.135684,20.8382,944.9,943.7,941.9
508,0.125388,20.777,944.9,944.2,941.9
509,0.124,21.0449,944.8,943.4,942.1
510,0.112778,21.2977,944.8,944.3,942
511,0.074408,21.1397,944.9,943.1,941.8
512,0.054406,20.9275,944.8,941.8,941.9
513,0.070169,20.3326,944.6,941,941.7
514,0.056118,20.0565,944.4,942.1,941.6
515,0.073281,20.311,944.3,940.1,941.6
516,0.054863,20.5769,944.2,942.2,941.4
517,0.054697,20.4303,944,942.1,941.5
518,0.071188,20.1666,943.8,941,941.6
519,0.059173,19.4716,943.7,942.3,941.7
520,0.060499,19.3762,943.7,941.5,941.5
521,0.067465,19.6747,943.6,942.1,941.1
522,0.065587,19.7861,943.6,942.4,941.2
523,0.065323,19.6017,943.7,941.5,941.3
524,0.060402,19.3859,943.7,939.7,940.9
525,0.057063,18.7691,943.7,939.9,940.8
526,0.061549,18.7851,943.5,940.4,940.7
527,0.064103,19.0007,943.3,941,940.6
528,0.055192,18.8813,943.3,940.4,940.3
529,0.070502,18.708,943.2,939.9,940.4
530,0.056594,17.8723,943.1,938.5,940.2
531,0.062871,17.7548,942.9,938.6,939.9
532,0.05715,17.2748,942.9,938.3,940
533,0.072778,17.4375,942.8,940.5,940
534,0.060423,16.6837,942.8,939.6,939.8
535,0.069418,16.3019,942.7,941.2,939.9
536,0.06181,16.1647,942.7,942.8,939.9
537,0.073346,16.1615,942.7,942.2,939.8
538,0.071548,16.382,942.7,940.5,940
539,0.072814,16.6698,942.6,940.5,939.9
540,0.056499,16.6342,942.4,941.7,939.9
541,0.054165,15.6619,942.3,941.2,939.8
542,0.067834,15.3783,942.3,938.6,939.7
543,0.059387,15.4423,942.2,939,939.8
544,0.061335,15.6567,942.2,938.4,939.7
545,0.055755,15.8678,942.2,937.9,939.6
546,0.059981,15.6505,942.3,939.2,939.5
547,0.07009,15.465,942.3,940.7,939.4
548,0.059811,14.7116,942.4,939.3,939.4
549,0.065515,14.6679,942.3,937.9,939.2
550,0.067527,14.9621,942.1,939.4,939.5
551,0.067938,15.1245,942.1,939.3,939.7
552,0.054546,15.6049,942,938.3,939.5
553,0.055876,15.6337,941.9,938.2,939.3
554,0.072867,15.7042,941.9,939,939
555,0.060359,15.8566,942,938,939.2
556,0.06882,15.4602,942.1,936.2,939.2
557,0.074762,15.3295,942.3,934.5,939.4
558,0.070306,14.411,942.4,935.4,939.8
559,0.063342,14.0312,942.4,936.1,939.8
560,0.07291,14.0336,942.2,936.4,940
561,0.056296,14.2002,941.9,936.7,939.9
562,0.064389,14.5461,941.9,935.3,940
563,0.074187,14.0764,941.6,934.9,939.9
564,0.067256,13.4696,941.5,936,939.7
565,0.074779,13.243,941.4,936,939.6
566,0.059142,13.2539,941.4,933.8,939.5
567,0.064397,13.473,941.4,933,939.7
568,0.054294,13.7592,941.5,934.5,939.9
569,0.059188,13.0254,941.5,932.3,939.8
570,0.059387,12.4472,941.5,933.1,939.6
571,0.074407,12.3047,941.5,935,939.6
572,0.059803,12.4208,941.6,936.4,939.6
573,0.064993,13.3196,941.8,934.6,939.6
574,0.070952,13.0606,942,936.1,939.4
575,0.071655,12.7712,942,937.1,939.4
576,0.054265,12.5428,942,934.8,939.4
577,0.061215,12.5212,942,936.4,939.5
578,0.070719,12.6213,942.1,938.6,939.4
579,0.054346,12.8919,942.2,938.5,939.4
580,0.063224,13.0893,942.2,938.7,939.5
581,0.054578,12.8137,942.3,937.8,939.6
582,0.058947,11.9789,942.3,936.6,939.6
583,0.071427,11.7575,942.1,937,939.8
584,0.063118,11.8801,942.1,937.5,940