File: Non-charring/PMMA/UQ/UQ_Cone_25kW_1.csv
Time,Mass,HRR,Back Surface Temperature 1,Back Surface Temperature 2,Back Surface Temperature 3
[s],[g],[kW/m2],[K],[K],[K]
0,70.70,3.94105,308,308.2,306.9
1,70.72,4.93,308.1,308.3,307.1
2,70.73,5.56421,308.2,308.3,307.2
3,70.65,5.98122,308.3,308.4,307.4
4,70.66,6.74562,308.5,308.6,307.6
5,70.67,7.05007,308.6,308.7,307.8
6,70.67,8.3567,308.8,308.8,308.1
7,70.64,8.42392,308.9,309,308.5
8,70.63,8.20519,309.1,309.1,308.7
9,70.62,7.2972,309.4,309.3,309
10,70.60,7.06444,309.6,309.4,309.3
11,70.58,6.58477,309.8,309.7,309.6
12,70.56,6.01221,310.1,309.8,310
13,70.55,5.39418,310.4,310,310.2
14,70.60,4.6289,310.6,310.2,310.8
15,70.60,3.6501,311,310.5,311
16,70.60,3.52431,311.3,310.7,311.8
17,70.57,2.90067,311.6,310.9,311.9
18,70.59,3.09482,311.9,311.2,312.5
19,70.62,2.88321,312.3,311.4,313
20,70.65,2.6007,312.6,311.7,313.5
21,70.65,2.28367,313,312,314
22,70.71,1.66003,313.3,312.3,314.5
23,70.78,1.77899,313.8,312.6,315
24,70.72,2.04767,314.3,312.9,315.6
25,70.73,1.80277,314.7,313.2,316.1
26,70.65,1.56,315.1,313.5,316.7
27,70.66,0.66247,315.5,313.9,317.3
28,70.67,0.622976,316,314.3,317.9
29,70.67,0.932191,316.4,314.5,318.4
30,70.66,1.059,316.9,314.9,318.9
31,70.67,0.787221,317.4,315.2,319.7
32,70.68,0.609425,317.9,315.6,320.3
33,70.69,0.53541,318.4,316,320.9
34,70.69,0.700891,318.9,316.4,321.7
35,70.70,1.01244,319.4,316.7,322.3
36,70.71,1.04213,319.9,317.1,322.8
37,70.72,0.786633,320.4,317.5,323.4
38,70.73,0.613733,320.9,318,323.9
39,70.73,0.578888,321.5,318.3,324.6
40,70.73,0.670704,322,318.8,325.3
41,70.74,1.00439,322.6,319.2,326
42,70.74,0.917041,323.1,319.6,326.7
43,70.73,0.69225,323.7,320.1,327.4
44,70.73,0.588561,324.2,320.5,328.2
45,70.74,0.615175,324.8,321,328.8
46,70.74,0.829955,325.4,321.4,329.5
47,70.74,1.14418,326,322,330.1
48,70.74,0.985645,326.6,322.4,330.8
49,70.74,0.69193,327.2,322.9,331.4
50,70.73,0.57492,327.7,323.3,332.2
51,70.73,0.634347,328.3,323.8,332.9
52,70.74,0.859977,328.9,324.3,333.6
53,70.75,1.14973,329.6,324.8,334.2
54,70.74,0.923266,330.2,325.3,335
55,70.74,0.668867,330.7,325.9,335.7
56,70.75,0.581463,331.4,326.4,336.4
57,70.77,0.683418,332,326.9,337.1
58,70.77,0.947901,332.6,327.4,337.8
59,70.78,1.1676,333.2,328,338.6
60,70.79,0.92034,333.8,328.6,339.2
61,70.79,-0.144739,334.4,329.1,339.9
62,70.78,-0.394695,335,329.7,340.6
63,70.77,-0.28838,335.7,330.3,341.3
64,70.77,0.009501836,336.3,330.9,342
65,70.76,0.913371,337,331.5,342.7
66,70.76,0.83607,337.5,332.1,343.5
67,70.76,0.616227,338.1,332.7,344.1
68,70.76,0.541683,338.8,333.3,344.7
69,70.77,0.732718,339.4,334,345.4
70,70.78,0.26116,340,334.6,346.1
71,70.78,0.0671782,340.6,335.2,346.8
72,70.79,-0.225708,341.2,335.9,347.5
73,70.79,-0.392824,341.9,336.6,348.2
74,70.79,-0.409767,342.5,337.2,348.9
75,70.78,-0.231157,343.1,337.9,349.5
76,70.77,0.109652,343.7,338.6,350.1
77,70.76,0.01425016,344.3,339.3,350.8
78,70.76,-0.262216,344.9,340,351.4
79,70.77,-0.459773,345.5,340.7,352.4
80,70.77,-0.415703,346.2,341.4,352.9
81,70.77,-0.207348,346.7,342.1,353.5
82,70.77,0.126013,347.3,342.9,354.1
83,70.77,-0.0470721,347.9,343.6,354.8
84,70.77,-0.327463,348.5,344.3,355.5
85,70.78,-0.462967,349.1,345,356.1
86,70.79,-0.398616,349.6,345.7,356.7
87,70.79,-0.163101,350.2,346.4,357.3
88,70.77,0.103573,350.8,347.1,358
89,70.76,-0.111729,351.3,347.8,358.5
90,70.75,-0.388858,351.8,348.4,359.2
91,70.75,-0.493095,352.4,349,359.8
92,70.74,0.339133,352.9,349.5,360.5
93,70.74,0.919208,353.4,350.1,361.1
94,70.74,1.16008,354,350.7,361.4
95,70.73,0.891933,354.5,351.2,362
96,70.73,0.628761,355,351.8,362.4
97,70.72,0.570705,355.5,352.3,363.1
98,70.71,0.711169,356.1,352.9,363.5
99,70.71,0.986152,356.6,353.5,364.1
100,70.71,1.08272,357.1,354,364.5
101,70.70,0.838071,357.6,354.5,365
102,70.69,-0.227132,358.1,355,365.4
103,70.69,-0.430026,358.6,355.6,365.8
104,70.68,-0.307372,359.1,356.1,366.2
105,70.67,0.020493,359.6,356.6,366.6
106,70.67,0.046589,360.1,357.1,367
107,70.66,-0.238261,360.6,357.7,367.4
108,70.65,-0.417633,361.1,358.3,367.9
109,70.64,-0.416418,361.6,358.8,368.3
110,70.64,-0.226446,362.2,359.4,368.7
111,70.63,0.0614407,362.6,359.9,369.2
112,70.63,-0.047864,363.2,360.4,369.6
113,70.63,-0.328186,363.6,361,370
114,70.62,0.346079,364.2,361.5,370.4
115,70.61,0.598951,364.6,362,370.8
116,70.59,0.819228,365.2,362.6,371.3
117,70.58,1.13999,365.7,363.1,371.6
118,70.58,1.00346,366.3,363.7,372
119,70.57,0.7330784,366.8,364.2,372.4
120,70.55,0.607989,367.3,364.8,372.8
121,70.53,0.65857,367.9,365.3,373.3
122,70.51,0.890179,368.4,365.9,373.7
123,70.50,1.16733,368.9,366.4,374.2
124,70.50,0.940537,369.5,367,374.7
125,70.49,0.689145,370,367.5,375.1
126,70.48,0.60716,370.5,368,375.6
127,70.48,0.677419,371.1,368.6,376.1
128,70.47,0.919389,371.6,369.1,376.6
129,70.47,1.11321,372.1,369.6,377.1
130,70.47,0.856677,372.7,370.1,377.5
131,70.47,-0.176567,373.2,370.6,378.1
132,70.46,-0.465692,373.7,371.2,378.6
133,70.45,-0.348727,374.3,371.7,379.2
134,70.44,-0.147831,374.9,372.2,379.7
135,70.43,-0.274374,375.4,372.8,380.2
136,70.42,-0.58261,376,373.3,380.7
137,70.42,-0.913923,376.5,374,381.2
138,70.41,-0.280338,377,374.4,381.6
139,70.41,1.69855,377.6,375.1,382.3
140,70.41,5.00449,378.1,375.6,382.8
141,70.41,7.83103,378.7,376.1,383.3
142,70.40,11.635,379.2,376.7,383.7
143,70.39,16.5943,379.7,377.2,384.5
144,70.38,23.5351,380.3,377.9,385
145,70.32,30.0981,380.9,378.4,385.5
146,70.26,38.05,381.4,378.9,386.1
147,70.37,44.0866,381.9,379.6,386.6
148,70.39,49.0468,382.4,380.1,387.2
149,70.37,54.9295,383,380.6,387.7
150,70.36,60.8485,383.5,381,388.4
151,70.34,67.2907,384,381.7,389
152,70.31,73.7773,384.6,382.3,389.7
153,70.28,77.7348,385.1,382.8,390.3
154,70.24,83.4554,385.7,383.4,390.8
155,70.20,89.2924,386.2,384,391.6
156,70.16,94.5183,386.8,384.6,392.2
157,70.12,99.2284,387.3,385.2,392.9
158,70.09,104.29,387.9,385.7,393.6
159,70.06,109.329,388.5,386.4,394.3
160,70.03,112.865,389.1,387,395
161,69.98,115.919,389.7,387.6,395.7
162,69.92,121.741,390.3,388.2,396.4
163,69.88,125.842,391,388.8,397.1
164,69.85,131.028,391.6,389.5,397.8
165,69.81,135.003,392.2,390,398.5
166,69.72,138.946,392.8,390.7,399.2
167,69.67,144.001,393.5,391.4,399.8
168,69.64,148.624,394.1,392.1,400.5
169,69.60,152.749,394.7,392.7,401.2
170,69.54,157.703,395.4,393.4,401.8
171,69.44,162.651,396,394,402.5
172,69.38,168.178,396.7,394.6,403.2
173,69.33,174.22,397.3,395.3,403.8
174,69.28,180.028,397.8,396,404.5
175,69.18,184.48,398.4,396.6,405.1
176,69.13,190.181,399.2,397.3,405.7
177,69.09,194.881,399.8,397.9,406.4
178,69.04,201.449,400.4,398.5,407
179,68.91,207.697,401,399.2,407.6
180,68.83,213.147,401.6,399.8,408.2
181,68.75,217.378,402.2,400.4,408.8
182,68.65,220.605,402.9,401,409.5
183,68.58,225.445,403.5,401.7,410.1
184,68.53,232.129,404.1,402.3,410.7
185,68.44,237.033,404.7,402.8,411.5
186,68.36,241.172,405.3,403.5,411.9
187,68.30,244.197,405.9,404,412.5
188,68.20,247.815,406.5,404.7,413.1
189,68.09,251.887,407.1,405.3,413.7
190,67.97,257.899,407.8,405.9,414.4
191,67.89,261.984,408.3,406.5,415
192,67.80,266.311,409,407.2,415.6
193,67.70,268.521,409.5,407.7,416.2
194,67.62,272.043,410.1,408.3,416.8
195,67.51,276.458,410.9,408.9,417.4
196,67.41,280.172,411.4,409.5,418
197,67.29,284.553,412,410.2,418.7
198,67.20,285.836,412.7,410.8,419.3
199,67.09,290.475,413.3,411.4,419.9
200,66.98,292.9,414,412,420.6
201,66.91,295.856,414.5,412.6,421.3
202,66.82,298.054,415.2,413.3,421.9
203,66.70,299.247,415.8,413.9,422.3
204,66.62,301.144,416.4,414.5,423.1
205,66.49,301.863,417,415.1,423.8
206,66.39,304.175,417.6,415.7,424.4
207,66.26,304.464,418.2,416.3,425.1
208,66.18,303.501,418.9,417,425.7
209,66.09,304.119,419.5,417.6,426.4
210,65.98,308.667,420.1,418.2,427
211,65.87,310.217,420.7,418.8,427.7
212,65.76,312.091,421.2,419.4,428.4
213,65.67,313.444,421.8,420,429.1
214,65.55,314.459,422.4,420.7,429.8
215,65.46,316.015,423,421.2,430.4
216,65.39,320.84,423.6,421.8,431
217,65.24,324.119,424.2,422.4,431.7
218,65.12,323.964,424.8,423,432.3
219,65.00,323.35,425.3,423.7,433
220,64.88,325.831,425.9,424.2,433.6
221,64.76,328.902,426.5,424.8,434.3
222,64.67,329.861,427.1,425.4,434.9
223,64.53,330.927,427.6,426,435.5
224,64.44,334.751,428.2,426.5,436.2
225,64.32,338.651,428.8,427.1,436.8
226,64.20,342.637,429.3,427.7,437.4
227,64.07,344.73,429.9,428.3,438
228,63.94,348.381,430.5,428.8,438.6
229,63.83,349.552,431,429.4,439.3
230,63.68,351.95,431.6,430,439.9
231,63.55,354.614,432.2,430.6,440.5
232,63.44,353.983,432.7,431.2,441.2
233,63.33,354.261,433.3,431.8,441.8
234,63.21,356.79,433.8,432.3,442.4
235,63.10,358.943,434.3,432.9,443
236,62.99,357.421,434.8,433.4,443.6
237,62.90,356.64,435.4,434,444.1
238,62.77,359.79,436,434.5,444.8
239,62.63,363.225,436.5,435.1,445.4
240,62.51,364.807,437.1,435.7,446
241,62.38,366.037,437.6,436.2,446.6
242,62.27,363.459,438.1,436.8,447.1
243,62.15,361.262,438.7,437.4,447.8
244,62.01,360.891,439.2,437.9,448.3
245,61.87,360.584,439.7,438.5,449
246,61.74,361.419,440.3,439.1,449.6
247,61.62,362.557,440.8,439.6,450.3
248,61.49,363.769,441.3,440.2,450.8
249,61.39,364.922,441.9,440.7,451.4
250,61.24,367.134,442.4,441.3,452.1
251,61.11,368.127,443,441.8,452.7
252,61.00,368.703,443.5,442.4,453.3
253,60.91,368.004,444,443,453.9
254,60.76,368.513,444.6,443.6,454.5
255,60.65,372.877,445.1,444.1,455.1
256,60.54,374.297,445.7,444.7,455.7
257,60.41,375.102,446.2,445.3,456.3
258,60.28,374.979,446.7,445.8,456.9
259,60.16,376.142,447.3,446.3,457.5
260,60.02,376.729,447.9,446.9,458.1
261,59.88,377.478,448.3,447.4,458.7
262,59.74,376.91,448.9,448,459.3
263,59.63,379.74,449.4,448.5,459.9
264,59.50,382.646,450,449.1,460.7
265,59.36,384.319,450.5,449.6,461.1
266,59.27,382.354,451.1,450.1,461.7
267,59.13,382.578,451.5,450.7,462.3
268,58.99,386.058,452,451.3,462.8
269,58.86,387.929,452.6,451.8,463.4
270,58.72,388.445,453.1,452.3,464
271,58.60,388.349,453.6,452.8,464.6
272,58.49,391.434,454.1,453.4,465.3
273,58.34,394.676,454.7,453.9,465.8
274,58.18,395.985,455.2,454.5,466.4
275,58.07,394.478,455.6,455,466.9
276,57.95,394.423,456.2,455.6,467.5
277,57.81,395.084,456.7,456.1,468.1
278,57.68,393.596,457.2,456.8,468.7
279,57.59,392.106,457.8,457.3,469.2
280,57.42,388.161,458.3,457.8,469.8
281,57.27,390.078,458.8,458.3,470.3
282,57.15,394.541,459.3,458.9,471
283,57.01,398.104,459.8,459.4,471.6
284,56.87,396.683,460.2,459.8,472.2
285,56.77,397.347,460.8,460.4,472.7
286,56.64,399.073,461.3,460.9,473.4
287,56.51,400.187,461.8,461.4,474
288,56.36,402.18,462.3,461.9,474.5
289,56.20,405.18,462.8,462.5,475.1
290,56.07,405.687,463.2,463,475.7
291,55.93,403.691,463.7,463.6,476.3
292,55.79,406.846,464.2,464.1,476.8
293,55.64,408.116,464.7,464.6,477.4
294,55.52,408.895,465.3,465.1,477.9
295,55.40,409.116,465.8,465.6,478.6
296,55.28,409.747,466.3,466.2,479.3
297,55.14,409.286,466.8,466.7,479.5
298,55.00,408.489,467.3,467.2,480.3
299,54.86,406.999,467.8,467.8,480.8
300,54.70,406.94,468.4,468.3,481.4
301,54.56,408.551,468.9,468.8,482
302,54.43,405.605,469.4,469.2,482.5
303,54.29,406.276,469.9,469.7,483
304,54.15,410.872,470.3,470.3,483.7
305,54.03,413.742,470.9,470.8,483.9
306,53.85,415.28,471.4,471.3,484.6
307,53.71,417.998,471.9,471.8,485.1
308,53.57,417.368,472.4,472.2,485.7
309,53.41,419.202,472.9,472.7,486.3
310,53.30,423.155,473.4,473.2,486.8
311,53.16,424.07,473.9,473.7,487.4
312,53.00,423.423,474.4,474.3,487.9
313,52.86,422.424,474.9,474.8,488.5
314,52.74,422.452,475.3,475.1,489
315,52.59,424.101,475.8,475.6,489.7
316,52.43,427.284,476.3,476.3,490.2
317,52.28,431.086,476.8,476.8,490.7
318,52.16,431.209,477.2,477.3,491.3
319,52.02,431.583,477.7,477.7,491.8
320,51.86,431.664,478.2,478.3,492.4
321,51.71,431.612,478.7,478.8,493
322,51.56,428.836,479.1,479.2,493.6
323,51.42,429.644,479.6,479.7,494.1
324,51.29,429.611,480.1,480.2,494.7
325,51.13,428.788,480.6,480.6,495.3
326,50.99,428.538,481.1,480.9,495.7
327,50.85,429.208,481.6,481.2,496.2
328,50.72,430.41,482.1,481.6,496.7
329,50.56,429.661,482.5,482.1,497.3
330,50.43,433.429,483,482.5,498
331,50.26,433.6,483.4,482.9,498.5
332,50.11,432.666,484,483.6,499
333,49.97,433.54,484.4,484.3,499.5
334,49.81,431.683,484.9,484.9,500
335,49.65,427.316,485.4,485.4,500.6
336,49.52,430.718,485.9,486,501.1
337,49.38,438.089,486.3,486.4,501.6
338,49.23,441.435,486.8,487,502.2
339,49.08,443.007,487.3,487.6,502.7
340,48.95,443.487,487.8,488.1,503.3
341,48.80,443.45,488.2,488.7,503.7
342,48.66,444.798,488.7,489.2,504.3
343,48.51,447.323,489.2,489.7,504.9
344,48.35,446.659,489.7,490.1,505.4
345,48.21,445.715,490.2,490.6,505.9
346,48.03,445.01,490.8,491,506.4
347,47.87,449.444,491.2,491.5,506.9
348,47.71,448.895,491.6,492,507.3
349,47.58,448.592,492.1,492.5,507.7
350,47.42,451.432,492.5,493,508.2
351,47.28,451.788,493,493.5,508.7
352,47.14,453.351,493.4,494,509.4
353,46.97,452.904,493.9,494.5,509.9
354,46.79,456.743,494.3,494.9,510.3
355,46.64,458.258,494.8,495.4,511
356,46.49,458.393,495.4,495.8,511.5
357,46.33,458.533,495.9,496.3,512
358,46.16,460.249,496.3,496.8,512.7
359,46.05,460.16,496.8,497.3,513.1
360,45.90,458.308,497.2,497.8,513.7
361,45.75,458.672,497.7,498.2,514.2
362,45.59,457.405,498.1,498.8,514.7
363,45.42,456.216,498.5,499.2,515.2
364,45.25,459.459,499,499.6,515.7
365,45.09,460.003,499.4,500.2,516.2
366,44.94,458.751,499.9,500.7,516.9
367,44.76,458.03,500.3,501.2,517.3
368,44.61,460.764,500.7,501.7,517.7
369,44.46,464.467,501.1,502.2,518.3
370,44.30,464.895,501.7,502.6,518.8
371,44.13,463.585,502.2,503.1,519.3
372,43.97,465.099,502.7,503.8,519.7
373,43.80,462.296,503.2,504.2,520.3
374,43.63,462.668,503.6,504.7,520.7
375,43.46,461.345,504.1,505.2,521.3
376,43.31,460.531,504.6,505.7,521.8
377,43.16,462.562,505.1,506.2,522.3
378,43.01,463.91,505.6,506.8,522.8
379,42.85,465.765,506.1,507.3,523.1
380,42.71,461.079,506.6,507.8,523.7
381,42.57,459.98,507,508.3,524.2
382,42.42,460.689,507.4,508.7,524.7
383,42.25,460.017,507.9,509.2,525.2
384,42.08,459.321,508.3,509.6,525.8
385,41.94,459.112,508.8,510,526.3
386,41.78,462.525,509.2,510.5,526.9
387,41.62,465.03,509.8,510.9,527.4
388,41.48,467.002,510.3,511.3,528
389,41.33,466.12,510.9,511.8,528.5
390,41.15,463.163,511.3,512.2,529.1
391,40.99,463.533,511.9,512.7,529.6
392,40.83,465.029,512.4,513.2,530.1
393,40.68,462.78,512.9,513.6,530.5
394,40.52,461.876,513.4,514.1,531
395,40.36,464.146,513.9,514.7,531.5
396,40.19,464.439,514.5,515.1,531.9
397,40.02,464.672,515.1,515.7,532.3
398,39.88,464.525,515.5,516.3,532.8
399,39.72,463.968,515.9,516.8,533.3
400,39.56,463.838,516.5,517.3,533.7
401,39.41,466.572,516.9,517.8,534.1
402,39.26,463.163,517.5,518.4,534.5
403,39.12,460.682,518,519,535
404,38.95,460.817,518.7,519.6,535.4
405,38.80,458.929,519.3,520.2,535.9
406,38.67,457.994,519.8,520.8,536.3
407,38.51,458.349,520.4,521.3,536.8
408,38.36,458.763,521.1,521.9,537.2
409,38.21,457.245,521.7,522.5,537.7
410,38.06,456.611,522.4,523.1,538.1
411,37.90,454.633,523,523.7,538.5
412,37.73,450.549,523.6,524.2,539
413,37.58,448.522,524.2,524.9,539.5
414,37.44,445.819,524.8,525.4,540.1
415,37.29,446.182,525.4,526,540.6
416,37.16,445.877,526.1,526.6,541.2
417,37.01,444.183,526.7,527.2,541.7
418,36.85,441.673,527.4,527.9,542.1
419,36.68,441.208,528,528.5,542.6
420,36.55,438.332,528.7,529.1,543.1
421,36.40,439.984,529.3,529.8,543.6
422,36.24,437.343,530,530.4,544.1
423,36.10,438.987,530.6,531,544.7
424,35.96,435.907,531.2,531.7,545.3
425,35.80,432.103,531.8,532.3,545.9
426,35.66,432.624,532.5,533,546.5
427,35.51,431.498,533.1,533.6,547.1
428,35.37,433.477,533.7,534.3,547.7
429,35.21,436.89,534.3,534.9,548.3
430,35.05,438.584,534.9,535.6,549
431,34.91,439.995,535.6,536.2,549.6
432,34.76,440.739,536.3,536.9,550.4
433,34.62,441.752,536.9,537.6,551.1
434,34.48,439.034,537.5,538.4,551.4
435,34.32,438.321,538.2,539.1,552.1
436,34.16,440.204,538.9,539.8,552.9
437,34.00,440.131,539.6,540.5,553.6
438,33.83,442.214,540.2,541.2,554.2
439,33.68,442.566,540.9,541.9,554.9
440,33.52,441.371,541.6,542.7,555.6
441,33.40,441.269,542.2,543.4,556.3
442,33.25,440.47,542.9,544.2,557
443,33.10,442.362,543.6,545,557.7
444,32.95,443.165,544.3,545.7,558.4
445,32.81,441.644,545,546.5,559.1
446,32.67,439.328,545.7,547.3,559.7
447,32.52,438.973,546.4,548.1,560.4
448,32.39,440.638,547.2,548.9,561.1
449,32.21,443.444,547.9,549.7,561.8
450,32.05,442.13,548.6,550.5,562.6
451,31.91,441.012,549.3,551.4,563.3
452,31.77,442.006,550,552.2,564
453,31.64,443.991,550.8,553.1,564.7
454,31.46,444.76,551.4,554,565.5
455,31.32,445.152,552.2,554.8,566.2
456,31.17,444.453,553,555.7,567
457,31.00,443.568,553.7,556.6,567.8
458,30.86,443.309,554.5,557.6,568.5
459,30.73,444.511,555.2,558.5,569.3
460,30.56,448.14,555.9,559.5,570.1
461,30.42,447.484,556.6,560.4,570.8
462,30.25,450.689,557.4,561.4,571.6
463,30.11,450.108,558.1,562.4,572.4
464,29.96,451.349,558.8,563.3,573.2
465,29.80,451.505,559.5,564.3,574
466,29.65,453.445,560.5,565.3,574.8
467,29.51,453.302,561.1,566.3,575.7
468,29.36,451.864,561.9,567.4,576.5
469,29.20,450.328,562.7,568.5,577.4
470,29.06,454.211,563.6,569.5,578.3
471,28.89,451.765,564.5,570.7,579.2
472,28.74,451.427,565.6,571.8,580
473,28.59,452.844,566.5,572.9,581.2
474,28.45,455.378,567.1,574,581.9
475,28.30,454.856,567.8,575.2,582.9
476,28.15,452.303,568.7,576.3,583.9
477,27.99,450.591,569.5,577.5,585
478,27.85,450.438,570.5,578.6,585.7
479,27.69,451.046,571.4,579.8,586.7
480,27.56,447.793,572.5,581,587.5
481,27.38,449.531,573.6,582.2,588.6
482,27.23,450.019,574.5,583.6,589.6
483,27.08,449.912,575.1,584.8,590.6
484,26.94,449.223,576.1,586,591.5
485,26.78,450.091,577.2,587.3,592.5
486,26.64,448.021,578.2,588.6,593.6
487,26.48,448.124,579.1,589.9,594.5
488,26.32,448.886,579.8,591.1,595.6
489,26.20,449.114,580.7,592.4,596.6
490,26.05,448.324,581.7,593.7,597.8
491,25.87,448.773,582.6,594.9,598.6
492,25.71,450.556,584.1,595.8,599.7
493,25.58,451.739,585,597,600.8
494,25.44,450.066,585.8,598.1,601.8
495,25.28,447.954,586.6,599.2,602.8
496,25.14,445.256,587.5,600.2,603.8
497,24.98,445.567,588.4,601.2,604.7
498,24.83,444.705,589.4,602.1,605.7
499,24.69,443.484,590.3,603,606.7
500,24.54,443.387,591.4,603.8,607.7
501,24.39,445.05,592.4,604.7,608.7
502,24.23,444.405,593.6,605.6,609.8
503,24.09,444.088,594.7,606.3,610.7
504,23.93,439.521,595.6,607.2,611.7
505,23.77,439.057,596.6,607.9,612.7
506,23.62,438.741,597.7,608.7,613.8
507,23.50,438.218,598.7,609.5,614.8
508,23.34,436.931,599.7,610.3,615.8
509,23.20,439.23,600.7,611.1,616.7
510,23.07,437.039,601.7,611.9,617.7
511,22.91,435.448,602.7,612.7,618.7
512,22.77,432.545,603.7,613.4,619.8
513,22.64,431.076,604.6,614.2,620.9
514,22.50,426.906,605.7,615,622
515,22.34,426.733,606.6,615.7,623.1
516,22.21,425.168,607.6,616.4,624.1
517,22.07,424.624,608.5,617.1,625.2
518,21.91,419.619,609.5,617.8,626.3
519,21.76,419.048,610.4,618.5,627.3
520,21.63,416.913,611.3,619.1,628.5
521,21.48,415.351,612.1,619.8,629.7
522,21.32,413.505,613.1,620.5,630.8
523,21.20,408.513,614.1,621.1,632
524,21.06,403.885,615,621.7,633.2
525,20.91,402.6,615.9,622.4,634.6
526,20.77,402.142,616.8,623.1,635.7
527,20.65,403.416,617.8,623.9,637
528,20.51,402.959,618.7,624.6,638.2
529,20.36,400.166,619.6,625.2,639.5
530,20.22,398.035,620.5,626,640.8
531,20.10,397.275,621.4,626.7,642.1
532,19.98,395.386,622.3,627.5,643.3
533,19.85,392.755,623.2,628.3,644.8
534,19.70,391.03,624,629.1,646.1
535,19.57,390.716,624.9,629.8,647.4
536,19.42,389.958,625.7,630.4,648.7
537,19.29,389.094,626.5,631.1,649.9
538,19.16,387.161,627.3,632.1,651.2
539,19.02,386.516,628.2,633.3,652.6
540,18.90,385.295,629.1,634.4,654
541,18.77,386.005,630,635.5,655.3
542,18.65,385.753,630.9,636.5,656.7
543,18.52,387.228,631.9,637.5,657.5
544,18.40,385.255,633,638.4,659.3
545,18.27,382.607,634,639.4,661.3
546,18.12,381.754,635.2,640.3,663.7
547,18.01,378.766,636.4,641.2,666.5
548,17.89,378.445,637.6,642.1,669.5
549,17.75,377.304,638.7,643,672.7
550,17.65,377.839,640,644,675.5
551,17.51,375.052,641.2,644.8,678.5
552,17.40,375.025,642.4,645.8,682.1
553,17.26,373.338,643.6,646.8,685.3
554,17.12,372.422,644.9,647.9,688.8
555,17.01,371.777,646.4,648.8,692
556,16.88,372.359,648.2,650,695.2
557,16.73,371.685,650.1,651.1,698.4
558,16.63,371.592,652.1,652.1,701.5
559,16.52,371.155,654.2,652.9,704.5
560,16.42,371.626,656.4,654.3,707.1
561,16.30,372.074,658.2,655.6,710.2
562,16.18,372.645,659.9,657,713.3
563,16.04,371.823,662.1,658.4,715.9
564,15.89,372.688,665,659.8,718.1
565,15.77,372.419,668.3,661.4,720.7
566,15.64,372.636,672,663,723.7
567,15.51,372.48,675.9,664.4,726.3
568,15.38,369.113,678.6,666,728.3
569,15.25,369.324,681.3,667.7,730.7
570,15.13,369.872,683.7,669.4,733.2
571,15.01,368.483,686.3,671.1,735.3
572,14.90,368.886,689.2,672.7,737.8
573,14.81,366.797,693,674.4,741.7
574,14.66,360.926,696.7,676.1,744.3
575,14.55,358.111,699.8,677.8,746.4
576,14.43,354.164,702.9,679.5,748.1
577,14.34,354.641,706,681.3,750.1
578,14.22,355.557,709.4,683.1,752.2
579,14.09,352.856,712.7,685,754.6
580,13.99,352.897,716.3,686.9,757.4
581,13.85,350.16,719.4,688.8,759.5
582,13.73,348.91,722.6,690.7,762.3
583,13.60,345.405,725.8,692.7,764.6
584,13.46,341.998,728.5,694.6,766.8
585,13.36,340.15,731.3,696.6,769.4
586,13.24,337.319,733.7,698.7,771.2
587,13.15,335.907,737.3,701.1,772.8
588,13.06,333.967,739.9,703.4,775.1
589,12.96,332.176,742.2,705.8,776.8
590,12.83,329.343,744.4,708.2,778.3
591,12.73,326.661,747,710.9,780.1
592,12.62,324.887,749.3,714,782.1
593,12.51,322.558,751.7,716.8,783.7
594,12.39,318.446,753.6,719.7,784.9
595,12.31,312.729,755.9,722.2,786.2
596,12.19,309.008,758.3,724.7,787.1
597,12.11,307.57,760.1,727.1,787.5
598,12.02,304.952,761.8,729.3,789.3
599,11.91,299.183,763.2,731.4,789.9
600,11.84,295.553,766.3,733.7,791.1
601,11.74,291.467,770.5,735.8,792.2
602,11.66,286.429,773.5,738.1,792.8
603,11.56,280.246,775.1,740.7,793.4
604,11.48,275.889,778.7,743.1,794.5
605,11.40,273.3,782.2,745.5,796.3
606,11.28,269.492,786.4,747.9,798.1
607,11.20,266.931,791.4,751,799.5
608,11.10,263.386,792.9,754.4,799.9
609,11.01,260.957,796.4,757.6,800.5
610,10.94,256.27,800.1,760.3,800.7
611,10.83,252.864,802.7,763.1,802.1
612,10.75,249.496,804.8,765.9,803.1
613,10.69,245.723,805,768.6,803.8
614,10.64,240.273,805.1,771.2,804.8
615,10.58,235.428,806.2,773.9,806.5
616,10.43,230.93,806.7,776.7,808.2
617,10.34,227.865,807.5,779.1,808.9
618,10.28,224.563,810.6,781.5,809.1
619,10.22,219.783,812.6,783.8,809.7
620,10.13,215.562,815.8,786.2,811
621,10.06,212.802,817.1,788.8,811.1
622,10.01,208.808,817.2,791.3,811.2
623,9.96,205.855,817.4,793.9,811.3
624,9.85,202.166,819,796.3,812.4
625,9.79,199.032,820.6,798.5,813.1
626,9.74,195.476,821.8,800.6,814.2
627,9.68,191.997,822.9,802.9,814.8
628,9.59,188.277,827.9,805,815.8
629,9.53,185.31,831.3,806.8,816.3
630,9.48,184.445,831.5,808.6,817.2
631,9.43,183.849,832.4,810.5,818.5
632,9.34,181.604,836.2,812.3,819.1
633,9.28,178.459,837.7,814.1,820
634,9.24,175.377,836.7,815.9,820.7
635,9.21,170.968,835.6,817.5,821.5
636,9.17,167.957,835.1,819.2,822.1
637,9.13,165.271,835.2,821,823.3
638,9.09,162.926,835.2,822.8,823.6
639,9.02,161.787,835.6,824.6,824.9
640,8.93,161.017,836.6,826.4,826.2
641,8.86,160.095,837.8,828.1,827.1
642,8.82,160.37,840.2,829.7,827.6
643,8.75,158.07,842.9,831.1,828.7
644,8.68,155.362,844.7,832.4,828.1
645,8.64,153.614,845.7,833.5,828
646,8.60,151.74,846.7,834.8,828.4
647,8.54,149.124,846.7,836,829.1
648,8.50,147.256,846.6,837.3,830.3
649,8.44,145.78,848.4,838.5,830.6
650,8.38,144.792,850.9,839.5,830.8
651,8.34,143.858,852.4,840.7,831.8
652,8.32,143.095,854.5,841.7,832.3
653,8.30,142.571,855.5,842.6,832.2
654,8.26,140.917,854.3,843.7,832
655,8.22,138.279,855.1,844.7,832.6
656,8.19,136.666,857.4,845.7,832.8
657,8.16,135.066,859.2,846.6,833.1
658,8.09,134.815,861.7,847.6,833.7
659,8.02,134.003,864.4,848.5,833.9
660,7.97,133.524,863.8,849.3,834.6
661,7.94,132.246,862.8,850.2,835.3
662,7.91,130.805,863.3,851.2,836.8
663,7.87,130.016,862.9,852.1,837.1
664,7.83,129.564,863.3,853.2,838.8
665,7.79,129.819,864.9,854.1,840.8
666,7.76,129.132,866.5,855,842.1
667,7.73,127.05,867.4,856,843.4
668,7.70,124.669,866.2,857.1,843.2
669,7.67,122.426,865.2,858.3,843.1
670,7.63,121.327,863.3,859.4,843.6
671,7.59,121.001,862.6,860.2,843.4
672,7.56,120.55,867,861,844.4
673,7.52,119.782,870.4,861.6,844.5
674,7.50,118.916,873.3,862.2,844.4
675,7.47,117.56,875.3,862.7,845
676,7.40,117.521,880.4,863.2,844.8
677,7.35,117.216,880.4,864,844.4
678,7.33,117.435,880.1,864.6,844
679,7.30,116.728,878.2,865.3,843.9
680,7.26,115.677,880.5,865.9,844.8
681,7.23,115.216,880.9,866.6,845.1
682,7.20,114.747,887.1,867.1,846.7
683,7.17,114.16,889,867.5,848.9
684,7.12,113.669,888,867.9,851.7
685,7.04,112.671,888.4,868.3,850.6
686,7.01,111.871,888.6,868.7,849.4
687,6.99,111.372,892.5,869.2,848.7
688,6.96,110.734,891.1,869.9,848.4
689,6.92,110.707,889.2,870.5,847.9
690,6.88,110.153,889.4,871.1,848.5
691,6.84,109.239,888.5,871.6,848.3
692,6.81,108.408,891.6,872.2,848.1
693,6.79,107.846,900.7,872.6,850.3
694,6.76,107.725,904.7,873,852.4
695,6.73,107.398,903.2,873.3,855
696,6.70,105.765,906.3,873.8,854.3
697,6.66,104.923,907.7,874.2,854.2
698,6.61,104.208,909.2,874.6,854.3
699,6.55,104.453,909.6,875.1,853.3
700,6.51,103.522,909.5,875.4,852.7
701,6.49,103.66,910.3,875.9,852.3
702,6.47,104.025,912.9,876.1,852.3
703,6.46,104.338,912.9,876.3,853.8
704,6.43,104.607,912.9,876.6,854.1
705,6.38,103.966,916,876.7,854.3
706,6.35,103.343,914.8,876.9,854.4
707,6.32,102.099,915.2,877.1,853.7
708,6.28,101.809,918,877.4,852.5
709,6.24,101.971,917.9,877.6,852.2
710,6.21,101.366,917.5,877.9,851.2
711,6.18,101.456,919.6,878.1,850.5
712,6.14,102.128,921.2,878.4,851.8
713,6.11,101.507,921.2,878.6,854.5
714,6.09,100.698,924.2,878.9,856.1
715,6.06,99.9526,926,879.1,856.8
716,6.03,99.9316,923.4,879.2,863.5
717,5.99,100.105,924.7,879.3,866.3
718,5.96,100.041,925.8,879.5,866.8
719,5.93,98.7599,926.8,879.7,865.9
720,5.89,97.3106,926.6,880,866
721,5.86,97.0262,928.2,880.2,866.8
722,5.83,96.4375,928.3,880.5,869
723,5.80,95.7434,927.4,880.6,867.4
724,5.78,95.0359,926.2,880.7,866.2
725,5.74,94.6302,924.7,880.7,866.6
726,5.70,93.7082,925.1,880.7,867.6
727,5.68,93.4205,924.6,880.7,867.4
728,5.67,92.9457,925,880.9,872.7
729,5.64,93.2227,926.1,881.1,875.6
730,5.57,92.8389,926.5,881.3,876.1
731,5.54,92.4846,927.1,881.4,873.5
732,5.52,91.8578,926.6,881.5,871.4
733,5.51,90.8057,926,881.8,871.2
734,5.48,90.8253,925.1,882.1,872.7
735,5.46,90.68,925.7,882.3,872.3
736,5.43,89.6393,926.1,882.5,872.6
737,5.41,88.8958,927.1,882.6,874.3
738,5.38,88.1966,927,882.8,873.1
739,5.35,88.7624,927.2,883,871.4
740,5.32,89.2093,927.6,883.4,872.1
741,5.30,89.5756,927.4,883.7,878.1
742,5.27,89.3347,928.1,884.1,882.7
743,5.24,88.4974,930.2,884.3,886
744,5.21,88.1688,929.7,884.8,886.4
745,5.18,87.8042,931.8,885.2,882.2
746,5.15,87.4824,933.9,885.4,884
747,5.11,87.3918,935,885.6,885
748,5.08,86.7227,934.8,885.9,882.8
749,5.07,85.5442,936.9,886.4,880.8
750,5.06,84.6655,937.2,886.9,878.8
751,5.04,84.2019,937.6,887.4,878.9
752,5.01,84.5761,938,888.1,875.7
753,5.00,84.9934,941.3,888.6,877.8
754,4.98,84.6762,943.2,889,879.6
755,4.95,84.6896,945.1,889.5,878.8
756,4.88,84.1387,946.8,890.3,876.6
757,4.85,84.0089,949.1,891.4,873.9
758,4.83,84.3419,951.5,892.4,876.7
759,4.81,83.8056,953.1,893.4,879.9
760,4.79,82.8992,958.4,893.9,883.3
761,4.76,82.5166,961,894.5,887.8
762,4.73,81.8728,960.3,895.2,889.4
763,4.69,80.6531,957.5,895.8,888.5
764,4.66,80.2348,951.6,896.7,886.9
765,4.64,79.6544,945.2,897.5,885.8
766,4.63,79.2979,940.6,897.7,882.4
767,4.61,79.3158,937,896.1,880.8
768,4.58,79.1088,931.1,892.7,878.6
769,4.55,78.9836,922.7,888.9,878
770,4.53,79.4218,912.5,885.4,881.1
771,4.50,79.5865,902.6,882.2,880.9
772,4.46,79.3846,893.3,879.4,877
773,4.43,79.3943,884.8,877,874.7
774,4.41,79.427,877.1,874.7,874.5
775,4.39,79.1471,870.8,872.7,877.4
776,4.35,78.5524,865.5,870.8,883.3
777,4.32,77.5598,860.5,869,886.4
778,4.29,76.5145,856.2,867.4,894.2
779,4.27,76.2582,851.8,865.7,899.3
780,4.26,75.756,847.6,864,896.4
781,4.25,75.201,844.1,862.5,893.2
782,4.23,75.0706,841.5,860.9,888.6
783,4.16,74.886,839.4,859.4,885
784,4.14,74.6922,837.8,858,884.6
785,4.14,74.6887,836.3,856.6,888.3
786,4.12,75.0732,834.4,855.1,897
787,4.11,75.3631,832.5,853.7,903.9
788,4.08,75.2819,830.8,852.4,902.4
789,4.05,74.5213,829.4,851.1,907
790,4.02,74.1496,828.1,849.8,907.9
791,4.00,74.2823,826.9,848.6,909.9
792,3.97,73.5836,825.4,847.3,910.5
793,3.96,73.7428,824.2,846.1,912.3
794,3.95,72.9645,822.8,844.8,911.7
795,3.93,72.2499,821.2,843.4,913.6
796,3.89,72.5341,819.8,842,912.9
797,3.86,72.8428,818.8,840.7,912.6
798,3.84,73.0744,818,839.4,909.5
799,3.82,72.8374,817.3,838.1,905.2
800,3.80,72.5398,816.6,836.7,902.9
801,3.78,72.2469,816,835.5,899.2
802,3.76,71.7049,815,834.2,902.6
803,3.74,71.0959,813.9,832.9,903.9
804,3.72,71.4673,812.9,831.7,909.8
805,3.71,72.1239,812,830.4,905.4
806,3.68,71.8848,811.1,829,898.7
807,3.67,70.8958,809.7,827.7,894.4
808,3.65,70.3778,808.2,826.5,899.4
809,3.62,69.7564,806.8,825.2,908.7
810,3.59,69.8091,805.4,824,910.1
811,3.55,70.3128,803.9,822.9,914.9
812,3.53,70.2103,802.6,821.7,912.8
813,3.51,69.3065,801.7,820.5,910
814,3.50,68.7001,801.1,819.3,913.3
815,3.49,67.6943,800.9,818.1,911.9
816,3.45,67.2339,800.6,816.9,907.3
817,3.42,66.9107,799.7,815.7,905.4
818,3.40,66.0979,798.5,814.5,900.5
819,3.38,65.4654,797,813.4,900.7
820,3.36,66.1979,795.8,812.4,898.8
821,3.33,66.9317,794.5,811.4,899.7
822,3.31,66.9195,793.7,810.4,906.3
823,3.30,66.4593,793,809.5,913
824,3.29,66.2552,792.4,808.5,917.3
825,3.26,65.8104,791.7,807.6,911.9
826,3.23,65.5736,790.7,806.6,913.1
827,3.21,65.8828,789.6,805.8,913.9
828,3.20,66.1783,788.6,804.9,913.2
829,3.18,66.4667,787.7,803.9,913.9
830,3.16,66.1727,786.7,803.1,903.2
831,3.14,65.9791,786.1,802.2,889.5
832,3.12,65.5412,785.6,801.4,878.5
833,3.10,65.3257,785.4,800.6,871.7
834,3.08,65.0784,785,799.8,877.5
835,3.06,64.9164,784.7,799,874.7
836,3.04,64.1321,784.2,798.2,868.7
837,3.03,62.7235,783.8,797.4,871.6
838,3.01,62.5393,782.9,796.8,883.4
839,3.00,62.7818,782,796.1,890.4
840,2.98,62.4285,781.1,795.4,892.5
841,2.95,62.1281,780.6,794.7,897.3
842,2.93,61.7774,780.4,793.9,902.3
843,2.91,61.6738,780.2,793.1,906.3
844,2.89,61.8075,780,792.3,908.3
845,2.87,61.9392,779.5,791.6,907.5
846,2.85,62.2878,779.5,791,903
847,2.84,61.4161,779.4,790.4,903.4
848,2.84,61.2086,779.2,789.8,906.9
849,2.83,61.3367,778.8,789.2,904.6
850,2.81,60.8315,778.6,788.6,900.8
851,2.77,60.5431,778.4,788,903.9
852,2.75,60.1357,777.5,787.4,908.3
853,2.74,59.4148,776.6,786.8,909.6
854,2.73,59.2106,775.8,786.3,909.4
855,2.71,58.7124,774.9,785.7,910.3
856,2.68,58.5192,774.1,785,907.4
857,2.65,58.0811,773.5,784.5,910.3
858,2.64,58.0224,772.8,783.9,910.9
859,2.61,58.0413,772.2,783.4,903.1
860,2.59,57.9579,772.1,782.8,901.7
861,2.58,57.9418,771.6,782.2,905.7
862,2.56,57.8651,771,781.6,902.6
863,2.54,57.8826,770.5,781,902.4
864,2.53,58.0344,770.2,780.4,907.3
865,2.51,57.9453,769.8,779.9,908.1
866,2.49,57.7282,769.2,779.4,907
867,2.47,57.7997,768.2,778.9,898.9
868,2.46,58.1323,767.4,778.4,892
869,2.46,57.7527,767,777.9,885.6
870,2.45,57.481,766.6,777.4,884
871,2.43,56.5587,766.3,776.8,882.1
872,2.40,56.2686,766.2,776.3,884.1
873,2.37,56.1737,766,775.9,885.4
874,2.35,56.4549,766.1,775.5,890.5
875,2.34,56.9866,765.8,775.1,896.2
876,2.32,56.2213,765.5,774.7,898.7
877,2.30,55.7157,765.5,774.2,895.8
878,2.30,55.5557,765.4,773.7,894.4
879,2.28,55.4621,765.3,773.3,887.9
880,2.25,55.7266,764.9,773,886.3
881,2.22,56.2421,764.8,772.5,888.9
882,2.19,56.3425,764.4,771.9,891.3
883,2.18,55.9735,764,771.4,881.7
884,2.17,55.7312,763.7,771,881.2
885,2.16,55.6907,763.1,770.6,886.9
886,2.16,56.092,762.8,770.3,891.2
887,2.15,56.4872,762.5,769.9,885.7
888,2.13,56.1506,762.5,769.6,877
889,2.10,55.8256,762.4,769.2,874.9
890,2.09,55.698,762.5,768.9,880.7
891,2.08,55.7453,762.2,768.6,885.7
892,2.07,55.9026,761.6,768.4,896.7
893,2.06,55.5912,761,768.1,907.5
894,2.04,55.4017,760.4,767.8,905.7
895,2.02,55.2118,759.6,767.5,907.7
896,1.99,55.2728,758.8,767.3,897
897,1.98,55.4165,758.4,767,887.7
898,1.96,55.0802,758.1,766.7,876.1
899,1.95,55.0162,757.8,766.4,877
900,1.93,54.0705,757.4,766.2,882.9
901,1.91,53.7497,756.7,765.9,884.1
902,1.89,53.8146,756.3,765.6,880.4
903,1.87,53.744,756.1,765.3,885
904,1.84,53.9502,755.9,765,886.1
905,1.83,54.0838,755.8,764.7,876
906,1.82,54.1734,755.9,764.4,863
907,1.80,53.6926,756,764.1,850.9
908,1.78,53.5982,755.8,763.8,840.4
909,1.76,53.7721,755.8,763.6,831.4
910,1.75,54.2775,755.7,763.4,826.9
911,1.74,54.2497,755.5,763.3,832.6
912,1.73,53.7208,755.4,763.1,841
913,1.72,53.7302,755.4,762.9,840.6
914,1.70,54.5554,755,762.7,842.2
915,1.70,54.30767,754.6,762.5,853.4
916,1.68,54.2882,753.7,762.3,864.6
917,1.65,53.7089,753.1,762.1,870.7
918,1.63,53.1797,752.4,761.9,878.1
919,1.61,52.3523,751.7,761.6,882.5
920,1.59,52.0549,751.4,761.4,887.7
921,1.59,52.1922,751.4,761.1,891.3
922,1.59,52.4408,751.4,760.8,895.9
923,1.59,52.3231,751.2,760.5,895.5
924,1.58,52.1409,750.8,760.3,883.6
925,1.56,52.2532,750.3,760,868.6
926,1.53,52.4457,750.2,759.7,854.8
927,1.51,52.6475,750.1,759.4,842.5
928,1.49,52.6704,750.3,759.1,841.9
929,1.47,52.4383,750.4,758.8,840.9
930,1.46,52.2952,750.5,758.5,835.3
931,1.45,51.6047,750.7,758.3,836.6
932,1.44,51.5333,750.8,758.1,844.6
933,1.41,51.2047,751,757.9,849.3
934,1.39,50.9006,750.7,757.7,859.4
935,1.37,50.6924,750,757.6,862.8
936,1.37,50.5094,749.6,757.5,858.7
937,1.36,50.163,749.4,757.3,854.9
938,1.35,49.8254,749.3,757.2,848.3
939,1.34,49.8524,749,757.1,844.5
940,1.33,49.7935,748.9,756.9,853.8
941,1.31,49.5489,748.4,756.7,859.4
942,1.29,48.7365,748.4,756.5,862.9
943,1.26,48.7079,748.4,756.3,862.4
944,1.23,49.0834,748.1,756,866.7
945,1.21,49.4344,747.9,755.8,860.2
946,1.20,49.2162,748.1,755.7,851.6
947,1.20,48.8737,748.1,755.5,850.9
948,1.19,48.0379,748.3,755.3,844.4
949,1.18,47.32,748.4,755.2,844.1
950,1.17,46.549,748.6,754.9,838.2
951,1.16,46.5627,748.7,754.8,832.4
952,1.14,45.5194,748.7,754.7,827.4
953,1.12,45.0024,748.9,754.5,822.7
954,1.10,45.0194,749.2,754.3,823.9
955,1.09,45.4288,749.4,754.2,824.2
956,1.09,45.7401,749.6,754,823.8
957,1.04,45.7866,749.8,753.8,826.7
958,0.98,45.6634,749.7,753.7,826
959,0.99,45.4163,749.7,753.6,822.7
960,1.00,45.457,749.7,753.4,819
961,1.00,46.4289,749.7,753.4,823
962,0.99,46.9551,749.6,753.2,829.3
963,0.97,47.1547,749.4,753.1,830.5
964,0.96,47.6408,748.6,753,828.1
965,0.97,47.5665,748.2,753,827
966,0.96,47.5173,747.6,753,825.5
967,0.95,47.7094,747.4,752.8,828.7
968,0.93,47.0561,746.9,752.6,832.8
969,0.92,46.9942,746.5,752.4,835.8
970,0.91,46.8242,745.9,752.3,840.4
971,0.89,46.8078,745.8,752.1,838.7
972,0.88,46.5759,746,751.8,837.6
973,0.87,47.4346,746.3,751.7,837.3
974,0.86,48.6146,746.4,751.5,846.5
975,0.85,49.0914,746.3,751.3,850.8
976,0.83,49.3415,746.2,751.1,852.7
977,0.81,50.1304,746,750.9,847.3
978,0.79,50.5391,746,750.7,839.8
979,0.77,51.4262,746,750.6,831.7
980,0.76,52.1293,746.1,750.4,826
981,0.76,52.063,745.7,750.3,821.2
982,0.75,51.2174,745.2,750.1,818.2
983,0.73,49.7319,744.9,750,815.3
984,0.72,48.6033,744.7,749.8,821.3
985,0.70,47.6994,744.3,749.7,828.7
986,0.68,47.0504,743.7,749.6,825.4
987,0.67,46.4983,743.2,749.5,820
988,0.66,45.4282,742.9,749.5,817.6
989,0.65,45.0233,742.7,749.4,817.1
990,0.64,45.1664,742.1,749.3,817.1
991,0.64,45.42,741.6,749.3,813.6
992,0.63,45.7567,741.4,749.2,809.6
993,0.62,45.3565,741.5,749.1,804.9
994,0.60,44.332,741.6,749.1,800.3
995,0.57,44.1212,742.1,749,795.5
996,0.55,44.2305,742.4,748.8,792.1
997,0.53,43.899,742.6,748.7,790.5
998,0.52,43.4371,742.7,748.6,793.1
999,0.51,42.1516,742.7,748.4,796
1000,0.50,40.932,742.8,748.2,795.3