File: Non-charring/PMMA/UQ/UQ_TGA_N2_10K_1.csv
Time,Temperature,Mass
[s],[K],[mg]
0,316.651,5.2963
6,317.651,5.2966
12,318.651,5.2951
18,319.651,5.2963
24,320.651,5.2965
30,321.651,5.298
36,322.651,5.2976
42,323.651,5.2983
48,324.651,5.2981
54,325.651,5.2989
60,326.651,5.299
66,327.651,5.299
72,328.651,5.295
78,329.651,5.2992
84,330.651,5.2983
90,331.651,5.2978
96,332.651,5.2971
102,333.651,5.2967
108,334.651,5.2972
114,335.651,5.2965
120,336.651,5.2958
126,337.651,5.2951
132,338.651,5.2936
138,339.651,5.2932
144,340.651,5.2919
150,341.651,5.291
156,342.651,5.2916
162,343.651,5.2932
168,344.651,5.2936
174,345.651,5.2933
180,346.651,5.2931
186,347.651,5.2933
192,348.651,5.2935
198,349.651,5.2924
204,350.651,5.2919
210,351.651,5.2917
216,352.651,5.2918
222,353.651,5.2922
228,354.651,5.2944
234,355.651,5.2935
240,356.651,5.2926
246,357.651,5.2926
252,358.651,5.2925
258,359.651,5.2922
264,360.651,5.2918
270,361.651,5.291
276,362.651,5.291
282,363.651,5.2914
288,364.651,5.2917
294,365.651,5.2905
300,366.651,5.2891
306,367.651,5.2895
312,368.651,5.2896
318,369.651,5.2893
324,370.651,5.2893
330,371.651,5.2895
336,372.651,5.2897
342,373.651,5.2882
348,374.651,5.2874
354,375.651,5.2872
360,376.651,5.2871
366,377.651,5.2872
372,378.651,5.2884
378,379.651,5.288
384,380.651,5.2873
390,381.651,5.2871
396,382.651,5.2859
402,383.651,5.2843
408,384.651,5.2852
414,385.651,5.2864
420,386.651,5.2868
426,387.651,5.2864
432,388.651,5.2861
438,389.651,5.2859
444,390.651,5.2857
450,391.651,5.286
456,392.651,5.2863
462,393.651,5.2855
468,394.651,5.2854
474,395.651,5.2851
480,396.651,5.2843
486,397.651,5.2833
492,398.651,5.2819
498,399.651,5.2817
504,400.651,5.2813
510,401.651,5.281
516,402.651,5.28
522,403.651,5.2791
528,404.651,5.279
534,405.651,5.279
540,406.651,5.2787
546,407.651,5.2779
552,408.651,5.2766
558,409.651,5.2755
564,410.651,5.2746
570,411.651,5.2741
576,412.651,5.2743
582,413.651,5.2731
588,414.651,5.2722
594,415.651,5.2714
600,416.651,5.2712
606,417.651,5.2704
612,418.651,5.2693
618,419.651,5.2689
624,420.651,5.2683
630,421.651,5.2678
636,422.651,5.2673
642,423.651,5.2672
648,424.651,5.2672
654,425.651,5.2668
660,426.651,5.2646
666,427.651,5.2633
672,428.651,5.2619
678,429.651,5.2618
684,430.651,5.2591
690,431.651,5.2575
696,432.651,5.2553
702,433.651,5.2544
708,434.651,5.2537
714,435.651,5.2521
720,436.651,5.2506
726,437.651,5.2492
732,438.651,5.2478
738,439.651,5.2453
744,440.651,5.2424
750,441.651,5.2402
756,442.651,5.2373
762,443.651,5.2361
768,444.651,5.2335
774,445.651,5.2299
780,446.651,5.2262
786,447.651,5.223
792,448.651,5.2202
798,449.651,5.2171
804,450.651,5.2148
810,451.651,5.212
816,452.651,5.2091
822,453.651,5.2048
828,454.651,5.2016
834,455.651,5.1984
840,456.651,5.1949
846,457.651,5.1898
852,458.651,5.1875
858,459.651,5.1846
864,460.651,5.1814
870,461.651,5.178
876,462.651,5.1747
882,463.651,5.1725
888,464.651,5.1706
894,465.651,5.1684
900,466.651,5.1654
906,467.651,5.1627
912,468.651,5.1585
918,469.651,5.1551
924,470.651,5.1516
930,471.651,5.1481
936,472.651,5.1451
942,473.651,5.1416
948,474.651,5.1392
954,475.651,5.1357
960,476.651,5.1339
966,477.651,5.1315
972,478.651,5.1286
978,479.651,5.1257
984,480.651,5.122
990,481.651,5.1188
996,482.651,5.1168
1002,483.651,5.1152
1008,484.651,5.1131
1014,485.651,5.1092
1020,486.651,5.1069
1026,487.651,5.1049
1032,488.651,5.1036
1038,489.651,5.1027
1044,490.651,5.1023
1050,491.651,5.1016
1056,492.651,5.0995
1062,493.651,5.098
1068,494.651,5.0974
1074,495.651,5.0964
1080,496.651,5.0959
1086,497.651,5.0951
1092,498.651,5.0939
1098,499.651,5.0924
1104,500.651,5.0908
1110,501.651,5.0901
1116,502.651,5.089
1122,503.651,5.0885
1128,504.651,5.0869
1134,505.651,5.0858
1140,506.651,5.0851
1146,507.651,5.0851
1152,508.651,5.0851
1158,509.651,5.0851
1164,510.651,5.0851
1170,511.651,5.085
1176,512.651,5.0847
1182,513.651,5.0842
1188,514.651,5.0838
1194,515.651,5.0822
1200,516.651,5.0805
1206,517.651,5.0787
1212,518.651,5.0764
1218,519.651,5.0753
1224,520.651,5.0747
1230,521.651,5.0739
1236,522.651,5.0729
1242,523.651,5.0725
1248,524.651,5.0716
1254,525.651,5.0712
1260,526.651,5.0704
1266,527.651,5.0689
1272,528.651,5.0674
1278,529.651,5.0656
1284,530.651,5.0633
1290,531.651,5.062
1296,532.651,5.0613
1302,533.651,5.0591
1308,534.651,5.0564
1314,535.651,5.0534
1320,536.651,5.0515
1326,537.651,5.0492
1332,538.651,5.047
1338,539.651,5.0445
1344,540.651,5.042
1350,541.651,5.0395
1356,542.651,5.0361
1362,543.651,5.0337
1368,544.651,5.0297
1374,545.651,5.0273
1380,546.651,5.0244
1386,547.651,5.0208
1392,548.651,5.017
1398,549.651,5.0126
1404,550.651,5.0078
1410,551.651,5.0026
1416,552.651,4.998
1422,553.651,4.9918
1428,554.651,4.9862
1434,555.651,4.9815
1440,556.651,4.9767
1446,557.651,4.9712
1452,558.651,4.9653
1458,559.651,4.9588
1464,560.651,4.9538
1470,561.651,4.9475
1476,562.651,4.941
1482,563.651,4.9348
1488,564.651,4.9283
1494,565.651,4.9213
1500,566.651,4.914
1506,567.651,4.9074
1512,568.651,4.9008
1518,569.651,4.8943
1524,570.651,4.8869
1530,571.651,4.8793
1536,572.651,4.8727
1542,573.651,4.8655
1548,574.651,4.8579
1554,575.651,4.8497
1560,576.651,4.842
1566,577.651,4.8337
1572,578.651,4.8243
1578,579.651,4.8139
1584,580.651,4.8042
1590,581.651,4.794
1596,582.651,4.7826
1602,583.651,4.7707
1608,584.651,4.7599
1614,585.651,4.7463
1620,586.651,4.7331
1626,587.651,4.7196
1632,588.651,4.7062
1638,589.651,4.6923
1644,590.651,4.6772
1650,591.651,4.6602
1656,592.651,4.6427
1662,593.651,4.623
1668,594.651,4.6018
1674,595.651,4.5815
1680,596.651,4.56
1686,597.651,4.538
1692,598.651,4.515
1698,599.651,4.4904
1704,600.651,4.4642
1710,601.651,4.4371
1716,602.651,4.403
1722,603.651,4.364
1728,604.651,4.3334
1734,605.651,4.2961
1740,606.651,4.256
1746,607.651,4.2186
1752,608.651,4.1776
1758,609.651,4.1358
1764,610.651,4.0888
1770,611.651,4.043
1776,612.651,3.9933
1782,613.651,3.9426
1788,614.651,3.8872
1794,615.651,3.8288
1800,616.651,3.7697
1806,617.651,3.7073
1812,618.651,3.6437
1818,619.651,3.5769
1824,620.651,3.509
1830,621.651,3.4374
1836,622.651,3.3656
1842,623.651,3.2925
1848,624.651,3.2168
1854,625.651,3.1408
1860,626.651,3.0624
1866,627.651,2.9816
1872,628.651,2.9005
1878,629.651,2.819
1884,630.651,2.7365
1890,631.651,2.6496
1896,632.651,2.5691
1902,633.651,2.4843
1908,634.651,2.3957
1914,635.651,2.305
1920,636.651,2.221
1926,637.651,2.1302
1932,638.651,2.0445
1938,639.651,1.9623
1944,640.651,1.8656
1950,641.651,1.7802
1956,642.651,1.6918
1962,643.651,1.6053
1968,644.651,1.5233
1974,645.651,1.44
1980,646.651,1.3604
1986,647.651,1.2814
1992,648.651,1.2053
1998,649.651,1.1328
2004,650.651,1.062
2010,651.651,0.9939
2016,652.651,0.9259
2022,653.651,0.8613
2028,654.651,0.802
2034,655.651,0.7483
2040,656.651,0.695
2046,657.651,0.644
2052,658.651,0.5973
2058,659.651,0.5523
2064,660.651,0.5121
2070,661.651,0.4729
2076,662.651,0.4364
2082,663.651,0.4049
2088,664.651,0.3766
2094,665.651,0.3489
2100,666.651,0.3202
2106,667.651,0.2963
2112,668.651,0.2721
2118,669.651,0.2504
2124,670.651,0.2298
2130,671.651,0.2106
2136,672.651,0.1942
2142,673.651,0.181
2148,674.651,0.1675
2154,675.651,0.155
2160,676.651,0.1432
2166,677.651,0.1328
2172,678.651,0.1221
2178,679.651,0.1137
2184,680.651,0.1059
2190,681.651,0.0987
2196,682.651,0.0917
2202,683.651,0.0858
2208,684.651,0.0791
2214,685.651,0.0737
2220,686.651,0.0683
2226,687.651,0.0639
2232,688.651,0.0598
2238,689.651,0.0548
2244,690.651,0.0521
2250,691.651,0.0486
2256,692.651,0.046
2262,693.651,0.0413
2268,694.651,0.0389
2274,695.651,0.0365
2280,696.651,0.0339
2286,697.651,0.0313
2292,698.651,0.0286
2298,699.651,0.0256
2304,700.651,0.0248
2310,701.651,0.0236
2316,702.651,0.0228
2322,703.651,0.0228
2328,704.651,0.0228
2334,705.651,0.0228
2340,706.651,0.0228
2346,707.651,0.0228
2352,708.651,0.0228
2358,709.651,0.0228
2364,710.651,0.0228
2370,711.651,0.0228
2376,712.651,0.0228
2382,713.651,0.0227
2388,714.651,0.0226
2394,715.651,0.0224
2400,716.651,0.0222
2406,717.651,0.0221
2412,718.651,0.0219
2418,719.651,0.0217
2424,720.651,0.0216
2430,721.651,0.0214
2436,722.651,0.0212
2442,723.651,0.021
2448,724.651,0.0208
2454,725.651,0.0207
2460,726.651,0.0207
2466,727.651,0.0207
2472,728.651,0.0207
2478,729.651,0.0207
2484,730.651,0.0207
2490,731.651,0.0207
2496,732.651,0.0207
2502,733.651,0.0207
2508,734.651,0.0207
2514,735.651,0.0207
2520,736.651,0.0207
2526,737.651,0.0207
2532,738.651,0.0207
2538,739.651,0.0207
2544,740.651,0.0207
2550,741.651,0.0207
2556,742.651,0.0207
2562,743.651,0.0206
2568,744.651,0.0206
2574,745.651,0.0205
2580,746.651,0.0204
2586,747.651,0.0204
2592,748.651,0.0203
2598,749.651,0.0202
2604,750.651,0.0202