File: PMMA/Calibration_Data/UDRI/UDRI_Cone_25kW_1.csv
Time,Mass,HRR
[s],[g],[kW/m2]
0,71.62,0.511768
1,71.58587,3.03858
2,71.5449,2.41675
3,71.7127,0.83262
4,71.7607,1.60959
5,71.6092,3.21665
6,71.5023,2.35232
7,71.4728,1.14511
8,71.4545,2.35785
9,71.4556,3.88916
10,71.455,2.61096
11,71.4373,0.756165
12,71.4278,-0.288754
13,71.4368,0.669333
14,71.4165,2.0312
15,71.3981,0.345357
16,71.4109,-0.804952
17,71.4223,1.54028
18,71.3855,3.01178
19,71.3399,1.98255
20,71.3317,0.777766
21,71.3376,1.99104
22,71.3546,4.26762
23,71.3658,3.32965
24,71.344,1.64926
25,71.3538,1.9587
26,71.3449,3.86279
27,71.3069,5.04718
28,71.32347,3.04773
29,71.3365,1.48148
30,71.3166,1.45459
31,71.3333,3.24065
32,71.316,1.89314
33,71.2913,-0.4582
34,71.2751,-1.11695
35,71.28,-0.16286
36,71.2984,2.27759
37,71.3136,1.15335
38,71.3197,-1.02189
39,71.3128,0.647345
40,71.2874,2.51632
41,71.2681,0.83091
42,71.2627,-0.730961
43,71.2926,-0.285095
44,71.2887,1.34247
45,71.2586,0.0685247
46,71.2375,-2.19729
47,71.2498,-2.12234
48,71.2517,-1.24544
49,71.23874,1.59006
50,71.2346,1.18529
51,71.24113,0.207195
52,71.2524,1.97186
53,71.2652,3.33683
54,71.2664,1.70846
55,71.2371,0.413661
56,71.2001,1.30536
57,71.2038,2.50019
58,71.2287,1.4025
59,71.2354,0.386136
60,71.2214,0.68413
61,71.2163,2.56218
62,71.2289,4.41912
63,71.2255,2.66747
64,71.2066,0.702025
65,71.2131,0.306
66,71.2253,2.58915
67,71.4303,2.52439
68,71.8158,-0.407703
69,71.573,-1.81761
70,71.2975,-1.46227
71,71.208,0.574258
72,71.1689,-0.166749
73,71.1819,-1.62518
74,71.1747,0.0375148
75,71.1751,1.59768
76,71.1817,-0.3990264
77,71.18424,-1.48393
78,71.1598,1.02894
79,71.1979,0.140144
80,71.2753,-1.66984
81,71.2739,-2.31871
82,71.2204,-0.734021
83,71.1145,-0.002168135
84,71.2042,-2.67807
85,71.2918,-3.34813
86,71.2297,-0.649459
87,71.1303,0.119893
88,71.12071,-1.62172
89,71.1537,-2.50066
90,71.1598,-1.99476
91,71.1378,0.496299
92,71.13,-0.610262
93,71.1257,-2.35394
94,71.0917,-1.37727
95,71.1071,0.554767
96,71.1488,-0.779227
97,71.1184,-2.40331
98,71.0966,-1.43459
99,71.0975,0.689607
100,71.073,-0.39079
101,71.043,-1.93527
102,71.0466,-2.31686
103,71.0672,-0.0811036
104,71.04054,1.38685
105,71.0491,1.40108
106,71.0126,2.31962
107,70.933,7.65871
108,70.8401,15.9847
109,70.799,19.9158
110,70.7505,28.2765
111,70.6681,38.6618
112,70.5972,57.4894
113,70.5319,80.2578
114,70.4358,94.1572
115,70.3369,111.35
116,70.2251,133.997
117,70.1343,146.538
118,70.0573,156.803
119,69.9751,162.713
120,69.8548,178.09
121,69.7499,198.273
122,69.6565,205.446
123,69.5436,206.53
124,69.4328,220.557
125,69.3381,224.887
126,69.2316,226.766
127,69.1223,228.476
128,68.9999,234.311
129,68.8763,242.691
130,68.7518,243.36
131,68.6438,242.486
132,68.5562,250.943
133,68.4588,254.073
134,68.35937,259.617
135,68.2276,265.83
136,68.0991,274.276
137,67.9716,276.596
138,67.8342,274.681
139,67.7039,275.794
140,67.5725,279.56
141,67.4696,279.907
142,67.3597,282.208
143,67.2363,289.422
144,67.1177,285.145
145,66.9668,292.723
146,66.8516,292.74
147,66.7261,292.311
148,66.5851,291.901
149,66.4557,293.512
150,66.341,299.12
151,66.2068,297.872
152,66.07583,297.002
153,65.9681,302.619
154,65.8215,306.491
155,65.6807,306.187
156,65.557,300.482
157,65.4529,301.434
158,65.3269,306.753
159,65.2011,311.69
160,65.0721,314.24
161,64.9354,317.269
162,64.7897,320.409
163,64.6701,324.127
164,64.5142,322.473
165,64.3489,325.243
166,64.2128,328.525
167,64.1036,326.674
168,63.9933,330.353
169,63.8512,331.723
170,63.6701,335.089
171,63.5032,336.571
172,63.3388,332.418
173,63.2095,335.121
174,63.1012,338.897
175,62.9763,341.974
176,62.83496,351.076
177,62.6761,345.714
178,62.5133,344.896
179,62.35757,349.768
180,62.2323,349.702
181,62.08944,346.076
182,61.9616,347.036
183,61.8105,353.252
184,61.6712,355.3616
185,61.5261,356.647
186,61.381,355.015
187,61.2129,358.978
188,61.0508,363.688
189,60.9026,362.092
190,60.7542,367.83
191,60.60184,366.904
192,60.4481,372.908
193,60.3,375.638
194,60.1312,364.602
195,59.9832,365.368
196,59.8535,369.977
197,59.69532,374.955
198,59.5104,380.725
199,59.3506,374.471
200,59.2289,377.403
201,59.07,373.7
202,58.9014,368.966
203,58.7603,369.055
204,58.6081,367.81
205,58.4163,378.313
206,58.2213,381.69
207,58.0972,373.703
208,57.9802,378.632
209,57.7911,379.605
210,57.606,381.307
211,57.4841,392.439
212,57.3212,395.309
213,57.1601,402.248
214,57.0154,395.209
215,56.8169,389.689
216,56.6452,388.847
217,56.5139,407.253
218,56.3401,408.613
219,56.1913,395.184
220,56.0212,393.574
221,55.8226,408.317
222,55.6686,406.056
223,55.5374,399.336
224,55.3742,401.179
225,55.1867,404.808
226,55.0128,398.818
227,54.8836,405.903
228,54.6962,401.427
229,54.54184,411.066
230,54.4002,412.579
231,54.2269,406.702
232,54.0688,404.065
233,53.8771,404.832
234,53.72088,408.573
235,53.5231,406.957
236,53.3277,422.543
237,53.1547,416.43
238,53.0033,410.215
239,52.853,420.028
240,52.6519,423.577
241,52.50564,417.137
242,52.3448,413.242
243,52.1584,423.483
244,51.9912,423.797
245,51.84743,436.941
246,51.6807,431.065
247,51.4783,414.597
248,51.2654,419.009
249,51.0727,428.348
250,50.8912,428.446
251,50.7374,433.927
252,50.562,436.752
253,50.3957,423.88
254,50.2323,433.426
255,50.058,440.972
256,49.8766,434.967
257,49.708,439.915
258,49.5304,444.196
259,49.3448,449.777
260,49.1633,436.795
261,48.9672,443.417
262,48.7673,442.44
263,48.5904,447.782
264,48.4142,443.912
265,48.24779,445.044
266,48.0487,446.028
267,47.8533,440.219
268,47.6334,454.481
269,47.444,450.638
270,47.2699,457.73
271,47.074,464.293
272,46.891,463.125
273,46.71433,473.012
274,46.5005,466.847
275,46.2877,452.463
276,46.1044,461.231
277,45.8889,483.647
278,45.67043,488.837
279,45.4771,492.55
280,45.3063,474.97
281,45.1262,485.154
282,44.9307,474.093
283,44.7557,485.853
284,44.5477,482.944
285,44.3171,476.005
286,44.1145,482.929
287,43.9411,498.635
288,43.7528,493.349
289,43.5474,496.316
290,43.3177,491.221
291,43.1047,502.58
292,42.9039,508.382
293,42.7008,490.989
294,42.4945,492.877
295,42.269,493.591
296,42.0715,487.854
297,41.8647,503.862
298,41.6739,513.416
299,41.4476,518.111
300,41.2277,542.487
301,41.0009,532.422
302,40.7944,518.144
303,40.61044,524.617
304,40.4103,525.259
305,40.19323,515.899
306,39.9771,528.601
307,39.7455,531.931
308,39.5371,539.921
309,39.3568,533.053
310,39.1581,516.377
311,38.92932,525.77
312,38.6787,526.197
313,38.4482,534.504
314,38.2396,537.584
315,38.0705,522.246
316,37.8547,524.667
317,37.6145,529.438
318,37.4135,530.401
319,37.2212,524.534
320,37.0215,512.9
321,36.7899,534.076
322,36.5551,528.105
323,36.3201,516.391
324,36.102,526.924
325,35.8899,527.481
326,35.6957,525.929
327,35.4872,533.794
328,35.2676,515.7
329,35.0565,514.471
330,34.8604,521.563
331,34.6437,530.52
332,34.4294,525.75
333,34.2051,538.758
334,34.00753,537.303
335,33.8033,530.31
336,33.5768,525.139
337,33.3407,528.685
338,33.1086,541.782
339,32.9214,544.744
340,32.7073,531.03
341,32.47542,529.089
342,32.2506,537.385
343,32.0547,532.445
344,31.8271,527.596
345,31.5768,536.281
346,31.36317,546.064
347,31.1198,542.253
348,30.9118,566.206
349,30.7049,559.829
350,30.4572,541.891
351,30.225,541.101
352,30.0215,554.72
353,29.8411,556.371
354,29.6316,545.726
355,29.3468,550.494
356,29.12703,558.367
357,28.9042,565.154
358,28.6675,549.742
359,28.4368,549.065
360,28.2153,562.31
361,27.9918,569.539
362,27.7371,560.172
363,27.5134,566.856
364,27.33,571.503
365,27.1174,579.461
366,26.8688,573.695
367,26.5711,576.998
368,26.3429,567.212
369,26.1535,565.068
370,25.917,566.7
371,25.6482,557.782
372,25.4451,578.115
373,25.2309,581.15
374,25.0064,574.624
375,24.7496,581.104
376,24.5027,589.764
377,24.2692,594.841
378,24.0139,584.586
379,23.76662,579.443
380,23.5676,588.959
381,23.3422,594.184
382,23.05207,602.272
383,22.8111,593.395
384,22.5953,605.76
385,22.3492,605.312
386,22.0882,585.679
387,21.8408,592.119
388,21.6168,597.554
389,21.3598,608.705
390,21.1251,599.149
391,20.9088,592.498
392,20.6611,613.369
393,20.3933,604.636
394,20.1373,591.045
395,19.8969,598.428
396,19.6767,604.198
397,19.429,600.759
398,19.1971,597.929
399,18.9283,585.654
400,18.6884,614.859
401,18.43579,632.944
402,18.1535,635.743
403,17.9027,619.212
404,17.6872,607.524
405,17.4747,618.704
406,17.21298,610.174
407,16.943,625.352
408,16.6925,634.591
409,16.4187,636.519
410,16.1626,635.356
411,15.9184,617.425
412,15.6941,628.939
413,15.4627,626.438
414,15.1905,613.965
415,14.9381,623.024
416,14.6782,619.794
417,14.4168,616.763
418,14.1776,634.374
419,13.9429,621.392
420,13.669,634.288
421,13.4051,637.887
422,13.1511,624.877
423,12.8961,640.519
424,12.641,640.768
425,12.38944,642.487
426,12.127,642.66
427,11.8626,612.254
428,11.61,606.658
429,11.3625,627.522
430,11.0984,622.576
431,10.831,609.675
432,10.5903,627.07
433,10.3168,656.255
434,10.0664,667.701
435,9.785067,644.058
436,9.510701,637.067
437,9.256279,649.405
438,8.964236,677.995
439,8.698281,660.984
440,8.457806,644.893
441,8.19208,655.16
442,7.917011,662.746
443,7.671604,662.053
444,7.42666,639.703
445,7.150052,653.997
446,6.894863,656.632
447,6.661319,652.784
448,6.428117,657.929
449,6.187042,632.969
450,5.923776,634.25
451,5.647463,633.186
452,5.414754,623.369
453,5.185112,627.114
454,4.954601,640.722
455,4.702852,656.296
456,4.431664,637.729
457,4.187559,645.102
458,3.943548,639.804
459,3.742471,625.495
460,3.530454,620.137
461,3.306236,614.991
462,3.0609,613.379
463,2.843461,607.975
464,2.625768,602.925
465,2.42335,599.499
466,2.214936,578.776
467,2.03087,580.342
468,1.867296,575.819
469,1.664271,555.135
470,1.463263,560.404
471,1.266314,536.092
472,1.114372,515.389
473,0.966237,507.962
474,0.783778,505.149
475,0.605398,496.481
476,0.447154,475.592
477,0.300187,471.01
478,0.160134,466.77
479,0.046962,468.223
480,-0.083622,460.791
481,-0.170206,447.181
482,-0.243207,442.322
483,-0.29299,434.777
484,-0.350526,396.69
485,-0.367302,365.542
486,-0.377376,341.889
487,-0.395827,294.2
488,-0.428512,254.705
489,-0.411835,215.233
490,-0.450316,185.105
491,-0.471627,156.381
492,-0.45907,121.552
493,-0.47657,103.74
494,-0.487295,89.5628
495,-0.47084,74.2447
496,-0.508953,67.641
497,-0.52721,59.307
498,-0.535458,51.5065
499,-0.555455,45.1978
500,-0.520326,40.9339
501,-0.493212,38.2111
502,-0.533108,32.7731
503,-0.550321,29.0774
504,-0.545748,28.4453
505,-0.531783,27.3508
506,-0.53735,25.5703
507,-0.567853,23.3369
508,-0.579992,21.3206
509,-0.592327,21.4059
510,-0.610025,21.6366
511,-0.590745,19.3232
512,-0.579973,17.5956
513,-0.572635,18.2144
514,-0.571686,19.3645
515,-0.595967,16.8353
516,-0.582792,14.4433
517,-0.487915,14.1753
518,-0.631856,15.5908
519,-0.621318,16.0903
520,-0.556899,13.2965
521,-0.534688,10.8376
522,-0.499194,11.7758
523,-0.507232,11.0205
524,-0.539127,8.49662
525,-0.532752,7.33519
526,-0.538975,8.27819
527,-0.530154,9.67846
528,-0.508141,7.75152
529,-0.492032,5.06248
530,-0.481032,4.37885
531,-0.519055,5.19608
532,-0.549754,4.53717
533,-0.536471,1.51258
534,-0.513002,-0.128599
535,-0.512619,1.15543
536,-0.511688,2.84483
537,-0.521595,1.56258
538,-0.520371,0.0302049
539,-0.515421,0.50848
540,-0.536999,1.9359
541,-0.510689,1.33681
542,-0.505561,-0.832195
543,-0.54156,-1.56007
544,-0.539091,0.744583
545,-0.533364,0.976866
546,-0.522577,-0.0818131
547,-0.521516,0.188091
548,-0.533218,1.24652
549,-0.515718,2.7242
550,-0.516059,1.17534
551,-0.512221,-0.871866
552,-0.498446,-0.909505
553,-0.501153,0.0412003
554,-0.519311,-0.106777
555,-0.521588,-1.94451
556,-0.539675,-3.20897
557,-0.544417,-2.38758
558,-0.519631,-1.94578
559,-0.51395,-3.23832
560,-0.506172,-3.55038
561,-0.520275,-1.85421
562,-0.517861,-2.00089
563,-0.522835,-3.51932
564,-0.549831,-3.56388
565,-0.524804,-1.97647
566,-0.485594,-0.287254
567,-0.479423,-0.657734
568,-0.477807,-2.11908
569,-0.48202,-3.04041
570,-0.498993,-1.68582
571,-0.522218,-1.38833
572,-0.526406,-2.79704
573,-0.502529,-2.17822
574,-0.530104,-0.649983
575,-0.555208,0.930904
576,-0.53181,-0.206839
577,-0.519113,-1.82368
578,-0.530698,-1.79032
579,-0.562756,0.440484
580,-0.568455,0.42021
581,-0.540632,-0.923776
582,-0.521716,-1.18456
583,-0.498376,0.864801
584,-0.494731,0.608896
585,-0.493052,-0.582434
586,-0.49909,-0.506094
587,-0.51,0.549905
588,-0.539384,1.73776
589,-0.51632,0.235983
590,-0.489723,-1.84055
591,-0.495091,-1.781
592,-0.488511,-0.122367
593,-0.519266,-0.702947
594,-0.542441,-2.40089
595,-0.531412,-2.24463
596,-0.518206,-0.174593
597,-0.535572,-0.509019
598,-0.550597,-1.72846
599,-0.537773,-1.3536
600,-0.503817,0.674516
601,-0.548636,1.26994
602,-0.571885,-1.46534
603,-0.57532,-2.93188
604,-0.57904,-0.57592
605,-0.542343,0.624997
606,-0.530214,-0.703608
607,-0.541192,-1.03876
608,-0.554795,0.917107
609,-0.542398,1.76458
610,-0.526207,0.023065