File: PMMA/Calibration_Data/UDRI/UDRI_Cone_25kW_3.csv
Time,Mass,HRR
[s],[g],[kW/m2]
0,70.85,-3.83413
1,70.75009,-4.1008
2,70.6487,-1.89456
3,70.7123,0.725819
4,70.69939,0.654608
5,70.6459,-0.544747
6,70.6451,-0.647577
7,70.6361,-0.645405
8,70.6301,0.723462
9,70.6352,2.03833
10,70.6289,1.26615
11,70.63645,-0.152244
12,70.6414,-0.667752
13,70.629,0.462835
14,70.6218,3.00707
15,70.6238,3.50029
16,70.6162,1.6139
17,70.6061,-0.0144681
18,70.6052,-0.565028
19,70.6089,0.180489
20,70.5945,1.51608
21,70.5871,1.4701
22,70.5945,-0.167756
23,70.5887,-1.49974
24,70.576,-1.51351
25,70.5789,-0.419867
26,70.5855,1.27892
27,70.57653,0.849243
28,70.5725,-0.829788
29,70.5778,-2.00691
30,70.5687,-2.31212
31,70.5673,-1.44178
32,70.5654,0.328317
33,70.5473,-0.126322
34,70.5528,-1.83396
35,70.5658,-2.78345
36,70.56033,-2.70893
37,70.546,-1.10911
38,70.5475,0.173179
39,70.5555,-1.07951
40,70.5454,-3.47885
41,70.5279,-4.91442
42,70.5316,-3.90925
43,70.5368,-1.60785
44,70.5419,0.566723
45,70.5421,-0.298609
46,70.5294,-2.12206
47,70.52953,-3.15919
48,70.5281,-2.11731
49,70.51318,0.237472
50,70.4958,1.21778
51,70.4996,-0.148557
52,70.5055,-2.42875
53,70.4999,-3.30573
54,70.4924,-2.63939
55,70.4954,-0.40037
56,70.4981,0.731271
57,70.4848,-0.431183
58,70.4856,-1.28368
59,70.491,-1.07281
60,70.4922,0.118029
61,70.4948,1.691
62,70.4894,1.21336
63,70.4717,-0.694211
64,70.4643,-2.66438
65,70.4714,-3.00526
66,70.4692,-1.70857
67,70.4641,0.259859
68,70.4596,-0.267834
69,70.45733,-1.81074
70,70.46451,-2.99917
71,70.4661,-2.87885
72,70.4617,-1.07387
73,70.4664,0.563694
74,70.4528,-0.526764
75,70.45119,-2.43938
76,70.4487,-3.79301
77,70.4452,-3.1173
78,70.4423,-1.04459
79,70.4549,0.184152
80,70.4536,-1.21103
81,70.4461,-3.00709
82,70.4516,-4.39794
83,70.4413,-4.3137
84,70.4351,-1.78425
85,70.4318,-0.494615
86,70.4296,-1.94935
87,70.4183,-3.57423
88,70.39807,-3.93298
89,70.4043,-3.10814
90,70.4152,-1.02459
91,70.411,-0.467229
92,70.3968,-2.15567
93,70.39795,-3.67245
94,70.3911,-3.92096
95,70.3761,-2.79243
96,70.3772,-0.548568
97,70.3733,-0.669945
98,70.3742,-2.60364
99,70.368,-3.93553
100,70.3627,-4.03255
101,70.3648,-2.71916
102,70.3507,-0.588432
103,70.3404,-0.400669
104,70.3364,-1.93805
105,70.31057,-2.92651
106,70.2971,-3.05248
107,70.3022,-2.67262
108,70.3071,-2.10096
109,70.2906,-4.56005
110,70.2356,-8.7739
111,70.2009,-12.8636
112,70.2936,-15.0324
113,70.2242,-14.0945
114,70.1185,-9.03253
115,70.04704,-2.03984
116,69.97392,9.34474
117,69.9022,24.6106
118,69.8348,41.0846
119,69.7402,61.2698
120,69.6446,81.311
121,69.5503,99.6537
122,69.4337,117.653
123,69.3176,133.777
124,69.201,154.397
125,69.0709,178.857
126,68.9466,198.905
127,68.8288,221.349
128,68.7204,232.153
129,68.5924,240.302
130,68.46133,249.705
131,68.3554,265.056
132,68.2493,263.698
133,68.1146,266.857
134,67.98024,268.396
135,67.832,268.724
136,67.6958,270.297
137,67.5797,277.805
138,67.4571,290.335
139,67.3268,290.282
140,67.1713,300.033
141,67.0201,305.492
142,66.897,305.501
143,66.7741,308.47
144,66.6383,313.065
145,66.5031,311.66
146,66.3687,311.598
147,66.23086,318.9
148,66.0849,316.519
149,65.943,323.407
150,65.8035,322.396
151,65.6605,325.726
152,65.5109,330.573
153,65.365,331.186
154,65.2245,333.598
155,65.0779,337.183
156,64.9335,341.559
157,64.8066,341.622
158,64.6635,344.277
159,64.5209,341.48
160,64.37412,345.844
161,64.2184,355.261
162,64.063,351.788
163,63.9146,343.873
164,63.7679,343.987
165,63.6185,344.398
166,63.4673,355.285
167,63.3303,364.389
168,63.1686,362.94
169,63.0072,351.568
170,62.8628,355.918
171,62.7081,362.422
172,62.5563,368.319
173,62.3995,373.88
174,62.2324,369.117
175,62.0832,369.363
176,61.91244,374.363
177,61.7416,377.092
178,61.5888,381.008
179,61.4319,379.243
180,61.2647,377.586
181,61.10138,379.771
182,60.9463,382.81
183,60.7782,386.911
184,60.5957,402.638
185,60.4371,404.912
186,60.2835,407.179
187,60.121,400.555
188,59.95989,396.82
189,59.7708,407.294
190,59.5855,397.191
191,59.4173,402.167
192,59.2518,396.255
193,59.0878,397.791
194,58.9284,400.387
195,58.759,398.122
196,58.6206,405.377
197,58.4565,408.431
198,58.2753,406.762
199,58.10416,404.745
200,57.942,404.952
201,57.7792,407.459
202,57.599,408.898
203,57.4181,404.78
204,57.2448,409.33
205,57.0629,407.753
206,56.901,406.922
207,56.7388,421.289
208,56.5518,417.421
209,56.361,416.398
210,56.1706,416.66
211,56.0011,415.118
212,55.8154,424.488
213,55.6335,436.405
214,55.4642,433.864
215,55.2928,436.752
216,55.1252,434.797
217,54.9479,440.15
218,54.7647,440.47
219,54.57725,444.1
220,54.3845,445.519
221,54.2303,428.82
222,54.0454,431.586
223,53.8458,441.58
224,53.6617,444.909
225,53.4937,432.026
226,53.3198,433.501
227,53.1276,422.048
228,52.932,434.958
229,52.7424,439.501
230,52.545,428.747
231,52.3649,430.284
232,52.1815,441.03
233,52.0015,440.14
234,51.8206,454.18
235,51.6245,457.974
236,51.4175,466.464
237,51.2292,470.21
238,51.0399,467.099
239,50.8531,458.998
240,50.6597,449.175
241,50.47,458.35
242,50.2753,466.465
243,50.0814,476.17
244,49.9093,468.728
245,49.7445,461.408
246,49.5534,466.072
247,49.3529,469.799
248,49.1443,480.049
249,48.9368,485.854
250,48.7345,473.13
251,48.5453,462.225
252,48.352,457.807
253,48.1444,468.374
254,47.9481,489.358
255,47.7482,484.498
256,47.5639,484.793
257,47.36518,491.376
258,47.1759,482.685
259,46.9749,490.015
260,46.7638,482.031
261,46.5686,489.839
262,46.3806,490.415
263,46.1802,507.746
264,45.9683,495.335
265,45.769,481.726
266,45.5707,477.249
267,45.3734,479.692
268,45.1638,474.519
269,44.9631,477.636
270,44.7679,477.717
271,44.55734,477.334
272,44.3549,488.954
273,44.1429,489.539
274,43.9208,482.368
275,43.7068,496.7
276,43.5019,502.959
277,43.3104,502.794
278,43.093,503.788
279,42.8815,505.46
280,42.6762,517.798
281,42.4567,527.141
282,42.2379,523.658
283,42.023,524.324
284,41.8199,524.475
285,41.6043,510.897
286,41.381,519.44
287,41.1599,514.436
288,40.9299,516.41
289,40.724,512.696
290,40.5246,514.645
291,40.3081,516.042
292,40.0808,509.305
293,39.8516,536.537
294,39.6364,522.105
295,39.422,517.049
296,39.2119,525.669
297,38.9968,528.628
298,38.7546,533.016
299,38.5343,549.5
300,38.3114,548.562
301,38.0957,550.237
302,37.8845,545.986
303,37.6621,537.45
304,37.4502,539.394
305,37.2282,539.578
306,36.9931,536.678
307,36.7732,535.144
308,36.5551,536.366
309,36.3334,537.343
310,36.1123,543.314
311,35.8847,536.865
312,35.6648,518.617
313,35.4278,526.45
314,35.1987,532.84
315,34.9818,557.327
316,34.7654,564.539
317,34.5386,572.231
318,34.3045,567.526
319,34.0789,547.684
320,33.8444,546.702
321,33.6177,533.963
322,33.4139,544.139
323,33.1819,545.067
324,32.94698,561.805
325,32.7135,554.001
326,32.487,565.52
327,32.2803,555.956
328,32.0544,570.784
329,31.8326,551.148
330,31.61409,549.819
331,31.3697,545.395
332,31.1303,556.955
333,30.8978,564.91
334,30.6847,556.69
335,30.454,549.819
336,30.2235,562.368
337,29.9872,549.157
338,29.7472,555.059
339,29.5247,565.532
340,29.2976,557.47
341,29.0729,559.492
342,28.8399,580.323
343,28.5957,565.101
344,28.3602,547.505
345,28.1259,560.137
346,27.8975,566.323
347,27.6616,567.62
348,27.4174,570.504
349,27.1998,568.26
350,26.9692,557.952
351,26.73,555.889
352,26.4967,565.35
353,26.2629,561.789
354,26.0321,574.043
355,25.7872,574.227
356,25.5453,571.652
357,25.3013,571.144
358,25.0558,569.23
359,24.8314,570.05
360,24.5912,574.722
361,24.3492,579.105
362,24.0937,594.764
363,23.8422,591.387
364,23.5989,590.036
365,23.3544,606.94
366,23.1069,601.345
367,22.8552,593.422
368,22.5918,600.032
369,22.3375,602.894
370,22.0825,613.985
371,21.8248,613.025
372,21.5633,599.392
373,21.3074,613.284
374,21.0523,623.455
375,20.80479,638.139
376,20.5701,633.524
377,20.2997,631.706
378,20.026,623.413
379,19.7616,615.114
380,19.5,621.043
381,19.2327,611.553
382,18.98451,653.841
383,18.7325,638.708
384,18.4753,654.001
385,18.2196,630.39
386,17.9551,623.487
387,17.69422,619.536
388,17.444,633.633
389,17.1851,644.385
390,16.9377,662.609
391,16.6669,636.65
392,16.40028,610.381
393,16.1468,635.946
394,15.8861,677.051
395,15.6348,659.102
396,15.3898,643.863
397,15.1287,625.639
398,14.8436,630.492
399,14.5648,640.542
400,14.3323,630.412
401,14.08458,622.773
402,13.82257,623.278
403,13.5591,636.538
404,13.2884,631.161
405,13.0315,643.492
406,12.7696,673.873
407,12.5198,657.196
408,12.2524,645.296
409,11.9949,638.436
410,11.744,651.298
411,11.4709,645.732
412,11.2107,637.26
413,10.9584,648.507
414,10.7172,619.815
415,10.4654,622.545
416,10.1952,629.227
417,9.946164,653.065
418,9.689601,648.51
419,9.440178,646.211
420,9.189146,636.703
421,8.946064,635.775
422,8.704521,639.694
423,8.459868,652.74
424,8.223287,634.468
425,7.98734,599.316
426,7.763793,609.363
427,7.537188,606.894
428,7.303209,592.285
429,7.06447,583.725
430,6.826162,582.055
431,6.598178,578.806
432,6.3808,585.041
433,6.136696,596.541
434,5.90629,581.513
435,5.672549,585.148
436,5.43574,574.955
437,5.214516,573.156
438,5.005368,579.803
439,4.79036,589.796
440,4.557256,569.588
441,4.32425,572.614
442,4.110195,577.32
443,3.878081,578.603
444,3.643245,571.816
445,3.44675,558.4
446,3.226432,562.085
447,3.008778,582.634
448,2.79871,560.445
449,2.611982,543.135
450,2.416908,566.103
451,2.216054,559.11
452,2.026296,553.215
453,1.83084,533.868
454,1.635188,508.163
455,1.46844,499.24
456,1.293059,496.681
457,1.125825,500.662
458,0.962112,512.626
459,0.811252,512.691
460,0.665133,497.455
461,0.522085,497.91
462,0.406174,489.39
463,0.29438,468.078
464,0.17766,447.639
465,0.067895,439.554
466,-0.027004,420.088
467,-0.096244,398.955
468,-0.171552,379.843
469,-0.246507,360.962
470,-0.329336,336.028
471,-0.397658,310.347
472,-0.453283,280.414
473,-0.500367,259.166
474,-0.551603,237.803
475,-0.593152,221.853
476,-0.645535,203.593
477,-0.665889,188.034
478,-0.676763,177.484
479,-0.704446,160.77
480,-0.721912,145.384
481,-0.720094,128.882
482,-0.731982,116.381
483,-0.746343,102.974
484,-0.754717,88.3208
485,-0.769155,76.9822
486,-0.778635,67.4734
487,-0.79146,59.859
488,-0.791803,53.0666
489,-0.77714,45.5777
490,-0.785887,38.7543
491,-0.805033,34.8259
492,-0.814947,32.2468
493,-0.823087,30.5743
494,-0.821782,27.2082
495,-0.828607,23.3954
496,-0.84888,20.1486
497,-0.853423,18.4519
498,-0.850286,18.9319
499,-0.850572,19.4803
500,-0.857674,16.8651
501,-0.86953,14.0496
502,-0.869189,12.6577
503,-0.866211,12.2655
504,-0.875405,13.5059
505,-0.878548,14.0046
506,-0.863868,12.0613
507,-0.870255,9.6868
508,-0.883925,8.57413
509,-0.898319,8.91963
510,-0.888395,10.6711
511,-0.887066,10.9731
512,-0.894738,9.34241
513,-0.898763,6.93509
514,-0.883366,5.75893
515,-0.837426,5.87878
516,-0.44773,7.06243
517,-0.532268,6.95833
518,-0.771714,4.42633
519,-0.834673,2.27321
520,-0.846415,1.20834
521,-0.834348,2.13285
522,-0.831019,3.71769
523,-0.835584,3.83498
524,-0.824248,2.50042
525,-0.817889,1.4679
526,-0.831256,1.2932
527,-0.839228,2.38134
528,-0.821763,4.0874
529,-0.808176,3.00554
530,-0.818518,1.1641
531,-0.828917,0.327802
532,-0.828856,0.639697
533,-0.823813,2.26005
534,-0.82256,3.22339
535,-0.817443,2.08285
536,-0.81296,-0.058115
537,-0.817362,-1.30872
538,-0.821937,-1.24777
539,-0.841887,-0.0195868
540,-0.854266,1.53245
541,-0.834235,0.889178
542,-0.831901,-0.106178
543,-0.825098,-0.687323
544,-0.827384,-0.259746
545,-0.838287,1.6558
546,-0.835093,2.33306
547,-0.845616,0.933422
548,-0.839511,-0.443887
549,-0.839996,-0.745697
550,-0.840188,0.0422236
551,-0.836826,2.0567
552,-0.841277,2.30222
553,-0.840512,0.797573
554,-0.827967,-0.50033
555,-0.832227,-0.774987
556,-0.842575,0.483798
557,-0.842875,2.76082
558,-0.837104,2.80813
559,-0.836927,1.19147
560,-0.831132,-0.141547
561,-0.827889,-0.833325
562,-0.818156,0.357701
563,-0.822421,1.5053
564,-0.832519,0.38103
565,-0.829542,-0.866705
566,-0.830443,-1.12422
567,-0.829442,-0.626029
568,-0.831893,1.23836
569,-0.829841,3.21595
570,-0.832696,2.51155
571,-0.839666,1.15809
572,-0.831859,0.81102
573,-0.824228,0.830818
574,-0.834234,2.43009
575,-0.838552,3.54882
576,-0.837889,2.35503
577,-0.838561,0.870539
578,-0.834849,0.387551
579,-0.84153,1.00317
580,-0.848619,2.83724
581,-0.845179,3.04579
582,-0.834121,1.72791
583,-0.833242,1.29057
584,-0.836891,1.61788
585,-0.839961,2.68682
586,-0.833403,5.29311
587,-0.830561,5.07674
588,-0.836366,3.15318
589,-0.839569,1.05149
590,-0.835148,0.48911
591,-0.836901,1.80004
592,-0.850853,3.88293
593,-0.866689,2.98312
594,-0.861575,1.03067
595,-0.8483,-0.187352
596,-0.834698,-0.312819
597,-0.828153,0.396015
598,-0.834648,1.81859
599,-0.845321,1.53644
600,-0.853019,0.266224
601,-0.867017,-0.518414
602,-0.864913,-0.171666
603,-0.85889,1.52652
604,-0.862494,3.2803
605,-0.84496,1.80771
606,-0.832875,0.25664
607,-0.846245,-0.2350666
608,-0.85153,0.294072
609,-0.839216,2.11324
610,-0.840713,3.33591
611,-0.843889,2.23128