File: PMMA/Calibration_Data/UDRI/UDRI_Cone_65kW_3.csv
Time,Mass,HRR
[s],[g],[kW/m2]
0,73.45,-1.88922
1,73.1383,-0.53554
2,72.7107,1.69806
3,72.6924,1.27389
4,72.8584,-0.443663
5,72.92173,-0.465976
6,72.907,2.57171
7,72.8601,4.71271
8,72.82943,4.17761
9,72.8612,3.60573
10,72.8366,3.83241
11,72.8025,5.17929
12,72.7804,3.88959
13,72.7702,1.83427
14,72.7634,0.877691
15,72.7444,2.11529
16,72.7526,0.0654758
17,72.7331,-5.9075
18,72.7045,-15.4546
19,72.6516,-26.4912
20,72.5541,-32.8235
21,72.4276,-42.0839
22,72.3409,-43.4552
23,72.197,-31.4105
24,72.0115,13.2743
25,71.8117,89.4895
26,71.6273,141.718
27,71.4368,197.203
28,71.242,262.291
29,71.0305,299.287
30,70.7919,347.223
31,70.5519,380.155
32,70.3456,412.529
33,70.1012,445.566
34,69.8211,452.433
35,69.5869,472.32
36,69.3447,502.448
37,69.1098,521.354
38,68.8447,530.242
39,68.5792,539.549
40,68.3332,581.519
41,68.0717,592.929
42,67.8016,596.428
43,67.5602,607.073
44,67.29016,621.139
45,67.0209,632.044
46,66.7486,641.935
47,66.4863,622.315
48,66.269,627.495
49,66.005,630.286
50,65.7459,618.107
51,65.4562,633.566
52,65.1922,644.731
53,64.9199,637
54,64.6262,655.13
55,64.3268,674.272
56,64.0618,655.738
57,63.7849,646.255
58,63.5014,658.04
59,63.2296,646.969
60,62.9186,664.357
61,62.6286,689.049
62,62.328,698.138
63,62.0624,703.902
64,61.8031,697.502
65,61.51,670.648
66,61.2056,664.95
67,60.9193,692.443
68,60.6285,712.93
69,60.3086,708.831
70,60.0124,711.963
71,59.7307,706.625
72,59.4515,710.156
73,59.1783,692.631
74,58.875,707.91
75,58.5643,700.82
76,58.2863,682.628
77,57.9563,688.711
78,57.6276,692.008
79,57.3359,673.791
80,57.07476,680.676
81,56.7646,696.691
82,56.4629,735.273
83,56.1708,723.567
84,55.8641,712.253
85,55.5534,720.947
86,55.2579,742.119
87,54.9665,745.752
88,54.6456,745.051
89,54.322,738.152
90,54.008,726.116
91,53.6995,731.897
92,53.4096,742.692
93,53.10483,707.644
94,52.7619,723.433
95,52.4892,755.641
96,52.2282,747.583
97,51.8836,747.26
98,51.5431,771.027
99,51.202,790.656
100,50.833,803.994
101,50.5056,760.116
102,50.1956,738.709
103,49.8842,772.511
104,49.5674,761.699
105,49.2202,768.431
106,48.8954,764.661
107,48.5661,790.842
108,48.2292,791.421
109,47.8912,806.442
110,47.51231,820.732
111,47.17213,806.767
112,46.8672,818.711
113,46.5149,880.11
114,46.1573,825.948
115,45.8244,822.453
116,45.4857,822.004
117,45.1537,821.846
118,44.8123,808.94
119,44.4626,800.135
120,44.108,836.455
121,43.7668,825.463
122,43.4429,829.054
123,43.1184,822.027
124,42.7392,815.242
125,42.3229,811.885
126,41.9755,819.997
127,41.6333,811.338
128,41.3216,819.046
129,40.96287,864.632
130,40.5763,816.776
131,40.2194,852.316
132,39.8804,851.845
133,39.5476,810.301
134,39.1834,821.016
135,38.8208,833.973
136,38.4738,866.421
137,38.1056,905.851
138,37.74722,921.893
139,37.39275,938.747
140,37.0407,899.555
141,36.61803,894.131
142,36.14754,885.586
143,35.7875,961.002
144,35.4285,926.994
145,35.0479,865.037
146,34.6614,959.373
147,34.2737,931.702
148,33.90075,882.269
149,33.5073,936.455
150,33.1577,977.508
151,32.7794,968.681
152,32.3954,923.025
153,31.9915,894.397
154,31.5773,931.786
155,31.172,935.338
156,30.7855,970.498
157,30.4091,1044.31
158,30.00748,997.215
159,29.5943,1033.23
160,29.1632,1043.93
161,28.7282,972.901
162,28.31931,950.244
163,27.9349,1046.54
164,27.5393,1038.75
165,27.0905,937.559
166,26.6639,987.521
167,26.2431,1071.34
168,25.8246,1156.82
169,25.3938,1115.75
170,24.9337,1034.41
171,24.497,1042.15
172,24.0626,1003.42
173,23.6703,1050.84
174,23.268,1133.78
175,22.8085,1156.26
176,22.3228,1094.17
177,21.8905,1032.31
178,21.4917,1066.25
179,21.0923,1095.42
180,20.6346,1045.46
181,20.1624,1020.44
182,19.7094,1053.15
183,19.3035,1007.08
184,18.8522,1046.9
185,18.423,1105.42
186,17.9932,1045.85
187,17.5429,1122.35
188,17.1117,1125.71
189,16.6635,1045.48
190,16.1963,1086.09
191,15.7649,1073
192,15.3244,1145.11
193,14.8628,1139.06
194,14.3887,1159.36
195,13.9082,1095.29
196,13.4231,1077.97
197,12.9618,1062.88
198,12.4707,1125.51
199,11.981,1091.38
200,11.52983,1134.49
201,11.04138,1091.35
202,10.5292,991.261
203,10.0475,1037.3
204,9.545875,1116.34
205,9.055872,1117.06
206,8.548534,1303.77
207,8.038861,1256.33
208,7.526745,1258.98
209,7.023116,1437.38
210,6.486265,1361.11
211,6.012781,1296.01
212,5.529917,1182.42
213,5.075299,1226.84
214,4.534832,1188.27
215,4.007564,1244.02
216,3.50742,1378.08
217,3.058282,1278.2
218,2.607383,1318.41
219,2.219178,1364.05
220,1.855204,1344.11
221,1.497556,1282.93
222,1.224632,1336.3
223,0.966893,1284.98
224,0.725375,1223.89
225,0.561655,1146.56
226,0.404541,1091.39
227,0.248566,1030.05
228,0.096397,929.514
229,-0.039464,849.282
230,-0.169179,747.449
231,-0.228868,656.557
232,-0.283935,567.114
233,-0.385923,477.68
234,-0.417792,439.531
235,-0.504406,400.494
236,-0.599049,363.672
237,-0.645406,337.187
238,-0.709581,300.918
239,-0.794787,271.363
240,-0.866982,244.259
241,-0.909741,215.016
242,-0.938169,200.643
243,-0.991548,186.908
244,-1.021813,176.92
245,-1.021812,167.045
246,-1.051663,155.16
247,-1.098261,144.121
248,-1.082867,130.96
249,-1.072048,113.227
250,-1.10487,102.954
251,-1.113337,90.1584
252,-1.116935,76.8996
253,-1.129519,66.0247
254,-1.140035,56.8851
255,-1.160542,53.0241
256,-1.195633,45.6869
257,-1.208675,39.2927
258,-1.180732,36.8686
259,-1.163149,36.0886
260,-1.196793,33.8257
261,-1.251337,30.3002
262,-1.269,27.8525
263,-1.249216,27.3764
264,-1.188801,24.5067
265,-1.184905,22.1204
266,-1.250163,21.272
267,-1.287098,22.4543
268,-1.307163,21.8006
269,-1.273572,20.2327
270,-1.253763,20.0988
271,-1.254661,21.8749
272,-1.247269,20.6851
273,-1.144959,17.8642
274,-1.049869,16.487
275,-1.260126,16.5823
276,-1.361309,16.1349
277,-1.298574,12.2996
278,-1.245103,8.64812
279,-1.240236,8.73672
280,-1.257845,9.4965
281,-1.246012,8.41298
282,-1.236512,6.47962
283,-1.258541,7.29396
284,-1.280848,7.47088
285,-1.289685,5.11825
286,-1.302038,4.2969
287,-1.288693,4.79005
288,-1.281361,5.06859
289,-1.301507,3.86477
290,-1.292543,2.26461
291,-1.235613,2.40263
292,-1.250767,3.71545
293,-1.271066,3.28151
294,-1.297544,1.81321
295,-1.251027,0.515797
296,-1.233247,0.709993
297,-1.272249,1.75859
298,-1.265402,2.96149
299,-1.285275,1.08935
300,-1.293356,-0.597985
301,-1.307713,-0.153693
302,-1.325485,1.60466
303,-1.289992,0.598086
304,-1.281754,-0.581404
305,-1.31047,0.285219
306,-1.297922,1.96008
307,-1.306525,0.706569
308,-1.311886,-0.58484
309,-1.305772,-0.0147293
310,-1.284593,1.27254
311,-1.284562,1.03404
312,-1.320312,-0.807125
313,-1.33872,-1.25225
314,-1.310374,0.148886
315,-1.279351,1.52892
316,-1.304791,-0.203145
317,-1.342478,-1.66809
318,-1.342023,-1.31248
319,-1.270109,0.365716
320,-1.274841,0.803637
321,-1.331595,-0.435825
322,-1.354102,-1.41689
323,-1.349205,-0.804003
324,-1.344627,1.39396
325,-1.302061,0.443009
326,-1.308516,0.239337
327,-1.321618,2.48201
328,-1.322327,2.81889
329,-1.333844,1.31036
330,-1.34584,0.0355188
331,-1.354738,-0.240426
332,-1.34352,1.48504
333,-1.392574,1.21549
334,-1.389751,-0.278354
335,-1.359815,-1.18895
336,-1.328319,-1.09103
337,-1.330789,1.29889
338,-1.340716,1.24213
339,-1.323994,0.982632
340,-1.344727,3.12823
341,-1.359095,6.72735
342,-1.346569,8.05995
343,-1.357603,6.26551
344,-1.33674,5.102
345,-1.343615,5.44809
346,-1.388998,6.51721
347,-1.392366,5.88499
348,-1.373118,3.95296
349,-1.345196,4.04955
350,-1.372826,5.6314
351,-1.362881,3.07068
352,-1.373718,1.23513
353,-1.36467,0.977856
354,-1.36456,2.06394
355,-1.363988,1.60998
356,-1.356,-0.258865
357,-1.38726,-0.850529
358,-1.384505,0.933069
359,-1.418801,1.45238
360,-1.381682,-0.174604
361,-1.385349,-0.47039
362,-1.369995,1.47337
363,-1.42056,1.82131
364,-1.489021,-0.0594751
365,-1.491344,-0.368712