File: PMMA/Calibration_Data/UDRI/UDRI_Cone_65kW_1.csv
Time,Mass,HRR
[s],[g],[kW/m2]
0,72.47,0.109528
1,72.91976,-0.822639
2,73.176,0.746082
3,73.0726,3.42808
4,73.1109,2.27148
5,73.1808,0.709374
6,73.1819,0.501485
7,73.1679,1.75671
8,73.1778,3.39107
9,73.207,3.2907
10,73.1545,1.20638
11,73.1073,0.685162
12,73.0964,2.11246
13,73.1231,4.0044
14,73.1484,2.20238
15,73.1442,-2.51021
16,73.1117,-10.5395
17,73.06,-22.204
18,72.9519,-28.8309
19,72.909,-38.0029
20,72.6938,-44.418
21,72.6586,-40.4699
22,72.6662,-3.6422
23,72.38613,65.4835
24,72.1142,108.319
25,71.8865,164.204
26,71.674,240.102
27,71.4999,284.507
28,71.2639,320.804
29,71.0108,361.868
30,70.8142,420.181
31,70.613,446.38
32,70.3472,454.082
33,70.0817,490.051
34,69.8546,511.354
35,69.6452,511.932
36,69.378,520.757
37,69.1104,525.889
38,68.8802,547.363
39,68.6266,564.222
40,68.3312,555.313
41,68.0564,578.491
42,67.8375,581.002
43,67.6068,580.551
44,67.31353,590.266
45,67.0687,581.039
46,66.8205,601.182
47,66.5417,647.819
48,66.2778,620.729
49,66.0066,610.417
50,65.7187,628.459
51,65.4017,675.211
52,65.1111,672.852
53,64.8621,673.927
54,64.6143,658.212
55,64.3417,664.96
56,64.0698,672.636
57,63.7708,658.307
58,63.4525,647.649
59,63.1573,627.284
60,62.8841,651.073
61,62.62791,677.388
62,62.3492,677.083
63,62.0817,689.076
64,61.8058,685.186
65,61.5208,686.772
66,61.2229,671.038
67,60.8989,652.124
68,60.5933,653.914
69,60.3288,656.571
70,60.07516,709.808
71,59.8044,695.022
72,59.5262,698.324
73,59.2177,733.823
74,58.9593,689.083
75,58.66,670.669
76,58.3457,687.053
77,58.0473,732.258
78,57.75959,761.066
79,57.4417,729.147
80,57.1554,695.205
81,56.8972,696.209
82,56.6068,713.206
83,56.2816,696.414
84,56.022,706.013
85,55.70954,720.594
86,55.39015,729.091
87,55.1115,711.164
88,54.7909,703.171
89,54.4627,723.407
90,54.1577,724.726
91,53.893,718.204
92,53.61798,721.651
93,53.3114,739.571
94,52.9907,750.638
95,52.65945,744.094
96,52.328,727.518
97,51.9648,752.565
98,51.6643,757.881
99,51.4215,757.715
100,51.099,796.984
101,50.7409,799.731
102,50.38898,774.982
103,50.0496,768.567
104,49.7327,756.739
105,49.4585,779.532
106,49.15368,795.411
107,48.81543,795.28
108,48.485,797.056
109,48.1634,781.886
110,47.8424,777.931
111,47.5283,769.087
112,47.2058,777.721
113,46.8867,796.601
114,46.5234,839.472
115,46.1611,800.332
116,45.8268,831.368
117,45.5203,868.274
118,45.158,869.289
119,44.8031,847.824
120,44.5117,826.745
121,44.1898,839.44
122,43.8242,835.792
123,43.4709,838.645
124,43.1032,810.034
125,42.7271,842.553
126,42.4119,858.77
127,42.0712,864.91
128,41.6998,855.05
129,41.3306,842.601
130,40.9964,844.493
131,40.6813,877.476
132,40.3522,902.109
133,39.9753,841.761
134,39.6066,842.678
135,39.2066,826.688
136,38.7884,824.702
137,38.44199,873.873
138,38.1409,936.584
139,37.79035,914.797
140,37.4122,885.597
141,37.0074,880.542
142,36.6068,907.958
143,36.2588,876.339
144,35.85483,894.226
145,35.4127,919.631
146,35.0411,923.007
147,34.6871,924.387
148,34.3201,975.447
149,33.9336,921.23
150,33.5404,982.284
151,33.1666,968.811
152,32.7836,946.033
153,32.3466,934.463
154,31.9287,979.812
155,31.50456,1036.46
156,31.04851,1017.06
157,30.6424,963.698
158,30.2694,981.717
159,29.7945,944.256
160,29.33883,890.667
161,28.9388,994.836
162,28.5522,1073.98
163,28.1119,1038.29
164,27.6969,1112.05
165,27.2842,1123.64
166,26.8048,1046.79
167,26.3268,1048.78
168,25.8975,1127.56
169,25.4988,1048.03
170,25.0569,975.167
171,24.605,1022.65
172,24.0995,1097.41
173,23.6373,1118.98
174,23.2522,1128.65
175,22.8059,1205.62
176,22.3751,1189.54
177,21.9129,1097.87
178,21.4641,1092.27
179,21.0086,1139.8
180,20.5689,1215.35
181,20.1379,1102.14
182,19.7072,1020.12
183,19.2843,1134.23
184,18.8079,1078.45
185,18.3491,1082.77
186,17.9339,1121.9
187,17.4998,1111.28
188,17.0036,1130.07
189,16.5745,1133.34
190,16.1382,1072.32
191,15.6796,996.456
192,15.1868,1052.9
193,14.6804,1068.6
194,14.1862,1142.05
195,13.6631,1100.58
196,13.1706,1166.23
197,12.7072,1295.79
198,12.2602,1215.76
199,11.7678,1154.88
200,11.1931,1317.09
201,10.6489,1270.39
202,10.1586,1304.43
203,9.667148,1289.04
204,9.148497,1223
205,8.598583,1293.85
206,8.114917,1258.73
207,7.655937,1205.49
208,7.125219,1243.25
209,6.619797,1228.07
210,6.130058,1196.08
211,5.623224,1315.89
212,5.150454,1290.1
213,4.747367,1300.91
214,4.292889,1348.11
215,3.866928,1247.58
216,3.520685,1314.87
217,3.169282,1402.96
218,2.849543,1335.07
219,2.618802,1273.17
220,2.424434,1188.96
221,2.22497,1145.1
222,2.044911,1071.48
223,1.897618,977.086
224,1.738642,933.907
225,1.611627,870.553
226,1.495353,772.63
227,1.353028,704.781
228,1.228438,622.149
229,1.147017,554.01
230,1.11107,502.458
231,1.049352,449.608
232,0.949351,419.455
233,0.874694,369.65
234,0.86231,307.16
235,0.874525,271.579
236,0.840415,236.611
237,0.764666,211.849
238,0.675142,191.179
239,0.6809,171.309
240,0.689884,160.629
241,0.610212,145.61
242,0.558583,130.936
243,0.5805,124.858
244,0.585401,115.938
245,0.545249,108.565
246,0.513695,101.359
247,0.49624,93.1644
248,0.462751,91.7222
249,0.428613,86.1978
250,0.385086,81.1368
251,0.391572,78.4174
252,0.363338,78.1167
253,0.329774,76.9457
254,0.32662,70.6364
255,0.339325,64.8184
256,0.302645,64.2177
257,0.252512,61.541
258,0.306099,56.7516
259,0.292816,52.1981
260,0.241469,48.6157
261,0.216996,47.3535
262,0.167352,43.1084
263,0.160168,38.3345
264,0.197192,36.9765
265,0.205461,37.4517
266,0.185077,36.193
267,0.18103,32.7472
268,0.176893,29.7677
269,0.180746,30.1636
270,0.179981,28.3806
271,0.165924,25.8987
272,0.126022,24.1144
273,0.115727,24.5858
274,0.165318,23.8093
275,0.139255,20.2913
276,0.032211,18.1323
277,0.084642,18.1075
278,0.260479,17.6392
279,0.032391,15.7065
280,0.031418,12.0894
281,0.167064,9.49488
282,0.211209,9.12851
283,0.194795,10.0794
284,0.18025,8.24028
285,0.174563,6.40547
286,0.211519,7.17972
287,0.227269,8.43559
288,0.217103,7.15775
289,0.218787,6.22983
290,0.176415,6.81021
291,0.152637,9.65506
292,0.157727,8.95502
293,0.18842,6.79752
294,0.185041,7.78014
295,0.199767,8.20342
296,0.15688,6.76201
297,0.160833,4.95004
298,0.205248,4.56986
299,0.217317,6.61645
300,0.142167,6.84885
301,0.133651,4.99302
302,0.144532,5.05782
303,0.159289,6.49447
304,0.148609,6.74515
305,0.178215,5.32744
306,0.154688,5.32001
307,0.149285,7.16407
308,0.178932,7.60981
309,0.187647,5.53054
310,0.153366,4.71802
311,0.132954,6.5454
312,0.134382,8.612
313,0.167851,7.155
314,0.162272,5.52634
315,0.166861,6.1004
316,0.137734,7.96133
317,0.152603,7.91731
318,0.168676,6.31992
319,0.178403,5.78738
320,0.137212,7.4172
321,0.145373,8.09575
322,0.169299,6.61741
323,0.192672,5.85193
324,0.197242,6.28564
325,0.129589,8.05116
326,0.124558,6.94133
327,0.07147,5.33316
328,0.073655,6.12146
329,0.115349,7.48287
330,0.14307,7.70453
331,0.182741,6.05044
332,0.130332,4.95431
333,0.094807,5.80817
334,0.1201,8.25813
335,0.159258,7.56174
336,0.121114,6.05363
337,0.147404,5.76876
338,0.192236,7.43378
339,0.065455,7.55135
340,0.078259,6.01901
341,0.130141,5.72621
342,0.135333,7.30688
343,0.135679,6.71259
344,0.112187,5.24058
345,0.166817,5.50647
346,0.177635,7.50723
347,0.124825,7.26454
348,0.127325,5.9634
349,0.166925,4.79114
350,0.098055,4.48447
351,0.121514,5.88357
352,0.145226,7.59947
353,0.111429,7.35122
354,0.08747,6.12911
355,0.122577,7.50639
356,0.128694,9.86759
357,0.139449,8.32035
358,0.133469,6.78219
359,0.119284,6.813
360,0.101301,8.51482
361,0.085307,8.54909
362,0.113943,6.41228
363,0.075632,5.77863
364,0.096211,6.35111
365,0.063703,7.8643
366,0.079747,7.92371
367,0.069276,6.64906
368,0.069105,6.90166
369,0.08206,8.30926
370,0.120794,8.54866
371,0.13191,6.67658
372,0.045702,5.32124
373,0.040184,6.21147
374,0.080836,7.80954
375,0.058389,7.7231
376,0.024348,6.4103
377,0.053331,6.57613
378,0.068645,8.7741
379,0.061937,8.07539
380,0.017128,5.72561
381,0.022445,5.28143
382,0.027166,6.70213
383,0.055977,8.02871
384,0.001468,6.32516
385,0.022986,5.19913
386,0.007563,5.22836
387,0.029592,5.78535
388,0.064201,8.13466
389,0.054652,7.66245
390,0.060436,6.44908
391,0.038057,6.69669
392,-0.028631,7.82325
393,0.025278,9.37678
394,0.035388,8.26337
395,0.005908,7.00497
396,-0.001325,8.04079
397,0.026525,9.86464
398,0.038653,9.73193
399,0.032603,7.13892
400,0.00768,6.23651
401,-0.001645,7.53996
402,0.01557,8.60058
403,-0.005828,7.41187
404,-0.007566,6.33019
405,-0.029603,8.26031
406,-0.028395,9.33622
407,-0.015955,8.12971
408,-0.064848,7.08061
409,-0.025842,7.09677
410,-0.045074,9.13226
411,-0.037755,9.10554
412,-0.03654,7.16995
413,-0.016339,6.92123
414,-0.029576,8.42036
415,-0.038923,9.03122
416,-0.035843,7.57241
417,-0.061668,6.8024
418,-0.046996,8.74381
419,-0.053261,9.82756
420,-0.047421,8.35358
421,-0.020997,7.01338
422,-0.026968,8.18211
423,-0.033318,10.698
424,-0.035733,10.4133
425,-0.004992,7.85116
426,-0.063893,6.17465
427,-0.069748,6.66644
428,-0.088926,8.9928
429,-0.12426,9.56463
430,-0.098462,7.44275
431,-0.053288,6.87052
432,-0.009397,8.4453
433,-0.050414,8.93991
434,-0.062135,7.41861
435,-0.056838,6.89873
436,-0.040823,8.09893
437,-0.100321,9.17923
438,-0.07385,8.03188
439,-0.10339,6.07593
440,-0.094359,5.52337
441,-0.081355,7.34406
442,-0.129627,8.98762
443,-0.124097,7.35501
444,-0.109641,6.00165
445,-0.076852,6.89234
446,-0.075202,9.66184
447,-0.091384,9.35128
448,-0.107399,7.62978
449,-0.126857,7.57186
450,-0.068556,9.46227
451,-0.080884,8.37825
452,-0.119719,7.03479
453,-0.088627,7.48525
454,-0.098648,10.3378
455,-0.098666,10.243
456,-0.138154,9.08512
457,-0.124807,9.49741
458,-0.117365,11.3218
459,-0.149362,10.8556
460,-0.175974,8.42959
461,-0.120265,8.19492
462,-0.109805,10.1568