File: PMMA/Calibration_Data/UDRI/UDRI_Cone_65kW_4.csv
Time,Mass,HRR
[s],[g],[kW/m2]
0,74.67,-0.333476
1,74.7441,-0.06685468
2,74.9483,1.92449
3,74.9185,1.89639
4,74.7296,0.694066
5,74.6475,1.83457
6,74.64423,4.37942
7,74.6775,3.83986
8,74.66977,2.49624
9,74.6333,2.89046
10,74.6085,4.65261
11,74.612,5.13936
12,74.66,2.29403
13,74.6365,-0.131307
14,74.5875,-1.29712
15,74.5565,-4.33342
16,74.5428,-9.97227
17,74.4625,-20.5532
18,74.2834,-28.6219
19,73.89588,-36.433
20,74.1107,-40.3555
21,74.1548,-28.4476
22,73.9576,-17.9228
23,73.8558,13.3783
24,73.6733,53.7478
25,73.4509,113.576
26,73.2877,191.333
27,73.1168,234.239
28,72.8715,274.094
29,72.6268,332.196
30,72.4188,366.776
31,72.2022,418.84
32,71.9593,424.397
33,71.7415,440.794
34,71.5252,475.851
35,71.27562,476.312
36,71.0328,496.215
37,70.7687,524.126
38,70.5087,528.017
39,70.2339,532.719
40,70.0236,547.552
41,69.77601,575.989
42,69.51426,582.721
43,69.3073,573.97
44,69.0588,604.56
45,68.777,616.388
46,68.50979,601.622
47,68.244,611.254
48,67.9894,610.379
49,67.7163,587.466
50,67.4368,611.077
51,67.1754,626.795
52,66.9166,627.928
53,66.6335,664.463
54,66.3715,679.717
55,66.1033,653.265
56,65.8336,659.421
57,65.55633,667.986
58,65.2871,663.621
59,65.039,670.303
60,64.791,640.41
61,64.5244,625.569
62,64.2086,630.119
63,63.9134,635.101
64,63.6186,654.366
65,63.33,680.094
66,63.0515,680.714
67,62.79637,655.295
68,62.49129,656.796
69,62.1611,652.693
70,61.9239,670.504
71,61.6655,690.638
72,61.3561,681.67
73,61.0948,737.382
74,60.8035,744.394
75,60.4558,700.298
76,60.1574,693.354
77,59.8943,705.908
78,59.631,677.366
79,59.369,692.898
80,59.04112,685.708
81,58.6727,703.055
82,58.4076,702.872
83,58.135,692.547
84,57.8211,745.447
85,57.5359,758.643
86,57.2476,744.067
87,56.9369,735.119
88,56.60924,761.894
89,56.3294,750.8
90,56.0496,707.77
91,55.7338,725.611
92,55.4397,746.192
93,55.1321,738.419
94,54.8682,689.777
95,54.59472,685.684
96,54.2362,708.187
97,53.88626,733.579
98,53.5475,729.995
99,53.2306,763.255
100,52.9382,769.505
101,52.65674,731.052
102,52.341,763.711
103,52.0102,779.301
104,51.7049,757.108
105,51.3812,765.862
106,51.0812,741.774
107,50.7445,735.041
108,50.3678,752.835
109,50.0738,772.745
110,49.7783,802.62
111,49.4707,789.106
112,49.1253,799.804
113,48.7587,777.55
114,48.385,796.083
115,48.0512,800.676
116,47.7364,819.315
117,47.4214,814.883
118,47.0799,797.046
119,46.73065,802.037
120,46.4356,784.107
121,46.1061,806.977
122,45.719,785.103
123,45.3629,791.567
124,45.0492,821.307
125,44.72679,806.358
126,44.3827,800.842
127,44.0837,840.0546
128,43.7395,882.828
129,43.3359,878.825
130,42.9385,805.509
131,42.6054,861.746
132,42.2452,881.999
133,41.878,869.799
134,41.5501,863.187
135,41.2023,826.91
136,40.8421,820.566
137,40.4733,858.59
138,40.1071,868.9
139,39.7616,827.546
140,39.39124,863.346
141,39.0089,851.737
142,38.6722,872.38
143,38.2973,895.689
144,37.8851,964.804
145,37.4912,939.488
146,37.1368,856.198
147,36.82563,858.235
148,36.4601,892.62
149,36.0607,903.126
150,35.7313,916.283
151,35.37833,871.511
152,34.939,820.403
153,34.5079,935.225
154,34.0886,925.502
155,33.72122,858.149
156,33.34576,904.893
157,32.9305,1006.36
158,32.501,985.266
159,32.094,885.676
160,31.7012,856.776
161,31.3152,906.119
162,30.9097,984.888
163,30.462,1000.24
164,30.0498,1009.02
165,29.6208,998.944
166,29.2491,1056.5
167,28.8407,1025.82
168,28.3699,957.437
169,27.961,964.148
170,27.5663,962.129
171,27.1305,952.136
172,26.6587,1027.46
173,26.2152,1052.57
174,25.8107,1019.66
175,25.3781,1000.94
176,24.8899,979.419
177,24.4128,1059.74
178,23.9825,1068.57
179,23.57561,1078.12
180,23.1268,1073
181,22.69599,1037.25
182,22.3068,1114.86
183,21.8637,1200.08
184,21.4153,1194.32
185,20.9991,1201.86
186,20.5531,1174.85
187,20.1428,1078
188,19.7422,1010.54
189,19.2574,1006.54
190,18.7855,1031.73
191,18.3574,1002.79
192,17.922,1134.33
193,17.4728,1180.46
194,16.9815,1109.03
195,16.5147,1051
196,16.0696,1031.11
197,15.6104,1123.63
198,15.14525,1148.58
199,14.6743,1119.09
200,14.1628,1105.23
201,13.642,1228.3
202,13.2024,1145.64
203,12.7421,1062.73
204,12.1905,1033.82
205,11.6496,1046.07
206,11.1885,1171.26
207,10.7027,1259.01
208,10.1495,1234.07
209,9.59063,1214.87
210,9.08222,1168.22
211,8.602382,1166.58
212,8.082222,1294.09
213,7.538157,1265.99
214,7.009407,1140.6
215,6.453418,1211.38
216,5.908574,1285.89
217,5.436728,1260.15
218,4.918789,1390.23
219,4.405271,1397.49
220,3.93656,1401.76
221,3.460809,1362.14
222,2.978601,1294.56
223,2.547827,1310.13
224,2.160686,1373.4
225,1.806912,1456.33
226,1.522184,1409.08
227,1.293698,1383.7
228,1.108367,1354.95
229,0.897199,1233.36
230,0.727239,1157.98
231,0.576523,1033.76
232,0.420569,923.076
233,0.311183,825.383
234,0.18701,716.147
235,0.047567,641.381
236,-0.04958,565.026
237,-0.146092,510.282
238,-0.239097,451.225
239,-0.255187,397.959
240,-0.321619,373.347
241,-0.374207,344.117
242,-0.430043,303.414
243,-0.471002,273.58
244,-0.516621,248.221
245,-0.565749,227.279
246,-0.592602,203.843
247,-0.616404,177.116
248,-0.626233,159.604
249,-0.630514,144.176
250,-0.657502,119.122
251,-0.683016,104.705
252,-0.69589,91.1032
253,-0.668159,81.1978
254,-0.663839,72.1988
255,-0.698405,59.6241
256,-0.719838,51.0452
257,-0.717527,45.7534
258,-0.701431,40.7335
259,-0.697505,33.9395
260,-0.732099,27.6745
261,-0.739901,25.311
262,-0.693228,23.4408
263,-0.707739,17.649
264,-0.845973,13.0337
265,-0.674902,10.7137
266,-0.510168,10.7628
267,-0.615291,9.47166
268,-0.67134,6.79789
269,-0.69703,6.50759
270,-0.714842,8.20061
271,-0.685021,7.11426
272,-0.639258,4.57007
273,-0.669264,4.82848
274,-0.705509,6.28902
275,-0.70793,5.09986
276,-0.707965,3.69712
277,-0.705985,4.55895
278,-0.724781,5.61835
279,-0.713423,4.43598
280,-0.633397,3.27088
281,-0.627876,4.05197
282,-0.658829,4.29195
283,-0.665233,2.56442
284,-0.68323,1.18805
285,-0.685457,1.84165
286,-0.680923,3.31437
287,-0.660591,3.12715
288,-0.641768,1.51924
289,-0.657371,1.51367
290,-0.671382,2.87855
291,-0.681849,4.38253
292,-0.663142,3.51094
293,-0.650974,2.42234
294,-0.683813,2.71389
295,-0.708297,3.56198
296,-0.676757,4.49815
297,-0.633242,3.39402
298,-0.650263,2.51348
299,-0.685612,4.8043
300,-0.683382,5.0244
301,-0.673813,3.44924
302,-0.680135,3.3991
303,-0.689846,4.44493
304,-0.708892,4.77819
305,-0.731786,2.82782
306,-0.71797,1.57569
307,-0.667961,2.75537
308,-0.670487,3.67907
309,-0.729338,2.22633
310,-0.740992,0.526977
311,-0.756391,0.621615
312,-0.754865,2.16745
313,-0.731078,2.3941
314,-0.729432,1.63985
315,-0.73903,2.04158
316,-0.736679,3.25961
317,-0.745841,4.26806
318,-0.738781,2.62657
319,-0.724948,1.18973
320,-0.736573,2.16469
321,-0.754685,2.70071
322,-0.748741,1.53806
323,-0.744565,1.00305
324,-0.740396,1.3836
325,-0.728284,2.9791
326,-0.748469,1.88595
327,-0.75977,0.908098
328,-0.749176,2.03419
329,-0.769349,3.88113
330,-0.763839,2.7056
331,-0.757296,1.18688
332,-0.776938,1.29979
333,-0.796254,2.96408
334,-0.754918,2.17272
335,-0.746883,0.708689
336,-0.745732,1.94674
337,-0.703357,4.20337
338,-0.714805,4.46115
339,-0.737836,3.47372
340,-0.749189,3.21764
341,-0.758709,4.68439
342,-0.76569,4.94161
343,-0.763848,3.6476
344,-0.720474,3.09643
345,-0.671841,4.30718
346,-0.679532,5.11032
347,-0.716247,3.58028
348,-0.743249,2.45001
349,-0.762846,4.00807
350,-0.776546,4.84229
351,-0.774677,3.98479
352,-0.790954,3.75741
353,-0.803325,5.01895
354,-0.808282,5.61989
355,-0.815566,3.19394
356,-0.801495,1.70775
357,-0.803605,1.92872
358,-0.794817,3.51619
359,-0.783293,3.41425