File: PMMA/Calibration_Data/UDRI/UDRI_Cone_65kW_2.csv
Time,Mass,HRR
[s],[g],[kW/m2]
0,69.91,-0.429485
1,70.0377,-0.371448
2,70.2741,1.65122
3,70.4076,2.08572
4,70.4565,0.501434
5,70.4707,-0.399863
6,70.3774,0.439185
7,70.4407,4.09899
8,70.4532,5.23804
9,70.3897,4.40028
10,70.2883,4.2921
11,70.1471,5.7944
12,70.2135,5.94892
13,70.3419,3.84001
14,70.5392,-0.0137838
15,70.4586,-6.70226
16,70.3067,-12.6391
17,69.99,-26.0398
18,69.6852,-38.1346
19,69.8563,-39.6376
20,69.7834,-24.5444
21,69.7001,10.3121
22,69.5675,34.1089
23,69.3456,75.1542
24,69.116,145.957
25,68.8746,199.959
26,68.6735,257.816
27,68.413,297.172
28,68.2132,344.097
29,68.0315,403.59
30,67.8018,431.737
31,67.5544,456.198
32,67.305,479.256
33,67.092,520.263
34,66.8061,533.025
35,66.4982,546.229
36,66.245,545.662
37,66.0187,530.358
38,65.773,560.114
39,65.5174,566.072
40,65.3105,552.063
41,65.1002,573.758
42,64.8323,582.826
43,64.5495,572.158
44,64.2264,618.802
45,63.9417,612.571
46,63.707,604.805
47,63.4349,612.325
48,63.1687,626.495
49,62.93189,649.032
50,62.5855,652.045
51,62.2763,649.164
52,61.9718,700.74
53,61.6634,679.228
54,61.4743,645.626
55,61.2118,674.59
56,60.9173,689.788
57,60.6234,673.181
58,60.2477,704.211
59,59.9606,685.427
60,59.7094,688.617
61,59.4483,702.241
62,59.1194,687.299
63,58.7967,693.287
64,58.5096,725.577
65,58.254,736.699
66,57.9196,771.946
67,57.6298,755.69
68,57.4176,726.513
69,57.0696,730.653
70,56.74652,741.164
71,56.5137,725.528
72,56.2232,739.801
73,55.8723,749.001
74,55.5599,729.746
75,55.238,706.7
76,54.9986,704.173
77,54.7276,731.006
78,54.3321,745.097
79,54.0161,728.543
80,53.8117,726.703
81,53.4577,705.484
82,53.1242,706.302
83,52.8188,710.937
84,52.4728,737.683
85,52.1768,711.495
86,51.8976,771.794
87,51.5521,786.912
88,51.2232,770.084
89,50.94823,776.547
90,50.6179,779.108
91,50.3149,791.697
92,49.9698,794.561
93,49.5641,764.576
94,49.2853,763.54
95,49.0208,782.296
96,48.6782,774.34
97,48.3579,812.772
98,47.9296,819.904
99,47.6036,812.135
100,47.2154,774.032
101,46.9153,785.215
102,46.695,766.175
103,46.3124,813.222
104,45.9273,822.824
105,45.68195,781.968
106,45.3332,791.246
107,44.9728,837.367
108,44.6547,814.275
109,44.3099,788.039
110,43.9524,817.001
111,43.6669,837.696
112,43.2837,810.824
113,42.9077,774.407
114,42.6104,794.394
115,42.29487,811.375
116,41.9956,844.462
117,41.5886,818.448
118,41.2038,796.739
119,40.9224,843.181
120,40.5283,878.406
121,40.192,900.249
122,39.8637,861.792
123,39.495,835.525
124,39.0882,871.861
125,38.7144,892.598
126,38.3062,895.112
127,37.9402,845.187
128,37.65,847.215
129,37.2422,884.61
130,36.8408,870.746
131,36.5215,835.51
132,36.1437,853.332
133,35.7291,876.847
134,35.3891,885.107
135,35.0366,927.454
136,34.5928,937.318
137,34.2557,980.649
138,33.8773,966.225
139,33.483,946.683
140,33.0688,917.596
141,32.6744,868.147
142,32.26,898.7
143,31.9319,923.928
144,31.6058,932.79
145,31.1624,927.132
146,30.7196,919.653
147,30.2543,924.065
148,29.80359,929.641
149,29.4086,908.346
150,29.0222,968.285
151,28.6881,917.23
152,28.2534,965.37
153,27.8013,985.461
154,27.356,951.496
155,26.8485,1023.2
156,26.4713,1000.88
157,26.0914,973.975
158,25.7042,1020.04
159,25.1389,1034.18
160,24.7217,1111.33
161,24.2795,1105.05
162,23.8156,1007.79
163,23.4524,1019.73
164,22.97,1031.41
165,22.5333,1080.97
166,22.1095,1115.68
167,21.5912,1137.47
168,21.1987,1124.07
169,20.7984,1048.18
170,20.3548,988.538
171,19.8622,1094.12
172,19.4346,1083.11
173,18.9228,1063.19
174,18.4489,1026.2
175,18.0701,1126.66
176,17.6165,1117.42
177,17.148,1082.62
178,16.6536,1035.37
179,16.2481,1054.7
180,15.786,1067.18
181,15.3602,998.469
182,14.884,1044.2
183,14.3974,1112.84
184,13.9174,1171.89
185,13.4617,1153.93
186,12.9074,1040.87
187,12.3674,1090.74
188,11.8747,1156.01
189,11.3562,1172.83
190,10.7975,1198.95
191,10.2954,1152.68
192,9.749527,1093.21
193,9.199726,1252.66
194,8.670719,1384.29
195,8.20739,1403.29
196,7.681522,1310.42
197,7.21074,1239.33
198,6.679357,1224.94
199,6.116598,1195.81
200,5.554901,1385.66
201,5.085762,1448.27
202,4.617485,1410.81
203,4.160808,1279.84
204,3.654384,1267.69
205,3.151043,1358.9
206,2.747216,1469.7
207,2.39296,1364.07
208,2.117538,1359.24
209,1.872529,1352.1
210,1.620467,1325.8
211,1.332841,1298.63
212,1.132577,1257.07
213,0.978075,1153.26
214,0.878624,1095.91
215,0.775999,987.384
216,0.640087,838.883
217,0.52741,744.849
218,0.474859,632.333
219,0.373953,559.338
220,0.366744,497.033
221,0.287231,412.327
222,0.176012,371.859
223,0.18175,329.144
224,0.152677,274.905
225,0.063755,251.064
226,0.06828,216.923
227,0.013273,189.901
228,-0.0041,167.754
229,-0.010255,140.93
230,-0.002452,126.213
231,-0.056646,109.359
232,-0.024983,96.625
233,-0.04228,88.3209
234,-0.072243,75.4835
235,-0.107077,67.151
236,-0.081461,61.4577
237,-0.088859,54.6414
238,-0.089998,51.0712
239,-0.100655,44.6631
240,-0.126263,39.3444
241,-0.126348,34.353
242,-0.26565,30.5855
243,-0.16582,28.4663
244,-0.067615,23.8056
245,-0.067758,20.5691
246,-0.114179,20.4888
247,-0.138866,18.3636
248,-0.210678,15.0598
249,-0.180482,12.7562
250,-0.110733,12.6406
251,-0.094838,13.3349
252,-0.195159,11.1042
253,-0.153512,8.63045
254,-0.094476,8.17698
255,-0.079811,8.20268
256,-0.126079,6.85414
257,-0.047684,4.59721
258,-0.046957,5.02549
259,-0.101537,6.92693
260,-0.09485,6.58753
261,-0.066647,4.84889
262,-0.10304,4.01548
263,-0.105889,4.60238
264,-0.0762,5.95261
265,-0.064727,5.9234
266,-0.072637,4.25906
267,-0.121939,2.90915
268,-0.17247,4.52659
269,-0.110743,4.85877
270,-0.083234,2.54296
271,-0.063487,1.46015
272,-0.091533,2.83398
273,-0.071501,3.12945
274,-0.103331,1.61613
275,-0.117004,0.748139
276,-0.107619,1.90104
277,-0.086061,3.60995
278,-0.084467,3.72455
279,-0.112195,2.10325
280,-0.096595,0.912315
281,-0.071835,1.65005
282,-0.054071,3.14111
283,-0.085707,3.63088
284,-0.087444,1.46373
285,-0.11487,0.189007
286,-0.109444,0.0554896
287,-0.095676,1.24932
288,-0.077422,0.889513
289,-0.108456,-1.06822
290,-0.055043,-1.53842
291,-0.098649,0.300648
292,-0.107513,0.0583704
293,-0.102311,-1.34078
294,-0.088628,-2.26973
295,-0.07045,-1.03879
296,-0.098615,0.495168
297,-0.100953,-0.672979
298,-0.143869,-1.88943
299,-0.165571,-0.482684
300,-0.080551,1.09631
301,-0.088598,-0.202266
302,-0.065496,-1.10804
303,-0.112393,-0.411437
304,-0.114321,1.51651
305,-0.08492,0.903107
306,-0.101424,-0.5409707
307,-0.127344,-0.521521
308,-0.098279,1.03005
309,-0.145242,2.34165
310,-0.180094,1.72607
311,-0.14136,0.154968
312,-0.108234,-1.11384
313,-0.118998,0.562428
314,-0.190436,2.563
315,-0.202364,1.88661
316,-0.168061,0.329173
317,-0.147286,-0.195988
318,-0.163782,1.0819
319,-0.165903,2.58559
320,-0.149902,1.41329
321,-0.112541,-0.166609
322,-0.153483,0.144305
323,-0.1941,2.20072
324,-0.194613,0.783124
325,-0.12969,-0.617929
326,-0.132695,0.0362266
327,-0.147475,0.924112
328,-0.14343,1.34787
329,-0.135331,0.429579
330,-0.142862,0.162781
331,-0.140873,1.8294
332,-0.145078,3.301
333,-0.163177,2.01975
334,-0.156035,0.698504
335,-0.165484,0.51737
336,-0.240715,1.45602
337,-0.210543,3.08227
338,-0.158211,1.94487
339,-0.145768,-0.0447685
340,-0.163865,-0.023396