File: PMMA/Calibration_Data/UDRI/UDRI_Cone_25kW_2.csv
Time,Mass,HRR
[s],[g],[kW/m2]
0,74.09,1.93226
1,74.032,2.45006
2,73.8465,4.08479
3,73.7835,6.84988
4,73.8697,9.99248
5,73.9203,9.99585
6,73.9203,8.3331
7,73.9272,6.69089
8,73.9272,5.45285
9,73.9238,5.54537
10,73.9203,6.29249
11,73.9115,4.99666
12,73.9026,3.04961
13,73.9041,2.08494
14,73.8961,2.31907
15,73.8884,4.96565
16,73.881,6.68835
17,73.8784,5.28882
18,73.8729,3.60236
19,73.8817,2.94563
20,73.8856,3.10087
21,73.88568,5.23973
22,73.8901,5.75616
23,73.8886,3.92011
24,73.8822,2.20375
25,73.8745,1.70606
26,73.876,1.93415
27,73.8771,3.42663
28,73.8997,3.22588
29,73.8836,1.37242
30,73.867,-0.519523
31,73.86912,-1.51918
32,73.8641,0.0361024
33,73.8563,2.68968
34,73.8501,2.58234
35,73.8418,0.764006
36,73.841,-0.563873
37,73.8413,-1.20257
38,73.8369,-0.355186
39,73.8384,1.58454
40,73.829,0.929955
41,73.81923,-1.45141
42,73.8225,-2.63349
43,73.8283,-2.59471
44,73.8262,-0.943083
45,73.8152,0.321699
46,73.8195,-0.94962
47,73.8216,-2.03466
48,73.81859,-2.51229
49,73.8194,-2.18428
50,73.8125,-0.31094
51,73.8022,1.17944
52,73.7985,0.128294
53,73.8,-1.51929
54,73.7988,-2.37537
55,73.8063,-1.87703
56,73.8053,0.0895537
57,73.7976,0.92317
58,73.7993,-0.521706
59,73.7867,-2.1253
60,73.77527,-2.78106
61,73.7845,-2.02051
62,73.7988,0.918889
63,73.786,1.6865
64,73.7766,-0.0991411
65,73.7828,-1.04724
66,73.7846,-1.03024
67,73.7771,0.162039
68,73.7815,3.0364
69,73.7857,3.22192
70,73.77158,2.13192
71,73.7643,1.3903
72,73.7626,0.855315
73,73.7643,1.74762
74,73.76082,3.79615
75,73.7659,3.42923
76,73.76021,1.44875
77,73.754,0.32437
78,73.76052,-0.152784
79,73.76331,1.01214
80,73.7501,2.83099
81,73.753,1.88032
82,73.7525,-0.732433
83,73.7444,-2.25637
84,73.7358,-2.18352
85,73.742,0.365963
86,73.7426,2.98921
87,73.7403,2.55335
88,73.7407,1.37149
89,73.7424,0.840181
90,73.7376,1.34552
91,73.7282,3.5682
92,73.7283,4.7513
93,73.719,2.7818
94,73.72,0.765751
95,73.7245,-0.430999
96,73.7134,-0.0169904
97,73.71546,1.84073
98,73.7176,2.10474
99,73.7096,0.545154
100,73.7004,-0.727941
101,73.6849,-1.01927
102,73.6707,0.0638873
103,73.6642,2.24817
104,73.6685,2.18539
105,73.6599,-0.006527707
106,73.6356,-2.04009
107,73.6229,-3.14047
108,73.6162,-3.16298
109,73.5981,-2.7461
110,73.6853,-4.6216
111,73.5328,-8.08215
112,73.3704,-6.95191
113,73.3766,-1.94794
114,73.3757,8.36741
115,73.3433,20.9125
116,73.2859,33.3017
117,73.2069,44.6111
118,73.127,58.2509
119,73.01911,74.8629
120,72.92494,92.4219
121,72.8287,109.754
122,72.7122,122.056
123,72.6013,138.414
124,72.49555,159.239
125,72.386,178.076
126,72.282,193.104
127,72.1766,208.412
128,72.06574,216.566
129,71.9396,222.607
130,71.8252,227.009
131,71.7156,231.288
132,71.5824,242.226
133,71.4605,249.493
134,71.3444,262.786
135,71.231,268.252
136,71.1004,276.09
137,70.96522,275.44
138,70.83688,283.505
139,70.7037,280.104
140,70.5862,284.553
141,70.4517,284.708
142,70.3073,292.082
143,70.1892,302.095
144,70.0659,302.475
145,69.9143,305.58
146,69.7807,309.379
147,69.6596,313.858
148,69.5154,313.412
149,69.3751,317.794
150,69.2416,324.334
151,69.1126,330.049
152,68.9683,316.966
153,68.8257,320.749
154,68.6851,326.688
155,68.5433,333.864
156,68.4122,330.12
157,68.2722,323.512
158,68.1212,319.092
159,67.9775,329.544
160,67.8467,335.05
161,67.7195,339.224
162,67.5846,334.201
163,67.43684,336.522
164,67.28726,337.843
165,67.1454,342.363
166,66.9914,341.79
167,66.8328,339.81
168,66.6709,340.266
169,66.5154,342.049
170,66.3636,346.266
171,66.2049,350.2339
172,66.0514,359.037
173,65.9075,371.952
174,65.7466,372.199
175,65.5735,374.983
176,65.4083,379.447
177,65.2587,376.543
178,65.12395,380.173
179,64.9569,385.167
180,64.78174,381.797
181,64.6279,377.522
182,64.4718,383.408
183,64.3047,384.243
184,64.1379,385.276
185,63.9857,388.922
186,63.8293,395.123
187,63.65946,397.918
188,63.4948,393.941
189,63.334,402.71
190,63.1678,397.404
191,62.9935,391.408
192,62.823,393.434
193,62.66343,396.34
194,62.4975,400.231
195,62.32914,403.31
196,62.16205,398.162
197,61.9967,394.473
198,61.8283,394.836
199,61.6639,392.332
200,61.4839,404.495
201,61.3178,414.695
202,61.1552,407.834
203,60.9824,407.19
204,60.8151,417.436
205,60.6462,422.041
206,60.4722,415.026
207,60.2802,418.46
208,60.1191,412.506
209,59.9545,407.795
210,59.7927,409.923
211,59.632,410.85
212,59.4475,411.203
213,59.2579,419.596
214,59.11065,416.793
215,58.937,414.14
216,58.73747,405.754
217,58.5635,419.487
218,58.3737,424.487
219,58.1811,430.952
220,58.0018,433.711
221,57.8365,428.35
222,57.6605,437.304
223,57.45865,440.977
224,57.27173,437.995
225,57.0901,438.622
226,56.8981,441.958
227,56.7154,436.564
228,56.5417,433.89
229,56.3594,430.992
230,56.18206,439.385
231,56.0267,443.981
232,55.8278,448.986
233,55.6184,454.615
234,55.4616,458.45
235,55.2844,458.039
236,55.1072,446.386
237,54.9198,435.764
238,54.7107,448.307
239,54.529,467.431
240,54.3463,460.236
241,54.1546,452.058
242,53.947,447.793
243,53.7685,446.331
244,53.5922,449.058
245,53.40057,450.186
246,53.228,456.131
247,53.0386,459.32
248,52.8408,467.705
249,52.63287,463.709
250,52.4262,455.466
251,52.2361,461.991
252,52.0561,468.572
253,51.8576,476.961
254,51.6363,468.153
255,51.4496,465.929
256,51.2831,477.706
257,51.0806,473.026
258,50.8797,475.971
259,50.6728,481.085
260,50.46901,470.624
261,50.2691,475.945
262,50.0686,482.214
263,49.8703,493.905
264,49.6718,486.375
265,49.4696,492.425
266,49.2768,501.143
267,49.078,483.418
268,48.8837,487.632
269,48.645,493.57
270,48.4531,485.468
271,48.2697,489.735
272,48.0593,491.035
273,47.8409,492.27
274,47.6232,497.742
275,47.4161,491.541
276,47.2132,491.821
277,47.01484,507.136
278,46.8152,521.092
279,46.6005,510.757
280,46.3851,510.915
281,46.1848,497.493
282,45.9665,511.152
283,45.7551,517.632
284,45.5512,500.907
285,45.33706,505.161
286,45.1114,507.867
287,44.8994,509.673
288,44.6723,518.165
289,44.4409,523.281
290,44.2362,532.203
291,44.028,525.049
292,43.8142,528.425
293,43.5958,525.46
294,43.3825,505.982
295,43.1627,520.426
296,42.9452,529.986
297,42.7367,514.708
298,42.5033,503.579
299,42.2543,513.505
300,42.0391,540.963
301,41.8197,533.384
302,41.61,546.835
303,41.3852,537.346
304,41.1492,533.19
305,40.9301,542.829
306,40.7143,524.085
307,40.4938,537.764
308,40.2674,536.675
309,40.0557,525.328
310,39.8382,532.779
311,39.5942,550.407
312,39.3658,540.536
313,39.148,534.316
314,38.9156,544.244
315,38.6777,553.264
316,38.4494,550.582
317,38.2132,549.589
318,37.983,550.073
319,37.7684,580.774
320,37.5505,563.901
321,37.3058,550.979
322,37.0747,565.551
323,36.8476,566.528
324,36.6178,559.256
325,36.3951,556.04
326,36.1699,569.882
327,35.9403,579.749
328,35.7005,560.607
329,35.4809,551.77
330,35.2507,547.844
331,35.0116,548.566
332,34.7938,541.896
333,34.56194,562.877
334,34.3202,565.066
335,34.0878,544.79
336,33.84758,567.314
337,33.60888,577.715
338,33.3834,582.8
339,33.1522,579.052
340,32.9122,567.146
341,32.6773,573.957
342,32.4561,572.371
343,32.2163,578.831
344,31.9919,578.64
345,31.7675,552.911
346,31.5054,562.829
347,31.2641,572.726
348,31.0314,568.675
349,30.7963,579.402
350,30.5625,581.652
351,30.3266,547.491
352,30.0883,541.886
353,29.8468,554.414
354,29.6189,574.725
355,29.3864,583.173
356,29.1468,575.902
357,28.90789,576.459
358,28.6535,582.104
359,28.4024,584.009
360,28.1589,581.762
361,27.9199,588.437
362,27.675,595.349
363,27.4328,599.85
364,27.1995,584.72
365,26.9524,603.592
366,26.6993,587.368
367,26.449,615.561
368,26.1955,596.269
369,25.9463,607.618
370,25.7082,609.495
371,25.4627,628.367
372,25.2137,618.286
373,24.9733,603.707
374,24.72098,610.911
375,24.4467,605.987
376,24.1928,630.692
377,23.939,630.172
378,23.66008,608.469
379,23.3991,603.831
380,23.1422,616.525
381,22.8749,607.5
382,22.6176,623.845
383,22.3598,641.896
384,22.0847,616.461
385,21.8153,619.616
386,21.55564,632.917
387,21.2741,627.729
388,21.0077,643.21
389,20.7508,643.464
390,20.4807,679.072
391,20.2067,655.695
392,19.9333,652.315
393,19.6847,662.6
394,19.4272,687.3
395,19.1623,678.605
396,18.9054,663.272
397,18.6325,635.011
398,18.3708,640.2
399,18.1121,665.102
400,17.8355,675.423
401,17.5657,639.83
402,17.3005,652.351
403,17.0415,643.222
404,16.7704,675.778
405,16.5096,665.306
406,16.25,643.844
407,15.9779,649.682
408,15.7093,628.899
409,15.4381,643.765
410,15.1619,646.533
411,14.8992,635.744
412,14.6351,657.081
413,14.3678,670.259
414,14.0914,687.364
415,13.8358,674.272
416,13.569,660.816
417,13.3047,644.835
418,13.0473,640.663
419,12.7696,651.613
420,12.50359,642.864
421,12.2325,641.654
422,11.96,663.66
423,11.6925,670.927
424,11.415,671.509
425,11.14642,646.958
426,10.8658,654.493
427,10.5871,644.747
428,10.3245,634.739
429,10.0593,646.072
430,9.793165,644.074
431,9.511882,653.52
432,9.239422,678.562
433,8.980221,683.386
434,8.71577,697.406
435,8.458044,671.086
436,8.181368,672.121
437,7.918685,683.003
438,7.648026,647.817
439,7.383249,644.473
440,7.134547,663.183
441,6.869906,642.954
442,6.604272,651.175
443,6.347548,668.196
444,6.10893,647.864
445,5.866512,654.678
446,5.605896,642.348
447,5.36872,641.43
448,5.119231,645.059
449,4.873403,651.147
450,4.63607,656.327
451,4.376718,650.471
452,4.132869,637.399
453,3.900314,628.099
454,3.669287,608.297
455,3.446492,611.524
456,3.229861,634.038
457,3.021294,609.91
458,2.796081,600.558
459,2.578121,617.071
460,2.378877,611.194
461,2.183303,609.225
462,1.995182,582.576
463,1.816257,578.991
464,1.635252,570.241
465,1.466687,542.315
466,1.298053,549.065
467,1.140133,538.504
468,0.985191,519.848
469,0.856401,505.494
470,0.723828,487.438
471,0.607978,476.526
472,0.500024,461.895
473,0.394242,446.035
474,0.300952,427.067
475,0.221584,407.853
476,0.150677,384.41
477,0.083673,347.054
478,0.020304,325.381
479,-0.024111,302.902
480,-0.078864,282.935
481,-0.131976,267.712
482,-0.163603,248.307
483,-0.200159,224.91
484,-0.263468,197.707
485,-0.327941,177.86
486,-0.361125,162.957
487,-0.400111,151.954
488,-0.441378,144.326
489,-0.461975,136.447
490,-0.498156,127.755
491,-0.532478,118.138
492,-0.546835,109.1
493,-0.563414,102.42
494,-0.589115,97.7346
495,-0.616478,91.708
496,-0.646364,83.4602
497,-0.662476,76.5518
498,-0.675278,71.4741
499,-0.69036,67.1626
500,-0.698462,64.8618
501,-0.704101,60.3909
502,-0.710144,53.8288
503,-0.725728,48.4174
504,-0.742407,44.564
505,-0.733902,41.3754
506,-0.743787,39.2831
507,-0.753097,34.937
508,-0.746363,30.0696
509,-0.760976,26.7059
510,-0.768296,23.5599
511,-0.765247,21.8881
512,-0.753795,19.7272
513,-0.744223,16.4862
514,-0.823988,13.2133
515,-0.816808,11.0002
516,-0.684024,9.91351
517,-0.714359,9.87747
518,-0.759213,8.80112
519,-0.741941,5.3078
520,-0.734408,2.4436
521,-0.726043,0.905914
522,-0.71179,1.48838
523,-0.705635,3.64612
524,-0.702947,3.97287
525,-0.703371,2.6313
526,-0.706749,1.80277
527,-0.699462,1.27057
528,-0.682214,2.13046
529,-0.683678,3.59553
530,-0.696077,3.17378
531,-0.706954,1.09572
532,-0.714641,-0.359818
533,-0.71618,-0.297581
534,-0.70477,0.56543
535,-0.702074,2.06527
536,-0.704419,1.24679
537,-0.700808,-0.397418
538,-0.700381,-1.24809
539,-0.691999,-0.857319
540,-0.691417,0.807305
541,-0.699217,2.96249
542,-0.701303,1.68998
543,-0.70513,-0.474017
544,-0.712477,-1.70486
545,-0.714648,-1.94982
546,-0.712262,0.0601595
547,-0.696488,1.32259
548,-0.702445,0.671719
549,-0.70527,-0.53359
550,-0.704,-1.08482
551,-0.710217,-0.283973
552,-0.713697,1.63843
553,-0.70903,2.42334
554,-0.714051,0.979502
555,-0.716309,-0.675345
556,-0.713903,-0.622163
557,-0.700001,0.499259
558,-0.702376,2.54762
559,-0.708793,3.48924
560,-0.70384,2.37074
561,-0.705842,1.09333
562,-0.716372,0.748694
563,-0.703214,2.49723
564,-0.703274,4.55622
565,-0.717283,4.06568
566,-0.711773,2.04914
567,-0.715975,0.474496
568,-0.720703,0.35884
569,-0.71332,1.39158
570,-0.71,2.68179
571,-0.714151,1.73893
572,-0.725079,0.665629
573,-0.714306,-0.0255592
574,-0.717665,0.122202
575,-0.723375,1.89297
576,-0.714901,3.36881
577,-0.714476,2.41026
578,-0.712538,0.266798
579,-0.712367,-1.37152
580,-0.710928,-1.38636
581,-0.716974,0.495032
582,-0.722065,1.68814
583,-0.718129,-0.245959
584,-0.732592,-1.49534
585,-0.72742,-1.67879
586,-0.705776,-0.477697
587,-0.717103,1.91443
588,-0.734152,2.48197
589,-0.726298,0.942493
590,-0.724454,-0.554251
591,-0.727395,-0.902612
592,-0.719607,0.0831013
593,-0.718071,2.26332
594,-0.725867,2.44947
595,-0.734591,0.711664
596,-0.732211,-0.648745
597,-0.734054,-1.26337
598,-0.742096,-0.671892
599,-0.738886,1.20915
600,-0.733925,0.993137
601,-0.737884,-0.515417
602,-0.731607,-1.52485
603,-0.734313,-1.45513
604,-0.744615,0.431146
605,-0.744557,2.48885
606,-0.743,1.92556
607,-0.749225,0.08398888
608,-0.745176,-0.922859
609,-0.735206,-0.783233
610,-0.738226,0.825467