File: Wood/Calibration_Data/UDRI/UDRI_MCC_N2_60K_R3.csv
Time (s),Temperature (K),HRR (W/g)
57.2388,405.0,-1.14905
57.7094,405.5,-1.08229
58.1881,406.0,-0.869764
58.6689,406.5,-0.63126
59.1515,407.0,-0.459613
59.6299,407.5,-0.260745
60.1008,408.0,-0.103075
60.5859,408.5,0.023389
61.0739,409.0,0.0655725
61.5604,409.5,0.129913
62.0483,410.0,0.275561
62.5399,410.5,0.257422
63.0148,411.0,0.256702
63.476,411.5,0.338494
63.9514,412.0,0.397475
64.4284,412.5,0.349179
64.885,413.0,0.255024
65.3348,413.5,0.0918609
65.7998,414.0,-0.015105
66.2737,414.5,0.0250479
66.7421,415.0,0.0645614
67.2102,415.5,0.0362033
67.688,416.0,0.0611658
68.1718,416.5,0.188354
68.646,417.0,0.318879
69.1024,417.5,0.371911
69.5629,418.0,0.397227
70.0485,418.5,0.423268
70.5513,419.0,0.343248
71.035,419.5,0.303179
71.5201,420.0,0.172954
71.9981,420.5,-0.0830116
72.4854,421.0,-0.250209
72.9736,421.5,-0.334823
73.4539,422.0,-0.395881
73.9193,422.5,-0.388308
74.4189,423.0,-0.416642
74.8763,423.5,-0.516568
75.2967,424.0,-0.523751
75.7409,424.5,-0.58653
76.2152,425.0,-0.632024
76.6848,425.5,-0.513355
77.1653,426.0,-0.401847
77.6631,426.5,-0.330891
78.1452,427.0,-0.172319
78.6265,427.5,-0.156222
79.1255,428.0,-0.115356
79.6126,428.5,-0.0287813
80.09,429.0,0.0313937
80.5781,429.5,0.158106
81.13,430.0,0.316768
81.6818,430.5,0.511082
82.1721,431.0,0.613174
82.6578,431.5,0.579921
83.1455,432.0,0.572077
83.625,432.5,0.568156
84.1008,433.0,0.492559
84.5868,433.5,0.489603
85.0753,434.0,0.597277
85.5407,434.5,0.731338
86.0158,435.0,0.827605
86.538,435.5,0.927214
87.0008,436.0,1.04416
87.4239,436.5,1.17548
87.8622,437.0,1.17114
88.3264,437.5,1.1312
88.8054,438.0,1.13792
89.2871,438.5,1.18464
89.7698,439.0,1.14981
90.2646,439.5,1.02161
90.7572,440.0,0.89462
91.2309,440.5,0.777014
91.7017,441.0,0.753796
92.1757,441.5,0.826015
92.6506,442.0,0.836758
93.1453,442.5,0.93223
93.6349,443.0,1.01514
94.1,443.5,0.804552
94.5753,444.0,0.642799
95.0461,444.5,0.533616
95.5177,445.0,1.00859
96.0087,445.5,1.57333
96.4923,446.0,1.21445
96.997,446.5,1.18868
97.5135,447.0,1.24936
97.9971,447.5,1.01451
98.4816,448.0,1.00663
99.0176,448.5,1.23283
99.5052,449.0,1.26309
99.9415,449.5,1.32449
100.432,450.0,1.49623
100.947,450.5,1.58982
101.424,451.0,1.59638
101.913,451.5,1.75218
102.41,452.0,1.89066
102.891,452.5,2.02699
103.391,453.0,2.2667
103.895,453.5,2.4845
104.391,454.0,2.65294
104.893,454.5,2.63688
105.406,455.0,2.54465
105.939,455.5,2.77783
106.454,456.0,3.10931
106.945,456.5,3.42243
107.424,457.0,3.4263
107.892,457.5,3.4263
108.355,458.0,3.53433
108.819,458.5,3.60806
109.296,459.0,3.5488
109.798,459.5,3.45281
110.299,460.0,3.43981
110.773,460.5,3.30256
111.245,461.0,3.25291
111.714,461.5,3.43012
112.181,462.0,3.63146
112.663,462.5,3.79027
113.142,463.0,3.88701
113.633,463.5,3.94089
114.126,464.0,4.04442
114.61,464.5,4.16222
115.124,465.0,4.27903
115.633,465.5,4.42216
116.113,466.0,4.60766
116.617,466.5,4.77293
117.124,467.0,4.95366
117.644,467.5,5.13251
118.142,468.0,5.27706
118.615,468.5,5.40944
119.112,469.0,5.62023
119.611,469.5,5.81586
120.111,470.0,5.87698
120.622,470.5,5.97661
121.12,471.0,6.19769
121.603,471.5,6.23367
122.092,472.0,6.2003
122.594,472.5,6.37891
123.088,473.0,6.39551
123.572,473.5,6.42079
124.003,474.0,6.79839
124.441,474.5,7.13383
124.934,475.0,7.13266
125.454,475.5,6.89283
125.957,476.0,7.22487
126.446,476.5,7.50374
126.945,477.0,7.28966
127.445,477.5,7.42184
127.932,478.0,7.80222
128.441,478.5,8.24199
128.928,479.0,8.38433
129.446,479.5,8.47513
129.963,480.0,8.77129
130.469,480.5,9.13732
130.959,481.0,9.2571
131.436,481.5,9.19007
131.94,482.0,9.12551
132.432,482.5,9.19673
132.926,483.0,9.27288
133.411,483.5,9.27556
133.872,484.0,9.48293
134.364,484.5,9.81326
134.876,485.0,9.93492
135.371,485.5,10.0753
135.848,486.0,10.4355
136.338,486.5,10.6228
136.839,487.0,10.5284
137.333,487.5,10.5286
137.812,488.0,10.6498
138.312,488.5,10.8568
138.837,489.0,11.1064
139.339,489.5,11.2547
139.823,490.0,11.4064
140.327,490.5,11.5194
140.852,491.0,11.5937
141.348,491.5,11.777
141.851,492.0,11.9516
142.363,492.5,12.087
142.862,493.0,12.0812
143.373,493.5,11.8772
143.865,494.0,12.0085
144.38,494.5,12.0503
144.899,495.0,11.8118
145.381,495.5,11.7881
145.857,496.0,11.8542
146.36,496.5,11.8823
146.879,497.0,11.8381
147.398,497.5,12.0065
147.895,498.0,12.1359
148.37,498.5,11.9931
148.84,499.0,11.9949
149.336,499.5,12.0798
149.853,500.0,12.0517
150.363,500.5,12.013
150.878,501.0,11.9309
151.397,501.5,11.7109
151.919,502.0,11.5583
152.433,502.5,11.4476
152.928,503.0,11.3811
153.43,503.5,11.3809
153.916,504.0,11.233
154.382,504.5,11.1557
154.839,505.0,11.0618
155.328,505.5,10.8481
155.823,506.0,10.556
156.307,506.5,10.3113
156.813,507.0,10.2439
157.322,507.5,10.2958
157.805,508.0,10.3212
158.302,508.5,10.3916
158.804,509.0,10.4461
159.294,509.5,10.3361
159.816,510.0,10.2089
160.385,510.5,10.2356
160.919,511.0,10.0773
161.442,511.5,9.94268
161.926,512.0,9.77981
162.41,512.5,9.68812
162.926,513.0,9.79763
163.43,513.5,9.6733
163.927,514.0,9.42057
164.404,514.5,9.68401
164.887,515.0,10.0363
165.401,515.5,9.98953
165.903,516.0,9.89509
166.343,516.5,9.78462
166.774,517.0,9.84187
167.245,517.5,9.98005
167.749,518.0,9.91178
168.259,518.5,9.75236
168.769,519.0,9.71298
169.263,519.5,9.70551
169.769,520.0,9.76355
170.27,520.5,9.88005
170.757,521.0,10.0527
171.257,521.5,10.0704
171.755,522.0,10.0671
172.25,522.5,10.3418
172.744,523.0,10.5346
173.229,523.5,10.4667
173.73,524.0,10.4608
174.239,524.5,10.5881
174.755,525.0,10.5491
175.279,525.5,10.6729
175.797,526.0,10.9182
176.299,526.5,11.085
176.799,527.0,11.0826
177.306,527.5,10.8586
177.794,528.0,10.7873
178.309,528.5,11.0447
178.863,529.0,11.3387
179.385,529.5,11.7464
179.903,530.0,12.2203
180.412,530.5,12.3265
180.906,531.0,12.1731
181.409,531.5,12.0527
181.912,532.0,12.5591
182.415,532.5,12.9339
182.908,533.0,12.9999
183.42,533.5,13.2202
183.935,534.0,13.519
184.425,534.5,13.7032
184.91,535.0,13.8335
185.389,535.5,13.9417
185.877,536.0,14.0594
186.377,536.5,14.2573
186.882,537.0,14.3845
187.388,537.5,14.4941
187.903,538.0,14.7669
188.4,538.5,14.9356
188.876,539.0,14.9679
189.367,539.5,15.1744
189.863,540.0,15.4924
190.372,540.5,15.756
190.882,541.0,15.8321
191.386,541.5,15.9237
191.871,542.0,16.1317
192.36,542.5,16.1864
192.867,543.0,16.458
193.368,543.5,16.7511
193.856,544.0,16.8822
194.37,544.5,17.0266
194.881,545.0,16.9953
195.385,545.5,16.974
195.889,546.0,17.2532
196.394,546.5,17.7023
196.853,547.0,17.9502
197.31,547.5,18.1107
197.792,548.0,18.2306
198.281,548.5,18.3508
198.781,549.0,18.5518
199.292,549.5,18.7027
199.794,550.0,18.8497
200.311,550.5,19.0513
200.819,551.0,19.2661
201.332,551.5,19.6531
201.832,552.0,19.8313
202.337,552.5,19.8091
202.864,553.0,20.15
203.38,553.5,20.58
203.893,554.0,20.4979
204.409,554.5,20.2979
204.924,555.0,20.6712
205.444,555.5,21.2362
205.924,556.0,21.5333
206.447,556.5,21.7662
206.961,557.0,22.2282
207.469,557.5,22.5458
207.96,558.0,22.7175
208.466,558.5,22.8021
208.999,559.0,23.0376
209.555,559.5,23.5939
210.046,560.0,23.6602
210.545,560.5,23.8642
211.057,561.0,24.0748
211.57,561.5,24.2655
212.067,562.0,24.6618
212.558,562.5,24.9522
213.054,563.0,25.2371
213.543,563.5,25.462
214.042,564.0,25.8382
214.56,564.5,26.1898
215.039,565.0,26.3217
215.496,565.5,26.4851
215.973,566.0,27.0382
216.466,566.5,27.0145
216.96,567.0,26.973
217.48,567.5,27.458
217.966,568.0,27.6192
218.451,568.5,28.0253
218.986,569.0,28.6195
219.494,569.5,28.6459
219.957,570.0,28.6563
220.471,570.5,28.8632
220.962,571.0,28.8737
221.444,571.5,28.8572
221.915,572.0,29.1143
222.385,572.5,29.296
222.884,573.0,29.2919
223.404,573.5,29.452
223.915,574.0,29.9012
224.431,574.5,30.8448
224.941,575.0,31.4578
225.423,575.5,31.7068
225.92,576.0,32.0034
226.456,576.5,32.1814
226.967,577.0,32.4409
227.503,577.5,32.6832
228.048,578.0,32.9601
228.574,578.5,33.3872
229.085,579.0,33.5504
229.592,579.5,33.8763
230.123,580.0,34.1399
230.658,580.5,34.3894
231.167,581.0,34.8101
231.643,581.5,35.0621
232.117,582.0,35.3962
232.612,582.5,35.7568
233.084,583.0,35.991
233.585,583.5,36.2374
234.079,584.0,36.6943
234.587,584.5,36.9749
235.096,585.0,36.9747
235.597,585.5,37.384
236.075,586.0,37.4671
236.593,586.5,37.6845
237.111,587.0,38.302
237.583,587.5,38.5324
238.055,588.0,38.7716
238.575,588.5,38.9646
239.071,589.0,39.3755
239.548,589.5,39.7784
240.042,590.0,39.9275
240.536,590.5,40.1269
241.022,591.0,40.4922
241.523,591.5,40.8634
242.067,592.0,41.0368
242.592,592.5,41.5498
243.097,593.0,42.1484
243.616,593.5,42.4278
244.14,594.0,42.77
244.65,594.5,43.283
245.152,595.0,43.8495
245.718,595.5,44.5154
246.313,596.0,44.9328
246.825,596.5,45.1994
247.312,597.0,45.6966
247.822,597.5,46.3004
248.326,598.0,46.6773
248.812,598.5,47.0344
249.31,599.0,47.4939
249.799,599.5,47.799
250.282,600.0,48.1974
250.783,600.5,48.8581
251.287,601.0,49.4581
251.737,601.5,49.8893
252.149,602.0,50.3594
252.569,602.5,50.9437
253.079,603.0,51.3533
253.625,603.5,51.7678
254.138,604.0,52.1979
254.623,604.5,52.607
255.121,605.0,53.0897
255.628,605.5,53.4531
256.124,606.0,53.8404
256.655,606.5,54.3132
257.182,607.0,54.7846
257.659,607.5,55.1947
258.084,608.0,55.5246
258.515,608.5,55.8514
258.996,609.0,56.3745
259.52,609.5,56.9067
260.036,610.0,57.4362
260.543,610.5,58.0264
261.063,611.0,58.6276
261.573,611.5,59.2151
262.096,612.0,59.7928
262.616,612.5,60.2577
263.136,613.0,60.7794
263.685,613.5,61.3161
264.278,614.0,61.8407
264.812,614.5,62.3489
265.305,615.0,62.8345
265.798,615.5,63.3013
266.308,616.0,63.8356
266.818,616.5,64.467
267.312,617.0,65.1116
267.817,617.5,65.7564
268.314,618.0,66.3489
268.808,618.5,66.8941
269.317,619.0,67.4086
269.865,619.5,67.9864
270.459,620.0,68.5991
270.978,620.5,69.117
271.477,621.0,69.5268
271.978,621.5,69.9048
272.472,622.0,70.4003
272.97,622.5,70.8929
273.469,623.0,71.3831
273.959,623.5,71.8413
274.445,624.0,72.3538
274.931,624.5,72.9413
275.413,625.0,73.3661
275.9,625.5,73.7426
276.35,626.0,74.2211
276.795,626.5,74.6926
277.273,627.0,75.1733
277.771,627.5,75.6783
278.276,628.0,76.182
278.785,628.5,76.655
279.274,629.0,77.0071
279.764,629.5,77.3823
280.28,630.0,77.8634
280.787,630.5,78.3096
281.292,631.0,78.6522
281.82,631.5,78.9007
282.294,632.0,79.2142
282.734,632.5,79.6602
283.209,633.0,80.1476
283.736,633.5,80.5307
284.245,634.0,80.9431
284.739,634.5,81.482
285.233,635.0,81.9799
285.732,635.5,82.3904
286.242,636.0,82.7774
286.754,636.5,83.1236
287.246,637.0,83.4696
287.752,637.5,83.8934
288.333,638.0,84.474
288.892,638.5,85.0649
289.427,639.0,85.643
289.958,639.5,86.231
290.465,640.0,86.8415
290.963,640.5,87.37
291.49,641.0,87.9394
292.007,641.5,88.6682
292.528,642.0,89.317
293.023,642.5,89.8635
293.538,643.0,90.3436
294.068,643.5,90.8901
294.551,644.0,91.4099
295.002,644.5,91.929
295.492,645.0,92.5295
295.99,645.5,93.1405
296.509,646.0,93.8976
297.006,646.5,94.6933
297.482,647.0,95.3959
297.973,647.5,96.1429
298.468,648.0,96.8753
298.954,648.5,97.588
299.479,649.0,98.4667
300.02,649.5,99.3052
300.574,650.0,100.28
301.125,650.5,101.257
301.646,651.0,102.233
302.156,651.5,103.199
302.659,652.0,104.022
303.177,652.5,104.939
303.679,653.0,105.845
304.148,653.5,106.746
304.642,654.0,107.718
305.173,654.5,108.68
305.694,655.0,109.729
306.173,655.5,110.768
306.631,656.0,111.689
307.084,656.5,112.534
307.557,657.0,113.433
308.079,657.5,114.538
308.58,658.0,115.551
309.071,658.5,116.437
309.597,659.0,117.411
310.117,659.5,118.386
310.608,660.0,119.313
311.091,660.5,120.142
311.573,661.0,120.933
312.06,661.5,121.718
312.581,662.0,122.527
313.095,662.5,123.328
313.583,663.0,124.014
314.074,663.5,124.719
314.584,664.0,125.461
315.091,664.5,126.069
315.611,665.0,126.631
316.126,665.5,127.09
316.615,666.0,127.389
317.141,666.5,127.678
317.663,667.0,127.954
318.159,667.5,128.159
318.677,668.0,128.286
319.164,668.5,128.313
319.646,669.0,128.238
320.162,669.5,128.01
320.669,670.0,127.69
321.171,670.5,127.272
321.684,671.0,126.71
322.188,671.5,126.076
322.69,672.0,125.314
323.201,672.5,124.386
323.711,673.0,123.3
324.21,673.5,122.096
324.711,674.0,120.732
325.214,674.5,119.139
325.71,675.0,117.492
326.215,675.5,115.746
326.716,676.0,113.855
327.209,676.5,111.904
327.718,677.0,109.742
328.219,677.5,107.411
328.71,678.0,105.06
329.214,678.5,102.566
329.709,679.0,100.028
330.19,679.5,97.4418
330.693,680.0,94.636
331.199,680.5,91.7343
331.669,681.0,88.9316
332.137,681.5,86.0246
332.64,682.0,82.9049
333.139,682.5,79.8033
333.642,683.0,76.6635
334.141,683.5,73.5423
334.641,684.0,70.4059
335.116,684.5,67.3883
335.583,685.0,64.3845
336.055,685.5,61.2699
336.549,686.0,58.1544
337.04,686.5,55.2375
337.524,687.0,52.4216
338.009,687.5,49.663
338.526,688.0,46.8199
339.038,688.5,44.211
339.528,689.0,41.9705
340.008,689.5,39.681
340.503,690.0,37.4168
340.991,690.5,35.3679
341.521,691.0,33.2631
342.054,691.5,31.3405
342.569,692.0,29.5233
343.132,692.5,27.5673
343.715,693.0,25.8046
344.213,693.5,24.4255
344.702,694.0,23.1496
345.212,694.5,21.9598
345.711,695.0,20.9677
346.196,695.5,20.1057
346.702,696.0,19.2968
347.224,696.5,18.5588
347.741,697.0,17.8332
348.261,697.5,17.1125
348.761,698.0,16.4163
349.241,698.5,15.8049
349.719,699.0,15.2925
350.207,699.5,14.8661
350.708,700.0,14.5337
351.207,700.5,14.2293
351.703,701.0,13.9267
352.191,701.5,13.6499
352.69,702.0,13.3862
353.204,702.5,13.1052
353.709,703.0,12.8634
354.203,703.5,12.6519
354.708,704.0,12.4936
355.223,704.5,12.3469
355.727,705.0,12.1836
356.236,705.5,11.9868
356.754,706.0,11.7959
357.275,706.5,11.5865
357.786,707.0,11.3933
358.29,707.5,11.1993
358.8,708.0,11.0536
359.301,708.5,10.9756
359.779,709.0,10.8509
360.263,709.5,10.7438
360.761,710.0,10.5799
361.253,710.5,10.3905
361.729,711.0,10.2378
362.199,711.5,10.0698
362.679,712.0,9.95857
363.175,712.5,9.9033
363.678,713.0,9.83709
364.171,713.5,9.77051
364.677,714.0,9.68406
365.19,714.5,9.59038
365.682,715.0,9.42104
366.191,715.5,9.25377
366.733,716.0,9.06723
367.24,716.5,8.85493
367.724,717.0,8.66889
368.194,717.5,8.56601
368.676,718.0,8.51045
369.192,718.5,8.40208
369.701,719.0,8.35356
370.204,719.5,8.37551
370.729,720.0,8.36877
371.263,720.5,8.30711
371.76,721.0,8.16124
372.238,721.5,8.04185
372.733,722.0,8.02175
373.259,722.5,7.96134
373.821,723.0,7.85794
374.378,723.5,7.78461
374.901,724.0,7.79403
375.409,724.5,7.7175
375.911,725.0,7.57322
376.415,725.5,7.47601
376.922,726.0,7.3662
377.408,726.5,7.32655
377.897,727.0,7.25175
378.403,727.5,7.06419
378.901,728.0,6.92077
379.427,728.5,6.80358
379.904,729.0,6.64937
380.352,729.5,6.576
380.833,730.0,6.49441
381.329,730.5,6.40412
381.824,731.0,6.32551
382.33,731.5,6.23301
382.834,732.0,6.23301
383.344,732.5,6.22028
383.845,733.0,6.15919
384.347,733.5,6.09761
384.855,734.0,6.03645
385.357,734.5,5.95461
385.912,735.0,5.84989
386.533,735.5,5.75457
387.056,736.0,5.7123
387.556,736.5,5.6134
388.066,737.0,5.47597
388.576,737.5,5.46173
389.075,738.0,5.384
389.572,738.5,5.25456
390.067,739.0,5.26076
390.578,739.5,5.29675
391.079,740.0,5.21145
391.575,740.5,5.16261
392.08,741.0,5.14339
392.543,741.5,5.10942
392.984,742.0,4.97184
393.464,742.5,4.84745
393.958,743.0,4.85408
394.473,743.5,4.72775
394.978,744.0,4.54861
395.472,744.5,4.47759
395.975,745.0,4.43416
396.477,745.5,4.3149
396.992,746.0,4.1391
397.485,746.5,4.0395
397.937,747.0,3.93597
398.385,747.5,3.78733
398.857,748.0,3.6992
399.352,748.5,3.6702
399.862,749.0,3.61184
400.386,749.5,3.52858
400.866,750.0,3.42212
401.348,750.5,3.33783
401.854,751.0,3.3011
402.363,751.5,3.27509
402.883,752.0,3.20777
403.396,752.5,3.11118
403.9,753.0,3.00289
404.414,753.5,2.89643
404.926,754.0,2.75736
405.43,754.5,2.66224
405.939,755.0,2.63204
406.434,755.5,2.54738
406.936,756.0,2.4993
407.46,756.5,2.52355
407.968,757.0,2.49359
408.465,757.5,2.45072
408.95,758.0,2.40678
409.48,758.5,2.36086
410.013,759.0,2.35561
410.538,759.5,2.22245
411.084,760.0,2.2012
411.601,760.5,2.12266
412.107,761.0,2.06156
412.607,761.5,1.9855
413.121,762.0,1.9212
413.645,762.5,1.85071
414.161,763.0,1.73766
414.669,763.5,1.69654
415.167,764.0,1.68818
415.674,764.5,1.71394
416.166,765.0,1.66757
416.621,765.5,1.58532
417.078,766.0,1.51317
417.553,766.5,1.55777
417.999,767.0,1.59442
418.488,767.5,1.54027
418.994,768.0,1.46712
419.502,768.5,1.33314
419.985,769.0,1.24875
420.478,769.5,1.2101
420.983,770.0,1.14693
421.494,770.5,1.16865
421.987,771.0,1.13623
422.512,771.5,1.09551
423.061,772.0,1.04113
423.594,772.5,0.88943
424.102,773.0,0.787238
424.607,773.5,0.766486
425.101,774.0,0.72783
425.59,774.5,0.65407
426.075,775.0,0.688281
426.572,775.5,0.742681
427.074,776.0,0.7996
427.569,776.5,0.877384
428.065,777.0,0.894521
428.578,777.5,0.879246
429.061,778.0,0.936663
429.542,778.5,0.925444
430.033,779.0,0.828973
430.547,779.5,0.718768
431.077,780.0,0.640678
431.603,780.5,0.64826
432.123,781.0,0.547931
432.615,781.5,0.434865
433.102,782.0,0.433809
433.604,782.5,0.495154
434.1,783.0,0.480826
434.606,783.5,0.357764
435.096,784.0,0.338887
435.566,784.5,0.36418
436.062,785.0,0.317149
436.577,785.5,0.316782
437.052,786.0,0.401424
437.549,786.5,0.390452
438.058,787.0,0.326458
438.549,787.5,0.242308
439.06,788.0,0.178498
439.566,788.5,0.222211
440.068,789.0,0.239244
440.576,789.5,0.219844
441.066,790.0,0.232299
441.546,790.5,0.304382
442.052,791.0,0.336084
442.555,791.5,0.355665
443.065,792.0,0.403144
443.564,792.5,0.389688
444.043,793.0,0.326395
444.539,793.5,0.321944
445.043,794.0,0.276041
445.545,794.5,0.250568
446.032,795.0,0.181298
446.556,795.5,0.100692
447.011,796.0,0.0466663
447.447,796.5,-0.078707
447.93,797.0,-0.162484
448.423,797.5,-0.170992
448.965,798.0,-0.166245
449.512,798.5,-0.0839041
450.016,799.0,-0.0251194
450.555,799.5,0.0183442
451.074,800.0,0.0932593
451.556,800.5,0.0465716
452.036,801.0,-0.0544348
452.567,801.5,-0.148589
453.125,802.0,-0.230491
453.65,802.5,-0.256195
454.164,803.0,-0.219852
454.669,803.5,-0.118631
455.135,804.0,-0.0504404
455.614,804.5,0.000552998
456.13,805.0,0.0580403
456.624,805.5,0.151166
457.118,806.0,0.205276
457.63,806.5,0.214556
458.115,807.0,0.213166
458.629,807.5,0.213549
459.218,808.0,0.236622
459.75,808.5,0.246757
460.237,809.0,0.275819
460.73,809.5,0.306576
461.224,810.0,0.260039
461.719,810.5,0.114352
462.223,811.0,0.0250125
462.727,811.5,0.0489589
463.208,812.0,0.0579087
463.684,812.5,0.0278374
464.181,813.0,-0.0180645
464.695,813.5,-0.042962
465.198,814.0,-0.0409158
465.684,814.5,-0.0884512
466.168,815.0,-0.130296
466.66,815.5,-0.100791
467.157,816.0,-0.0287206
467.677,816.5,0.0417069
468.188,817.0,0.0991996
468.705,817.5,0.0690891
469.204,818.0,0.0456021
469.694,818.5,0.100207
470.219,819.0,0.0873762
470.739,819.5,0.0337662
471.234,820.0,-0.0017163
471.736,820.5,0.00160928
472.238,821.0,0.0122289
472.726,821.5,-0.0347572
473.206,822.0,-0.0749978
473.694,822.5,-0.0354867
474.183,823.0,0.0682649
474.671,823.5,0.124975
475.18,824.0,0.0739675
475.681,824.5,0.017361
476.173,825.0,0.00720313
476.685,825.5,-0.0172222
477.182,826.0,-0.0615927
477.645,826.5,-0.149111
478.116,827.0,-0.195675
478.618,827.5,-0.192346
479.112,828.0,-0.185613
479.609,828.5,-0.171782
480.112,829.0,-0.196814
480.613,829.5,-0.148339
481.099,830.0,-0.139765
481.611,830.5,-0.165168
482.153,831.0,-0.197914
482.663,831.5,-0.232708
483.175,832.0,-0.263617
483.698,832.5,-0.385156
484.191,833.0,-0.483685
484.692,833.5,-0.475859
485.208,834.0,-0.419006
485.714,834.5,-0.310716
486.219,835.0,-0.182015
486.721,835.5,-0.0904127
487.22,836.0,-0.0318446
487.72,836.5,-0.0144147
488.217,837.0,-0.0347701
488.721,837.5,-0.000754583
489.23,838.0,0.0456746
489.723,838.5,0.0429208
490.209,839.0,0.0521871
490.707,839.5,0.090915
491.211,840.0,0.117291
491.716,840.5,0.103435
492.232,841.0,0.0631898
492.733,841.5,0.0216233
493.205,842.0,-0.0240529
493.691,842.5,-0.0518199
494.198,843.0,-0.0820447
494.696,843.5,-0.130448
495.201,844.0,-0.14898
495.727,844.5,-0.143759
496.217,845.0,-0.154244
496.707,845.5,-0.15817
497.214,846.0,-0.136888
497.703,846.5,-0.0892687
498.199,847.0,-0.0437193
498.698,847.5,-0.0337289
499.207,848.0,-0.0177627
499.729,848.5,-0.0989483
500.242,849.0,-0.163926
500.751,849.5,-0.168638
501.252,850.0,-0.134521
501.757,850.5,-0.039873
502.242,851.0,0.00333453
502.715,851.5,-0.0132022
503.206,852.0,-0.0119352
503.724,852.5,0.0155773
504.249,853.0,-0.0237451
504.75,853.5,-0.0897091
505.234,854.0,-0.109478
505.722,854.5,-0.0792184
506.226,855.0,-0.0756153
506.719,855.5,-0.146693
507.203,856.0,-0.168157
507.73,856.5,-0.17359
508.267,857.0,-0.236823
508.781,857.5,-0.251118
509.269,858.0,-0.151141
509.75,858.5,-0.0369567
510.243,859.0,-0.0281684
510.731,859.5,-0.0298464
511.224,860.0,0.0336678
511.746,860.5,0.0522268
512.268,861.0,0.0201625
512.763,861.5,0.0518131
513.259,862.0,0.0827816
513.789,862.5,0.0580134
514.321,863.0,0.0424772
514.824,863.5,0.107545
515.321,864.0,0.188034
515.821,864.5,0.229516
516.315,865.0,0.220692
516.817,865.5,0.208082
517.334,866.0,0.257045
517.832,866.5,0.254002
518.315,867.0,0.246985
518.804,867.5,0.272976
519.298,868.0,0.213186
519.816,868.5,0.111004
520.318,869.0,0.15717
520.787,869.5,0.19397
521.28,870.0,0.218476
521.798,870.5,0.284399
522.288,871.0,0.301196
522.792,871.5,0.227907
523.318,872.0,0.11483
523.816,872.5,0.0864392
524.322,873.0,0.0378272
524.847,873.5,-0.0349061
525.362,874.0,0.00318845
525.864,874.5,0.0420385
526.328,875.0,0.013018
526.796,875.5,-0.0246889
527.286,876.0,-0.0124006
527.784,876.5,-0.00495509
528.285,877.0,-0.0380379
528.788,877.5,-0.0497737
529.293,878.0,-0.108571
529.792,878.5,-0.156797
530.305,879.0,-0.0962023
530.817,879.5,-0.0303714
531.306,880.0,-0.0269526
531.796,880.5,-0.0630099
532.297,881.0,-0.0767708
532.793,881.5,-0.0800735
533.305,882.0,-0.00832762
533.818,882.5,0.0821262
534.307,883.0,0.131834
534.808,883.5,0.233771
535.316,884.0,0.252493
535.794,884.5,0.19241
536.275,885.0,0.114465
536.776,885.5,0.00242711
537.28,886.0,-0.0498623
537.796,886.5,-0.151058
538.315,887.0,-0.23575
538.829,887.5,-0.173179
539.321,888.0,-0.127433
539.807,888.5,-0.165086
540.314,889.0,-0.203018
540.823,889.5,-0.124295
541.329,890.0,-0.0160673
541.841,890.5,0.0478166
542.349,891.0,0.0568079
542.858,891.5,0.131298
543.362,892.0,0.156529
543.859,892.5,0.135535
544.393,893.0,0.117392
544.942,893.5,0.115612
545.442,894.0,0.145392
545.926,894.5,0.0757173
546.411,895.0,0.0830423
546.914,895.5,0.120817
547.435,896.0,0.029691
547.92,896.5,-0.0106432
548.419,897.0,-0.069678
548.928,897.5,-0.133009
549.408,898.0,-0.0633552
549.895,898.5,0.0455014
550.396,899.0,0.230667
550.863,899.5,0.354409
551.321,900.0,0.37004
551.808,900.5,0.351732
552.319,901.0,0.384511
552.831,901.5,0.462796
553.337,902.0,0.371709
553.849,902.5,0.24715
554.356,903.0,0.243333
554.858,903.5,0.206703
555.362,904.0,0.154863
555.859,904.5,0.10327
556.334,905.0,0.0772387
556.789,905.5,-0.0194735
557.236,906.0,-0.144652
557.699,906.5,-0.183662
558.207,907.0,-0.14245
558.739,907.5,-0.161778
559.26,908.0,-0.15661
559.786,908.5,-0.138636
560.312,909.0,-0.165333
560.808,909.5,-0.121557
561.305,910.0,-0.111791
561.812,910.5,-0.128998
562.346,911.0,-0.134269
562.911,911.5,-0.209343
563.441,912.0,-0.331527
563.947,912.5,-0.30367
564.44,913.0,-0.142634
564.924,913.5,-0.175368
565.451,914.0,-0.212043
565.974,914.5,-0.168454
566.452,915.0,-0.0600838
566.964,915.5,0.0320206
567.492,916.0,0.0392798
567.997,916.5,0.0204049
568.517,917.0,0.0900953
568.999,917.5,0.170025
569.463,918.0,0.105346
569.954,918.5,0.0201855
570.438,919.0,-0.109037
570.949,919.5,-0.0769155
571.456,920.0,0.00506249
571.944,920.5,0.141667
572.444,921.0,0.210147
572.946,921.5,0.16916
573.468,922.0,0.268623
573.982,922.5,0.340023
574.452,923.0,0.27516
574.939,923.5,0.139304
575.424,924.0,0.0837903
575.914,924.5,0.0648909
576.428,925.0,0.0319089
576.92,925.5,-0.0258875
577.429,926.0,-0.0356848
577.946,926.5,0.0243558
578.444,927.0,-0.031327
578.936,927.5,-0.162906
579.418,928.0,-0.190941
579.908,928.5,-0.158494
580.419,929.0,-0.154933
580.958,929.5,-0.141083
581.499,930.0,0.0258937
581.998,930.5,0.135754
582.497,931.0,0.192752
582.988,931.5,0.28962
583.49,932.0,0.416224
583.976,932.5,0.381447
584.472,933.0,0.196093
584.973,933.5,0.0544606
585.467,934.0,-0.0131734
585.981,934.5,-0.0225434
586.481,935.0,-0.0385446
586.988,935.5,-0.116692
587.504,936.0,-0.141287
587.976,936.5,-0.0378631
588.46,937.0,-0.0866428
588.951,937.5,-0.093683
589.445,938.0,0.013949
589.948,938.5,0.04737
590.464,939.0,0.150104
590.977,939.5,0.180108
591.504,940.0,0.0626855
592.007,940.5,-0.0215908
592.47,941.0,-0.0891788
592.963,941.5,-0.11109
593.508,942.0,-0.118581
594.019,942.5,-0.0633091
594.523,943.0,0.0905798
595.034,943.5,0.0974513
595.537,944.0,0.172354
596.03,944.5,0.248875
596.515,945.0,0.259571
596.991,945.5,0.162073
597.504,946.0,-0.00795234
598.028,946.5,0.118264
598.544,947.0,0.161985
599.065,947.5,0.162718
599.528,948.0,0.192563
599.951,948.5,0.257829
600.411,949.0,0.314083
600.905,949.5,0.284448
601.384,950.0,0.231419
601.872,950.5,0.158116
602.374,951.0,0.139805
602.872,951.5,0.0715219
603.378,952.0,0.00176787
603.873,952.5,-0.106971
604.378,953.0,-0.213189
604.904,953.5,-0.252291
605.405,954.0,-0.330522
605.895,954.5,-0.430382
606.382,955.0,-0.51812
606.889,955.5,-0.480948
607.388,956.0,-0.43141
607.901,956.5,-0.461291
608.432,957.0,-0.489372
608.934,957.5,-0.355391
609.448,958.0,-0.189728
609.967,958.5,-0.192069
610.481,959.0,-0.227566
611.01,959.5,-0.136188
611.555,960.0,-0.0774625
612.114,960.5,-0.0329625
612.628,961.0,0.0893219
613.115,961.5,0.19543
613.601,962.0,0.204542
614.118,962.5,0.103318
614.626,963.0,-0.0205459
615.119,963.5,-0.0633324
615.595,964.0,-0.0509131
616.08,964.5,-0.0466717
616.56,965.0,-0.0404837
617.04,965.5,0.0309375
617.528,966.0,0.0903961
618.014,966.5,0.00786825
618.501,967.0,-0.130509
619.008,967.5,-0.0750462
619.502,968.0,-0.0204968
620.002,968.5,0.188506
620.525,969.0,0.245134
621.021,969.5,0.0777964
621.506,970.0,0.0877118
622.0,970.5,0.0919849
622.515,971.0,0.0875089
623.025,971.5,0.0545133
623.547,972.0,-0.0410232
624.059,972.5,-0.18822
624.534,973.0,-0.179675
625.047,973.5,-0.0914106
625.551,974.0,-0.0230399
626.054,974.5,0.079438
626.547,975.0,0.179653
627.023,975.5,0.208825
627.515,976.0,0.179646
627.987,976.5,0.110316
628.478,977.0,-0.00581364
628.991,977.5,-0.027892
629.496,978.0,-0.0404572
629.989,978.5,-0.00191757
630.487,979.0,-0.0444198
631.003,979.5,-0.00741188
631.493,980.0,0.086031
631.979,980.5,0.0894562
632.481,981.0,0.155264
632.983,981.5,0.101146
633.497,982.0,0.078596
634.015,982.5,0.0678699
634.533,983.0,0.104264
634.997,983.5,0.106722
635.501,984.0,0.0437728
635.992,984.5,0.0495097
636.433,985.0,-0.0446574
636.902,985.5,-0.214066
637.402,986.0,-0.222089
637.88,986.5,-0.270069
638.355,987.0,-0.288617
638.861,987.5,-0.190326
639.374,988.0,-0.213923
639.87,988.5,-0.129169
640.354,989.0,-0.0836004
640.852,989.5,-0.139483