File: Wood/Calibration_Data/UDRI/UDRI_MCC_N2_60K_R2.csv
Time (s),Temperature (K),HRR (W/g)
45.8406,397.5,0.207991
46.2939,398.0,0.133039
46.7537,398.5,0.037527
47.2085,399.0,-0.00470013
47.663,399.5,-0.0120324
48.1298,400.0,-0.0376323
48.605,400.5,-0.104541
49.0505,401.0,-0.147091
49.501,401.5,-0.155321
49.9951,402.0,-0.127294
50.475,402.5,-0.0398946
50.9165,403.0,0.072456
51.3534,403.5,0.125361
51.8091,404.0,0.126725
52.2706,404.5,0.135193
52.7252,405.0,0.141474
53.1786,405.5,0.132986
53.6427,406.0,0.11029
54.1161,406.5,0.0387923
54.5759,407.0,-0.0163527
55.0501,407.5,-0.0696205
55.5221,408.0,-0.206263
55.9834,408.5,-0.340252
56.4191,409.0,-0.446286
56.8589,409.5,-0.493981
57.3097,410.0,-0.503361
57.753,410.5,-0.506574
58.1967,411.0,-0.437957
58.6581,411.5,-0.28275
59.1316,412.0,-0.187598
59.6005,412.5,-0.184603
60.0539,413.0,-0.210153
60.5115,413.5,-0.323895
60.9904,414.0,-0.358665
61.452,414.5,-0.374854
61.9299,415.0,-0.412672
62.4641,415.5,-0.406657
62.9875,416.0,-0.425207
63.4436,416.5,-0.411634
63.9236,417.0,-0.318802
64.3913,417.5,-0.275304
64.854,418.0,-0.297113
65.3208,418.5,-0.261077
65.7983,419.0,-0.191369
66.2766,419.5,-0.120624
66.7608,420.0,0.00253372
67.2481,420.5,0.231908
67.7285,421.0,0.507216
68.1932,421.5,0.702654
68.6443,422.0,0.765029
69.106,422.5,0.722397
69.5745,423.0,0.663114
70.0396,423.5,0.65254
70.5,424.0,0.582124
70.997,424.5,0.465165
71.4535,425.0,0.371495
71.9326,425.5,0.361808
72.3923,426.0,0.378014
72.8505,426.5,0.392218
73.3126,427.0,0.402793
73.7871,427.5,0.37115
74.2341,428.0,0.328943
74.6569,428.5,0.31897
75.0962,429.0,0.338053
75.5784,429.5,0.348757
76.0628,430.0,0.376774
76.5125,430.5,0.395762
76.9942,431.0,0.382991
77.4643,431.5,0.375687
77.9392,432.0,0.373058
78.4334,432.5,0.303992
78.9237,433.0,0.19124
79.3944,433.5,0.120403
79.8651,434.0,0.0989331
80.3374,434.5,0.0921059
80.8178,435.0,0.127997
81.2927,435.5,0.209385
81.7652,436.0,0.31072
82.253,436.5,0.446208
82.7275,437.0,0.582652
83.1791,437.5,0.681255
83.6476,438.0,0.745877
84.1403,438.5,0.747632
84.6171,439.0,0.715071
85.1163,439.5,0.726528
85.6238,440.0,0.724707
86.1139,440.5,0.662285
86.5771,441.0,0.600612
87.0446,441.5,0.577419
87.5397,442.0,0.66179
88.0226,442.5,0.654796
88.4943,443.0,0.610741
88.9608,443.5,0.685015
89.4337,444.0,0.82283
89.9034,444.5,1.03771
90.3795,445.0,1.23839
90.8667,445.5,1.39688
91.3377,446.0,1.53093
91.8066,446.5,1.67244
92.3152,447.0,1.77865
92.8479,447.5,1.82427
93.3486,448.0,1.85401
93.8292,448.5,1.92353
94.3159,449.0,1.92322
94.8027,449.5,1.90354
95.2803,450.0,1.96298
95.7702,450.5,2.03549
96.2552,451.0,2.07511
96.7189,451.5,2.13549
97.1849,452.0,2.26799
97.6717,452.5,2.41763
98.1795,453.0,2.47782
98.6673,453.5,2.57877
99.1056,454.0,2.71066
99.5497,454.5,2.80093
100.028,455.0,2.81988
100.518,455.5,2.83342
101.003,456.0,2.9666
101.479,456.5,3.03101
101.981,457.0,3.01138
102.474,457.5,3.08866
102.949,458.0,3.09538
103.423,458.5,3.14466
103.898,459.0,3.2372
104.375,459.5,3.36143
104.897,460.0,3.4847
105.395,460.5,3.51711
105.858,461.0,3.64383
106.336,461.5,3.84087
106.839,462.0,4.09473
107.334,462.5,4.31141
107.826,463.0,4.36375
108.31,463.5,4.47314
108.799,464.0,4.65698
109.289,464.5,4.71268
109.787,465.0,4.63577
110.278,465.5,4.60226
110.746,466.0,4.67241
111.199,466.5,4.75041
111.645,467.0,4.78022
112.108,467.5,4.84061
112.599,468.0,5.07572
113.099,468.5,5.34601
113.567,469.0,5.44858
114.064,469.5,5.5584
114.596,470.0,5.71771
115.095,470.5,5.751
115.579,471.0,5.78342
116.073,471.5,5.87836
116.58,472.0,5.95751
117.134,472.5,6.16667
117.65,473.0,6.41519
118.157,473.5,6.66306
118.648,474.0,6.8551
119.118,474.5,7.04011
119.611,475.0,7.26397
120.132,475.5,7.49496
120.625,476.0,7.73672
121.085,476.5,7.94039
121.576,477.0,8.16165
122.099,477.5,8.32053
122.597,478.0,8.38059
123.075,478.5,8.44047
123.529,479.0,8.51616
123.984,479.5,8.60383
124.468,480.0,8.78616
124.952,480.5,8.96414
125.456,481.0,9.0441
125.924,481.5,9.09925
126.393,482.0,9.2246
126.881,482.5,9.32277
127.347,483.0,9.44071
127.829,483.5,9.56849
128.33,484.0,9.64538
128.839,484.5,9.82122
129.375,485.0,10.0054
129.906,485.5,10.1896
130.408,486.0,10.4012
130.888,486.5,10.5634
131.37,487.0,10.7518
131.878,487.5,10.9217
132.411,488.0,11.0312
132.937,488.5,11.1252
133.399,489.0,11.2527
133.87,489.5,11.412
134.369,490.0,11.5297
134.871,490.5,11.6222
135.344,491.0,11.7125
135.816,491.5,11.7984
136.306,492.0,11.9019
136.788,492.5,11.9632
137.27,493.0,12.0405
137.777,493.5,12.1525
138.279,494.0,12.2134
138.775,494.5,12.1946
139.267,495.0,12.1269
139.756,495.5,12.0467
140.243,496.0,11.9598
140.739,496.5,11.866
141.266,497.0,11.74
141.805,497.5,11.6883
142.337,498.0,11.7215
142.831,498.5,11.7327
143.313,499.0,11.8154
143.809,499.5,11.8978
144.328,500.0,11.9
144.853,500.5,11.8501
145.345,501.0,11.8066
145.825,501.5,11.7883
146.336,502.0,11.7414
146.855,502.5,11.6926
147.367,503.0,11.7247
147.865,503.5,11.7899
148.346,504.0,11.8805
148.819,504.5,11.9099
149.31,505.0,11.8501
149.827,505.5,11.7581
150.317,506.0,11.5697
150.783,506.5,11.3864
151.257,507.0,11.2097
151.753,507.5,11.0177
152.262,508.0,10.8991
152.761,508.5,10.7625
153.25,509.0,10.5613
153.71,509.5,10.356
154.133,510.0,10.1656
154.546,510.5,10.0275
155.007,511.0,9.92628
155.518,511.5,9.82489
156.027,512.0,9.80064
156.506,512.5,9.82904
157.025,513.0,9.84939
157.51,513.5,9.75902
157.973,514.0,9.75489
158.49,514.5,9.67498
159.012,515.0,9.56374
159.514,515.5,9.55055
160.098,516.0,9.50987
160.642,516.5,9.49009
161.135,517.0,9.56142
161.637,517.5,9.65007
162.164,518.0,9.76779
162.709,518.5,9.95204
163.233,519.0,10.0737
163.722,519.5,10.2104
164.195,520.0,10.3574
164.674,520.5,10.4781
165.188,521.0,10.6957
165.729,521.5,11.0537
166.271,522.0,11.3802
166.769,522.5,11.565
167.252,523.0,11.6587
167.752,523.5,11.7739
168.253,524.0,11.8881
168.758,524.5,11.9455
169.259,525.0,11.9851
169.755,525.5,12.0106
170.267,526.0,12.0119
170.774,526.5,11.9929
171.269,527.0,12.048
171.744,527.5,12.1332
172.188,528.0,12.1612
172.615,528.5,12.1776
173.055,529.0,12.2656
173.528,529.5,12.4785
174.059,530.0,12.6195
174.559,530.5,12.6935
175.038,531.0,12.7991
175.517,531.5,12.8962
176.023,532.0,13.0321
176.522,532.5,13.0834
177.019,533.0,13.1995
177.545,533.5,13.2643
178.066,534.0,13.1946
178.569,534.5,13.2335
179.111,535.0,13.401
179.627,535.5,13.6554
180.131,536.0,13.8584
180.637,536.5,14.116
181.142,537.0,14.4379
181.656,537.5,14.7145
182.167,538.0,14.9806
182.664,538.5,15.1834
183.155,539.0,15.415
183.672,539.5,15.7475
184.203,540.0,16.0029
184.739,540.5,16.1773
185.252,541.0,16.4468
185.755,541.5,16.6926
186.256,542.0,16.833
186.734,542.5,16.935
187.217,543.0,17.034
187.725,543.5,17.1922
188.227,544.0,17.3636
188.719,544.5,17.574
189.224,545.0,17.8689
189.738,545.5,18.0731
190.212,546.0,18.2017
190.643,546.5,18.3214
191.086,547.0,18.4451
191.59,547.5,18.6394
192.101,548.0,18.7806
192.578,548.5,18.8997
193.072,549.0,19.1033
193.592,549.5,19.338
194.109,550.0,19.4787
194.621,550.5,19.5903
195.108,551.0,19.7586
195.618,551.5,20.0047
196.141,552.0,20.3399
196.669,552.5,20.6846
197.187,553.0,20.991
197.663,553.5,21.2453
198.162,554.0,21.5088
198.68,554.5,21.829
199.203,555.0,22.1635
199.701,555.5,22.4276
200.186,556.0,22.6288
200.683,556.5,22.806
201.175,557.0,22.9982
201.669,557.5,23.2283
202.182,558.0,23.4586
202.665,558.5,23.6434
203.124,559.0,23.7944
203.607,559.5,23.9704
204.091,560.0,24.2042
204.573,560.5,24.4511
205.089,561.0,24.7583
205.604,561.5,25.106
206.114,562.0,25.4392
206.612,562.5,25.7154
207.113,563.0,25.9225
207.623,563.5,26.1826
208.13,564.0,26.4112
208.668,564.5,26.6577
209.23,565.0,26.9342
209.748,565.5,27.1529
210.231,566.0,27.3762
210.717,566.5,27.6496
211.227,567.0,27.919
211.745,567.5,28.2226
212.255,568.0,28.5575
212.761,568.5,28.8497
213.275,569.0,29.2132
213.771,569.5,29.5392
214.269,570.0,29.8069
214.77,570.5,30.085
215.259,571.0,30.3667
215.772,571.5,30.6958
216.269,572.0,30.9414
216.744,572.5,31.0872
217.248,573.0,31.2851
217.764,573.5,31.5015
218.244,574.0,31.6877
218.731,574.5,31.9265
219.266,575.0,32.2225
219.776,575.5,32.4857
220.256,576.0,32.7497
220.737,576.5,32.985
221.222,577.0,33.1497
221.718,577.5,33.3857
222.218,578.0,33.7259
222.712,578.5,33.9977
223.218,579.0,34.1835
223.741,579.5,34.4
224.266,580.0,34.6846
224.792,580.5,34.9927
225.29,581.0,35.3211
225.79,581.5,35.6534
226.307,582.0,36.0164
226.822,582.5,36.4018
227.352,583.0,36.7358
227.863,583.5,37.0316
228.364,584.0,37.3513
228.863,584.5,37.6617
229.345,585.0,37.984
229.84,585.5,38.3357
230.358,586.0,38.6955
230.863,586.5,38.9935
231.345,587.0,39.2773
231.838,587.5,39.6022
232.338,588.0,39.9883
232.833,588.5,40.3485
233.318,589.0,40.694
233.812,589.5,41.052
234.321,590.0,41.4613
234.825,590.5,41.8957
235.298,591.0,42.2516
235.775,591.5,42.5351
236.283,592.0,42.8286
236.806,592.5,43.2137
237.312,593.0,43.5369
237.82,593.5,43.8313
238.332,594.0,44.1485
238.822,594.5,44.4046
239.274,595.0,44.6677
239.726,595.5,45.0166
240.207,596.0,45.4069
240.693,596.5,45.7433
241.172,597.0,46.0932
241.686,597.5,46.5411
242.21,598.0,47.0138
242.692,598.5,47.4178
243.201,599.0,47.8513
243.729,599.5,48.3399
244.234,600.0,48.7816
244.745,600.5,49.2584
245.304,601.0,49.7911
245.878,601.5,50.3022
246.39,602.0,50.7184
246.887,602.5,51.1673
247.395,603.0,51.6836
247.921,603.5,52.1904
248.437,604.0,52.64
248.974,604.5,53.1008
249.469,605.0,53.6566
249.955,605.5,54.2219
250.45,606.0,54.7401
251.013,606.5,55.3119
251.498,607.0,55.7736
251.925,607.5,56.1899
252.412,608.0,56.5603
252.929,608.5,56.9977
253.418,609.0,57.5254
253.919,609.5,58.1174
254.406,610.0,58.641
254.907,610.5,59.2573
255.404,611.0,59.8779
255.898,611.5,60.386
256.398,612.0,60.8679
256.923,612.5,61.3853
257.479,613.0,61.9226
258.016,613.5,62.3478
258.526,614.0,62.7503
259.024,614.5,63.2555
259.532,615.0,63.8018
260.032,615.5,64.3259
260.518,616.0,64.8927
261.032,616.5,65.5049
261.521,617.0,66.1076
261.987,617.5,66.7032
262.479,618.0,67.2829
263.001,618.5,67.8319
263.527,619.0,68.4728
264.011,619.5,69.0197
264.487,620.0,69.4832
264.99,620.5,69.9945
265.516,621.0,70.5515
266.018,621.5,71.0273
266.514,622.0,71.4597
267.035,622.5,72.0399
267.517,623.0,72.5854
267.974,623.5,72.9904
268.441,624.0,73.3746
268.953,624.5,73.8098
269.418,625.0,74.1717
269.85,625.5,74.447
270.297,626.0,74.776
270.773,626.5,75.2144
271.278,627.0,75.6866
271.798,627.5,76.1655
272.333,628.0,76.7662
272.857,628.5,77.325
273.348,629.0,77.7831
273.852,629.5,78.2353
274.354,630.0,78.7039
274.865,630.5,79.1624
275.425,631.0,79.5879
276.01,631.5,80.0772
276.566,632.0,80.5849
277.079,632.5,81.033
277.57,633.0,81.4337
278.057,633.5,81.9067
278.571,634.0,82.2499
279.101,634.5,82.7261
279.592,635.0,83.184
280.058,635.5,83.4874
280.544,636.0,83.9024
281.049,636.5,84.3857
281.556,637.0,84.791
282.028,637.5,85.1288
282.484,638.0,85.5068
282.985,638.5,85.9294
283.481,639.0,86.4838
283.971,639.5,86.9981
284.512,640.0,87.5557
285.037,640.5,88.109
285.53,641.0,88.7004
286.038,641.5,89.3453
286.535,642.0,89.9036
287.051,642.5,90.5235
287.573,643.0,91.1104
288.116,643.5,91.7233
288.645,644.0,92.3723
289.151,644.5,92.9493
289.663,645.0,93.4759
290.18,645.5,94.0774
290.672,646.0,94.6934
291.158,646.5,95.2994
291.646,647.0,95.9756
292.137,647.5,96.7082
292.639,648.0,97.4616
293.154,648.5,98.3004
293.653,649.0,99.1619
294.127,649.5,99.9681
294.609,650.0,100.668
295.118,650.5,101.381
295.633,651.0,102.27
296.131,651.5,103.102
296.621,652.0,103.89
297.132,652.5,104.648
297.644,653.0,105.425
298.145,653.5,106.292
298.637,654.0,107.175
299.153,654.5,108.103
299.666,655.0,109.112
300.176,655.5,109.959
300.682,656.0,110.711
301.188,656.5,111.528
301.709,657.0,112.432
302.22,657.5,113.372
302.715,658.0,114.284
303.199,658.5,115.102
303.695,659.0,115.915
304.205,659.5,116.787
304.704,660.0,117.626
305.201,660.5,118.446
305.711,661.0,119.248
306.217,661.5,119.985
306.702,662.0,120.681
307.194,662.5,121.353
307.693,663.0,121.984
308.189,663.5,122.644
308.698,664.0,123.351
309.205,664.5,123.97
309.698,665.0,124.46
310.195,665.5,124.854
310.696,666.0,125.207
311.19,666.5,125.61
311.701,667.0,125.962
312.245,667.5,126.148
312.764,668.0,126.228
313.274,668.5,126.229
313.783,669.0,126.101
314.275,669.5,125.781
314.773,670.0,125.272
315.273,670.5,124.731
315.774,671.0,124.15
316.286,671.5,123.414
316.799,672.0,122.56
317.3,672.5,121.645
317.793,673.0,120.62
318.258,673.5,119.52
318.693,674.0,118.383
319.139,674.5,117.107
319.643,675.0,115.52
320.153,675.5,113.84
320.653,676.0,112.097
321.148,676.5,110.233
321.651,677.0,108.151
322.158,677.5,105.958
322.643,678.0,103.704
323.136,678.5,101.33
323.642,679.0,98.777
324.165,679.5,96.0286
324.696,680.0,93.1462
325.201,680.5,90.3032
325.687,681.0,87.5701
326.177,681.5,84.7813
326.667,682.0,81.818
327.161,682.5,78.7504
327.649,683.0,75.8388
328.124,683.5,73.1492
328.607,684.0,70.1974
329.104,684.5,66.9952
329.607,685.0,64.0598
330.128,685.5,61.0392
330.637,686.0,58.2214
331.145,686.5,55.4954
331.63,687.0,52.8178
332.115,687.5,50.1883
332.61,688.0,47.6269
333.119,688.5,45.0737
333.644,689.0,42.5256
334.156,689.5,40.1171
334.643,690.0,37.9604
335.137,690.5,35.943
335.638,691.0,33.9787
336.147,691.5,32.0033
336.633,692.0,30.1985
337.069,692.5,28.6026
337.529,693.0,27.0514
338.044,693.5,25.6148
338.525,694.0,24.285
339.032,694.5,23.0951
339.558,695.0,21.946
340.085,695.5,20.8546
340.593,696.0,20.0203
341.101,696.5,19.2362
341.599,697.0,18.4408
342.104,697.5,17.6784
342.666,698.0,17.0485
343.258,698.5,16.3538
343.795,699.0,15.7114
344.291,699.5,15.1903
344.801,700.0,14.7678
345.322,700.5,14.4104
345.825,701.0,14.0452
346.321,701.5,13.6812
346.817,702.0,13.3538
347.317,702.5,13.069
347.821,703.0,12.8325
348.345,703.5,12.6133
348.8125,704.0,12.5079
349.245,704.5,12.3364
349.699,705.0,12.1219
350.189,705.5,12.1527
350.684,706.0,12.3127
351.199,706.5,12.1709
351.704,707.0,11.905
352.202,707.5,11.3967
352.709,708.0,11.0028
353.212,708.5,11.0002
353.703,709.0,10.8876
354.206,709.5,10.6346
354.724,710.0,10.4448
355.229,710.5,10.2437
355.722,711.0,10.0734
356.225,711.5,9.89712
356.74,712.0,9.74494
357.247,712.5,9.71947
357.76,713.0,9.73326
358.27,713.5,9.63468
358.765,714.0,9.53638
359.265,714.5,9.47765
359.77,715.0,9.31676
360.261,715.5,9.07164
360.776,716.0,8.75726
361.324,716.5,8.64241
361.842,717.0,8.79267
362.347,717.5,8.86073
362.843,718.0,8.82512
363.342,718.5,8.52436
363.846,719.0,8.26434
364.349,719.5,8.47998
364.84,720.0,8.5818
365.334,720.5,8.42669
365.84,721.0,8.40203
366.346,721.5,8.48389
366.89,722.0,8.51468
367.461,722.5,8.5313
367.985,723.0,8.46389
368.478,723.5,8.405
368.961,724.0,8.4631
369.455,724.5,8.3002
369.992,725.0,7.88692
370.5,725.5,7.81827
370.966,726.0,7.8481
371.449,726.5,7.73796
371.966,727.0,7.52517
372.458,727.5,7.50741
372.951,728.0,7.50056
373.383,728.5,7.33742
373.817,729.0,7.14723
374.299,729.5,6.97784
374.81,730.0,6.9072
375.311,730.5,6.81741
375.811,731.0,6.66823
376.308,731.5,6.56032
376.816,732.0,6.47566
377.326,732.5,6.34379
377.81,733.0,6.04057
378.306,733.5,5.83146
378.84,734.0,5.88986
379.334,734.5,5.64735
379.786,735.0,5.4091
380.273,735.5,5.42873
380.806,736.0,5.47948
381.314,736.5,5.56533
381.821,737.0,5.63619
382.359,737.5,5.6085
382.89,738.0,5.51535
383.403,738.5,5.33613
383.915,739.0,5.22182
384.421,739.5,5.12924
384.925,740.0,5.11042
385.446,740.5,4.9907
385.972,741.0,4.94271
386.48,741.5,4.94237
386.996,742.0,4.87267
387.479,742.5,4.76592
387.97,743.0,4.75555
388.503,743.5,4.80908
389.029,744.0,4.71724
389.512,744.5,4.60283
389.992,745.0,4.50897
390.495,745.5,4.46576
391.003,746.0,4.3661
391.578,746.5,4.35965
392.108,747.0,4.34571
392.598,747.5,4.26372
393.089,748.0,4.14972
393.597,748.5,3.99935
394.106,749.0,3.91093
394.592,749.5,3.87758
395.098,750.0,3.69951
395.594,750.5,3.55342
396.083,751.0,3.56908
396.585,751.5,3.50442
397.088,752.0,3.42846
397.564,752.5,3.33514
398.007,753.0,3.24207
398.47,753.5,3.21026
398.987,754.0,3.14354
399.515,754.5,3.04913
400.008,755.0,3.03608
400.504,755.5,3.00088
400.996,756.0,2.89669
401.488,756.5,2.86182
401.986,757.0,2.71233
402.495,757.5,2.65453
403.011,758.0,2.61208
403.509,758.5,2.48993
404.025,759.0,2.43476
404.529,759.5,2.34188
405.027,760.0,2.34332
405.552,760.5,2.30103
406.079,761.0,2.13559
406.575,761.5,2.01127
407.069,762.0,2.01901
407.593,762.5,1.96873
408.109,763.0,1.81193
408.615,763.5,1.6648
409.13,764.0,1.51998
409.639,764.5,1.55012
410.127,765.0,1.8832
410.603,765.5,2.01427
411.111,766.0,1.89272
411.594,766.5,1.84151
412.1,767.0,1.82009
412.586,767.5,1.85222
413.063,768.0,1.89625
413.594,768.5,1.87113
414.116,769.0,1.47993
414.588,769.5,1.53373
415.099,770.0,1.68671
415.592,770.5,1.36201
416.12,771.0,1.20549
416.655,771.5,1.47257
417.143,772.0,1.42674
417.637,772.5,1.04178
418.136,773.0,0.87776
418.63,773.5,0.826089
419.124,774.0,0.80975
419.618,774.5,0.819157
420.116,775.0,0.820727
420.606,775.5,0.842049
421.109,776.0,0.958159
421.638,776.5,1.01624
422.197,777.0,1.0011
422.727,777.5,1.03794
423.2,778.0,1.12508
423.693,778.5,1.16372
424.223,779.0,1.09111
424.732,779.5,0.988342
425.226,780.0,0.967063
425.73,780.5,1.0081
426.245,781.0,1.02861
426.754,781.5,1.07579
427.247,782.0,1.12331
427.726,782.5,1.20309
428.178,783.0,1.24278
428.598,783.5,1.14298
429.02,784.0,1.05622
429.526,784.5,1.1304
430.019,785.0,0.857576
430.53,785.5,0.556509
431.05,786.0,0.5409
431.538,786.5,0.55387
432.032,787.0,0.531932
432.537,787.5,0.34468
433.04,788.0,0.340478
433.545,788.5,0.437589
434.061,789.0,0.281701
434.551,789.5,0.122422
435.031,790.0,0.0512472
435.538,790.5,0.0955149
436.057,791.0,0.0733864
436.585,791.5,0.0542332
437.099,792.0,0.0562166
437.593,792.5,0.0283384
438.111,793.0,-0.0888083
438.626,793.5,-0.193726
439.148,794.0,-0.345522
439.651,794.5,-0.271735
440.179,795.0,-0.0777188
440.718,795.5,0.0745824
441.22,796.0,0.186913
441.727,796.5,0.303045
442.244,797.0,0.483341
442.748,797.5,0.559185
443.26,798.0,0.653371
443.792,798.5,0.718418
444.316,799.0,0.750437
444.823,799.5,0.587688
445.35,800.0,0.276786
445.881,800.5,0.0870904
446.354,801.0,-0.0135197
446.808,801.5,-0.094181
447.283,802.0,-0.190417
447.774,802.5,-0.144605
448.268,803.0,0.0822534
448.778,803.5,0.255953
449.281,804.0,0.138317
449.76,804.5,-0.0013981
450.246,805.0,0.110862
450.756,805.5,0.153171
451.268,806.0,0.00230114
451.767,806.5,-0.0180317
452.286,807.0,0.0400388
452.835,807.5,-0.00847174
453.359,808.0,-0.111102
453.865,808.5,0.150857
454.363,809.0,0.322327
454.866,809.5,0.15741
455.355,810.0,0.130994
455.845,810.5,0.12425
456.353,811.0,0.154714
456.842,811.5,0.201423
457.331,812.0,0.20965
457.834,812.5,0.154627
458.327,813.0,0.0180614
458.793,813.5,0.0311912
459.242,814.0,-0.0482115
459.708,814.5,-0.238902
460.205,815.0,-0.36653
460.711,815.5,-0.489221
461.234,816.0,-0.507777
461.782,816.5,-0.433968
462.318,817.0,-0.182528
462.822,817.5,-0.0199519
463.314,818.0,-0.0537565
463.82,818.5,-0.090646
464.334,819.0,-0.0537165
464.855,819.5,-0.0338267
465.36,820.0,-0.112824
465.854,820.5,-0.191776
466.361,821.0,-0.142696
466.867,821.5,-0.123184
467.371,822.0,-0.113434
467.884,822.5,-0.0759053
468.374,823.0,-0.185735
468.867,823.5,-0.196955
469.344,824.0,-0.0516204
469.826,824.5,0.133255
470.337,825.0,0.236396
470.862,825.5,0.255265
471.37,826.0,0.201215
471.859,826.5,0.0963245
472.365,827.0,0.0607376
472.869,827.5,-0.0592218
473.357,828.0,-0.0582581
473.838,828.5,0.0597489
474.324,829.0,0.0893876
474.831,829.5,0.117854
475.34,830.0,0.0888298
475.851,830.5,0.0330125
476.342,831.0,0.0905934
476.818,831.5,0.169908
477.293,832.0,0.123976
477.779,832.5,0.0531193
478.282,833.0,0.167042
478.814,833.5,0.278706
479.328,834.0,0.0569548
479.816,834.5,-0.418118
480.307,835.0,-0.755695
480.818,835.5,-0.670501
481.324,836.0,-0.469383
481.802,836.5,-0.399322
482.292,837.0,-0.162722
482.808,837.5,0.138385
483.308,838.0,0.0833546
483.783,838.5,-0.0661294
484.275,839.0,-0.138668
484.796,839.5,-0.094185
485.292,840.0,0.0172416
485.794,840.5,-0.100026
486.309,841.0,-0.214258
486.805,841.5,-0.0642862
487.286,842.0,0.0360757
487.775,842.5,0.0303087
488.291,843.0,-0.00782375
488.805,843.5,-0.0107654
489.321,844.0,0.0203542
489.831,844.5,-0.0696902
490.324,845.0,-0.0401402
490.828,845.5,-0.0321824
491.331,846.0,-0.170987
491.831,846.5,-0.126575
492.322,847.0,-0.187031
492.822,847.5,-0.258254
493.326,848.0,-0.170177
493.827,848.5,-0.069268
494.358,849.0,0.0240508
494.873,849.5,0.0448932
495.345,850.0,0.0708261
495.812,850.5,0.0621588
496.295,851.0,0.00797778
496.813,851.5,-0.0480579
497.37,852.0,0.0303419
497.888,852.5,0.0571155
498.359,853.0,-0.0866739
498.846,853.5,-0.149801
499.352,854.0,-0.12795
499.847,854.5,-0.11556
500.329,855.0,-0.054929
500.826,855.5,0.121781
501.332,856.0,0.328728
501.828,856.5,0.240943
502.349,857.0,-0.127863
502.879,857.5,-0.434659
503.36,858.0,-0.260191
503.857,858.5,0.0817758
504.374,859.0,-0.0136798
504.864,859.5,-0.174552
505.347,860.0,-0.141453
505.852,860.5,0.00423484
506.36,861.0,-0.104722
506.851,861.5,-0.331362
507.385,862.0,-0.347633
507.904,862.5,-0.295829
508.382,863.0,-0.221905
508.877,863.5,-0.105766
509.378,864.0,-0.0146403
509.885,864.5,-0.0429521
510.353,865.0,-0.0793097
510.857,865.5,-0.0864372
511.375,866.0,-0.0661001
511.872,866.5,-0.127959
512.373,867.0,-0.13793
512.87,867.5,-0.105891
513.394,868.0,-0.0373204
513.91,868.5,0.054723
514.398,869.0,0.0246744
514.895,869.5,0.0600009
515.39,870.0,0.0929413
515.911,870.5,0.0737152
516.41,871.0,0.142172
516.913,871.5,0.248266
517.429,872.0,0.431837
517.953,872.5,0.42957
518.464,873.0,0.262846
518.973,873.5,0.35964
519.479,874.0,0.394461
519.939,874.5,0.119044
520.395,875.0,0.0676763
520.879,875.5,0.0267772
521.389,876.0,-0.249878
521.903,876.5,-0.186365
522.403,877.0,0.0706949
522.914,877.5,0.0405441
523.404,878.0,0.160348
523.895,878.5,0.679839
524.406,879.0,0.340148
524.911,879.5,-0.0452156
525.436,880.0,0.145989
525.954,880.5,0.213863
526.426,881.0,0.164013
526.915,881.5,0.370276
527.41,882.0,0.792584
527.903,882.5,1.0221
528.394,883.0,0.64842
528.907,883.5,0.127176
529.428,884.0,0.184572
529.929,884.5,0.073628
530.432,885.0,-0.0219976
530.918,885.5,0.0728281
531.415,886.0,0.15784
531.911,886.5,0.129225
532.405,887.0,-0.0514502
532.922,887.5,-0.072285
533.409,888.0,-0.0218154
533.903,888.5,-0.0951489
534.393,889.0,-0.179632
534.897,889.5,-0.210775
535.392,890.0,-0.0935243
535.893,890.5,-0.118479
536.401,891.0,-0.137635
536.916,891.5,-0.166951
537.415,892.0,-0.184367
537.922,892.5,-0.137958
538.405,893.0,-0.112004
538.877,893.5,-0.0831194
539.383,894.0,-0.258229
539.897,894.5,-0.22643
540.391,895.0,-0.160044
540.899,895.5,-0.333986
541.399,896.0,-0.223752
541.89,896.5,0.207849
542.398,897.0,0.108885
542.898,897.5,-0.33546
543.41,898.0,-0.317426
543.925,898.5,-0.0506282
544.402,899.0,0.124378
544.882,899.5,0.0186992
545.375,900.0,-0.142714
545.895,900.5,0.0447381
546.395,901.0,0.264938
546.887,901.5,-0.0345813
547.406,902.0,-0.221163
547.913,902.5,-0.0987855
548.406,903.0,0.32335
548.923,903.5,0.618072
549.424,904.0,0.2635
549.91,904.5,0.118345
550.399,905.0,0.139493
550.892,905.5,0.0730141
551.402,906.0,0.00787242
551.917,906.5,0.124566
552.421,907.0,0.586712
552.918,907.5,0.438857
553.407,908.0,0.0744361
553.888,908.5,0.156142
554.396,909.0,0.219876
554.91,909.5,0.0566872
555.414,910.0,-0.199422
555.913,910.5,-0.0451179
556.367,911.0,0.131637
556.802,911.5,0.0583143
557.278,912.0,-0.072484
557.794,912.5,-0.170852
558.302,913.0,-0.183926
558.816,913.5,-0.161137
559.32,914.0,-0.0352135
559.812,914.5,0.0532431
560.32,915.0,-0.21163
560.849,915.5,-0.532961
561.357,916.0,-0.642814
561.871,916.5,-0.479196
562.478,917.0,0.227834
563.085,917.5,0.49248
563.592,918.0,0.0146644
564.111,918.5,0.160667
564.601,919.0,0.279993
565.075,919.5,0.00125575
565.573,920.0,0.0763333
566.078,920.5,0.317205
566.562,921.0,0.146823
567.073,921.5,-0.402438
567.578,922.0,-0.30647
568.078,922.5,-0.071521
568.512,923.0,-0.030433
568.951,923.5,0.0434109
569.436,924.0,0.0481125
569.937,924.5,0.400335
570.449,925.0,0.514018
570.976,925.5,0.254486
571.453,926.0,0.26876
571.948,926.5,0.603992
572.446,927.0,0.63585
572.955,927.5,0.144093
573.466,928.0,-0.237664
573.978,928.5,-0.312964
574.471,929.0,-0.131241
574.934,929.5,-0.0409997
575.416,930.0,0.0186899
575.927,930.5,-0.120635
576.407,931.0,-0.316838
576.915,931.5,-0.318188
577.416,932.0,-0.271959
577.918,932.5,-0.0351128
578.443,933.0,-0.00575641
578.964,933.5,-0.111514
579.483,934.0,0.0148297
579.983,934.5,-0.118575
580.478,935.0,0.0555179
580.954,935.5,0.400263
581.433,936.0,0.484147
581.941,936.5,0.282496
582.456,937.0,0.621091
582.973,937.5,0.694363
583.488,938.0,0.214539
583.988,938.5,0.312445
584.492,939.0,0.123072
584.987,939.5,0.0855764
585.482,940.0,0.141283
585.987,940.5,0.0992198
586.504,941.0,0.291236
587.06,941.5,0.473203
587.582,942.0,0.504242
588.065,942.5,0.510591
588.54,943.0,0.476974
589.034,943.5,0.204906
589.548,944.0,-0.000452283
590.034,944.5,-0.231137
590.535,945.0,-0.173283
591.054,945.5,0.212044
591.542,946.0,-0.0406998
592.039,946.5,-0.38626
592.566,947.0,-0.186585
593.054,947.5,0.0332602
593.525,948.0,-0.20779
594.03,948.5,-0.596859
594.493,949.0,-0.535763
594.975,949.5,-0.599429
595.498,950.0,-0.286275
595.958,950.5,-0.0864265
596.421,951.0,-0.166806
596.927,951.5,-0.146198
597.446,952.0,-0.0059562
597.951,952.5,0.0748575
598.471,953.0,-0.0878675
599.012,953.5,-0.0362179
599.528,954.0,0.0676642
600.012,954.5,0.131558
600.494,955.0,0.0991912
600.99,955.5,0.360936
601.503,956.0,-0.0750444
602.014,956.5,-0.673411
602.516,957.0,-0.615124
603.002,957.5,-0.473849
603.504,958.0,-0.336761
604.013,958.5,-0.042818
604.513,959.0,0.0409102
605.028,959.5,0.193907
605.502,960.0,0.502107
605.999,960.5,0.445456
606.51,961.0,0.135255
607.013,961.5,0.134742
607.504,962.0,0.264427
607.987,962.5,-0.0742569
608.478,963.0,-0.0191756
608.985,963.5,0.38198
609.484,964.0,0.21994
609.983,964.5,-0.119441
610.476,965.0,-0.0924832
610.997,965.5,-0.0124219
611.51,966.0,0.23138
611.997,966.5,0.168462
612.482,967.0,-0.0771514
612.985,967.5,-0.00758292
613.487,968.0,-0.0291231
613.985,968.5,0.0995466
614.473,969.0,0.0933302
614.961,969.5,0.127927
615.465,970.0,0.083684
615.991,970.5,-0.144349
616.493,971.0,-0.00466379
617.003,971.5,-0.12549
617.448,972.0,-0.116811
617.903,972.5,-0.0684324
618.396,973.0,-0.128365
618.89,973.5,-0.0592522
619.409,974.0,-0.431467
619.948,974.5,-0.765985
620.429,975.0,-0.303476
620.894,975.5,0.225411
621.373,976.0,0.282694
621.873,976.5,-0.112802
622.381,977.0,-0.277122
622.899,977.5,-0.177526
623.39,978.0,-0.0890496
623.861,978.5,-0.2205
624.356,979.0,-0.169356
624.854,979.5,0.180333
625.363,980.0,0.211171
625.879,980.5,0.017533
626.386,981.0,-0.127551
626.889,981.5,-0.0962899
627.392,982.0,0.018674
627.915,982.5,0.200751
628.413,983.0,0.0656984
628.919,983.5,-0.470204
629.425,984.0,-0.494443
629.877,984.5,-0.367451
630.356,985.0,-0.276325
630.869,985.5,0.058768
631.382,986.0,-0.156625
631.886,986.5,-0.160402
632.364,987.0,0.181257
632.845,987.5,0.0463354
633.329,988.0,0.123246
633.813,988.5,0.157941
634.302,989.0,-0.100901