File: Wood/Calibration_Data/UDRI/UDRI_Wood_MCC_N2_60K_R2.csv
Time (s),Temperature (K),HRR (W/g)
45.8406,397.5,0.21
46.2939,398,0.13
46.7537,398.5,0.04
47.2085,399,0.00
47.663,399.5,-0.01
48.1298,400,-0.04
48.605,400.5,-0.10
49.0505,401,-0.15
49.501,401.5,-0.16
49.9951,402,-0.13
50.475,402.5,-0.04
50.9165,403,0.07
51.3534,403.5,0.13
51.8091,404,0.13
52.2706,404.5,0.14
52.7252,405,0.14
53.1786,405.5,0.13
53.6427,406,0.11
54.1161,406.5,0.04
54.5759,407,-0.02
55.0501,407.5,-0.07
55.5221,408,-0.21
55.9834,408.5,-0.34
56.4191,409,-0.45
56.8589,409.5,-0.49
57.3097,410,-0.50
57.753,410.5,-0.51
58.1967,411,-0.44
58.6581,411.5,-0.28
59.1316,412,-0.19
59.6005,412.5,-0.18
60.0539,413,-0.21
60.5115,413.5,-0.32
60.9904,414,-0.36
61.452,414.5,-0.37
61.9299,415,-0.41
62.4641,415.5,-0.41
62.9875,416,-0.43
63.4436,416.5,-0.41
63.9236,417,-0.32
64.3913,417.5,-0.28
64.854,418,-0.30
65.3208,418.5,-0.26
65.7983,419,-0.19
66.2766,419.5,-0.12
66.7608,420,0.00
67.2481,420.5,0.23
67.7285,421,0.51
68.1932,421.5,0.70
68.6443,422,0.77
69.106,422.5,0.72
69.5745,423,0.66
70.0396,423.5,0.65
70.5,424,0.58
70.997,424.5,0.47
71.4535,425,0.37
71.9326,425.5,0.36
72.3923,426,0.38
72.8505,426.5,0.39
73.3126,427,0.40
73.7871,427.5,0.37
74.2341,428,0.33
74.6569,428.5,0.32
75.0962,429,0.34
75.5784,429.5,0.35
76.0628,430,0.38
76.5125,430.5,0.40
76.9942,431,0.38
77.4643,431.5,0.38
77.9392,432,0.37
78.4334,432.5,0.30
78.9237,433,0.19
79.3944,433.5,0.12
79.8651,434,0.10
80.3374,434.5,0.09
80.8178,435,0.13
81.2927,435.5,0.21
81.7652,436,0.31
82.253,436.5,0.45
82.7275,437,0.58
83.1791,437.5,0.68
83.6476,438,0.75
84.1403,438.5,0.75
84.6171,439,0.72
85.1163,439.5,0.73
85.6238,440,0.72
86.1139,440.5,0.66
86.5771,441,0.60
87.0446,441.5,0.58
87.5397,442,0.66
88.0226,442.5,0.65
88.4943,443,0.61
88.9608,443.5,0.69
89.4337,444,0.82
89.9034,444.5,1.04
90.3795,445,1.24
90.8667,445.5,1.40
91.3377,446,1.53
91.8066,446.5,1.67
92.3152,447,1.78
92.8479,447.5,1.82
93.3486,448,1.85
93.8292,448.5,1.92
94.3159,449,1.92
94.8027,449.5,1.90
95.2803,450,1.96
95.7702,450.5,2.04
96.2552,451,2.08
96.7189,451.5,2.14
97.1849,452,2.27
97.6717,452.5,2.42
98.1795,453,2.48
98.6673,453.5,2.58
99.1056,454,2.71
99.5497,454.5,2.80
100.028,455,2.82
100.518,455.5,2.83
101.003,456,2.97
101.479,456.5,3.03
101.981,457,3.01
102.474,457.5,3.09
102.949,458,3.10
103.423,458.5,3.14
103.898,459,3.24
104.375,459.5,3.36
104.897,460,3.48
105.395,460.5,3.52
105.858,461,3.64
106.336,461.5,3.84
106.839,462,4.09
107.334,462.5,4.31
107.826,463,4.36
108.31,463.5,4.47
108.799,464,4.66
109.289,464.5,4.71
109.787,465,4.64
110.278,465.5,4.60
110.746,466,4.67
111.199,466.5,4.75
111.645,467,4.78
112.108,467.5,4.84
112.599,468,5.08
113.099,468.5,5.35
113.567,469,5.45
114.064,469.5,5.56
114.596,470,5.72
115.095,470.5,5.75
115.579,471,5.78
116.073,471.5,5.88
116.58,472,5.96
117.134,472.5,6.17
117.65,473,6.42
118.157,473.5,6.66
118.648,474,6.86
119.118,474.5,7.04
119.611,475,7.26
120.132,475.5,7.49
120.625,476,7.74
121.085,476.5,7.94
121.576,477,8.16
122.099,477.5,8.32
122.597,478,8.38
123.075,478.5,8.44
123.529,479,8.52
123.984,479.5,8.60
124.468,480,8.79
124.952,480.5,8.96
125.456,481,9.04
125.924,481.5,9.10
126.393,482,9.22
126.881,482.5,9.32
127.347,483,9.44
127.829,483.5,9.57
128.33,484,9.65
128.839,484.5,9.82
129.375,485,10.01
129.906,485.5,10.19
130.408,486,10.40
130.888,486.5,10.56
131.37,487,10.75
131.878,487.5,10.92
132.411,488,11.03
132.937,488.5,11.13
133.399,489,11.25
133.87,489.5,11.41
134.369,490,11.53
134.871,490.5,11.62
135.344,491,11.71
135.816,491.5,11.80
136.306,492,11.90
136.788,492.5,11.96
137.27,493,12.04
137.777,493.5,12.15
138.279,494,12.21
138.775,494.5,12.19
139.267,495,12.13
139.756,495.5,12.05
140.243,496,11.96
140.739,496.5,11.87
141.266,497,11.74
141.805,497.5,11.69
142.337,498,11.72
142.831,498.5,11.73
143.313,499,11.82
143.809,499.5,11.90
144.328,500,11.90
144.853,500.5,11.85
145.345,501,11.81
145.825,501.5,11.79
146.336,502,11.74
146.855,502.5,11.69
147.367,503,11.72
147.865,503.5,11.79
148.346,504,11.88
148.819,504.5,11.91
149.31,505,11.85
149.827,505.5,11.76
150.317,506,11.57
150.783,506.5,11.39
151.257,507,11.21
151.753,507.5,11.02
152.262,508,10.90
152.761,508.5,10.76
153.25,509,10.56
153.71,509.5,10.36
154.133,510,10.17
154.546,510.5,10.03
155.007,511,9.93
155.518,511.5,9.82
156.027,512,9.80
156.506,512.5,9.83
157.025,513,9.85
157.51,513.5,9.76
157.973,514,9.75
158.49,514.5,9.67
159.012,515,9.56
159.514,515.5,9.55
160.098,516,9.51
160.642,516.5,9.49
161.135,517,9.56
161.637,517.5,9.65
162.164,518,9.77
162.709,518.5,9.95
163.233,519,10.07
163.722,519.5,10.21
164.195,520,10.36
164.674,520.5,10.48
165.188,521,10.70
165.729,521.5,11.05
166.271,522,11.38
166.769,522.5,11.57
167.252,523,11.66
167.752,523.5,11.77
168.253,524,11.89
168.758,524.5,11.95
169.259,525,11.99
169.755,525.5,12.01
170.267,526,12.01
170.774,526.5,11.99
171.269,527,12.05
171.744,527.5,12.13
172.188,528,12.16
172.615,528.5,12.18
173.055,529,12.27
173.528,529.5,12.48
174.059,530,12.62
174.559,530.5,12.69
175.038,531,12.80
175.517,531.5,12.90
176.023,532,13.03
176.522,532.5,13.08
177.019,533,13.20
177.545,533.5,13.26
178.066,534,13.19
178.569,534.5,13.23
179.111,535,13.40
179.627,535.5,13.66
180.131,536,13.86
180.637,536.5,14.12
181.142,537,14.44
181.656,537.5,14.71
182.167,538,14.98
182.664,538.5,15.18
183.155,539,15.41
183.672,539.5,15.75
184.203,540,16.00
184.739,540.5,16.18
185.252,541,16.45
185.755,541.5,16.69
186.256,542,16.83
186.734,542.5,16.94
187.217,543,17.03
187.725,543.5,17.19
188.227,544,17.36
188.719,544.5,17.57
189.224,545,17.87
189.738,545.5,18.07
190.212,546,18.20
190.643,546.5,18.32
191.086,547,18.45
191.59,547.5,18.64
192.101,548,18.78
192.578,548.5,18.90
193.072,549,19.10
193.592,549.5,19.34
194.109,550,19.48
194.621,550.5,19.59
195.108,551,19.76
195.618,551.5,20.00
196.141,552,20.34
196.669,552.5,20.68
197.187,553,20.99
197.663,553.5,21.25
198.162,554,21.51
198.68,554.5,21.83
199.203,555,22.16
199.701,555.5,22.43
200.186,556,22.63
200.683,556.5,22.81
201.175,557,23.00
201.669,557.5,23.23
202.182,558,23.46
202.665,558.5,23.64
203.124,559,23.79
203.607,559.5,23.97
204.091,560,24.20
204.573,560.5,24.45
205.089,561,24.76
205.604,561.5,25.11
206.114,562,25.44
206.612,562.5,25.72
207.113,563,25.92
207.623,563.5,26.18
208.13,564,26.41
208.668,564.5,26.66
209.23,565,26.93
209.748,565.5,27.15
210.231,566,27.38
210.717,566.5,27.65
211.227,567,27.92
211.745,567.5,28.22
212.255,568,28.56
212.761,568.5,28.85
213.275,569,29.21
213.771,569.5,29.54
214.269,570,29.81
214.77,570.5,30.09
215.259,571,30.37
215.772,571.5,30.70
216.269,572,30.94
216.744,572.5,31.09
217.248,573,31.29
217.764,573.5,31.50
218.244,574,31.69
218.731,574.5,31.93
219.266,575,32.22
219.776,575.5,32.49
220.256,576,32.75
220.737,576.5,32.98
221.222,577,33.15
221.718,577.5,33.39
222.218,578,33.73
222.712,578.5,34.00
223.218,579,34.18
223.741,579.5,34.40
224.266,580,34.68
224.792,580.5,34.99
225.29,581,35.32
225.79,581.5,35.65
226.307,582,36.02
226.822,582.5,36.40
227.352,583,36.74
227.863,583.5,37.03
228.364,584,37.35
228.863,584.5,37.66
229.345,585,37.98
229.84,585.5,38.34
230.358,586,38.70
230.863,586.5,38.99
231.345,587,39.28
231.838,587.5,39.60
232.338,588,39.99
232.833,588.5,40.35
233.318,589,40.69
233.812,589.5,41.05
234.321,590,41.46
234.825,590.5,41.90
235.298,591,42.25
235.775,591.5,42.54
236.283,592,42.83
236.806,592.5,43.21
237.312,593,43.54
237.82,593.5,43.83
238.332,594,44.15
238.822,594.5,44.40
239.274,595,44.67
239.726,595.5,45.02
240.207,596,45.41
240.693,596.5,45.74
241.172,597,46.09
241.686,597.5,46.54
242.21,598,47.01
242.692,598.5,47.42
243.201,599,47.85
243.729,599.5,48.34
244.234,600,48.78
244.745,600.5,49.26
245.304,601,49.79
245.878,601.5,50.30
246.39,602,50.72
246.887,602.5,51.17
247.395,603,51.68
247.921,603.5,52.19
248.437,604,52.64
248.974,604.5,53.10
249.469,605,53.66
249.955,605.5,54.22
250.45,606,54.74
251.013,606.5,55.31
251.498,607,55.77
251.925,607.5,56.19
252.412,608,56.56
252.929,608.5,57.00
253.418,609,57.53
253.919,609.5,58.12
254.406,610,58.64
254.907,610.5,59.26
255.404,611,59.88
255.898,611.5,60.39
256.398,612,60.87
256.923,612.5,61.39
257.479,613,61.92
258.016,613.5,62.35
258.526,614,62.75
259.024,614.5,63.26
259.532,615,63.80
260.032,615.5,64.33
260.518,616,64.89
261.032,616.5,65.50
261.521,617,66.11
261.987,617.5,66.70
262.479,618,67.28
263.001,618.5,67.83
263.527,619,68.47
264.011,619.5,69.02
264.487,620,69.48
264.99,620.5,69.99
265.516,621,70.55
266.018,621.5,71.03
266.514,622,71.46
267.035,622.5,72.04
267.517,623,72.59
267.974,623.5,72.99
268.441,624,73.37
268.953,624.5,73.81
269.418,625,74.17
269.85,625.5,74.45
270.297,626,74.78
270.773,626.5,75.21
271.278,627,75.69
271.798,627.5,76.17
272.333,628,76.77
272.857,628.5,77.32
273.348,629,77.78
273.852,629.5,78.24
274.354,630,78.70
274.865,630.5,79.16
275.425,631,79.59
276.01,631.5,80.08
276.566,632,80.58
277.079,632.5,81.03
277.57,633,81.43
278.057,633.5,81.91
278.571,634,82.25
279.101,634.5,82.73
279.592,635,83.18
280.058,635.5,83.49
280.544,636,83.90
281.049,636.5,84.39
281.556,637,84.79
282.028,637.5,85.13
282.484,638,85.51
282.985,638.5,85.93
283.481,639,86.48
283.971,639.5,87.00
284.512,640,87.56
285.037,640.5,88.11
285.53,641,88.70
286.038,641.5,89.35
286.535,642,89.90
287.051,642.5,90.52
287.573,643,91.11
288.116,643.5,91.72
288.645,644,92.37
289.151,644.5,92.95
289.663,645,93.48
290.18,645.5,94.08
290.672,646,94.69
291.158,646.5,95.30
291.646,647,95.98
292.137,647.5,96.71
292.639,648,97.46
293.154,648.5,98.30
293.653,649,99.16
294.127,649.5,99.97
294.609,650,100.67
295.118,650.5,101.38
295.633,651,102.27
296.131,651.5,103.10
296.621,652,103.89
297.132,652.5,104.65
297.644,653,105.43
298.145,653.5,106.29
298.637,654,107.17
299.153,654.5,108.10
299.666,655,109.11
300.176,655.5,109.96
300.682,656,110.71
301.188,656.5,111.53
301.709,657,112.43
302.22,657.5,113.37
302.715,658,114.28
303.199,658.5,115.10
303.695,659,115.91
304.205,659.5,116.79
304.704,660,117.63
305.201,660.5,118.45
305.711,661,119.25
306.217,661.5,119.99
306.702,662,120.68
307.194,662.5,121.35
307.693,663,121.98
308.189,663.5,122.64
308.698,664,123.35
309.205,664.5,123.97
309.698,665,124.46
310.195,665.5,124.85
310.696,666,125.21
311.19,666.5,125.61
311.701,667,125.96
312.245,667.5,126.15
312.764,668,126.23
313.274,668.5,126.23
313.783,669,126.10
314.275,669.5,125.78
314.773,670,125.27
315.273,670.5,124.73
315.774,671,124.15
316.286,671.5,123.41
316.799,672,122.56
317.3,672.5,121.65
317.793,673,120.62
318.258,673.5,119.52
318.693,674,118.38
319.139,674.5,117.11
319.643,675,115.52
320.153,675.5,113.84
320.653,676,112.10
321.148,676.5,110.23
321.651,677,108.15
322.158,677.5,105.96
322.643,678,103.70
323.136,678.5,101.33
323.642,679,98.78
324.165,679.5,96.03
324.696,680,93.15
325.201,680.5,90.30
325.687,681,87.57
326.177,681.5,84.78
326.667,682,81.82
327.161,682.5,78.75
327.649,683,75.84
328.124,683.5,73.15
328.607,684,70.20
329.104,684.5,67.00
329.607,685,64.06
330.128,685.5,61.04
330.637,686,58.22
331.145,686.5,55.50
331.63,687,52.82
332.115,687.5,50.19
332.61,688,47.63
333.119,688.5,45.07
333.644,689,42.53
334.156,689.5,40.12
334.643,690,37.96
335.137,690.5,35.94
335.638,691,33.98
336.147,691.5,32.00
336.633,692,30.20
337.069,692.5,28.60
337.529,693,27.05
338.044,693.5,25.61
338.525,694,24.28
339.032,694.5,23.10
339.558,695,21.95
340.085,695.5,20.85
340.593,696,20.02
341.101,696.5,19.24
341.599,697,18.44
342.104,697.5,17.68
342.666,698,17.05
343.258,698.5,16.35
343.795,699,15.71
344.291,699.5,15.19
344.801,700,14.77
345.322,700.5,14.41
345.825,701,14.05
346.321,701.5,13.68
346.817,702,13.35
347.317,702.5,13.07
347.821,703,12.83
348.345,703.5,12.61
348.8125,704,12.51
349.245,704.5,12.34
349.699,705,12.12
350.189,705.5,12.15
350.684,706,12.31
351.199,706.5,12.17
351.704,707,11.90
352.202,707.5,11.40
352.709,708,11.00
353.212,708.5,11.00
353.703,709,10.89
354.206,709.5,10.63
354.724,710,10.44
355.229,710.5,10.24
355.722,711,10.07
356.225,711.5,9.90
356.74,712,9.74
357.247,712.5,9.72
357.76,713,9.73
358.27,713.5,9.63
358.765,714,9.54
359.265,714.5,9.48
359.77,715,9.32
360.261,715.5,9.07
360.776,716,8.76
361.324,716.5,8.64
361.842,717,8.79
362.347,717.5,8.86
362.843,718,8.83
363.342,718.5,8.52
363.846,719,8.26
364.349,719.5,8.48
364.84,720,8.58
365.334,720.5,8.43
365.84,721,8.40
366.346,721.5,8.48
366.89,722,8.51
367.461,722.5,8.53
367.985,723,8.46
368.478,723.5,8.41
368.961,724,8.46
369.455,724.5,8.30
369.992,725,7.89
370.5,725.5,7.82
370.966,726,7.85
371.449,726.5,7.74
371.966,727,7.53
372.458,727.5,7.51
372.951,728,7.50
373.383,728.5,7.34
373.817,729,7.15
374.299,729.5,6.98
374.81,730,6.91
375.311,730.5,6.82
375.811,731,6.67
376.308,731.5,6.56
376.816,732,6.48
377.326,732.5,6.34
377.81,733,6.04
378.306,733.5,5.83
378.84,734,5.89
379.334,734.5,5.65
379.786,735,5.41
380.273,735.5,5.43
380.806,736,5.48
381.314,736.5,5.57
381.821,737,5.64
382.359,737.5,5.61
382.89,738,5.52
383.403,738.5,5.34
383.915,739,5.22
384.421,739.5,5.13
384.925,740,5.11
385.446,740.5,4.99
385.972,741,4.94
386.48,741.5,4.94
386.996,742,4.87
387.479,742.5,4.77
387.97,743,4.76
388.503,743.5,4.81
389.029,744,4.72
389.512,744.5,4.60
389.992,745,4.51
390.495,745.5,4.47
391.003,746,4.37
391.578,746.5,4.36
392.108,747,4.35
392.598,747.5,4.26
393.089,748,4.15
393.597,748.5,4.00
394.106,749,3.91
394.592,749.5,3.88
395.098,750,3.70
395.594,750.5,3.55
396.083,751,3.57
396.585,751.5,3.50
397.088,752,3.43
397.564,752.5,3.34
398.007,753,3.24
398.47,753.5,3.21
398.987,754,3.14
399.515,754.5,3.05
400.008,755,3.04
400.504,755.5,3.00
400.996,756,2.90
401.488,756.5,2.86
401.986,757,2.71
402.495,757.5,2.65
403.011,758,2.61
403.509,758.5,2.49
404.025,759,2.43
404.529,759.5,2.34
405.027,760,2.34
405.552,760.5,2.30
406.079,761,2.14
406.575,761.5,2.01
407.069,762,2.02
407.593,762.5,1.97
408.109,763,1.81
408.615,763.5,1.66
409.13,764,1.52
409.639,764.5,1.55
410.127,765,1.88
410.603,765.5,2.01
411.111,766,1.89
411.594,766.5,1.84
412.1,767,1.82
412.586,767.5,1.85
413.063,768,1.90
413.594,768.5,1.87
414.116,769,1.48
414.588,769.5,1.53
415.099,770,1.69
415.592,770.5,1.36
416.12,771,1.21
416.655,771.5,1.47
417.143,772,1.43
417.637,772.5,1.04
418.136,773,0.88
418.63,773.5,0.83
419.124,774,0.81
419.618,774.5,0.82
420.116,775,0.82
420.606,775.5,0.84
421.109,776,0.96
421.638,776.5,1.02
422.197,777,1.00
422.727,777.5,1.04
423.2,778,1.13
423.693,778.5,1.16
424.223,779,1.09
424.732,779.5,0.99
425.226,780,0.97
425.73,780.5,1.01
426.245,781,1.03
426.754,781.5,1.08
427.247,782,1.12
427.726,782.5,1.20
428.178,783,1.24
428.598,783.5,1.14
429.02,784,1.06
429.526,784.5,1.13
430.019,785,0.86
430.53,785.5,0.56
431.05,786,0.54
431.538,786.5,0.55
432.032,787,0.53
432.537,787.5,0.34
433.04,788,0.34
433.545,788.5,0.44
434.061,789,0.28
434.551,789.5,0.12
435.031,790,0.05
435.538,790.5,0.10
436.057,791,0.07
436.585,791.5,0.05
437.099,792,0.06
437.593,792.5,0.03
438.111,793,-0.09
438.626,793.5,-0.19
439.148,794,-0.35
439.651,794.5,-0.27
440.179,795,-0.08
440.718,795.5,0.07
441.22,796,0.19
441.727,796.5,0.30
442.244,797,0.48
442.748,797.5,0.56
443.26,798,0.65
443.792,798.5,0.72
444.316,799,0.75
444.823,799.5,0.59
445.35,800,0.28
445.881,800.5,0.09
446.354,801,-0.01
446.808,801.5,-0.09
447.283,802,-0.19
447.774,802.5,-0.14
448.268,803,0.08
448.778,803.5,0.26
449.281,804,0.14
449.76,804.5,0.00
450.246,805,0.11
450.756,805.5,0.15
451.268,806,0.00
451.767,806.5,-0.02
452.286,807,0.04
452.835,807.5,-0.01
453.359,808,-0.11
453.865,808.5,0.15
454.363,809,0.32
454.866,809.5,0.16
455.355,810,0.13
455.845,810.5,0.12
456.353,811,0.15
456.842,811.5,0.20
457.331,812,0.21
457.834,812.5,0.15
458.327,813,0.02
458.793,813.5,0.03
459.242,814,-0.05
459.708,814.5,-0.24
460.205,815,-0.37
460.711,815.5,-0.49
461.234,816,-0.51
461.782,816.5,-0.43
462.318,817,-0.18
462.822,817.5,-0.02
463.314,818,-0.05
463.82,818.5,-0.09
464.334,819,-0.05
464.855,819.5,-0.03
465.36,820,-0.11
465.854,820.5,-0.19
466.361,821,-0.14
466.867,821.5,-0.12
467.371,822,-0.11
467.884,822.5,-0.08
468.374,823,-0.19
468.867,823.5,-0.20
469.344,824,-0.05
469.826,824.5,0.13
470.337,825,0.24
470.862,825.5,0.26
471.37,826,0.20
471.859,826.5,0.10
472.365,827,0.06
472.869,827.5,-0.06
473.357,828,-0.06
473.838,828.5,0.06
474.324,829,0.09
474.831,829.5,0.12
475.34,830,0.09
475.851,830.5,0.03
476.342,831,0.09
476.818,831.5,0.17
477.293,832,0.12
477.779,832.5,0.05
478.282,833,0.17
478.814,833.5,0.28
479.328,834,0.06
479.816,834.5,-0.42
480.307,835,-0.76
480.818,835.5,-0.67
481.324,836,-0.47
481.802,836.5,-0.40
482.292,837,-0.16
482.808,837.5,0.14
483.308,838,0.08
483.783,838.5,-0.07
484.275,839,-0.14
484.796,839.5,-0.09
485.292,840,0.02
485.794,840.5,-0.10
486.309,841,-0.21
486.805,841.5,-0.06
487.286,842,0.04
487.775,842.5,0.03
488.291,843,-0.01
488.805,843.5,-0.01
489.321,844,0.02
489.831,844.5,-0.07
490.324,845,-0.04
490.828,845.5,-0.03
491.331,846,-0.17
491.831,846.5,-0.13
492.322,847,-0.19
492.822,847.5,-0.26
493.326,848,-0.17
493.827,848.5,-0.07
494.358,849,0.02
494.873,849.5,0.04
495.345,850,0.07
495.812,850.5,0.06
496.295,851,0.01
496.813,851.5,-0.05
497.37,852,0.03
497.888,852.5,0.06
498.359,853,-0.09
498.846,853.5,-0.15
499.352,854,-0.13
499.847,854.5,-0.12
500.329,855,-0.05
500.826,855.5,0.12
501.332,856,0.33
501.828,856.5,0.24
502.349,857,-0.13
502.879,857.5,-0.43
503.36,858,-0.26
503.857,858.5,0.08
504.374,859,-0.01
504.864,859.5,-0.17
505.347,860,-0.14
505.852,860.5,0.00
506.36,861,-0.10
506.851,861.5,-0.33
507.385,862,-0.35
507.904,862.5,-0.30
508.382,863,-0.22
508.877,863.5,-0.11
509.378,864,-0.01
509.885,864.5,-0.04
510.353,865,-0.08
510.857,865.5,-0.09
511.375,866,-0.07
511.872,866.5,-0.13
512.373,867,-0.14
512.87,867.5,-0.11
513.394,868,-0.04
513.91,868.5,0.05
514.398,869,0.02
514.895,869.5,0.06
515.39,870,0.09
515.911,870.5,0.07
516.41,871,0.14
516.913,871.5,0.25
517.429,872,0.43
517.953,872.5,0.43
518.464,873,0.26
518.973,873.5,0.36
519.479,874,0.39
519.939,874.5,0.12
520.395,875,0.07
520.879,875.5,0.03
521.389,876,-0.25
521.903,876.5,-0.19
522.403,877,0.07
522.914,877.5,0.04
523.404,878,0.16
523.895,878.5,0.68
524.406,879,0.34
524.911,879.5,-0.05
525.436,880,0.15
525.954,880.5,0.21
526.426,881,0.16
526.915,881.5,0.37
527.41,882,0.79
527.903,882.5,1.02
528.394,883,0.65
528.907,883.5,0.13
529.428,884,0.18
529.929,884.5,0.07
530.432,885,-0.02
530.918,885.5,0.07
531.415,886,0.16
531.911,886.5,0.13
532.405,887,-0.05
532.922,887.5,-0.07
533.409,888,-0.02
533.903,888.5,-0.10
534.393,889,-0.18
534.897,889.5,-0.21
535.392,890,-0.09
535.893,890.5,-0.12
536.401,891,-0.14
536.916,891.5,-0.17
537.415,892,-0.18
537.922,892.5,-0.14
538.405,893,-0.11
538.877,893.5,-0.08
539.383,894,-0.26
539.897,894.5,-0.23
540.391,895,-0.16
540.899,895.5,-0.33
541.399,896,-0.22
541.89,896.5,0.21
542.398,897,0.11
542.898,897.5,-0.34
543.41,898,-0.32
543.925,898.5,-0.05
544.402,899,0.12
544.882,899.5,0.02
545.375,900,-0.14
545.895,900.5,0.04
546.395,901,0.26
546.887,901.5,-0.03
547.406,902,-0.22
547.913,902.5,-0.10
548.406,903,0.32
548.923,903.5,0.62
549.424,904,0.26
549.91,904.5,0.12
550.399,905,0.14
550.892,905.5,0.07
551.402,906,0.01
551.917,906.5,0.12
552.421,907,0.59
552.918,907.5,0.44
553.407,908,0.07
553.888,908.5,0.16
554.396,909,0.22
554.91,909.5,0.06
555.414,910,-0.20
555.913,910.5,-0.05
556.367,911,0.13
556.802,911.5,0.06
557.278,912,-0.07
557.794,912.5,-0.17
558.302,913,-0.18
558.816,913.5,-0.16
559.32,914,-0.04
559.812,914.5,0.05
560.32,915,-0.21
560.849,915.5,-0.53
561.357,916,-0.64
561.871,916.5,-0.48
562.478,917,0.23
563.085,917.5,0.49
563.592,918,0.01
564.111,918.5,0.16
564.601,919,0.28
565.075,919.5,0.00
565.573,920,0.08
566.078,920.5,0.32
566.562,921,0.15
567.073,921.5,-0.40
567.578,922,-0.31
568.078,922.5,-0.07
568.512,923,-0.03
568.951,923.5,0.04
569.436,924,0.05
569.937,924.5,0.40
570.449,925,0.51
570.976,925.5,0.25
571.453,926,0.27
571.948,926.5,0.60
572.446,927,0.64
572.955,927.5,0.14
573.466,928,-0.24
573.978,928.5,-0.31
574.471,929,-0.13
574.934,929.5,-0.04
575.416,930,0.02
575.927,930.5,-0.12
576.407,931,-0.32
576.915,931.5,-0.32
577.416,932,-0.27
577.918,932.5,-0.04
578.443,933,-0.01
578.964,933.5,-0.11
579.483,934,0.01
579.983,934.5,-0.12
580.478,935,0.06
580.954,935.5,0.40
581.433,936,0.48
581.941,936.5,0.28
582.456,937,0.62
582.973,937.5,0.69
583.488,938,0.21
583.988,938.5,0.31
584.492,939,0.12
584.987,939.5,0.09
585.482,940,0.14
585.987,940.5,0.10
586.504,941,0.29
587.06,941.5,0.47
587.582,942,0.50
588.065,942.5,0.51
588.54,943,0.48
589.034,943.5,0.20
589.548,944,0.00
590.034,944.5,-0.23
590.535,945,-0.17
591.054,945.5,0.21
591.542,946,-0.04
592.039,946.5,-0.39
592.566,947,-0.19
593.054,947.5,0.03
593.525,948,-0.21
594.03,948.5,-0.60
594.493,949,-0.54
594.975,949.5,-0.60
595.498,950,-0.29
595.958,950.5,-0.09
596.421,951,-0.17
596.927,951.5,-0.15
597.446,952,-0.01
597.951,952.5,0.07
598.471,953,-0.09
599.012,953.5,-0.04
599.528,954,0.07
600.012,954.5,0.13
600.494,955,0.10
600.99,955.5,0.36
601.503,956,-0.08
602.014,956.5,-0.67
602.516,957,-0.62
603.002,957.5,-0.47
603.504,958,-0.34
604.013,958.5,-0.04
604.513,959,0.04
605.028,959.5,0.19
605.502,960,0.50
605.999,960.5,0.45
606.51,961,0.14
607.013,961.5,0.13
607.504,962,0.26
607.987,962.5,-0.07
608.478,963,-0.02
608.985,963.5,0.38
609.484,964,0.22
609.983,964.5,-0.12
610.476,965,-0.09
610.997,965.5,-0.01
611.51,966,0.23
611.997,966.5,0.17
612.482,967,-0.08
612.985,967.5,-0.01
613.487,968,-0.03
613.985,968.5,0.10
614.473,969,0.09
614.961,969.5,0.13
615.465,970,0.08
615.991,970.5,-0.14
616.493,971,0.00
617.003,971.5,-0.13
617.448,972,-0.12
617.903,972.5,-0.07
618.396,973,-0.13
618.89,973.5,-0.06
619.409,974,-0.43
619.948,974.5,-0.77
620.429,975,-0.30
620.894,975.5,0.23
621.373,976,0.28
621.873,976.5,-0.11
622.381,977,-0.28
622.899,977.5,-0.18
623.39,978,-0.09
623.861,978.5,-0.22
624.356,979,-0.17
624.854,979.5,0.18
625.363,980,0.21
625.879,980.5,0.02
626.386,981,-0.13
626.889,981.5,-0.10
627.392,982,0.02
627.915,982.5,0.20
628.413,983,0.07
628.919,983.5,-0.47
629.425,984,-0.49
629.877,984.5,-0.37
630.356,985,-0.28
630.869,985.5,0.06
631.382,986,-0.16
631.886,986.5,-0.16
632.364,987,0.18
632.845,987.5,0.05
633.329,988,0.12
633.813,988.5,0.16
634.302,989,-0.10