File: Wood/Calibration_Data/UDRI/UDRI_MCC_N2_60K_R1.csv
Time (s),Temperature (K),HRR (W/g)
75.8282,416.0,0.0547726
76.3049,416.5,-0.0610748
76.7194,417.0,-0.149292
77.093,417.5,-0.188942
77.4678,418.0,-0.19147
77.9437,418.5,-0.245251
78.4376,419.0,-0.287979
78.9432,419.5,-0.183801
79.4387,420.0,-0.161882
79.9212,420.5,-0.179554
80.4098,421.0,-0.203548
80.9304,421.5,-0.189999
81.4393,422.0,-0.164665
81.9247,422.5,-0.176045
82.4097,423.0,-0.106437
82.9376,423.5,0.0227101
83.5091,424.0,0.205216
84.0111,424.5,0.268449
84.4732,425.0,0.298599
84.9618,425.5,0.341389
85.4733,426.0,0.424352
85.9611,426.5,0.468895
86.4545,427.0,0.427438
86.9623,427.5,0.506257
87.4513,428.0,0.662509
87.9245,428.5,0.694988
88.3947,429.0,0.679931
88.8667,429.5,0.726756
89.3111,430.0,0.776798
89.7465,430.5,0.715172
90.2,431.0,0.584914
90.6835,431.5,0.548827
91.181,432.0,0.638861
91.6781,432.5,0.697494
92.1733,433.0,0.739898
92.6693,433.5,0.831854
93.1524,434.0,0.918325
93.6318,434.5,0.965139
94.1171,435.0,0.935086
94.6002,435.5,0.900149
95.1214,436.0,1.03058
95.6629,436.5,1.08156
96.1634,437.0,1.14479
96.6508,437.5,1.3412
97.1495,438.0,1.36488
97.6506,438.5,1.27243
98.1438,439.0,1.28723
98.6338,439.5,1.40144
99.112,440.0,1.46756
99.6038,440.5,1.35843
100.092,441.0,1.30844
100.557,441.5,1.39858
101.025,442.0,1.52384
101.458,442.5,1.49317
101.906,443.0,1.36998
102.381,443.5,1.28812
102.857,444.0,1.26674
103.338,444.5,1.31968
103.821,445.0,1.43214
104.325,445.5,1.58937
104.835,446.0,1.69868
105.327,446.5,1.7173
105.81,447.0,1.72526
106.292,447.5,1.79964
106.79,448.0,1.95193
107.336,448.5,2.08397
107.895,449.0,2.18714
108.406,449.5,2.36137
108.913,450.0,2.56506
109.414,450.5,2.6515
109.904,451.0,2.695
110.395,451.5,2.76129
110.914,452.0,2.85831
111.412,452.5,2.95688
111.883,453.0,3.03198
112.373,453.5,3.13846
112.891,454.0,3.24052
113.379,454.5,3.2574
113.832,455.0,3.25714
114.296,455.5,3.3161
114.785,456.0,3.45426
115.28,456.5,3.60133
115.772,457.0,3.6653
116.26,457.5,3.71733
116.738,458.0,3.80741
117.215,458.5,3.81108
117.7,459.0,3.69394
118.188,459.5,3.60331
118.675,460.0,3.59978
119.17,460.5,3.63516
119.67,461.0,3.66067
120.158,461.5,3.68086
120.648,462.0,3.75521
121.147,462.5,3.86014
121.632,463.0,4.02331
122.126,463.5,4.26802
122.64,464.0,4.44824
123.131,464.5,4.55996
123.599,465.0,4.75268
124.09,465.5,4.96407
124.611,466.0,5.19971
125.124,466.5,5.46867
125.673,467.0,5.73231
126.206,467.5,5.97139
126.706,468.0,6.18683
127.2,468.5,6.3317
127.698,469.0,6.40629
128.199,469.5,6.44868
128.693,470.0,6.46946
129.196,470.5,6.55726
129.703,471.0,6.67293
130.199,471.5,6.78163
130.693,472.0,6.92086
131.175,472.5,7.03196
131.641,473.0,7.10735
132.079,473.5,7.21595
132.511,474.0,7.39069
133.013,474.5,7.58195
133.513,475.0,7.71863
134.007,475.5,7.8818
134.512,476.0,8.05818
135.008,476.5,8.1712
135.491,477.0,8.21652
135.996,477.5,8.33464
136.509,478.0,8.44018
137.0,478.5,8.39412
137.505,479.0,8.36887
137.99,479.5,8.40684
138.45,480.0,8.51722
138.96,480.5,8.62185
139.456,481.0,8.76238
139.948,481.5,9.02643
140.425,482.0,9.28355
140.915,482.5,9.45127
141.402,483.0,9.59337
141.895,483.5,9.76595
142.389,484.0,9.92052
142.883,484.5,10.0073
143.399,485.0,10.1424
143.957,485.5,10.4967
144.501,486.0,10.7819
145.016,486.5,10.8948
145.515,487.0,11.0234
146.021,487.5,11.1809
146.527,488.0,11.3017
147.026,488.5,11.36
147.523,489.0,11.4804
148.011,489.5,11.6366
148.521,490.0,11.7627
149.03,490.5,11.8779
149.516,491.0,12.0518
150.032,491.5,12.3565
150.507,492.0,12.5117
150.954,492.5,12.6283
151.442,493.0,12.7891
151.945,493.5,12.922
152.438,494.0,12.9347
152.906,494.5,12.9402
153.41,495.0,12.9626
153.941,495.5,12.9363
154.447,496.0,12.9623
154.934,496.5,12.9515
155.414,497.0,12.9165
155.942,497.5,12.9258
156.431,498.0,12.9593
156.887,498.5,13.0009
157.383,499.0,13.013
157.875,499.5,12.9631
158.374,500.0,12.9432
158.888,500.5,13.0199
159.408,501.0,13.049
159.939,501.5,12.9657
160.455,502.0,12.905
160.941,502.5,12.8392
161.443,503.0,12.7639
161.969,503.5,12.7031
162.497,504.0,12.6077
163.006,504.5,12.606
163.505,505.0,12.6441
164.007,505.5,12.577
164.5,506.0,12.5703
164.995,506.5,12.5667
165.489,507.0,12.5386
166.005,507.5,12.3878
166.533,508.0,12.2218
167.017,508.5,12.197
167.491,509.0,12.1195
167.977,509.5,11.9897
168.484,510.0,11.8903
168.994,510.5,11.8405
169.489,511.0,11.8259
170.001,511.5,11.7682
170.52,512.0,11.6838
170.997,512.5,11.5756
171.466,513.0,11.5008
171.973,513.5,11.4689
172.469,514.0,11.4035
172.976,514.5,11.4145
173.485,515.0,11.4192
173.978,515.5,11.4757
174.469,516.0,11.4604
174.952,516.5,11.4393
175.447,517.0,11.4193
175.949,517.5,11.3357
176.463,518.0,11.3739
176.972,518.5,11.346
177.486,519.0,11.3833
178.023,519.5,11.3938
178.498,520.0,11.3683
178.967,520.5,11.4579
179.478,521.0,11.5221
179.973,521.5,11.6046
180.475,522.0,11.714
180.988,522.5,11.8743
181.463,523.0,12.0599
181.954,523.5,12.1357
182.474,524.0,12.2062
182.972,524.5,12.2094
183.487,525.0,12.1712
184.013,525.5,12.2416
184.499,526.0,12.3375
184.988,526.5,12.3803
185.508,527.0,12.514
186.029,527.5,12.6787
186.544,528.0,12.7452
187.003,528.5,12.8687
187.448,529.0,13.0132
187.946,529.5,13.124
188.422,530.0,13.2103
188.895,530.5,13.3511
189.404,531.0,13.5037
189.936,531.5,13.5873
190.463,532.0,13.6504
190.974,532.5,13.7859
191.474,533.0,13.8842
191.972,533.5,14.0065
192.482,534.0,14.1476
192.939,534.5,14.2589
193.402,535.0,14.4689
193.911,535.5,14.6495
194.424,536.0,14.8662
194.936,536.5,15.0804
195.442,537.0,15.1855
195.96,537.5,15.3408
196.463,538.0,15.4547
196.97,538.5,15.5826
197.466,539.0,15.7896
197.97,539.5,16.0714
198.453,540.0,16.2675
199.029,540.5,16.4067
199.63,541.0,16.5183
200.124,541.5,16.6867
200.617,542.0,16.9008
201.118,542.5,17.1216
201.621,543.0,17.3281
202.141,543.5,17.5094
202.634,544.0,17.6915
203.114,544.5,17.9118
203.622,545.0,18.178
204.141,545.5,18.4277
204.677,546.0,18.7128
205.199,546.5,19.0316
205.697,547.0,19.3445
206.212,547.5,19.6501
206.713,548.0,19.8136
207.188,548.5,19.8997
207.673,549.0,20.0429
208.173,549.5,20.25
208.681,550.0,20.4104
209.181,550.5,20.5171
209.674,551.0,20.6932
210.18,551.5,20.9259
210.683,552.0,21.1309
211.149,552.5,21.2434
211.605,553.0,21.3638
212.091,553.5,21.6366
212.601,554.0,21.9016
213.098,554.5,22.1199
213.593,555.0,22.3777
214.098,555.5,22.6265
214.602,556.0,22.8223
215.091,556.5,23.0413
215.578,557.0,23.3404
216.094,557.5,23.6181
216.609,558.0,23.8892
217.145,558.5,24.1739
217.728,559.0,24.5145
218.252,559.5,24.8515
218.744,560.0,25.1489
219.258,560.5,25.4018
219.767,561.0,25.5886
220.246,561.5,25.799
220.745,562.0,26.0559
221.251,562.5,26.2992
221.739,563.0,26.5741
222.238,563.5,26.9176
222.763,564.0,27.2912
223.264,564.5,27.6555
223.717,565.0,27.9689
224.171,565.5,28.2671
224.669,566.0,28.5808
225.179,566.5,28.8235
225.666,567.0,29.0572
226.152,567.5,29.2833
226.657,568.0,29.4999
227.176,568.5,29.7296
227.675,569.0,29.9692
228.158,569.5,30.256
228.667,570.0,30.5428
229.172,570.5,30.8264
229.643,571.0,31.0784
230.116,571.5,31.3524
230.611,572.0,31.6436
231.1,572.5,31.8702
231.588,573.0,32.075
232.08,573.5,32.2838
232.599,574.0,32.5429
233.12,574.5,32.8402
233.623,575.0,33.124
234.13,575.5,33.4197
234.649,576.0,33.7234
235.167,576.5,34.0432
235.665,577.0,34.3853
236.163,577.5,34.6857
236.682,578.0,34.9567
237.208,578.5,35.2854
237.735,579.0,35.6547
238.252,579.5,35.9903
238.765,580.0,36.2868
239.282,580.5,36.6346
239.799,581.0,37.0009
240.289,581.5,37.3572
240.769,582.0,37.7086
241.304,582.5,38.1148
241.859,583.0,38.573
242.358,583.5,38.9072
242.842,584.0,39.2461
243.339,584.5,39.589
243.84,585.0,39.8929
244.342,585.5,40.1615
244.855,586.0,40.4127
245.365,586.5,40.7043
245.858,587.0,40.9966
246.348,587.5,41.2769
246.83,588.0,41.514
247.313,588.5,41.7382
247.769,589.0,42.0045
248.221,589.5,42.3057
248.702,590.0,42.6179
249.205,590.5,42.9702
249.714,591.0,43.4064
250.211,591.5,43.8157
250.704,592.0,44.1312
251.228,592.5,44.4378
251.737,593.0,44.7698
252.236,593.5,45.0836
252.752,594.0,45.3896
253.295,594.5,45.76
253.823,595.0,46.1164
254.309,595.5,46.4672
254.803,596.0,46.8381
255.303,596.5,47.2416
255.797,597.0,47.6775
256.304,597.5,48.0811
256.818,598.0,48.4884
257.318,598.5,48.869
257.818,599.0,49.2461
258.33,599.5,49.6582
258.832,600.0,50.0609
259.328,600.5,50.5262
259.813,601.0,51.0273
260.304,601.5,51.4416
260.833,602.0,51.8637
261.331,602.5,52.3186
261.814,603.0,52.7614
262.32,603.5,53.2358
262.844,604.0,53.728
263.372,604.5,54.2667
263.876,605.0,54.788
264.374,605.5,55.2584
264.881,606.0,55.6921
265.416,606.5,56.1825
265.942,607.0,56.7277
266.443,607.5,57.27
266.938,608.0,57.7872
267.428,608.5,58.2499
267.941,609.0,58.772
268.436,609.5,59.2866
268.91,610.0,59.8164
269.433,610.5,60.3525
269.967,611.0,60.8762
270.465,611.5,61.4804
270.968,612.0,62.0335
271.477,612.5,62.6381
271.989,613.0,63.172
272.463,613.5,63.6547
272.942,614.0,64.1707
273.437,614.5,64.6184
273.927,615.0,65.083
274.436,615.5,65.5736
274.932,616.0,66.09
275.416,616.5,66.6474
275.917,617.0,67.1056
276.427,617.5,67.606
276.92,618.0,68.0951
277.41,618.5,68.5999
277.917,619.0,69.1456
278.405,619.5,69.591
278.899,620.0,70.0825
279.41,620.5,70.5594
279.906,621.0,71.0165
280.429,621.5,71.5087
280.942,622.0,71.9884
281.437,622.5,72.4237
281.962,623.0,72.8704
282.47,623.5,73.3329
282.949,624.0,73.7607
283.457,624.5,74.2245
283.995,625.0,74.7199
284.499,625.5,75.174
284.985,626.0,75.6323
285.476,626.5,76.1303
285.985,627.0,76.6168
286.494,627.5,77.1758
287.001,628.0,77.6876
287.519,628.5,78.1022
288.048,629.0,78.4372
288.557,629.5,78.9915
289.067,630.0,79.5301
289.592,630.5,79.9561
290.105,631.0,80.3797
290.553,631.5,80.805
291.005,632.0,81.2908
291.518,632.5,81.7556
292.011,633.0,82.1782
292.505,633.5,82.6451
293.009,634.0,83.0231
293.484,634.5,83.3927
293.977,635.0,83.7971
294.476,635.5,84.1819
294.998,636.0,84.6469
295.478,636.5,85.0135
295.968,637.0,85.4499
296.453,637.5,85.9084
296.926,638.0,86.3429
297.401,638.5,86.7566
297.924,639.0,87.2333
298.437,639.5,87.7444
298.941,640.0,88.2617
299.455,640.5,88.8153
299.982,641.0,89.3981
300.496,641.5,89.989
301.022,642.0,90.5558
301.534,642.5,91.0675
302.074,643.0,91.6208
302.677,643.5,92.2957
303.228,644.0,92.9581
303.724,644.5,93.5547
304.205,645.0,94.1519
304.696,645.5,94.7706
305.21,646.0,95.4011
305.715,646.5,96.0911
306.208,647.0,96.781
306.705,647.5,97.4805
307.204,648.0,98.2581
307.698,648.5,99.0185
308.207,649.0,99.7457
308.708,649.5,100.477
309.18,650.0,101.223
309.673,650.5,102.021
310.183,651.0,102.783
310.682,651.5,103.626
311.187,652.0,104.454
311.696,652.5,105.144
312.215,653.0,105.922
312.724,653.5,106.873
313.229,654.0,107.838
313.74,654.5,108.752
314.251,655.0,109.688
314.769,655.5,110.578
315.276,656.0,111.503
315.775,656.5,112.483
316.28,657.0,113.387
316.797,657.5,114.272
317.31,658.0,115.078
317.8,658.5,115.755
318.289,659.0,116.585
318.789,659.5,117.514
319.279,660.0,118.291
319.755,660.5,118.999
320.246,661.0,119.65
320.765,661.5,120.351
321.257,662.0,121.1
321.722,662.5,121.7
322.197,663.0,122.248
322.691,663.5,122.872
323.206,664.0,123.483
323.721,664.5,123.972
324.22,665.0,124.323
324.717,665.5,124.662
325.23,666.0,124.997
325.75,666.5,125.197
326.265,667.0,125.335
326.768,667.5,125.407
327.25,668.0,125.365
327.719,668.5,125.288
328.206,669.0,124.995
328.713,669.5,124.586
329.207,670.0,124.437
329.718,670.5,124.095
330.25,671.0,123.426
330.759,671.5,122.743
331.253,672.0,121.908
331.753,672.5,120.949
332.258,673.0,119.893
332.777,673.5,118.588
333.299,674.0,117.224
333.805,674.5,115.85
334.307,675.0,114.285
334.804,675.5,112.567
335.305,676.0,110.758
335.811,676.5,108.79
336.31,677.0,106.741
336.797,677.5,104.709
337.287,678.0,102.604
337.802,678.5,100.261
338.302,679.0,97.8442
338.779,679.5,95.3867
339.256,680.0,92.8113
339.733,680.5,90.2367
340.21,681.0,87.6259
340.693,681.5,84.8995
341.183,682.0,82.0907
341.674,682.5,79.2707
342.147,683.0,76.6248
342.634,683.5,73.761
343.124,684.0,70.9557
343.609,684.5,68.4432
344.098,685.0,65.6625
344.581,685.5,62.7929
345.105,686.0,59.8079
345.571,686.5,57.1798
346.014,687.0,54.6675
346.556,687.5,51.815
347.054,688.0,49.2997
347.528,688.5,46.98
348.065,689.0,44.5584
348.592,689.5,41.9591
349.075,690.0,39.7468
349.566,690.5,37.792
350.079,691.0,35.521
350.613,691.5,33.3911
351.131,692.0,31.6211
351.595,692.5,30.0492
352.067,693.0,28.586
352.568,693.5,27.0904
353.087,694.0,25.7219
353.614,694.5,24.631
354.112,695.0,23.4726
354.615,695.5,22.1668
355.129,696.0,21.1531
355.631,696.5,20.2293
356.131,697.0,19.3618
356.661,697.5,18.6702
357.187,698.0,17.9176
357.692,698.5,17.2311
358.207,699.0,16.6162
358.721,699.5,16.1047
359.224,700.0,15.6948
359.727,700.5,15.3141
360.231,701.0,14.9423
360.729,701.5,14.5468
361.221,702.0,14.2276
361.724,702.5,13.9168
362.236,703.0,13.5914
362.744,703.5,13.3613
363.271,704.0,13.0535
363.795,704.5,12.7899
364.289,705.0,12.592
364.793,705.5,12.3813
365.307,706.0,12.1682
365.802,706.5,12.0256
366.288,707.0,11.9314
366.796,707.5,11.8049
367.312,708.0,11.7064
367.806,708.5,11.6354
368.296,709.0,11.5734
368.81,709.5,11.5104
369.367,710.0,11.439
369.913,710.5,11.3409
370.419,711.0,11.2371
370.927,711.5,11.1961
371.423,712.0,11.0166
371.911,712.5,10.7505
372.396,713.0,10.5274
372.901,713.5,10.3689
373.384,714.0,10.2779
373.868,714.5,10.1432
374.374,715.0,10.0932
374.888,715.5,10.1094
375.386,716.0,10.2397
375.855,716.5,10.2903
376.306,717.0,10.0355
376.787,717.5,9.73463
377.294,718.0,9.58431
377.791,718.5,9.4836
378.278,719.0,9.38631
378.772,719.5,9.27544
379.271,720.0,9.13536
379.769,720.5,9.02768
380.267,721.0,8.91421
380.761,721.5,8.77563
381.268,722.0,8.64269
381.774,722.5,8.56907
382.268,723.0,8.55869
382.767,723.5,8.52172
383.265,724.0,8.46187
383.777,724.5,8.35783
384.281,725.0,8.26049
384.765,725.5,8.16945
385.259,726.0,8.04386
385.77,726.5,7.92421
386.284,727.0,7.84903
386.805,727.5,7.79146
387.316,728.0,7.72489
387.842,728.5,7.71192
388.362,729.0,7.62547
388.858,729.5,7.51884
389.373,730.0,7.39778
389.883,730.5,7.13952
390.407,731.0,7.07321
390.925,731.5,7.10863
391.423,732.0,6.89582
391.918,732.5,6.89681
392.407,733.0,6.97256
392.907,733.5,6.90747
393.424,734.0,6.81849
393.919,734.5,6.75392
394.401,735.0,6.74251
394.893,735.5,6.70528
395.387,736.0,6.67677
395.889,736.5,6.66436
396.397,737.0,6.61073
396.91,737.5,6.44215
397.421,738.0,6.22411
397.932,738.5,6.06045
398.44,739.0,5.88715
398.922,739.5,5.82609
399.407,740.0,5.75766
399.933,740.5,5.63983
400.441,741.0,5.53297
400.903,741.5,5.47357
401.388,742.0,5.47401
401.907,742.5,5.36171
402.406,743.0,5.25601
402.898,743.5,5.24564
403.41,744.0,5.22313
403.915,744.5,5.16724
404.394,745.0,5.0784
404.885,745.5,5.01118
405.386,746.0,4.90481
405.902,746.5,4.70538
406.395,747.0,4.53504
406.854,747.5,4.36944
407.355,748.0,4.21405
407.87,748.5,4.12
408.368,749.0,4.0826
408.869,749.5,4.02426
409.38,750.0,3.96423
409.888,750.5,3.91859
410.381,751.0,3.89267
410.877,751.5,3.9118
411.378,752.0,3.86244
411.88,752.5,3.75905
412.423,753.0,3.70062
412.958,753.5,3.64273
413.456,754.0,3.5934
413.97,754.5,3.57797
414.459,755.0,3.49402
414.965,755.5,3.37598
415.484,756.0,3.29907
415.963,756.5,3.21582
416.447,757.0,3.16051
416.949,757.5,3.06588
417.444,758.0,2.87512
417.952,758.5,2.77644
418.439,759.0,2.73978
418.902,759.5,2.69204
419.394,760.0,2.67061
419.903,760.5,2.72505
420.408,761.0,2.7701
420.93,761.5,2.77117
421.433,762.0,2.72454
421.96,762.5,2.63109
422.481,763.0,2.51582
422.97,763.5,2.36073
423.48,764.0,2.30902
424.01,764.5,2.28038
424.524,765.0,2.13867
425.007,765.5,2.04436
425.49,766.0,2.00707
426.004,766.5,1.99751
426.48,767.0,1.99801
426.957,767.5,2.00124
427.471,768.0,2.02619
427.981,768.5,2.07311
428.484,769.0,2.03748
428.97,769.5,1.95206
429.459,770.0,1.90208
429.979,770.5,1.83976
430.49,771.0,1.7581
430.974,771.5,1.70856
431.457,772.0,1.66252
431.942,772.5,1.589
432.435,773.0,1.47583
432.939,773.5,1.43851
433.445,774.0,1.44644
433.939,774.5,1.35155
434.432,775.0,1.25299
434.956,775.5,1.21688
435.463,776.0,1.22881
435.946,776.5,1.19293
436.455,777.0,1.17502
436.988,777.5,1.21377
437.488,778.0,1.31267
438.002,778.5,1.35095
438.527,779.0,1.26492
439.03,779.5,1.18977
439.535,780.0,1.23633
440.058,780.5,1.2137
440.587,781.0,1.10542
441.096,781.5,1.06688
441.608,782.0,0.989548
442.113,782.5,0.966224
442.606,783.0,1.02424
443.08,783.5,1.00944
443.546,784.0,0.946219
444.047,784.5,0.856013
444.563,785.0,0.792853
445.07,785.5,0.828725
445.586,786.0,0.856243
446.085,786.5,0.888131
446.564,787.0,0.860583
447.065,787.5,0.840004
447.572,788.0,0.881156
448.07,788.5,0.878832
448.589,789.0,0.853464
449.149,789.5,0.825139
449.686,790.0,0.859214
450.182,790.5,0.839242
450.666,791.0,0.802096
451.157,791.5,0.78548
451.662,792.0,0.745609
452.167,792.5,0.684336
452.665,793.0,0.622819
453.159,793.5,0.588587
453.664,794.0,0.531043
454.165,794.5,0.46662
454.646,795.0,0.513745
455.093,795.5,0.598597
455.527,796.0,0.637239
456.002,796.5,0.556887
456.495,797.0,0.459623
457.024,797.5,0.49755
457.537,798.0,0.473192
458.053,798.5,0.463061
458.578,799.0,0.452964
459.093,799.5,0.452194
459.604,800.0,0.483869
460.106,800.5,0.51469
460.624,801.0,0.526464
461.173,801.5,0.458728
461.676,802.0,0.390877
462.155,802.5,0.369764
462.658,803.0,0.400104
463.174,803.5,0.366127
463.669,804.0,0.300242
464.16,804.5,0.337493
464.66,805.0,0.372338
465.16,805.5,0.397061
465.653,806.0,0.436934
466.152,806.5,0.44807
466.663,807.0,0.5306
467.155,807.5,0.546645
467.625,808.0,0.46115
468.115,808.5,0.403216
468.629,809.0,0.383314
469.132,809.5,0.344539
469.636,810.0,0.244825
470.151,810.5,0.209211
470.663,811.0,0.237826
471.161,811.5,0.242707
471.653,812.0,0.198914
472.146,812.5,0.193815
472.642,813.0,0.181709
473.13,813.5,0.136171
473.608,814.0,0.129147
474.108,814.5,0.197178
474.615,815.0,0.167182
475.109,815.5,0.112514
475.61,816.0,0.212792
476.137,816.5,0.28108
476.664,817.0,0.240413
477.161,817.5,0.176764
477.669,818.0,0.112472
478.191,818.5,0.0480164
478.701,819.0,0.0332553
479.224,819.5,0.00293785
479.773,820.0,0.0193254
480.283,820.5,0.0855799
480.77,821.0,0.0615333
481.267,821.5,0.012852
481.765,822.0,0.0234388
482.27,822.5,0.0957337
482.779,823.0,0.127323
483.292,823.5,0.0617068
483.802,824.0,0.0591406
484.299,824.5,0.0866364
484.787,825.0,0.118218
485.275,825.5,0.120013
485.769,826.0,0.0764389
486.267,826.5,0.0434414
486.763,827.0,0.0140849
487.245,827.5,0.0223332
487.729,828.0,0.0561078
488.231,828.5,0.0630467
488.726,829.0,0.0904875
489.226,829.5,0.129066
489.75,830.0,0.146149
490.27,830.5,0.126467
490.766,831.0,0.0339041
491.257,831.5,-0.0870708
491.758,832.0,-0.16128
492.251,832.5,-0.196765
492.761,833.0,-0.232916
493.292,833.5,-0.232243
493.793,834.0,-0.133038
494.274,834.5,-0.0549395
494.776,835.0,-0.030833
495.289,835.5,0.0554232
495.788,836.0,0.0987595
496.286,836.5,0.0752312
496.794,837.0,0.0184029
497.306,837.5,-0.0436902
497.823,838.0,-0.0708742
498.34,838.5,-0.0858706
498.836,839.0,-0.109531
499.324,839.5,-0.0960226
499.814,840.0,-0.0924702
500.311,840.5,-0.164299
500.829,841.0,-0.241888
501.346,841.5,-0.27783
501.848,842.0,-0.210963
502.346,842.5,-0.119701
502.83,843.0,-0.0433232
503.335,843.5,0.0279793
503.853,844.0,0.0317042
504.357,844.5,0.0146276
504.847,845.0,0.00387622
505.334,845.5,0.0114318
505.836,846.0,-0.0102945
506.332,846.5,-0.0182767
506.836,847.0,-0.0144734
507.338,847.5,0.0238208
507.827,848.0,0.14504
508.335,848.5,0.227041
508.87,849.0,0.18972
509.391,849.5,0.146636
509.837,850.0,0.146589
510.282,850.5,0.14778
510.791,851.0,0.147445
511.31,851.5,0.143327
511.817,852.0,0.115205
512.32,852.5,0.0282102
512.815,853.0,0.0043956
513.323,853.5,0.054666
513.823,854.0,0.0844502
514.317,854.5,0.0700569
514.808,855.0,0.00979745
515.313,855.5,0.0244872
515.835,856.0,0.0713642
516.355,856.5,0.039493
516.863,857.0,0.0934133
517.36,857.5,0.176039
517.862,858.0,0.215634
518.367,858.5,0.151627
518.855,859.0,0.106581
519.338,859.5,0.124832
519.838,860.0,0.151924
520.326,860.5,0.12806
520.829,861.0,0.0519734
521.357,861.5,-0.0108849
521.873,862.0,-0.0657954
522.341,862.5,-0.0570971
522.803,863.0,-0.0434382
523.303,863.5,-0.0431835
523.824,864.0,-0.0433544
524.317,864.5,-0.0545431
524.813,865.0,-0.0628655
525.317,865.5,-0.0470996
525.821,866.0,-0.105882
526.327,866.5,-0.153551
526.84,867.0,-0.0543958
527.347,867.5,0.0498099
527.873,868.0,0.114459
528.417,868.5,0.125008
528.926,869.0,0.0446366
529.416,869.5,0.101817
529.915,870.0,0.173704
530.434,870.5,0.170928
530.951,871.0,0.215776
531.466,871.5,0.142867
531.993,872.0,0.178682
532.486,872.5,0.215617
533.003,873.0,0.0643354
533.514,873.5,-0.014881
534.029,874.0,-0.0123752
534.485,874.5,-0.0209631
534.921,875.0,-0.08376
535.416,875.5,-0.0164183
535.903,876.0,0.0578641
536.384,876.5,0.0231118
536.905,877.0,-0.00548369
537.419,877.5,-0.0211751
537.917,878.0,0.0258184
538.41,878.5,0.0660681
538.902,879.0,0.00775783
539.413,879.5,-0.089849
539.943,880.0,-0.0566024
540.476,880.5,0.0298985
540.993,881.0,-0.0331775
541.488,881.5,-0.0516245
541.994,882.0,0.00132302
542.497,882.5,-0.0854552
542.961,883.0,-0.14751
543.453,883.5,-0.133645
543.967,884.0,-0.0962376
544.471,884.5,-0.0504319
544.969,885.0,0.0770368
545.467,885.5,0.174925
545.986,886.0,0.118814
546.467,886.5,0.152663
546.913,887.0,0.0992179
547.397,887.5,0.0119437
547.894,888.0,-0.0729976
548.395,888.5,-0.0868173
548.9,889.0,-0.0203195
549.422,889.5,-0.0362667
549.938,890.0,-0.108173
550.431,890.5,-0.115828
550.933,891.0,-0.0793988
551.433,891.5,-0.124158
551.945,892.0,-0.164212
552.458,892.5,-0.146523
553.013,893.0,-0.0963567
553.557,893.5,-0.108258
554.059,894.0,-0.117169
554.531,894.5,-0.14196
555.031,895.0,-0.143307
555.532,895.5,-0.160515
556.029,896.0,-0.176338
556.536,896.5,-0.202658
557.029,897.0,-0.229965
557.513,897.5,-0.154063
558.009,898.0,-0.0872154
558.511,898.5,-0.0349107
559.0,899.0,-0.00492298
559.484,899.5,0.0179619
560.005,900.0,0.0755049
560.509,900.5,0.105366
560.998,901.0,0.0305963
561.483,901.5,-0.0453731
561.97,902.0,-0.186636
562.483,902.5,-0.234713
562.994,903.0,-0.261405
563.503,903.5,-0.388676
564.024,904.0,-0.28289
564.51,904.5,-0.18314
564.927,905.0,-0.168235
565.389,905.5,-0.198694
565.893,906.0,-0.193691
566.412,906.5,-0.159925
566.906,907.0,-0.0882299
567.404,907.5,-0.00984376
567.912,908.0,0.0392116
568.409,908.5,0.133439
568.913,909.0,0.165361
569.436,909.5,0.0818539
569.93,910.0,-0.0769288
570.455,910.5,-0.0877178
571.003,911.0,-0.061327
571.546,911.5,-0.039598
572.061,912.0,-0.0120475
572.555,912.5,-0.0167997
573.056,913.0,-0.0187153
573.56,913.5,-0.0742977
574.075,914.0,-0.22887
574.586,914.5,-0.32988
575.086,915.0,-0.29654
575.576,915.5,-0.282057
576.067,916.0,-0.201082
576.564,916.5,-0.17594
577.018,917.0,-0.245736
577.467,917.5,-0.206046
577.966,918.0,-0.153775
578.467,918.5,-0.0456083
578.972,919.0,-0.0165869
579.477,919.5,-0.0363668
579.998,920.0,-0.0286119
580.489,920.5,-0.0550746
581.008,921.0,-0.0655637
581.524,921.5,-0.111209
582.041,922.0,-0.197805
582.524,922.5,-0.244631
583.023,923.0,-0.186392
583.545,923.5,-0.138175
584.033,924.0,-0.117381
584.522,924.5,-0.0774566
585.027,925.0,-0.054468
585.534,925.5,0.00786587
586.05,926.0,0.106425
586.561,926.5,0.143246
587.051,927.0,0.0996909
587.538,927.5,0.106615
588.053,928.0,0.216332
588.581,928.5,0.217106
589.127,929.0,0.222641
589.66,929.5,0.262115
590.187,930.0,0.259138
590.701,930.5,0.163241
591.183,931.0,0.120552
591.658,931.5,0.139839
592.158,932.0,0.121285
592.658,932.5,0.121086
593.157,933.0,0.117072
593.655,933.5,0.106617
594.145,934.0,0.147798
594.651,934.5,0.151862
595.146,935.0,0.11423
595.615,935.5,0.109805
596.104,936.0,0.161117
596.615,936.5,0.204279
597.093,937.0,0.2612
597.584,937.5,0.308317
598.088,938.0,0.239519
598.575,938.5,0.181834
599.086,939.0,0.11996
599.571,939.5,0.0366176
600.066,940.0,0.0833449
600.604,940.5,0.146505
601.107,941.0,0.115676
601.586,941.5,0.177561
602.068,942.0,0.254549
602.557,942.5,0.263637
603.03,943.0,0.218176
603.526,943.5,0.197489
604.065,944.0,0.153459
604.589,944.5,0.0824316
605.101,945.0,0.0491827
605.602,945.5,0.027653
606.088,946.0,0.0551238
606.586,946.5,0.0656926
607.104,947.0,-0.000386543
607.579,947.5,0.0141757
608.033,948.0,0.0461087
608.522,948.5,-0.0130776
609.005,949.0,-0.0168574
609.51,949.5,0.00705225
610.028,950.0,-0.0211417
610.503,950.5,-0.0454644
610.991,951.0,0.0382123
611.482,951.5,0.0808681
611.984,952.0,0.0249061
612.497,952.5,-0.0936917
612.975,953.0,-0.123297
613.478,953.5,-0.118545
613.97,954.0,-0.102687
614.483,954.5,-0.0703452
615.01,955.0,-0.129655
615.52,955.5,-0.12503
616.013,956.0,-0.11717
616.489,956.5,-0.0578098
616.984,957.0,0.0166255
617.528,957.5,0.0626589
618.044,958.0,0.0510071
618.546,958.5,0.0688216
619.052,959.0,0.211411
619.577,959.5,0.182607
620.133,960.0,0.128868
620.657,960.5,0.160921
621.15,961.0,0.167705
621.636,961.5,0.207832
622.121,962.0,0.255559
622.615,962.5,0.239759
623.121,963.0,0.211103
623.635,963.5,0.242381
624.134,964.0,0.191238
624.6,964.5,0.100877
625.07,965.0,0.100563
625.558,965.5,0.105659
626.024,966.0,0.0842012
626.501,966.5,0.06215
626.985,967.0,0.00792732
627.478,967.5,0.0194975
627.98,968.0,-0.0193593
628.493,968.5,-0.0832366
629.007,969.0,-0.0603025
629.51,969.5,-0.130693
630.022,970.0,-0.138387
630.505,970.5,-0.0888387
631.01,971.0,-0.0803056
631.554,971.5,-0.0850718
632.06,972.0,-0.0690143
632.556,972.5,-0.0367903
633.053,973.0,-0.0639638
633.534,973.5,-0.113756
634.018,974.0,-0.155179
634.514,974.5,-0.179295
635.019,975.0,-0.127714
635.512,975.5,-0.0131261
636.005,976.0,0.047978
636.509,976.5,0.0576179
637.012,977.0,0.0703595
637.492,977.5,0.0101628
637.978,978.0,-0.0506288
638.487,978.5,-0.0686319
638.981,979.0,-0.0340767
639.472,979.5,-0.00884892
639.982,980.0,-0.0552755
640.511,980.5,-0.055058
641.016,981.0,-0.0232777
641.516,981.5,-0.0454253
642.029,982.0,-0.046624
642.523,982.5,-0.0233023
643.025,983.0,-0.0504753
643.524,983.5,-0.0443982
644.08,984.0,-0.0525472
644.627,984.5,-0.000245434
645.143,985.0,0.0488683
645.654,985.5,-0.0619158
646.14,986.0,-0.170713
646.61,986.5,-0.219011
647.076,987.0,-0.242109
647.567,987.5,-0.18896
648.07,988.0,-0.110718
648.563,988.5,-0.0808463
649.059,989.0,0.0459385
649.525,989.5,0.106453