File: Wood/Calibration_Data/UDRI/UDRI_Cone_30kW_hor_R3.csv
Time (s),Mass (g),HRR (kW/m2),TC back 1 (K)
0,110.8,3.1,293.958
2,110.83,3.5,285.293
4,110.82,2.8,292.163
6,110.79,1.9,298.088
8,110.8,2.2,299.794
10,110.74,2.9,293.483
12,110.74,3.6,291.558
14,110.74,4.5,297.596
16,110.71,4.2,287.92
18,110.71,3.9,294.957
20,110.68,4.4,295.915
22,110.67,6.5,295.248
24,110.63,9.3,291.268
26,110.63,9.1,293.216
28,110.62,9,293.649
30,110.6,8.2,296.315
32,110.61,7.7,289.157
34,110.56,7,291.226
36,110.5,6.4,304.385
38,110.52,4.9,292.51
40,110.55,5.2,297.489
42,110.51,5.4,292.162
44,110.45,4.3,295.553
46,110.42,5,298.559
48,110.36,5.6,303.483
50,110.28,5.9,292.688
52,110.27,5.6,297.972
54,110.1,4.9,298.619
56,109.82,9.8,292.361
58,109.5,38.3,295.416
60,109.24,91.3,287.173
62,109,134.2,285.755
64,108.77,160.4,293.967
66,108.62,165.8,296.48
68,108.43,162.6,289.64
70,108.28,157.5,292.651
72,108.12,150.9,296.913
74,107.959,146.1,296.803
76,107.799,139.3,288.425
78,107.719,131.3,296.567
80,107.539,124.9,295.651
82,107.419,118.7,291.679
84,107.269,115.2,290.798
86,107.139,113.7,293.538
88,107.019,111.3,299.221
90,106.929,110.1,302.295
92,106.789,107.5,292.467
94,106.669,102.3,297.151
96,106.559,100.7,292.473
98,106.439,97.5,297.528
100,106.309,96.1,297.054
102,106.199,94.9,295.862
104,106.079,95.6,287.802
106,105.989,93.7,300.917
108,105.879,92.3,291.709
110,105.789,91.7,293.658
112,105.669,90.4,300.365
114,105.559,90.1,298.68
116,105.439,89.5,293.789
118,105.399,87.9,293.688
120,105.259,87.9,289.789
122,105.169,87.3,297.212
124,105.089,87,290.412
126,104.979,84.9,298.055
128,104.849,84.6,298.374
130,104.769,84.6,297.928
132,104.639,83.9,305.989
134,104.559,82.6,299.635
136,104.439,82.8,288.771
138,104.329,83.4,297.71
140,104.239,82.9,301.791
142,104.109,81.2,298.838
144,104.029,81.6,301.943
146,103.929,84,294.161
148,103.829,82.5,299.913
150,103.749,83.2,298.545
152,103.659,83.4,299.548
154,103.529,83.4,301.668
156,103.419,83,299.546
158,103.329,83.4,286.831
160,103.269,82.7,295.81
162,103.169,82.1,294.126
164,103.019,82.6,292.124
166,102.969,83.3,293.327
168,102.809,81.6,298.293
170,102.738,80.4,298.344
172,102.668,80.5,308.358
174,102.548,81.1,296.429
176,102.438,81.9,307.912
178,102.348,80.1,300.04
180,102.238,80,301.536
182,102.168,81.5,295.332
184,102.058,80.5,298.113
186,101.978,81,299.049
188,101.878,81.6,300.605
190,101.798,81.7,304.221
192,101.678,80.8,306.604
194,101.538,81.8,303.853
196,101.498,80.2,306.91
198,101.388,81.1,310.164
200,101.318,80.2,295.338
202,101.188,79.3,307.893
204,101.098,80.4,301.181
206,100.968,79.2,308.761
208,100.898,78.5,307.914
210,100.818,78.9,301.353
212,100.738,78.7,309.551
214,100.628,79.3,303.754
216,100.528,77.3,307.198
218,100.468,76.2,305.628
220,100.378,75.1,302.139
222,100.258,75.9,307.379
224,100.158,74.3,310.692
226,100.088,74.9,300.926
228,100.008,73.8,302.281
230,99.908,73.6,305.458
232,99.868,73.6,306.815
234,99.698,73.3,299.856
236,99.628,74,309.376
238,99.528,73.2,312.427
240,99.458,73.1,303.574
242,99.338,73.5,301.534
244,99.308,72.7,308.176
246,99.218,72.5,307.046
248,99.158,72.7,310.419
250,99.018,72.9,311.156
252,98.908,70.4,310.668
254,98.778,71.6,307.651
256,98.708,69.8,310.888
258,98.628,69.9,306.921
260,98.538,70.8,314.042
262,98.488,70.4,308.491
264,98.368,70.6,314.681
266,98.288,70.7,315.026
268,98.168,69.6,309.573
270,98.078,68.7,303.657
272,98.008,68,304.184
274,97.898,67.3,317.18
276,97.808,67.7,309.152
278,97.728,68.5,313.124
280,97.638,68.5,311.701
282,97.558,67.3,303.682
284,97.487,67.6,312.159
286,97.387,68,317.512
288,97.297,67.3,310.658
290,97.247,68.5,307.165
292,97.137,66.6,303.676
294,97.057,64.6,314.553
296,96.977,66.7,305.733
298,96.897,66.3,320.774
300,96.807,65.6,314.304
302,96.707,66.2,314.781
304,96.627,64.1,311.009
306,96.537,66.7,311.065
308,96.427,67.3,319.142
310,96.357,67,315.246
312,96.257,65.9,304.048
314,96.167,64.9,317.997
316,96.057,65.4,310.049
318,95.977,66.1,314.884
320,95.907,66.5,318.459
322,95.827,65.9,318.108
324,95.737,66.1,322.713
326,95.637,65.3,314.554
328,95.587,66.2,317.031
330,95.457,67.1,318.536
332,95.417,67.8,325.134
334,95.287,67.9,323.012
336,95.177,67.3,317.297
338,95.087,66.6,320.707
340,95.017,66.5,311.68
342,94.937,66.4,320.034
344,94.827,66.5,323.286
346,94.767,67,322.618
348,94.707,69.6,321.693
350,94.587,69,318.829
352,94.467,68.4,322.954
354,94.427,68.8,334.69
356,94.307,68.4,317.768
358,94.187,68.3,326.604
360,94.137,67.3,318.4
362,94.067,68.3,330.604
364,93.987,69.2,322.017
366,93.907,68.4,318.229
368,93.817,69.4,324.006
370,93.717,68.9,326.668
372,93.637,69.1,317.978
374,93.557,67.6,328.107
376,93.497,67.6,328.91
378,93.387,66.8,327.509
380,93.297,67.7,317.081
382,93.197,67.4,316.154
384,93.087,67.8,328.708
386,93.007,68.6,328.685
388,92.927,68.4,330.343
390,92.847,67.5,331.764
392,92.747,67.6,327.977
394,92.667,68.5,325.142
396,92.577,68.6,324.726
398,92.507,70.4,323.338
400,92.417,70,328.721
402,92.327,69.7,333.202
404,92.246,69.5,332.527
406,92.156,66.9,323.223
408,92.046,64.1,330.313
410,91.956,64.6,338.384
412,91.876,67.4,332.704
414,91.786,66.6,332.082
416,91.706,66.9,327.215
418,91.626,66.7,325.606
420,91.536,66.9,337.012
422,91.416,66.4,333.993
424,91.396,65.9,324.722
426,91.256,67.2,335.447
428,91.176,67.6,328.679
430,91.086,67.9,332.689
432,90.966,68.8,329.449
434,90.896,68.2,333.176
436,90.806,68.1,339.954
438,90.726,68.8,332.656
440,90.646,69,341.54
442,90.596,70.7,333.071
444,90.456,68.9,338.265
446,90.346,69.6,342.764
448,90.276,68.9,337.135
450,90.186,68.7,334.773
452,90.106,68.5,340.769
454,89.976,69.8,342.285
456,89.926,69.3,334.315
458,89.776,69,336.414
460,89.696,68.8,343.064
462,89.616,68.7,336.906
464,89.566,69.1,339.692
466,89.446,68.6,334.172
468,89.366,70,328.726
470,89.226,68.5,340.084
472,89.166,68.7,345.267
474,89.096,70.8,337.058
476,88.966,70,339.002
478,88.906,69.9,332.248
480,88.786,69.7,339.17
482,88.726,71.3,344.893
484,88.616,71.4,342.762
486,88.516,70.3,341.603
488,88.436,70.9,346.932
490,88.356,70.6,341.286
492,88.266,71,345.321
494,88.176,70.4,337.653
496,88.076,70,338.141
498,87.946,71.5,344.169
500,87.916,70.8,342.285
502,87.786,69.6,344.196
504,87.726,70,344.269
506,87.586,70.5,344.951
508,87.556,69.1,341.117
510,87.416,70.3,343.634
512,87.366,70.5,350.308
514,87.266,70.9,339.792
516,87.166,70.7,341.214
518,87.066,71.1,346.841
520,86.975,70,350.147
522,86.895,69.3,352.481
524,86.835,69.2,350.471
526,86.765,68.7,339.802
528,86.635,70.3,346.99
530,86.515,69.6,345.573
532,86.435,70.1,344.632
534,86.355,69.8,349.93
536,86.295,70.6,355.998
538,86.165,70.5,351.528
540,86.085,69.9,351.388
542,85.945,68.7,351.311
544,85.885,69.9,352.661
546,85.795,70.5,351.822
548,85.705,70.3,355.404
550,85.605,69.3,356.292
552,85.515,68.9,363.237
554,85.405,69,355.365
556,85.325,70.9,360.853
558,85.205,70,350.766
560,85.115,69.7,356.318
562,85.035,69.8,349.37
564,84.905,69.6,356.616
566,84.845,70.5,352.826
568,84.755,73.6,353.499
570,84.675,71,358.178
572,84.585,69.8,365.646
574,84.485,70.3,355.974
576,84.405,69.6,350.247
578,84.315,71.3,352.088
580,84.205,71,364.498
582,84.125,69.5,358.141
584,84.025,69.6,358.178
586,83.925,70.6,357.09
588,83.855,70.1,354.374
590,83.765,70.4,345.839
592,83.695,71.5,360.108
594,83.595,71,364.635
596,83.465,72.1,358.148
598,83.405,72.1,354.839
600,83.315,71.9,357.581
602,83.195,71.1,363.369
604,83.105,71.1,352.406
606,82.965,71.8,362.074
608,82.895,69.8,362.737
610,82.835,68.5,369.187
612,82.745,70.9,375.19
614,82.665,70.5,360.039
616,82.545,70.4,365.49
618,82.485,71.7,366.703
620,82.375,71.1,365.567
622,82.315,70.5,366.12
624,82.175,71.5,363.596
626,82.095,71.7,365.426
628,82.045,70.6,365.65
630,81.935,71.4,367.231
632,81.855,72.1,365.263
634,81.745,71.7,367.661
636,81.664,70.7,367.388
638,81.584,69.7,367.432
640,81.454,70.7,356.965
642,81.364,72.4,367.82
644,81.304,70.9,367.707
646,81.224,70.7,364.952
648,81.134,69.5,368.431
650,81.074,69.6,367.167
652,80.924,70.3,370.302
654,80.824,69.1,372.518
656,80.714,69.7,367.28
658,80.644,69.8,359.365
660,80.574,69.8,367.876
662,80.474,70.5,365.652
664,80.404,69.4,373.82
666,80.324,69.9,372.474
668,80.244,70.5,369.358
670,80.114,69.3,376.86
672,80.064,69.9,369.588
674,79.934,71.6,370.142
676,79.854,70.8,367.799
678,79.724,71.3,362.646
680,79.694,70.5,372.723
682,79.544,70.3,364.793
684,79.474,70.3,374.14
686,79.404,70.8,372
688,79.294,70.4,365.225
690,79.194,70,370.657
692,79.094,69.7,372.741
694,79.024,69.8,379.21
696,78.914,68.4,372.508
698,78.884,69.4,362.594
700,78.764,68.6,372.692
702,78.674,69,366.97
704,78.594,68.7,371.711
706,78.524,68.4,371.22
708,78.424,68.7,363.866
710,78.324,70.3,378.8
712,78.284,69.3,371.54
714,78.184,68.2,385.09
716,78.084,68.8,371.95
718,77.944,70.1,383.04
720,77.884,69,380.84
722,77.784,69.4,376.46
724,77.724,68.1,389.98
726,77.604,69,376.02
728,77.494,70.1,375.34
730,77.424,69.8,376.4
732,77.334,69.3,367.068
734,77.244,69.3,369.629
736,77.154,69.7,373.56
738,77.074,69.5,375.88
740,76.994,70.1,380.15
742,76.904,69.5,377.17
744,76.814,70.5,380.29
746,76.754,71.3,375.02
748,76.654,70.8,378.96
750,76.574,71,385.67
752,76.483,71.3,378.17
754,76.404,70.8,377.13
756,76.313,71,379.47
758,76.233,69.9,377.96
760,76.143,70.2,372.084
762,76.043,69.6,377.38
764,75.953,70.6,380.55
766,75.823,70,375.43
768,75.783,70.4,378.58
770,75.693,69.5,377.51
772,75.583,69.3,372.68
774,75.503,69.6,376.49
776,75.383,69.1,379.74
778,75.343,69.5,380.43
780,75.253,69.1,376.76
782,75.183,68.8,389.95
784,75.103,71.2,381
786,75.013,70.5,380.74
788,74.933,68.7,362.794
790,74.823,68.8,379.11
792,74.713,70.3,374.02
794,74.623,69.5,373.23
796,74.573,69.3,375.08
798,74.453,68.9,385.03
800,74.383,68.7,382.96
802,74.313,68.7,376.96
804,74.203,69.3,364.173
806,74.123,69.3,383.96
808,74.043,67.6,375.06
810,73.913,68.6,383.17
812,73.883,67.9,389.48
814,73.813,67.8,375.61
816,73.713,69.1,384.65
818,73.613,68.4,379.04
820,73.513,68.9,384.13
822,73.453,69.1,380.45
824,73.363,68.6,384.15
826,73.283,68.7,377.3
828,73.163,69.1,381.89
830,73.123,67.5,378.57
832,73.053,67.3,373.4
834,72.953,67.1,379.73
836,72.873,66.8,389.51
838,72.743,66.9,385.5
840,72.693,66.9,365.882
842,72.603,67.5,384.38
844,72.543,67.6,379.28
846,72.443,67.7,383.99
848,72.383,68.9,376.09
850,72.293,69.4,380.72
852,72.243,69,376.33
854,72.113,67.6,383.94
856,72.043,68.7,385.76
858,71.983,68.4,378.92
860,71.903,69.4,382.76
862,71.783,66.8,378.99
864,71.693,66,378.79
866,71.613,67.5,393.98
868,71.553,68.5,378.79
870,71.443,68.2,382.89
872,71.383,67.4,378.79
874,71.323,68.5,383.88
876,71.253,66,384.4
878,71.172,66.3,380.27
880,71.063,66.3,391.87
882,71.002,66.2,382.99
884,70.902,67.2,385.29
886,70.792,67.9,385.97
888,70.712,68.4,381.66
890,70.632,68.1,390.02
892,70.582,68.6,383.86
894,70.462,65.8,383.4
896,70.382,67.6,381.46
898,70.282,67.9,378.74
900,70.202,68.4,381.91
902,70.172,67.4,383.58
904,70.052,67.8,395.34
906,69.992,66.4,389.66
908,69.912,67,390.53
910,69.822,67.2,384.73
912,69.792,67.8,390.81
914,69.682,65.3,391.28
916,69.612,66.8,390.79
918,69.482,66.4,382.95
920,69.392,67.3,380.68
922,69.342,65.9,395.75
924,69.232,67.2,383.94
926,69.172,66.2,394.15
928,69.092,66.9,381.37
930,69.002,67.1,391.84
932,68.962,66.4,388.24
934,68.842,66.6,385.39
936,68.792,66.5,391.4
938,68.702,65.7,397.34
940,68.632,65.8,382.4
942,68.532,66.4,385.73
944,68.442,66.6,379.94
946,68.362,66,391.1
948,68.302,65.4,392.3
950,68.252,65.1,386.12
952,68.172,66.4,389.84
954,68.062,66.9,392.18
956,67.992,66.1,397.18
958,67.902,65.6,388.46
960,67.792,64.8,390.04
962,67.742,65.8,386.69
964,67.632,63.9,393.91
966,67.552,65.9,387.52
968,67.482,65.4,396.83
970,67.412,66,388.65
972,67.302,65.1,380.72
974,67.252,64.8,386.05
976,67.212,64.6,387.47
978,67.092,64.9,391.35
980,67.022,65.4,391.8
982,66.922,66.2,386.93
984,66.862,65.7,395.11
986,66.782,65,393.31
988,66.692,65,389.68
990,66.622,64.6,389.7
992,66.532,64.6,388.65
994,66.482,64.5,395.7
996,66.362,64.5,396.06
998,66.282,64.3,390.56
1000,66.212,64.6,388.34
1002,66.122,64.9,394.76
1004,66.042,65,391.97
1006,65.952,64.9,397.37
1008,65.881,64.7,394.31
1010,65.801,64.5,393.81
1012,65.741,65.3,403.54
1014,65.641,64.1,391.67
1016,65.581,63.3,392.46
1018,65.511,63.7,393.63
1020,65.421,64.8,389.36
1022,65.331,64.2,403.12
1024,65.261,63.9,403.4
1026,65.191,65.8,395.4
1028,65.081,66.7,399.76
1030,65.021,66,397.95
1032,64.941,65.9,405.45
1034,64.881,65.6,397.27
1036,64.801,64.9,405.15
1038,64.691,65.6,398.08
1040,64.631,67.1,399.33
1042,64.551,66,394.13
1044,64.501,66.5,392.55
1046,64.421,65.8,401.64
1048,64.331,67,398.49
1050,64.211,67.3,405.43
1052,64.151,68.2,394.69
1054,64.091,67.8,403.59
1056,64.011,68.4,398
1058,63.881,68.6,402.69
1060,63.861,67.9,402.4
1062,63.771,68.3,406.33
1064,63.701,67.9,409.15
1066,63.601,66.9,402.98
1068,63.531,67.8,400.69
1070,63.431,67.8,407.49
1072,63.331,66.7,400.03
1074,63.281,67.4,405.43
1076,63.151,69,402.16
1078,63.111,68.8,406.63
1080,63.001,69.1,401.03
1082,62.961,69.1,406.8
1084,62.841,68.5,401.27
1086,62.781,69.4,405.98
1088,62.721,70.2,409.02
1090,62.631,69.2,410.65
1092,62.561,70.2,408.25
1094,62.471,70.8,410.34
1096,62.411,69.8,404.53
1098,62.301,70.4,402.79
1100,62.241,68.7,406.57
1102,62.101,69.1,407.83
1104,62.061,69.8,411.51
1106,61.961,70.3,414.98
1108,61.911,70.7,411.62
1110,61.791,71.4,416.18
1112,61.771,69.7,408.79
1114,61.691,70.8,412.66
1116,61.581,70.3,417.09
1118,61.511,70.9,408.32
1120,61.421,69.7,417.15
1122,61.321,71.7,412.46
1124,61.221,70.5,402.4
1126,61.161,70.9,414.33
1128,61.101,71.6,415.44
1130,60.971,72.1,424.56
1132,60.921,72.3,421.14
1134,60.831,72.9,408.62
1136,60.781,72.3,413.9
1138,60.66,73.1,412.85
1140,60.57,72.9,421.89
1142,60.48,73.3,422.03
1144,60.42,72.3,419.57
1146,60.37,72.7,422.88
1148,60.27,73.1,422.68
1150,60.16,73.6,414.76
1152,60.07,73.6,423.07
1154,60.02,73.6,420.49
1156,59.91,73.5,427.59
1158,59.86,72.7,424.16
1160,59.76,72.7,428.29
1162,59.65,72.6,432.36
1164,59.55,72.8,430.69
1166,59.5,74.2,429.53
1168,59.44,73.6,427.26
1170,59.34,73.5,428.82
1172,59.21,73,428.11
1174,59.2,72.6,424.88
1176,59.1,74.5,429.97
1178,59.06,72.8,432.49
1180,59.01,73.3,430.67
1182,58.85,74.7,435.7
1184,58.78,75.1,434.03
1186,58.71,75,437.03
1188,58.6,76.3,434.94
1190,58.52,75,431.74
1192,58.41,74.8,424.37
1194,58.31,75.7,427.81
1196,58.26,76,431.95
1198,58.14,75.1,439.42
1200,58.03,76,430.55
1202,57.98,77.9,436.64
1204,57.89,77.2,433.25
1206,57.81,77.8,432.86
1208,57.68,77.2,444.98
1210,57.61,77.6,441.6
1212,57.5,76.7,448.02
1214,57.43,78.2,432.5
1216,57.36,78.8,442.3
1218,57.22,77.9,446
1220,57.15,77,440.6
1222,57.06,79.9,446.7
1224,57.03,80.6,459.47
1226,56.9,80.3,446.61
1228,56.81,80.2,447.69
1230,56.73,81.4,450.2
1232,56.63,80,452.23
1234,56.55,80.9,461.76
1236,56.48,81.3,443.04
1238,56.37,82.2,453.24
1240,56.29,81.9,454.64
1242,56.22,82.7,448.53
1244,56.11,82.4,452.34
1246,56.05,81.4,425.92
1248,55.95,81.5,454.22
1250,55.85,82,454.91
1252,55.74,83.6,453.99
1254,55.65,83.9,453.66
1256,55.53,82.4,461.28
1258,55.46,83.1,458.54
1260,55.37,83,456.35
1262,55.269,82.5,456.54
1264,55.199,83.3,460.54
1266,55.039,85.2,460.11
1268,54.979,84.9,457.05
1270,54.839,85,463.56
1272,54.779,85.6,469.5
1274,54.689,83.5,463.35
1276,54.599,84.5,460.77
1278,54.489,84.6,458.09
1280,54.389,86.4,466.8
1282,54.319,86.7,469.6
1284,54.209,88.4,468.49
1286,54.149,87.5,466.28
1288,53.999,86.7,467.31
1290,53.939,88,468.87
1292,53.789,87.5,469.89
1294,53.699,86.1,467.23
1296,53.629,86.3,472.49
1298,53.529,88.2,468.42
1300,53.419,88.9,468.28
1302,53.319,89.1,477.83
1304,53.219,89.8,469.1
1306,53.129,88.7,471.97
1308,53.009,89.2,475.54
1310,52.929,90.5,477.23
1312,52.829,90.2,472.69
1314,52.669,90.6,476.49
1316,52.589,91.3,479.81
1318,52.479,90,476.78
1320,52.389,91.5,469.48
1322,52.279,92.4,477.9
1324,52.159,91.8,480.64
1326,52.049,93,485.45
1328,51.959,91.7,480.64
1330,51.839,93.4,479.8
1332,51.719,91.5,480.36
1334,51.609,91.2,486.08
1336,51.499,91.8,490.89
1338,51.409,92.6,485
1340,51.309,94.7,483.37
1342,51.159,94.6,485.48
1344,51.109,94.9,483.46
1346,50.959,95.4,489.2
1348,50.859,93.8,484.84
1350,50.719,94.3,493.01
1352,50.629,95.7,489.5
1354,50.519,98.2,503.61
1356,50.439,97.2,497.57
1358,50.299,97.6,493.04
1360,50.149,98.5,486.62
1362,50.089,95.9,498.13
1364,49.938,96.2,500.68
1366,49.838,95.9,495.08
1368,49.698,96.7,499.31
1370,49.608,96.7,492.99
1372,49.468,98,503.86
1374,49.398,98.2,498.17
1376,49.248,98.4,506.45
1378,49.158,97.6,493.4
1380,49.068,97.5,507.47
1382,48.988,97.6,503.95
1384,48.858,97.2,504.56
1386,48.728,97,501.57
1388,48.608,98.3,505.33
1390,48.468,98,500.89
1392,48.388,96.4,503.62
1394,48.228,96.3,502.34
1396,48.078,98,506.22
1398,47.968,99.1,511.23
1400,47.908,99.7,505.73
1402,47.778,99.7,506.79
1404,47.658,100.9,506.52
1406,47.518,100.9,506.38
1408,47.388,100.1,514.77
1410,47.258,100.1,507.81
1412,47.128,101.6,515.25
1414,46.978,100.5,516.07
1416,46.908,100.4,513.78
1418,46.748,99.8,511.28
1420,46.648,100,521.6
1422,46.558,99.7,523.97
1424,46.428,104.5,514.15
1426,46.288,102.6,514.14
1428,46.158,102,517.88
1430,46.018,101.4,524.08
1432,45.868,100.8,519.23
1434,45.738,99.3,531.58
1436,45.628,101.8,525.25
1438,45.498,103.2,530.53
1440,45.368,102.9,520.76
1442,45.198,104.3,524.3
1444,45.118,104.4,526.41
1446,44.958,102.9,521.65
1448,44.838,104.4,525.23
1450,44.667,105.3,531.59
1452,44.547,106.2,536.49
1454,44.427,106.2,529.96
1456,44.297,107.3,537.29
1458,44.177,106.9,529.09
1460,44.007,109.3,533.83
1462,43.927,107.6,534.2
1464,43.757,110.5,536.03
1466,43.607,110.3,542.46
1468,43.507,111,534.88
1470,43.377,111.3,542.16
1472,43.197,111.4,539.88
1474,43.077,114.7,538.96
1476,42.957,111.5,545.44
1478,42.807,113.5,542.42
1480,42.667,110.4,544.99
1482,42.517,112.4,547.96
1484,42.377,112.2,549.16
1486,42.207,112.8,555.39
1488,42.057,112.1,555.4
1490,41.917,114.7,552.65
1492,41.777,115.7,545.1
1494,41.677,115.2,545.63
1496,41.497,115.8,554.23
1498,41.347,118.6,551.03
1500,41.157,119.7,554.87
1502,41.037,118.4,553.09
1504,40.927,118.8,562.44
1506,40.777,118,557.36
1508,40.637,116.6,553.62
1510,40.507,119.3,556.28
1512,40.367,119.6,553.7
1514,40.187,121.3,557.22
1516,40.037,123.8,557.86
1518,39.827,121.5,555.26
1520,39.717,120.6,564.71
1522,39.566,121.5,560.33
1524,39.446,121.6,566.72
1526,39.316,124.9,560.28
1528,39.156,124.7,562.6
1530,38.976,126.5,560.5
1532,38.846,128.2,566.59
1534,38.716,125.5,557.7
1536,38.536,126,570.6
1538,38.396,125.8,561.76
1540,38.206,129.8,570.36
1542,38.076,130.4,563.18
1544,37.896,128.3,574.61
1546,37.756,129.6,575.16
1548,37.576,131.2,572.41
1550,37.466,131.4,571.18
1552,37.276,130.6,568.93
1554,37.156,130.2,577.29
1556,36.996,127.6,581.97
1558,36.826,128.8,572.38
1560,36.646,128.7,569.11
1562,36.516,128.7,573.1
1564,36.396,129.9,583.37
1566,36.226,130.6,582.12
1568,36.116,131.9,574.01
1570,35.896,131,578.96
1572,35.746,131.7,585.96
1574,35.626,130.4,579.06
1576,35.466,132.1,589.68
1578,35.306,131.3,574.66
1580,35.156,131,581.5
1582,35.026,131.1,585.5
1584,34.836,131.8,585.45
1586,34.656,130,585.51
1588,34.506,131.7,587.28
1590,34.376,130.1,594.87
1592,34.185,131,584.22
1594,34.035,130.3,589.14
1596,33.895,131.8,581.76
1598,33.745,129.9,585.86
1600,33.625,129.6,591.43
1602,33.435,131.1,588.13
1604,33.325,129.7,597.26
1606,33.175,131.5,588.26
1608,33.035,130.7,590.41
1610,32.865,129.7,594.97
1612,32.725,128.7,594.02
1614,32.575,131.1,594.02
1616,32.425,133.4,595.04
1618,32.285,132.1,587
1620,32.135,131.8,601.55
1622,31.985,131.2,591.34
1624,31.825,132.4,589.25
1626,31.695,131.7,599.91
1628,31.595,130.4,598.33
1630,31.475,128.5,598.87
1632,31.295,127.3,603.47
1634,31.165,128.4,604.4
1636,31.035,125.4,604.06
1638,30.935,122.9,595.26
1640,30.775,125.2,600.54
1642,30.605,122.7,603.25
1644,30.505,124.1,605.83
1646,30.335,123.9,600.67
1648,30.275,124,597.69
1650,30.135,119.3,604.33
1652,29.975,120,603.31
1654,29.895,120.2,605.59
1656,29.805,122.1,604.27
1658,29.695,118.3,605.07
1660,29.545,117.4,607.35
1662,29.445,114.7,603.87
1664,29.285,115.3,606.44
1666,29.195,112.9,609.94
1668,29.075,110.5,606.8
1670,28.944,111.4,605.92
1672,28.844,110.1,611.14
1674,28.754,111.1,614
1676,28.644,109.9,612.07
1678,28.554,108.4,616.68
1680,28.454,107.3,611.85
1682,28.324,105.3,619.13
1684,28.264,102.8,617.74
1686,28.134,103.9,616.7
1688,28.054,104,624.16
1690,27.944,102.8,623.5
1692,27.854,100.8,608.76
1694,27.724,100.8,616.4
1696,27.674,100.7,626.44
1698,27.514,96.6,621.92
1700,27.494,95.7,618.02
1702,27.384,93.9,615.37
1704,27.314,91.9,622.74
1706,27.224,92.8,621.32
1708,27.124,91.2,619.92
1710,27.064,89.2,618.71
1712,26.974,90.3,628.31
1714,26.894,87.9,622.05
1716,26.804,88.8,627.17
1718,26.744,87.1,631.15
1720,26.704,83.7,632.92
1722,26.604,83.2,625.38
1724,26.514,83.6,620.49
1726,26.424,83,622.11
1728,26.334,81.3,622.98
1730,26.274,81.3,630.94
1732,26.214,78.8,637.55
1734,26.134,77.9,635.86
1736,26.114,77.8,637.65
1738,26.024,77.6,625.28
1740,25.954,75.7,636.45
1742,25.864,75.3,635.57
1744,25.844,74.3,630.41
1746,25.794,75.1,637.34
1748,25.764,73.8,636.23
1750,25.674,73.1,644.1
1752,25.584,71.9,642.78
1754,25.534,71.8,638.64
1756,25.434,71.4,637.8
1758,25.394,70.7,645.65
1760,25.354,68.3,650.83
1762,25.294,68.6,642.98
1764,25.254,67.6,643.21
1766,25.204,66.5,645.81
1768,25.104,67.1,643.44
1770,25.054,65.8,643.87
1772,25.044,65.1,658.16
1774,24.974,64.2,645.25
1776,24.914,64.5,650.59
1778,24.844,62.4,649.19
1780,24.844,61.9,650.25
1782,24.774,61.5,657.06
1784,24.694,59.9,651.2
1786,24.644,60,653.9
1788,24.614,59.7,646.76
1790,24.604,59.5,659.38
1792,24.544,59.1,658.44
1794,24.514,58.7,656.5
1796,24.434,58.4,660.37
1798,24.404,56.5,656.89
1800,24.324,56.8,656.1
1802,24.324,55.8,663.08
1804,24.234,55.8,665.35
1806,24.194,54.7,656.33
1808,24.164,55.4,664.93
1810,24.154,55.7,659.59
1812,24.104,53.8,668.04
1814,24.084,53.4,668.17
1816,24.044,53.2,660.76
1818,24.004,52.4,670.46
1820,23.974,51.6,669.01
1822,23.914,51.9,670.15
1824,23.894,51.5,660.74
1826,23.874,52.2,665.98
1828,23.804,50.4,657.95
1830,23.804,49.9,666.18
1832,23.764,49.2,669.24
1834,23.733,48.9,654.87
1836,23.673,48.3,666.54
1838,23.663,47.9,665.02
1840,23.623,48.5,656.17
1842,23.623,48.9,665.6
1844,23.553,48.1,666.48
1846,23.523,47.8,657.08
1848,23.473,47.6,668.98
1850,23.453,46.4,668.14
1852,23.473,46.6,662.73
1854,23.443,46,657.05
1856,23.383,46.1,658.99
1858,23.363,46.1,666.42
1860,23.313,44.9,666.11
1862,23.243,45.7,669.87
1864,23.223,45.8,664.81
1866,23.203,46.4,668.71
1868,23.163,46.3,660.74
1870,23.133,44.5,654.33
1872,23.093,45.2,668.65
1874,23.043,44,663.07
1876,23.033,44,662.83
1878,23.023,43.3,666.99
1880,23.003,43.5,667.58
1882,22.983,44.1,664.3
1884,22.933,43.1,651.91
1886,22.953,42.7,656.72
1888,22.893,42.8,665.21
1890,22.943,41.7,661.46
1892,22.853,41.4,661.3
1894,22.803,40.6,662.65
1896,22.813,41.4,665.29
1898,22.743,41.7,656
1900,22.773,40.7,652.46
1902,22.723,42.1,657.76
1904,22.713,41.9,652.94
1906,22.673,41.8,659.15
1908,22.643,41.5,666.1
1910,22.593,41.4,667.42
1912,22.583,40.9,665.13
1914,22.563,41.8,665.77
1916,22.583,39.9,657.11
1918,22.533,40.5,658.6
1920,22.493,40.3,658.56
1922,22.473,39.3,660.57
1924,22.443,39,659.17
1926,22.393,40.1,648.03
1928,22.343,40.4,651.75
1930,22.353,40.2,649.87
1932,22.353,40.5,660.82
1934,22.323,40.1,657.69
1936,22.323,41.6,660.94
1938,22.293,41.3,653.94
1940,22.293,42,655.11
1942,22.253,42,660.61
1944,22.253,41.1,653.74
1946,22.193,40.1,662.05
1948,22.143,40.1,654.71
1950,22.113,40.9,657.07
1952,22.103,41.2,657.09
1954,22.063,41,662.1
1956,22.053,40.5,658.36
1958,22.033,41.6,663.56
1960,22.013,40.8,653.82
1962,22.013,40.6,657.64
1964,22.013,40.7,643.39
1966,21.983,39.2,649.89
1968,21.943,39.5,657
1970,21.923,39.4,650
1972,21.893,39,653.55
1974,21.903,39.9,660.26
1976,21.863,38.7,656.02
1978,21.843,38.8,650.48
1980,21.803,39.7,664.48
1982,21.783,39.3,666.51
1984,21.783,38.8,659.79
1986,21.743,38.6,663.31
1988,21.713,39.1,653.37
1990,21.703,38.5,659.69
1992,21.663,38.9,660.41
1994,21.653,39.2,656.02
1996,21.633,37.9,656.08
1998,21.603,38.7,650.82
2000,21.573,39.2,655.67
2002,21.573,38,659.34
2004,21.513,38,655.79
2006,21.503,36.8,656.94
2008,21.483,37.6,650.86
2010,21.473,38.4,656.24