File: Wood/Calibration_Data/UDRI/UDRI_Wood_Cone_60kW_hor_R3.csv
Time (s),Mass (g),HRR (kW/m2),TC back 1 (K)
0,111.47,0.2,294.903
1,111.52,0,295.022
2,111.47,0,297.118
3,111.39,0.4,299.638
4,111.36,1.4,297.296
5,111.27,4.5,299.245
6,111.21,9.1,303.062
7,110.99,18.6,295.304
8,110.86,32.4,295.52
9,110.69,51.5,298.623
10,110.6,70.8,295.119
11,110.45,90.5,297.597
12,110.3,119.7,306.938
13,110.13,144,305.533
14,109.96,167.8,305.146
15,109.83,188.7,290.584
16,109.68,209.9,289.141
17,109.54,222.9,294.201
18,109.39,240.8,293.504
19,109.25,247.4,294.09
20,109.11,255.3,300.661
21,108.93,269.2,297.657
22,108.739,273.4,302.254
23,108.579,282.3,302.385
24,108.419,281.6,299.332
25,108.289,285.6,308.076
26,108.109,288.8,300.377
27,107.959,294.6,302.42
28,107.839,300.4,297.595
29,107.659,297.7,296.09
30,107.509,297.4,299.755
31,107.369,305.9,293.783
32,107.219,299.1,297.042
33,107.049,296.8,293.479
34,106.939,295.9,293.284
35,106.779,298.8,300.465
36,106.659,299.5,292.082
37,106.509,298.6,299.196
38,106.359,288.7,301.879
39,106.229,299.6,297.676
40,106.119,290.9,304.95
41,105.989,286.3,298.193
42,105.849,283.9,292.536
43,105.749,280.1,298.544
44,105.549,287.2,300.12
45,105.459,290.2,301.133
46,105.349,285.9,296.783
47,105.169,277,294.853
48,105.069,275.7,297.062
49,104.969,273.3,286.259
50,104.829,266.3,293.79
51,104.689,266.1,296.381
52,104.549,262.4,299.084
53,104.469,263,299.446
54,104.339,262.7,287.212
55,104.199,259.8,288.12
56,104.099,258,301.133
57,103.919,257.9,297.825
58,103.829,255.2,284.35
59,103.759,255.9,297.965
60,103.618,255.4,291.241
61,103.488,255.2,295.925
62,103.368,251.8,299.305
63,103.258,256.3,297.149
64,103.128,249,301.266
65,102.978,246.5,307.225
66,102.888,247.2,297.519
67,102.788,245.9,284.635
68,102.708,241.7,293.018
69,102.598,236.4,302.726
70,102.448,231,298.186
71,102.358,235.3,289.319
72,102.248,231.3,299.459
73,102.148,236.5,293.581
74,102.038,231.6,303.139
75,101.928,231.8,300.034
76,101.858,230.3,298.71
77,101.708,231.6,302.653
78,101.578,225.8,289.533
79,101.458,220.5,300.571
80,101.388,222.7,301.421
81,101.278,221.3,302.716
82,101.168,223.7,295.939
83,100.998,218.3,300.825
84,100.938,217.5,297.896
85,100.798,215.8,306.87
86,100.738,217.7,296.597
87,100.618,217.8,299.968
88,100.508,215.9,304.669
89,100.418,215.2,302.743
90,100.318,213,304.536
91,100.188,216.3,299.746
92,100.068,210.5,291.267
93,99.958,214.3,302.355
94,99.848,212.6,299.176
95,99.728,206.6,310.222
96,99.568,209.7,299.357
97,99.508,207.7,294.803
98,99.378,207.7,294.522
99,99.308,208.2,298.086
100,99.278,205.5,306.746
101,99.138,202.8,298.735
102,99.058,206.8,303.623
103,98.878,202.4,303.981
104,98.788,201.5,299.996
105,98.738,197,301.57
106,98.638,201.2,299.13
107,98.518,199.3,305.134
108,98.418,195.2,309.421
109,98.338,195,296.981
110,98.268,195.6,296.921
111,98.167,196.4,305.087
112,98.027,195.3,297.711
113,97.947,195,298.36
114,97.867,194.3,300.084
115,97.797,193.7,303.385
116,97.657,191.2,306.398
117,97.577,190.3,306.317
118,97.407,196,306.287
119,97.387,193.2,301.178
120,97.277,197.4,309.209
121,97.167,196.9,301.523
122,97.087,190.8,304.232
123,96.997,189,304.708
124,96.867,188.7,307.201
125,96.797,191.3,300.614
126,96.697,189.4,307.582
127,96.587,187.5,303.939
128,96.477,189.7,307.389
129,96.367,189.6,306.411
130,96.287,188.5,308.309
131,96.187,188.7,303.838
132,96.127,187.6,306.284
133,96.017,182.5,301.093
134,95.957,183.3,307.931
135,95.857,186.9,309.475
136,95.777,184.1,307.092
137,95.647,179.3,308.424
138,95.577,181.5,305.824
139,95.477,184.3,306.514
140,95.357,181.3,308.714
141,95.297,182.3,307.672
142,95.187,183,307.777
143,95.077,183.5,306.923
144,95.007,184.3,307.972
145,94.947,179.2,306.234
146,94.847,178.8,307.127
147,94.707,181.6,307.536
148,94.617,180.7,307.902
149,94.547,179.2,306.288
150,94.467,180.2,306.966
151,94.327,178,307.499
152,94.237,179.5,311.493
153,94.137,179.5,312.564
154,94.057,180,308.876
155,93.967,178.9,301.312
156,93.867,175.8,309.658
157,93.797,178.2,305.978
158,93.717,176.1,309.965
159,93.657,173.5,301.216
160,93.517,177.1,305.098
161,93.437,176.4,305.021
162,93.337,179.3,307.16
163,93.247,178.6,307.032
164,93.157,176.6,300.471
165,93.067,177.2,313.196
166,92.986,175.2,310.486
167,92.896,176.8,305.923
168,92.816,177.4,305.061
169,92.716,176.6,317.524
170,92.606,175.2,308.588
171,92.476,175.5,308.719
172,92.456,171,313.315
173,92.406,174.9,316.848
174,92.286,171.6,310.028
175,92.196,170.3,308.736
176,92.096,168.4,312.952
177,92.006,170.3,319.457
178,91.916,170.3,306.782
179,91.866,171.4,307.08
180,91.746,169.5,306.953
181,91.656,165.5,315.607
182,91.566,166.9,312.288
183,91.526,163.8,315.908
184,91.436,165.6,315.477
185,91.326,168.1,312.341
186,91.236,166.5,313.097
187,91.136,165,310.845
188,91.076,166.9,303.754
189,91.006,167.2,308.789
190,90.946,167.5,315.772
191,90.786,165.2,314.241
192,90.706,166.8,317.848
193,90.636,167.9,313.449
194,90.536,168,317.3
195,90.456,166.5,316.976
196,90.356,163.2,317.6
197,90.276,164.8,316.865
198,90.206,162.7,313.21
199,90.116,164.2,316.246
200,89.986,163.1,315.882
201,89.926,165.2,312.307
202,89.876,160.8,317.695
203,89.816,162.7,322.747
204,89.716,165.6,318.964
205,89.626,161.8,320.715
206,89.516,161,315.949
207,89.416,163.7,320.979
208,89.336,164.9,313.026
209,89.236,160.8,321.336
210,89.146,162.7,315.037
211,89.066,161.1,323.254
212,88.966,161.7,319.409
213,88.876,160.8,317.831
214,88.806,160.9,317.04
215,88.756,160.2,319.79
216,88.646,156.8,323.829
217,88.556,159.2,315.439
218,88.476,158.9,318.297
219,88.396,157.3,327.815
220,88.316,156.8,324.774
221,88.236,157.6,313.803
222,88.146,159.1,321.39
223,88.066,154.5,324.635
224,87.936,155.5,317.648
225,87.836,152.8,322.933
226,87.766,154.8,324.432
227,87.705,154.6,328.519
228,87.675,156.3,316.614
229,87.585,155.6,323.313
230,87.505,152.6,319.453
231,87.425,152.5,320.64
232,87.355,153.7,319.942
233,87.235,152.3,330.835
234,87.175,152.7,316.981
235,87.035,151.5,324.897
236,87.005,153,322.166
237,86.945,150.5,326.151
238,86.855,152.7,325.621
239,86.745,151.3,321.026
240,86.685,152.2,323.962
241,86.645,150.6,326.304
242,86.545,151.1,323.875
243,86.455,151.7,327.416
244,86.365,151.6,326.269
245,86.255,151.4,322.295
246,86.205,149.3,320.915
247,86.125,151.6,316.398
248,86.025,149,325.864
249,86.005,147.6,319.942
250,85.895,149,320.819
251,85.845,147.8,326.782
252,85.775,150,323.331
253,85.665,149.2,329.89
254,85.585,149.1,319.269
255,85.475,149.3,327.614
256,85.415,151.4,329.412
257,85.315,149.3,331.465
258,85.195,148.6,322.688
259,85.155,149.6,330.156
260,85.085,146.6,326.385
261,84.975,149.8,325.945
262,84.895,148.8,331.578
263,84.775,148.7,326.194
264,84.735,147.3,327.491
265,84.655,145.2,326.236
266,84.575,145.4,330.193
267,84.495,148.6,331.592
268,84.405,147.4,332.665
269,84.305,147.4,336.877
270,84.195,148.6,327.975
271,84.105,149.2,333.923
272,84.055,146.2,329.476
273,84.035,147.5,335.641
274,83.945,145.4,332.295
275,83.845,148.2,331.754
276,83.765,147,330.335
277,83.745,147.7,336.859
278,83.635,148.7,328.438
279,83.525,146.9,336.781
280,83.465,146.9,326.27
281,83.415,146.7,330.315
282,83.305,146.2,337.775
283,83.245,148.3,338.978
284,83.145,145.2,344.761
285,83.005,143.7,330.47
286,82.935,144.6,337.522
287,82.845,146.3,339.386
288,82.805,143.8,338.876
289,82.705,144.3,339.5
290,82.635,141.7,332.973
291,82.535,141.5,340.275
292,82.495,144,334.792
293,82.374,142.2,337.813
294,82.324,143.7,335.02
295,82.234,146.5,336.216
296,82.204,143.2,342.371
297,82.114,142.6,340.889
298,82.024,143,334.234
299,81.924,145.5,337.28
300,81.894,141.1,338.896
301,81.834,144.3,341.73
302,81.744,144.7,334.787
303,81.704,141.6,336.067
304,81.554,142.2,343.11
305,81.544,144.2,338.975
306,81.434,143.1,345.162
307,81.364,142.7,346.896
308,81.274,140.8,346.649
309,81.234,141.6,337.527
310,81.184,143.3,339.684
311,81.094,143.6,343.659
312,81.004,141.8,337.638
313,80.854,141.4,349.552
314,80.854,144.4,343.911
315,80.774,143.3,339.839
316,80.754,142,349.941
317,80.584,142.1,341.561
318,80.524,141.8,338.37
319,80.454,140.5,350.903
320,80.364,142,346.234
321,80.244,140.5,349.134
322,80.234,140,355.393
323,80.114,140.6,338.315
324,80.064,141.2,349.252
325,80.014,138.7,351.591
326,79.944,138.5,345.3
327,79.864,138.9,346.256
328,79.764,139.4,351.526
329,79.654,140.9,349.76
330,79.584,137.6,347.665
331,79.524,137.6,349.817
332,79.494,138.1,355.001
333,79.434,136,345.903
334,79.334,138.8,355.102
335,79.254,139.9,357.332
336,79.134,137.7,355.504
337,79.094,137.9,360.107
338,79.004,137.5,361.187
339,78.874,135.3,354.633
340,78.864,137.6,358.871
341,78.764,137.5,352.576
342,78.704,135.2,353.597
343,78.624,134.7,354.732
344,78.574,136.9,356.039
345,78.444,137.8,352.841
346,78.384,137.5,359.522
347,78.294,137.1,352.03
348,78.224,139.4,358.6
349,78.194,138.7,360.784
350,78.064,140.4,356.585
351,77.984,140.1,358.751
352,77.914,140.1,359.355
353,77.834,136.9,360.999
354,77.804,138.3,356.177
355,77.704,137.7,358.424
356,77.634,135.8,357.578
357,77.564,135.7,357.971
358,77.484,135.8,363.613
359,77.394,137.9,360.927
360,77.334,138,356.857
361,77.243,136.2,360.489
362,77.184,139.1,355.668
363,77.113,136.5,358.498
364,77.003,136.5,366.216
365,76.963,136.8,360.86
366,76.853,137.6,359.282
367,76.793,136,367.945
368,76.693,138.7,363.009
369,76.633,137.8,367.7
370,76.543,137.9,356.905
371,76.473,138.1,365.415
372,76.403,137,364.16
373,76.363,138.3,363.413
374,76.273,135.2,369.089
375,76.193,136,367.342
376,76.123,135.4,369.991
377,76.043,136.9,365.428
378,76.013,135.4,369.218
379,75.913,134.5,362.513
380,75.883,134.6,372.47
381,75.793,135.4,359.504
382,75.743,133.5,365.818
383,75.673,132.4,361.971
384,75.583,134.6,373.8
385,75.463,132.4,368.503
386,75.423,131.9,364.572
387,75.343,131,371.712
388,75.323,129.7,363.74
389,75.263,131.7,367.072
390,75.193,131.6,361.452
391,75.123,131.8,370.676
392,75.033,130.1,364.98
393,74.913,132.8,371.537
394,74.873,129,372.353
395,74.753,130,367.02
396,74.663,131.5,367.458
397,74.623,130.8,371.662
398,74.523,130,370.913
399,74.453,130.8,370.026
400,74.433,126.5,368.941
401,74.323,126.3,368.743
402,74.243,125.7,369.833
403,74.183,123.6,371.038
404,74.123,126.8,371.955
405,73.993,127.8,367.572
406,73.933,128.2,375.41
407,73.843,127.7,370.518
408,73.803,127.9,370.995
409,73.743,125.9,373.06
410,73.673,127.8,375.06
411,73.603,128.8,383.59
412,73.543,127.9,373.58
413,73.473,128.1,373.46
414,73.423,128.5,368.8
415,73.353,127.7,376.41
416,73.273,128.1,369.177
417,73.153,126.1,375.43
418,73.113,127.5,378.1
419,73.043,124.2,371.417
420,72.973,124.1,375.88
421,72.913,127,376.41
422,72.833,124.6,374.76
423,72.743,125.5,378.8
424,72.693,126.4,367.096
425,72.613,127,376.19
426,72.583,124.8,356.491
427,72.473,124.3,363.899
428,72.423,124.5,368.285
429,72.353,125.4,381.34
430,72.233,124.4,375.48
431,72.193,124.3,381.93
432,72.113,122.6,369.663
433,72.053,123.6,370.999
434,72.003,123.3,372.477
435,71.943,125.3,373.84
436,71.922,124.4,369.188
437,71.802,124.8,377.97
438,71.772,122.2,371.645
439,71.692,121.4,370.251
440,71.632,122.2,386.09
441,71.572,122.5,369.382
442,71.472,121.9,375.82
443,71.422,122,376.52
444,71.362,124.9,375.41
445,71.312,123.5,379.02
446,71.172,122.5,381.33
447,71.122,122.3,380.59
448,71.072,120,373.09
449,70.982,120.1,377.84
450,70.902,120.7,371.355
451,70.862,120.7,368.914
452,70.752,119.3,370.389
453,70.672,119,373.49
454,70.632,118.7,374.21
455,70.532,120.4,376.56
456,70.492,118.8,381.29
457,70.422,119.7,374.67
458,70.372,120.4,376.87
459,70.272,118.6,373.76
460,70.192,118.6,376.04
461,70.182,119,371.931
462,70.122,118.8,378.43
463,70.092,117.9,370.803
464,70.012,118,374.93
465,69.912,120.4,372.892
466,69.882,118.4,378.97
467,69.762,119.8,380.81
468,69.742,119.9,377.65
469,69.662,120.9,376.71
470,69.642,120.5,375.82
471,69.522,120.8,373.48
472,69.462,119.4,377.04
473,69.342,118.4,377.56
474,69.252,116.7,376.93
475,69.182,117.6,372.568
476,69.212,117.3,371.373
477,69.112,118.6,375.58
478,69.022,117.5,385.38
479,69.032,119.2,375.37
480,68.962,120,369.781
481,68.862,120,373.63
482,68.832,118.8,384.99
483,68.752,120.3,383.57
484,68.692,117.5,386.92
485,68.612,118.9,383.34
486,68.522,119.9,383.26
487,68.452,119.8,380.5
488,68.342,118.9,371.224
489,68.302,119.6,378.52
490,68.202,117.8,377.59
491,68.132,117.9,378.93
492,68.072,116.9,375.79
493,67.992,116.9,384.8
494,67.922,114.7,383.89
495,67.862,117.6,379.95
496,67.842,116.5,382.73
497,67.742,117.2,379.9
498,67.712,118.1,378.72
499,67.642,116.2,375.9
500,67.562,115.6,373.15
501,67.502,116.4,375.57
502,67.402,114.5,379.76
503,67.322,117,382.11
504,67.262,115.5,373.79
505,67.202,116.7,373.062
506,67.172,117.5,378.75
507,67.102,114.9,384.31
508,67.002,117.3,380.81
509,66.982,118.5,378.16
510,66.842,116.1,383.98
511,66.802,116.6,387.42
512,66.752,116.6,379.75
513,66.661,116.7,379.31
514,66.611,115.7,379.29
515,66.551,115.3,375.75
516,66.481,116.8,379.05
517,66.421,117.6,377.8
518,66.371,116.9,386.68
519,66.311,116.3,383.96
520,66.241,116.6,386.9
521,66.171,116,387.75
522,66.161,116.9,383.78
523,66.051,116.9,379.48
524,65.971,117.8,391.21
525,65.891,116.9,388.6
526,65.821,118,384.02
527,65.781,115.6,376.61
528,65.721,115.4,381.72
529,65.661,116.9,387.72
530,65.611,115.5,384.8
531,65.531,116.7,382.91
532,65.441,116,383.76
533,65.401,115.8,385.28
534,65.361,116.4,387.93
535,65.271,116.6,377.58
536,65.161,117.8,389.19
537,65.111,116.3,377.22
538,65.101,117.9,383.34
539,65.001,116.7,379.66
540,64.931,117.3,382.68
541,64.861,116.5,387.08
542,64.791,117.6,382.19
543,64.791,116.2,384.47
544,64.711,114.8,385.14
545,64.611,115.3,387.15
546,64.521,115,387.38
547,64.481,115,382.84
548,64.371,114.4,384.09
549,64.301,114.9,379.43
550,64.241,117.4,387.16
551,64.161,115.8,381.32
552,64.111,116.3,388.06
553,64.071,114.4,380.61
554,64.021,115.2,386.1
555,63.951,116.2,383.72
556,63.931,117.1,382.13
557,63.801,117.6,384.68
558,63.741,113.8,388.03
559,63.671,116.7,385.55
560,63.601,117.4,392.46
561,63.551,116.3,386.52
562,63.491,115,386.36
563,63.431,116.4,382.33
564,63.371,116,392.36
565,63.331,113.4,389.91
566,63.251,112.7,390.36
567,63.161,115.9,389.52
568,63.101,115.5,377.19
569,63.081,113.5,391.38
570,63.001,115,391.09
571,62.891,115.8,397.01
572,62.881,115.9,388.55
573,62.821,115,387.64
574,62.751,115.3,380.85
575,62.671,113.6,389.03
576,62.591,113.2,392.59
577,62.521,114.7,382.99
578,62.511,115,389.84
579,62.451,112.8,386.75
580,62.361,115.6,390.51
581,62.301,114.5,381.9
582,62.221,116.2,389.11
583,62.171,115.1,387.91
584,62.141,113.8,386.64
585,62.051,113.9,390.49
586,62.041,114.2,394.62
587,61.951,115.3,388.29
588,61.871,116,383.66
589,61.811,115.5,385.36
590,61.761,117.5,400.44
591,61.691,116.5,383.73
592,61.581,116.2,391.22
593,61.521,117.3,390.05
594,61.491,117,388.15
595,61.451,116.6,386.62
596,61.36,116.3,392.61
597,61.27,115.9,386.45
598,61.2,115.8,388.32
599,61.11,117,386.15
600,61.11,115.6,394.86
601,61.01,117.5,392.57
602,60.93,116,396.14
603,60.88,116.4,398.62
604,60.8,115.6,400.15
605,60.74,116.1,377.23
606,60.63,115.4,396.09
607,60.62,115.5,398.02
608,60.56,116.3,389.62
609,60.48,115.2,398.98
610,60.43,116.6,398.36
611,60.34,116.7,391.86
612,60.29,115.2,393.74
613,60.25,116.4,394.46
614,60.15,117.5,391.31
615,60.09,114.2,394.3
616,60.02,115.5,399.38
617,59.98,116,396.42
618,59.92,115.1,395.14
619,59.87,115.3,389.66
620,59.8,115.8,396.26
621,59.77,115.7,391.03
622,59.64,115.2,390.93
623,59.54,116.4,398.72
624,59.55,115.7,388.99
625,59.53,115.7,389.18
626,59.42,114.9,383.43
627,59.3,117.3,395.3
628,59.31,116.5,399.6
629,59.21,116.7,394.86
630,59.14,115.5,390.13
631,59.07,114.1,395.21
632,58.96,115.7,389.14
633,58.94,114.5,396.86
634,58.91,114.3,397.93
635,58.83,115.9,397.69
636,58.76,115.9,392.51
637,58.73,116.7,401.21
638,58.68,117.5,394.29
639,58.62,116,393.66
640,58.51,115.1,395.99
641,58.43,114.4,396.48
642,58.41,115.6,397.03
643,58.32,115.4,392.54
644,58.22,115.9,406.12
645,58.16,115.2,393.93
646,58.12,116.3,404.78
647,58.06,117,399.31
648,58,115.2,403.67
649,57.94,116.7,394.3
650,57.91,114.3,390.82
651,57.87,115.4,395.96
652,57.75,115.1,403.98
653,57.71,114.4,399.54
654,57.65,114.3,388.2
655,57.58,113.5,398.94
656,57.54,112.8,401.99
657,57.45,114,405.7
658,57.39,113.9,391.44
659,57.36,112.3,407.03
660,57.27,114.6,400.47
661,57.18,114.1,399.77
662,57.14,114.5,405.94
663,57.07,115.4,395.32
664,57.03,114.8,403.29
665,56.93,114.6,402.18
666,56.89,113.9,400.9
667,56.84,115.6,403.72
668,56.74,114.1,397.03
669,56.64,114,400.47
670,56.58,113,406.42
671,56.57,113.1,414.01
672,56.51,111.3,404.91
673,56.41,110.9,407.9
674,56.36,110.7,401.77
675,56.28,112.7,400.94
676,56.23,111.5,401.4
677,56.18,113.6,408.88
678,56.09,112.4,403.35
679,56.039,113.8,400.47
680,55.969,113.7,405.18
681,55.909,114.2,397.97
682,55.799,113.9,402.08
683,55.749,113.1,404.49
684,55.719,113.9,405.67
685,55.669,113.4,408.51
686,55.559,113.7,408.83
687,55.499,111.9,408.59
688,55.449,113.5,410.11
689,55.409,112,414.89
690,55.329,112.1,410.29
691,55.299,111.1,399.89
692,55.259,112.7,406.84
693,55.219,113.7,410.51
694,55.149,112.7,401.67
695,55.049,113.3,411.66
696,54.999,112.7,405.86
697,54.939,113.3,417.76
698,54.869,112.4,412.08
699,54.809,112.7,413.6
700,54.699,114.5,409.57
701,54.609,113.6,409.67
702,54.619,112.1,406.97
703,54.549,113.2,409.08
704,54.509,112.7,409.27
705,54.409,112.7,403.54
706,54.379,110.4,417.67
707,54.339,111.8,404.09
708,54.269,111,416.55
709,54.199,112.7,408.41
710,54.099,112.5,413.82
711,54.069,113.2,407.61
712,54.029,112.3,409.12
713,53.949,111.3,410.01
714,53.849,111.1,418.09
715,53.839,110.3,419.34
716,53.719,111.3,407.38
717,53.699,111.1,417.08
718,53.619,112,413.38
719,53.589,113.9,414.23
720,53.549,113.1,414.95
721,53.459,113.9,408.41
722,53.339,113.7,406.74
723,53.299,113.7,413.91
724,53.269,112.5,411.3
725,53.159,115.3,414.77
726,53.099,113.7,415.93
727,53.049,114.4,420.29
728,53.009,113,408.33
729,52.929,112.2,420.54
730,52.869,112.3,415.61
731,52.839,113.4,420.23
732,52.749,112.9,413.91
733,52.719,113.3,424.01
734,52.629,112.8,413.7
735,52.569,115.5,420.13
736,52.549,113.6,409.82
737,52.489,114.3,413.16
738,52.429,113.8,422.51
739,52.309,113.7,419.37
740,52.279,111.1,422.56
741,52.239,111.4,421.13
742,52.149,113.5,414.57
743,52.129,113.4,421.47
744,52.049,113.7,417.29
745,51.959,115.7,417.68
746,51.889,115.5,424.57
747,51.819,112.9,425.64
748,51.749,114.6,431.21
749,51.709,114.1,422.54
750,51.629,113.1,419.81
751,51.599,113.9,423.71
752,51.539,114.6,426.79
753,51.469,114.7,420.55
754,51.399,114.8,421.72
755,51.359,114.6,432.24
756,51.279,115.2,413.26
757,51.259,113.6,429.38
758,51.159,115.7,412.74
759,51.109,113.9,435.96
760,51.029,112.7,422.12
761,50.989,114.8,419.75
762,50.909,113.1,420.56
763,50.839,113.3,433.69
764,50.798,114.2,429.28
765,50.718,114.6,425.62
766,50.658,112.6,419.71
767,50.618,114.2,424.76
768,50.548,113.1,435.81
769,50.468,111.8,421.65
770,50.388,113.4,427.48
771,50.368,113.6,422.55
772,50.318,113.8,425.11
773,50.258,112.9,423.73
774,50.208,114.4,416
775,50.118,113,425.92
776,50.068,113.9,426.28
777,49.948,115,429.13
778,49.898,114.4,426.95
779,49.828,116.2,424.9
780,49.768,116.1,433.25
781,49.708,114.5,430.8
782,49.668,114.2,429.68
783,49.628,113.7,434.21
784,49.538,114.9,437.55
785,49.468,113.7,428.23
786,49.428,114.4,433.36
787,49.348,115.8,417.47
788,49.318,114.2,431.78
789,49.238,114.4,437.78
790,49.118,115.3,430.9
791,49.058,115.8,435.04
792,48.988,116.5,442.46
793,48.958,116,434.31
794,48.898,117.2,434.79
795,48.858,114.7,431.25
796,48.778,114.3,439.98
797,48.718,113.2,436.36
798,48.678,113.7,432.33
799,48.588,113.6,433.16
800,48.518,113.5,432.02
801,48.478,114.2,432.52
802,48.428,117.3,440.72
803,48.338,115.2,441.14
804,48.338,115.6,439.48
805,48.238,116,434.95
806,48.178,116.9,438.08
807,48.098,116.4,433.64
808,48.008,114.6,444.05
809,47.968,115.1,439.19
810,47.908,116.3,443.5
811,47.858,115.5,442.65
812,47.808,117.1,443.8
813,47.728,116.4,446.27
814,47.628,115.9,450.89
815,47.608,117.2,438.88
816,47.548,116.4,443.58
817,47.478,117.3,440.89
818,47.408,118.4,446.7
819,47.358,115.7,435.74
820,47.248,117.9,445.46
821,47.218,115.8,443.21
822,47.148,115.4,436.76
823,47.078,116.8,449.02
824,46.998,117.2,448.2
825,46.938,116.6,444.81
826,46.898,117.1,451.94
827,46.818,117.2,442.66
828,46.768,118,453.95
829,46.698,116.4,452.41
830,46.648,117.9,452.91
831,46.588,119.3,446.84
832,46.508,117.1,453.95
833,46.418,118.4,450.87
834,46.368,118.6,452.24
835,46.268,117.1,462.45
836,46.218,118.8,453.16
837,46.168,121.5,456.44
838,46.088,119.1,441.29
839,46.068,119.6,453.21
840,45.988,120.2,446.88
841,45.898,118.8,443.47
842,45.858,118.1,456.64
843,45.798,116.7,447.72
844,45.758,117.1,459.78
845,45.668,118.4,457.21
846,45.598,119.2,453.38
847,45.517,118.9,458.52
848,45.487,120.7,456.49
849,45.437,118.9,455.48
850,45.377,120,460.6
851,45.287,120.8,450.08
852,45.197,120.3,452.76
853,45.147,118.4,461.68
854,45.127,119.2,457.63
855,45.007,118.9,456.66
856,44.927,121.1,454.21
857,44.867,120.1,456.53
858,44.817,119.6,463.47
859,44.767,120.2,459.67
860,44.697,120.5,457.27
861,44.607,120.1,467.27
862,44.567,122.1,462.16
863,44.527,117.4,461.61
864,44.447,119.6,460.26
865,44.367,120.2,462.04
866,44.307,121.8,459.84
867,44.227,121.2,469.8
868,44.227,121.1,463.13
869,44.157,121.9,469.26
870,44.087,121.5,468.12
871,43.997,122.5,469.3
872,43.927,119.8,466.95
873,43.857,121.2,459.29
874,43.777,119.9,461.44
875,43.707,121.7,467.76
876,43.677,120.5,471.47
877,43.637,119.4,466.84
878,43.527,120.3,470.76
879,43.477,121.4,468.7
880,43.427,122.5,474.34
881,43.327,121.5,466.86
882,43.237,120.7,476.15
883,43.177,124,468.11
884,43.127,121.3,467.88
885,43.077,121.3,475.43
886,42.987,122.3,474.57
887,42.887,120.8,467.65
888,42.867,122.1,465.73
889,42.807,121.4,472.53
890,42.737,123.2,471.86
891,42.657,122.5,478.15
892,42.577,123.9,471.14
893,42.487,123.9,465.63
894,42.447,121.8,475.56
895,42.367,121.9,474.67
896,42.297,123.2,476.9
897,42.227,121,475.31
898,42.177,123.2,476.43
899,42.097,122.8,471.36
900,42.057,123.6,482.23
901,41.967,124,477.03
902,41.907,123.9,481.81
903,41.857,123.3,475.09
904,41.797,122.8,481.01
905,41.737,123.2,480.8
906,41.657,123.1,485.84
907,41.557,123.7,482.49
908,41.517,124,471.74
909,41.507,126.5,483.99
910,41.507,123.6,489.93
911,41.337,123.3,481.99
912,41.207,121.6,482.38
913,41.127,124.8,492.65
914,41.127,123.1,487.74
915,41.027,123.3,484.86
916,40.927,123,486.46
917,40.827,126,482.13
918,40.757,125.7,489.45
919,40.757,122.4,488.82
920,40.647,123.8,488.95
921,40.577,125.3,486.63
922,40.527,127,488.23
923,40.447,124.5,486.1
924,40.407,128,483.6
925,40.347,126,489.57
926,40.266,126.5,490.21
927,40.246,126.9,493.3
928,40.206,125,483.38
929,40.126,128.1,494.05
930,40.016,125.2,502.25
931,39.926,128.1,490.73
932,39.846,126.3,492.17
933,39.766,127.4,493.66
934,39.706,126.4,494.77
935,39.636,127.9,496.2
936,39.566,126.2,499.29
937,39.526,126.8,491.06
938,39.406,124.7,486.9
939,39.356,125.8,493.95
940,39.296,124.7,493.84
941,39.216,124.7,498.74
942,39.166,124.3,499.27
943,39.086,123.3,496.85
944,39.076,127.8,499.87
945,38.976,123.7,499.9
946,38.876,125.9,491.67
947,38.796,125.7,494.66
948,38.746,124.2,494.02
949,38.686,122.3,491.62
950,38.616,125.2,505.23
951,38.526,125.6,498.49
952,38.436,126.9,498.01
953,38.376,128.8,497.91
954,38.296,129.7,499.76
955,38.246,128.3,502.04
956,38.176,127.8,499.2
957,38.106,127.4,502.13
958,38.036,126.4,500.35
959,37.966,127.2,505.38
960,37.896,127.5,501.67
961,37.846,126.9,505.84
962,37.756,127.7,507.11
963,37.696,127.6,509.32
964,37.596,128.2,509.42
965,37.546,129.7,504.23
966,37.496,128.4,510.58
967,37.426,129,504.52
968,37.326,130.1,504.35
969,37.286,128.5,504.22
970,37.196,126.9,509.58
971,37.166,130.1,514.31
972,37.086,127.1,511.28
973,37.006,126.2,504.82
974,36.936,128.1,500.79
975,36.846,128.2,510.85
976,36.796,127.1,512.93
977,36.696,127.8,516.39
978,36.626,128,511.07
979,36.586,130.2,516.54
980,36.496,130.5,513.37
981,36.426,129.6,514.04
982,36.336,127.9,515.71
983,36.296,130,512.75
984,36.226,131.5,517.9
985,36.156,131.4,517.83
986,36.096,132.5,520.82
987,35.976,132.1,513.36
988,35.896,131.4,517.16
989,35.856,130.5,514.42
990,35.776,130.4,519.33
991,35.686,131.1,515.25
992,35.656,132.6,515.35
993,35.536,133.5,518.02
994,35.496,134.2,523.83
995,35.416,131.8,525.29
996,35.366,133.6,515.54
997,35.296,134.7,520.61
998,35.246,132.5,524.12
999,35.116,131.3,516.32
1000,35.056,133.8,524.86
1001,34.965,133.2,525.18
1002,34.915,133.7,523.82
1003,34.795,132.2,523.32
1004,34.755,131.1,521.48
1005,34.695,133.9,523.79
1006,34.635,135.2,526.72
1007,34.585,134.7,521.6
1008,34.515,135.8,525.46
1009,34.415,136.4,526.26
1010,34.365,134.4,524.14
1011,34.265,136.7,534.03
1012,34.185,136,532.9
1013,34.105,137.2,525.33
1014,34.045,136.5,536.18
1015,33.965,136,519.38
1016,33.895,135.1,525.86
1017,33.815,135.7,533.27
1018,33.725,136.1,533.38
1019,33.675,134.4,535.36
1020,33.625,134.4,534.8
1021,33.545,135,526.44
1022,33.465,134.5,532.69
1023,33.395,134.5,528.32
1024,33.345,136.8,537.11
1025,33.235,133.3,532.47
1026,33.135,135.5,529.52
1027,33.045,132.6,529.7
1028,33.005,134.8,535.04
1029,32.915,135.4,530.25
1030,32.825,136.4,537.88
1031,32.745,134.1,533.92
1032,32.685,133.4,542.94
1033,32.625,134.2,547.06
1034,32.525,135.1,537.03
1035,32.465,135.9,536.3
1036,32.395,136.1,532.58
1037,32.335,136,541.28
1038,32.225,135.4,544.05
1039,32.155,134.9,537.45
1040,32.085,136.9,534.93
1041,32.035,134.4,541.57
1042,31.985,131.9,537.94
1043,31.925,134.1,546.97
1044,31.835,132.1,544.54
1045,31.765,133.2,552.83
1046,31.705,133.2,538.85
1047,31.645,137,546.22
1048,31.555,136.4,542.12
1049,31.485,135.7,543.68
1050,31.355,137.5,544.73
1051,31.305,137.4,548.11
1052,31.185,136.6,547.46
1053,31.135,136,548.01
1054,31.095,134.3,549.69
1055,30.995,134.3,550.75
1056,30.925,134.5,549.22
1057,30.875,135.8,548.04
1058,30.815,134.3,551.17
1059,30.735,135.3,548.26
1060,30.665,136.7,550.48
1061,30.555,136,554.78
1062,30.505,135.3,552.5
1063,30.425,133.8,551.32
1064,30.365,135.8,555.74
1065,30.255,132.8,557.6
1066,30.175,137.8,551.38
1067,30.155,136.8,556.55
1068,30.045,135.6,557.25
1069,29.965,136.2,555.2
1070,29.905,135.2,559.34
1071,29.815,134.5,559.3
1072,29.784,136.5,563.35
1073,29.685,135.8,547.56
1074,29.614,136.8,554.17
1075,29.504,135.3,562.32
1076,29.454,134.9,558.36
1077,29.394,136.5,554.25
1078,29.284,138.4,559.44
1079,29.234,133.8,558.57
1080,29.154,135.7,564.9
1081,29.084,135.4,564.44
1082,29.034,134.5,564.24
1083,28.944,133.9,564.88
1084,28.904,137.9,550.94
1085,28.824,139.2,561.27
1086,28.744,136.6,555.37
1087,28.634,137.9,563.98
1088,28.574,137.2,564.46
1089,28.504,135.9,566.1
1090,28.434,136.7,564.92
1091,28.364,137.8,568.35
1092,28.304,137,563.66
1093,28.234,137.5,565.99
1094,28.154,133,572.61
1095,28.084,136.5,567.15
1096,28.014,137.9,568.34
1097,27.934,136.3,564.9
1098,27.844,136.8,568.12
1099,27.814,136,569.5
1100,27.744,134.4,570.68
1101,27.664,135,573.3
1102,27.584,135.1,572.8
1103,27.464,137.4,574.75
1104,27.374,134.1,572.72
1105,27.324,135.8,574.92
1106,27.284,134.9,574.35
1107,27.204,134.8,576.74
1108,27.114,133.6,574.39
1109,27.034,135.3,579.72
1110,26.994,134,577.96
1111,26.914,133.2,580.77
1112,26.844,133.9,581.05
1113,26.754,133.3,582.68
1114,26.674,133.1,575.76
1115,26.644,133,580.14
1116,26.544,134.4,578.99
1117,26.464,135.3,576.64
1118,26.394,133.1,581.97
1119,26.344,133.2,579.85
1120,26.254,135.4,582.87
1121,26.194,135,574.98
1122,26.124,131.2,581.86
1123,26.054,132.6,583.19
1124,25.994,133.3,583.96
1125,25.924,133.6,582.22
1126,25.814,130.9,584.07
1127,25.714,130.8,583.28
1128,25.674,128.7,582.18
1129,25.644,130.7,584.3
1130,25.544,129.1,578.1
1131,25.444,130.6,590.88
1132,25.404,128.1,587.49
1133,25.304,127.9,591.29
1134,25.264,127.4,591.13
1135,25.234,128.6,588.58
1136,25.164,128.2,587.49
1137,25.114,130.2,593.05
1138,25.054,130,587.68
1139,24.954,129.4,590.96
1140,24.904,129.8,593.21
1141,24.834,128.6,588.93
1142,24.814,127.3,585.6
1143,24.734,127,589.16
1144,24.664,125.5,601.05
1145,24.614,126.9,595.67
1146,24.523,127.9,590.23
1147,24.473,126.4,583.8
1148,24.423,125.1,596.04
1149,24.353,124.2,590.6
1150,24.273,124.5,595.54
1151,24.213,124.2,596.83
1152,24.133,124.8,592.48
1153,24.073,126.3,596.72
1154,24.003,124.6,599.44
1155,23.953,126.3,596.6
1156,23.903,124.1,601.85
1157,23.863,123.5,600.47
1158,23.803,121.6,601.18
1159,23.713,122.2,601.63
1160,23.623,121.8,600.36
1161,23.543,120.8,600.93
1162,23.493,120.8,603
1163,23.423,119.1,601.74
1164,23.373,118.1,604.79
1165,23.293,118.2,601.62
1166,23.273,119.3,602.51
1167,23.193,117.7,603.04
1168,23.133,120.2,605.04
1169,23.063,118.8,604.46
1170,22.993,118.4,604.89
1171,22.933,119.9,606.5
1172,22.863,119.4,606.64
1173,22.853,116.2,608.65
1174,22.763,115.7,604.99
1175,22.703,114.5,608.82
1176,22.673,115.4,609.96
1177,22.583,115.2,611.1
1178,22.543,116.4,611.39
1179,22.453,115.4,612.05
1180,22.413,114.3,610.63
1181,22.303,114.2,613.41
1182,22.243,113.9,612.83
1183,22.203,115.4,613.4
1184,22.163,113.4,613.77
1185,22.133,112.3,615.05
1186,22.063,111.9,614.37
1187,22.023,111.4,616.43
1188,21.973,110.8,617.97
1189,21.933,112.9,619.6
1190,21.893,110.8,620.89
1191,21.833,110.3,617.89
1192,21.763,112.9,618.15
1193,21.673,109.8,619.03
1194,21.643,110.3,620.71
1195,21.613,110.2,620.41
1196,21.533,110.4,618.73
1197,21.493,110,621
1198,21.463,108.7,622.12
1199,21.423,106.8,621.4
1200,21.373,108.9,623.32
1201,21.283,108.6,624.1
1202,21.223,107.2,625.42
1203,21.193,107.6,625.85
1204,21.123,107.5,624.42
1205,21.073,107.2,624.84
1206,21.013,106.9,624.97
1207,20.933,105.5,626.73
1208,20.893,106.4,626.37
1209,20.833,105.2,626.4
1210,20.773,105.2,627.15
1211,20.753,103.6,627.72
1212,20.683,102.3,628.61
1213,20.663,102.5,631.7
1214,20.623,103.5,624.54
1215,20.543,101.9,634.51
1216,20.543,102.1,630.74
1217,20.483,103,631.86
1218,20.433,101.5,633.17
1219,20.333,100.9,634.41
1220,20.303,99.9,635.49
1221,20.273,99.5,633.82
1222,20.233,100.8,637.22
1223,20.163,99.4,636.13
1224,20.153,98.8,638.94
1225,20.073,98.9,637.3
1226,20.043,98.6,638.74
1227,19.983,97.1,640.27
1228,19.923,98.8,638.89
1229,19.893,97.9,640.47
1230,19.843,97.2,642.82
1231,19.753,97.3,640.42
1232,19.753,96.3,642.34
1233,19.733,97,644.36
1234,19.653,98,644.33
1235,19.583,97.1,643.93
1236,19.543,98.2,645.84
1237,19.463,98.3,638.16
1238,19.433,98.2,645.97
1239,19.393,98,651.06
1240,19.353,95.7,647.84
1241,19.293,96.4,653.89
1242,19.243,96.3,648.93
1243,19.192,95.3,650.57
1244,19.142,94.1,645.92
1245,19.102,94.3,656.35
1246,19.102,93.2,650.47
1247,19.052,94.9,651.4
1248,19.002,93.9,652.4
1249,18.952,94.1,652.51
1250,18.922,93.2,656.04
1251,18.882,92.4,655.94
1252,18.832,93.2,652.3
1253,18.832,94.1,653.98
1254,18.792,93.2,655.94
1255,18.712,94.1,655.81
1256,18.702,91.6,650.89
1257,18.632,92.6,659.46
1258,18.632,90.4,658.7
1259,18.582,89.2,656.42
1260,18.572,90.2,662.68
1261,18.502,88.9,664.17
1262,18.472,89.5,656.38
1263,18.422,89,659.15
1264,18.412,88.3,663.21
1265,18.402,86.1,659.4
1266,18.332,87,661.25
1267,18.302,86.3,653.4
1268,18.282,85.5,655.15
1269,18.232,84.1,663.64
1270,18.202,85.2,657.97
1271,18.142,82.9,662.23
1272,18.102,84,668.87
1273,18.072,85.5,663.34
1274,18.052,85.5,659.51
1275,18.032,83.5,666.13
1276,17.982,84.3,667.53
1277,17.992,83.7,668.03
1278,17.932,82.9,667.9
1279,17.892,81.4,669.61
1280,17.862,82.5,669.79
1281,17.842,80.6,671.05
1282,17.842,80.8,671.26
1283,17.812,79.9,672.03
1284,17.812,78.9,675.54
1285,17.782,78.3,673.28
1286,17.772,77.7,676.79
1287,17.712,76.7,676.2
1288,17.662,76,678.37
1289,17.652,77.2,679
1290,17.642,77.1,680.3
1291,17.602,78,681.53
1292,17.522,78.4,683
1293,17.512,76.4,682.8
1294,17.462,75.5,684.1
1295,17.462,76.1,686.73
1296,17.432,75.5,686.18
1297,17.372,75.2,686.76
1298,17.382,74.2,687.99
1299,17.352,73.5,689.24
1300,17.312,73.9,690.63
1301,17.312,74.3,692.18
1302,17.262,71.5,692.31
1303,17.272,71.5,691.9
1304,17.232,71.6,693.59
1305,17.202,70.5,692.5
1306,17.222,70.8,694.81
1307,17.212,68.8,695.75
1308,17.192,68.5,696.91
1309,17.162,69.4,697.33
1310,17.122,68.2,701.27
1311,17.092,69.4,701.49
1312,17.042,68,700.98
1313,17.042,67.6,701.02
1314,17.002,67,702.15
1315,17.002,66.9,704.82
1316,17.032,66.6,703.68
1317,17.022,67.2,705.05
1318,16.982,66.7,705.57
1319,16.952,66.5,704.99
1320,16.932,65.8,709.46
1321,16.902,64.7,709.01
1322,16.862,64.4,708.24
1323,16.842,62.9,711.53
1324,16.842,63.8,710.43
1325,16.772,62.7,705.44
1326,16.782,62.9,711.51
1327,16.752,63,708.78
1328,16.712,63.9,710.98
1329,16.722,62.5,710.9
1330,16.722,62.7,710.3
1331,16.682,62.2,711.53
1332,16.652,62.4,712.71
1333,16.652,61.5,713.36
1334,16.622,60.4,713.64
1335,16.582,59.5,712.63
1336,16.572,60.5,716.98
1337,16.542,58.7,715.15
1338,16.522,59.1,714.99
1339,16.522,58.8,715.52
1340,16.512,59,717.21
1341,16.522,59.6,717.4
1342,16.512,58.4,716.07
1343,16.502,58.7,716.09
1344,16.492,56.8,716.71
1345,16.462,56,717.52
1346,16.442,57.4,719.41
1347,16.402,56.1,717.65
1348,16.392,56.2,719.65
1349,16.362,55,719.51
1350,16.382,56.1,719.83
1351,16.342,56.1,720.94
1352,16.312,55.8,720.82
1353,16.322,55.1,721.42
1354,16.302,55.1,720.62
1355,16.292,54.5,723.08
1356,16.272,53.6,722.75
1357,16.232,53.7,723.77
1358,16.202,53.5,721.46
1359,16.182,52.7,723.35
1360,16.172,52.9,724.53
1361,16.182,53,722.82
1362,16.182,52.3,722.34
1363,16.152,52.1,724.8
1364,16.122,52.6,728.46
1365,16.092,52.9,726.14
1366,16.102,52.3,725.68
1367,16.072,52.5,726.34
1368,16.052,52.8,726.34
1369,16.042,52.5,728.74
1370,16.022,53.1,728.53
1371,16.012,53,728.14
1372,15.982,52.9,729.8
1373,16.002,52.1,726.51
1374,15.962,52.7,730.27
1375,15.942,50.8,728.28
1376,15.942,49.9,728.56
1377,15.922,50.7,728.43
1378,15.942,50.2,730.25
1379,15.932,49.8,727.02
1380,15.942,49.4,731.11
1381,15.902,48,730.44
1382,15.912,48.5,729.81
1383,15.872,48.1,729.9
1384,15.872,48.4,731.73
1385,15.842,47.8,730.15
1386,15.862,48.5,730.71
1387,15.832,49.7,728.5
1388,15.802,49.7,729.89
1389,15.812,49.4,731
1390,15.782,49.2,731.71
1391,15.762,49.7,730.43
1392,15.782,49,730.81
1393,15.752,48.8,732.61
1394,15.722,48.3,730.63
1395,15.752,48.2,731.3
1396,15.692,48.3,731.75
1397,15.722,48.4,733.16
1398,15.712,48.6,732.71
1399,15.672,47.9,735.88
1400,15.672,48.3,728.89
1401,15.672,48.2,733.73
1402,15.652,48.3,732.08
1403,15.662,47.9,734.34
1404,15.602,47.8,732.24
1405,15.602,48.1,735.38
1406,15.592,48.3,732.41
1407,15.602,47,737.32
1408,15.612,47,732.3
1409,15.612,46.8,743.06
1410,15.592,47.1,730.52
1411,15.582,45.8,734.64
1412,15.522,46.5,734.72
1413,15.472,45.9,740.99
1414,15.472,45.9,734.8
1415,15.512,45.8,732.35
1416,15.482,46.1,733.51
1417,15.462,46.1,734.33
1418,15.452,45.3,735.43
1419,15.442,44.2,734.61
1420,15.442,43.8,735.5
1421,15.432,43.8,731.42
1422,15.352,44.6,735.1
1423,15.382,45.3,741.16
1424,15.402,45.5,735.22
1425,15.372,45.6,736.08
1426,15.372,44.9,737.77
1427,15.392,44.3,739.53
1428,15.372,45.7,739.55
1429,15.322,44.6,739.22
1430,15.322,45,739.55
1431,15.272,45.5,738.06
1432,15.282,45.2,738.6
1433,15.282,44.7,739.47
1434,15.262,45.3,740.5
1435,15.232,45.2,739.77
1436,15.272,45.2,740.83