File: Wood/Calibration_Data/UDRI/UDRI_Wood_MCC_N2_60K_R1.csv
Time (s),Temperature (K),HRR (W/g)
75.8282,416,0.05
76.3049,416.5,-0.06
76.7194,417,-0.15
77.093,417.5,-0.19
77.4678,418,-0.19
77.9437,418.5,-0.25
78.4376,419,-0.29
78.9432,419.5,-0.18
79.4387,420,-0.16
79.9212,420.5,-0.18
80.4098,421,-0.20
80.9304,421.5,-0.19
81.4393,422,-0.16
81.9247,422.5,-0.18
82.4097,423,-0.11
82.9376,423.5,0.02
83.5091,424,0.21
84.0111,424.5,0.27
84.4732,425,0.30
84.9618,425.5,0.34
85.4733,426,0.42
85.9611,426.5,0.47
86.4545,427,0.43
86.9623,427.5,0.51
87.4513,428,0.66
87.9245,428.5,0.69
88.3947,429,0.68
88.8667,429.5,0.73
89.3111,430,0.78
89.7465,430.5,0.72
90.2,431,0.58
90.6835,431.5,0.55
91.181,432,0.64
91.6781,432.5,0.70
92.1733,433,0.74
92.6693,433.5,0.83
93.1524,434,0.92
93.6318,434.5,0.97
94.1171,435,0.94
94.6002,435.5,0.90
95.1214,436,1.03
95.6629,436.5,1.08
96.1634,437,1.14
96.6508,437.5,1.34
97.1495,438,1.36
97.6506,438.5,1.27
98.1438,439,1.29
98.6338,439.5,1.40
99.112,440,1.47
99.6038,440.5,1.36
100.092,441,1.31
100.557,441.5,1.40
101.025,442,1.52
101.458,442.5,1.49
101.906,443,1.37
102.381,443.5,1.29
102.857,444,1.27
103.338,444.5,1.32
103.821,445,1.43
104.325,445.5,1.59
104.835,446,1.70
105.327,446.5,1.72
105.81,447,1.73
106.292,447.5,1.80
106.79,448,1.95
107.336,448.5,2.08
107.895,449,2.19
108.406,449.5,2.36
108.913,450,2.57
109.414,450.5,2.65
109.904,451,2.69
110.395,451.5,2.76
110.914,452,2.86
111.412,452.5,2.96
111.883,453,3.03
112.373,453.5,3.14
112.891,454,3.24
113.379,454.5,3.26
113.832,455,3.26
114.296,455.5,3.32
114.785,456,3.45
115.28,456.5,3.60
115.772,457,3.67
116.26,457.5,3.72
116.738,458,3.81
117.215,458.5,3.81
117.7,459,3.69
118.188,459.5,3.60
118.675,460,3.60
119.17,460.5,3.64
119.67,461,3.66
120.158,461.5,3.68
120.648,462,3.76
121.147,462.5,3.86
121.632,463,4.02
122.126,463.5,4.27
122.64,464,4.45
123.131,464.5,4.56
123.599,465,4.75
124.09,465.5,4.96
124.611,466,5.20
125.124,466.5,5.47
125.673,467,5.73
126.206,467.5,5.97
126.706,468,6.19
127.2,468.5,6.33
127.698,469,6.41
128.199,469.5,6.45
128.693,470,6.47
129.196,470.5,6.56
129.703,471,6.67
130.199,471.5,6.78
130.693,472,6.92
131.175,472.5,7.03
131.641,473,7.11
132.079,473.5,7.22
132.511,474,7.39
133.013,474.5,7.58
133.513,475,7.72
134.007,475.5,7.88
134.512,476,8.06
135.008,476.5,8.17
135.491,477,8.22
135.996,477.5,8.33
136.509,478,8.44
137,478.5,8.39
137.505,479,8.37
137.99,479.5,8.41
138.45,480,8.52
138.96,480.5,8.62
139.456,481,8.76
139.948,481.5,9.03
140.425,482,9.28
140.915,482.5,9.45
141.402,483,9.59
141.895,483.5,9.77
142.389,484,9.92
142.883,484.5,10.01
143.399,485,10.14
143.957,485.5,10.50
144.501,486,10.78
145.016,486.5,10.89
145.515,487,11.02
146.021,487.5,11.18
146.527,488,11.30
147.026,488.5,11.36
147.523,489,11.48
148.011,489.5,11.64
148.521,490,11.76
149.03,490.5,11.88
149.516,491,12.05
150.032,491.5,12.36
150.507,492,12.51
150.954,492.5,12.63
151.442,493,12.79
151.945,493.5,12.92
152.438,494,12.93
152.906,494.5,12.94
153.41,495,12.96
153.941,495.5,12.94
154.447,496,12.96
154.934,496.5,12.95
155.414,497,12.92
155.942,497.5,12.93
156.431,498,12.96
156.887,498.5,13.00
157.383,499,13.01
157.875,499.5,12.96
158.374,500,12.94
158.888,500.5,13.02
159.408,501,13.05
159.939,501.5,12.97
160.455,502,12.90
160.941,502.5,12.84
161.443,503,12.76
161.969,503.5,12.70
162.497,504,12.61
163.006,504.5,12.61
163.505,505,12.64
164.007,505.5,12.58
164.5,506,12.57
164.995,506.5,12.57
165.489,507,12.54
166.005,507.5,12.39
166.533,508,12.22
167.017,508.5,12.20
167.491,509,12.12
167.977,509.5,11.99
168.484,510,11.89
168.994,510.5,11.84
169.489,511,11.83
170.001,511.5,11.77
170.52,512,11.68
170.997,512.5,11.58
171.466,513,11.50
171.973,513.5,11.47
172.469,514,11.40
172.976,514.5,11.41
173.485,515,11.42
173.978,515.5,11.48
174.469,516,11.46
174.952,516.5,11.44
175.447,517,11.42
175.949,517.5,11.34
176.463,518,11.37
176.972,518.5,11.35
177.486,519,11.38
178.023,519.5,11.39
178.498,520,11.37
178.967,520.5,11.46
179.478,521,11.52
179.973,521.5,11.60
180.475,522,11.71
180.988,522.5,11.87
181.463,523,12.06
181.954,523.5,12.14
182.474,524,12.21
182.972,524.5,12.21
183.487,525,12.17
184.013,525.5,12.24
184.499,526,12.34
184.988,526.5,12.38
185.508,527,12.51
186.029,527.5,12.68
186.544,528,12.75
187.003,528.5,12.87
187.448,529,13.01
187.946,529.5,13.12
188.422,530,13.21
188.895,530.5,13.35
189.404,531,13.50
189.936,531.5,13.59
190.463,532,13.65
190.974,532.5,13.79
191.474,533,13.88
191.972,533.5,14.01
192.482,534,14.15
192.939,534.5,14.26
193.402,535,14.47
193.911,535.5,14.65
194.424,536,14.87
194.936,536.5,15.08
195.442,537,15.19
195.96,537.5,15.34
196.463,538,15.45
196.97,538.5,15.58
197.466,539,15.79
197.97,539.5,16.07
198.453,540,16.27
199.029,540.5,16.41
199.63,541,16.52
200.124,541.5,16.69
200.617,542,16.90
201.118,542.5,17.12
201.621,543,17.33
202.141,543.5,17.51
202.634,544,17.69
203.114,544.5,17.91
203.622,545,18.18
204.141,545.5,18.43
204.677,546,18.71
205.199,546.5,19.03
205.697,547,19.34
206.212,547.5,19.65
206.713,548,19.81
207.188,548.5,19.90
207.673,549,20.04
208.173,549.5,20.25
208.681,550,20.41
209.181,550.5,20.52
209.674,551,20.69
210.18,551.5,20.93
210.683,552,21.13
211.149,552.5,21.24
211.605,553,21.36
212.091,553.5,21.64
212.601,554,21.90
213.098,554.5,22.12
213.593,555,22.38
214.098,555.5,22.63
214.602,556,22.82
215.091,556.5,23.04
215.578,557,23.34
216.094,557.5,23.62
216.609,558,23.89
217.145,558.5,24.17
217.728,559,24.51
218.252,559.5,24.85
218.744,560,25.15
219.258,560.5,25.40
219.767,561,25.59
220.246,561.5,25.80
220.745,562,26.06
221.251,562.5,26.30
221.739,563,26.57
222.238,563.5,26.92
222.763,564,27.29
223.264,564.5,27.66
223.717,565,27.97
224.171,565.5,28.27
224.669,566,28.58
225.179,566.5,28.82
225.666,567,29.06
226.152,567.5,29.28
226.657,568,29.50
227.176,568.5,29.73
227.675,569,29.97
228.158,569.5,30.26
228.667,570,30.54
229.172,570.5,30.83
229.643,571,31.08
230.116,571.5,31.35
230.611,572,31.64
231.1,572.5,31.87
231.588,573,32.08
232.08,573.5,32.28
232.599,574,32.54
233.12,574.5,32.84
233.623,575,33.12
234.13,575.5,33.42
234.649,576,33.72
235.167,576.5,34.04
235.665,577,34.39
236.163,577.5,34.69
236.682,578,34.96
237.208,578.5,35.29
237.735,579,35.65
238.252,579.5,35.99
238.765,580,36.29
239.282,580.5,36.63
239.799,581,37.00
240.289,581.5,37.36
240.769,582,37.71
241.304,582.5,38.11
241.859,583,38.57
242.358,583.5,38.91
242.842,584,39.25
243.339,584.5,39.59
243.84,585,39.89
244.342,585.5,40.16
244.855,586,40.41
245.365,586.5,40.70
245.858,587,41.00
246.348,587.5,41.28
246.83,588,41.51
247.313,588.5,41.74
247.769,589,42.00
248.221,589.5,42.31
248.702,590,42.62
249.205,590.5,42.97
249.714,591,43.41
250.211,591.5,43.82
250.704,592,44.13
251.228,592.5,44.44
251.737,593,44.77
252.236,593.5,45.08
252.752,594,45.39
253.295,594.5,45.76
253.823,595,46.12
254.309,595.5,46.47
254.803,596,46.84
255.303,596.5,47.24
255.797,597,47.68
256.304,597.5,48.08
256.818,598,48.49
257.318,598.5,48.87
257.818,599,49.25
258.33,599.5,49.66
258.832,600,50.06
259.328,600.5,50.53
259.813,601,51.03
260.304,601.5,51.44
260.833,602,51.86
261.331,602.5,52.32
261.814,603,52.76
262.32,603.5,53.24
262.844,604,53.73
263.372,604.5,54.27
263.876,605,54.79
264.374,605.5,55.26
264.881,606,55.69
265.416,606.5,56.18
265.942,607,56.73
266.443,607.5,57.27
266.938,608,57.79
267.428,608.5,58.25
267.941,609,58.77
268.436,609.5,59.29
268.91,610,59.82
269.433,610.5,60.35
269.967,611,60.88
270.465,611.5,61.48
270.968,612,62.03
271.477,612.5,62.64
271.989,613,63.17
272.463,613.5,63.65
272.942,614,64.17
273.437,614.5,64.62
273.927,615,65.08
274.436,615.5,65.57
274.932,616,66.09
275.416,616.5,66.65
275.917,617,67.11
276.427,617.5,67.61
276.92,618,68.10
277.41,618.5,68.60
277.917,619,69.15
278.405,619.5,69.59
278.899,620,70.08
279.41,620.5,70.56
279.906,621,71.02
280.429,621.5,71.51
280.942,622,71.99
281.437,622.5,72.42
281.962,623,72.87
282.47,623.5,73.33
282.949,624,73.76
283.457,624.5,74.22
283.995,625,74.72
284.499,625.5,75.17
284.985,626,75.63
285.476,626.5,76.13
285.985,627,76.62
286.494,627.5,77.18
287.001,628,77.69
287.519,628.5,78.10
288.048,629,78.44
288.557,629.5,78.99
289.067,630,79.53
289.592,630.5,79.96
290.105,631,80.38
290.553,631.5,80.80
291.005,632,81.29
291.518,632.5,81.76
292.011,633,82.18
292.505,633.5,82.65
293.009,634,83.02
293.484,634.5,83.39
293.977,635,83.80
294.476,635.5,84.18
294.998,636,84.65
295.478,636.5,85.01
295.968,637,85.45
296.453,637.5,85.91
296.926,638,86.34
297.401,638.5,86.76
297.924,639,87.23
298.437,639.5,87.74
298.941,640,88.26
299.455,640.5,88.82
299.982,641,89.40
300.496,641.5,89.99
301.022,642,90.56
301.534,642.5,91.07
302.074,643,91.62
302.677,643.5,92.30
303.228,644,92.96
303.724,644.5,93.55
304.205,645,94.15
304.696,645.5,94.77
305.21,646,95.40
305.715,646.5,96.09
306.208,647,96.78
306.705,647.5,97.48
307.204,648,98.26
307.698,648.5,99.02
308.207,649,99.75
308.708,649.5,100.48
309.18,650,101.22
309.673,650.5,102.02
310.183,651,102.78
310.682,651.5,103.63
311.187,652,104.45
311.696,652.5,105.14
312.215,653,105.92
312.724,653.5,106.87
313.229,654,107.84
313.74,654.5,108.75
314.251,655,109.69
314.769,655.5,110.58
315.276,656,111.50
315.775,656.5,112.48
316.28,657,113.39
316.797,657.5,114.27
317.31,658,115.08
317.8,658.5,115.76
318.289,659,116.58
318.789,659.5,117.51
319.279,660,118.29
319.755,660.5,119.00
320.246,661,119.65
320.765,661.5,120.35
321.257,662,121.10
321.722,662.5,121.70
322.197,663,122.25
322.691,663.5,122.87
323.206,664,123.48
323.721,664.5,123.97
324.22,665,124.32
324.717,665.5,124.66
325.23,666,125.00
325.75,666.5,125.20
326.265,667,125.33
326.768,667.5,125.41
327.25,668,125.37
327.719,668.5,125.29
328.206,669,125.00
328.713,669.5,124.59
329.207,670,124.44
329.718,670.5,124.10
330.25,671,123.43
330.759,671.5,122.74
331.253,672,121.91
331.753,672.5,120.95
332.258,673,119.89
332.777,673.5,118.59
333.299,674,117.22
333.805,674.5,115.85
334.307,675,114.29
334.804,675.5,112.57
335.305,676,110.76
335.811,676.5,108.79
336.31,677,106.74
336.797,677.5,104.71
337.287,678,102.60
337.802,678.5,100.26
338.302,679,97.84
338.779,679.5,95.39
339.256,680,92.81
339.733,680.5,90.24
340.21,681,87.63
340.693,681.5,84.90
341.183,682,82.09
341.674,682.5,79.27
342.147,683,76.62
342.634,683.5,73.76
343.124,684,70.96
343.609,684.5,68.44
344.098,685,65.66
344.581,685.5,62.79
345.105,686,59.81
345.571,686.5,57.18
346.014,687,54.67
346.556,687.5,51.81
347.054,688,49.30
347.528,688.5,46.98
348.065,689,44.56
348.592,689.5,41.96
349.075,690,39.75
349.566,690.5,37.79
350.079,691,35.52
350.613,691.5,33.39
351.131,692,31.62
351.595,692.5,30.05
352.067,693,28.59
352.568,693.5,27.09
353.087,694,25.72
353.614,694.5,24.63
354.112,695,23.47
354.615,695.5,22.17
355.129,696,21.15
355.631,696.5,20.23
356.131,697,19.36
356.661,697.5,18.67
357.187,698,17.92
357.692,698.5,17.23
358.207,699,16.62
358.721,699.5,16.10
359.224,700,15.69
359.727,700.5,15.31
360.231,701,14.94
360.729,701.5,14.55
361.221,702,14.23
361.724,702.5,13.92
362.236,703,13.59
362.744,703.5,13.36
363.271,704,13.05
363.795,704.5,12.79
364.289,705,12.59
364.793,705.5,12.38
365.307,706,12.17
365.802,706.5,12.03
366.288,707,11.93
366.796,707.5,11.80
367.312,708,11.71
367.806,708.5,11.64
368.296,709,11.57
368.81,709.5,11.51
369.367,710,11.44
369.913,710.5,11.34
370.419,711,11.24
370.927,711.5,11.20
371.423,712,11.02
371.911,712.5,10.75
372.396,713,10.53
372.901,713.5,10.37
373.384,714,10.28
373.868,714.5,10.14
374.374,715,10.09
374.888,715.5,10.11
375.386,716,10.24
375.855,716.5,10.29
376.306,717,10.04
376.787,717.5,9.73
377.294,718,9.58
377.791,718.5,9.48
378.278,719,9.39
378.772,719.5,9.28
379.271,720,9.14
379.769,720.5,9.03
380.267,721,8.91
380.761,721.5,8.78
381.268,722,8.64
381.774,722.5,8.57
382.268,723,8.56
382.767,723.5,8.52
383.265,724,8.46
383.777,724.5,8.36
384.281,725,8.26
384.765,725.5,8.17
385.259,726,8.04
385.77,726.5,7.92
386.284,727,7.85
386.805,727.5,7.79
387.316,728,7.72
387.842,728.5,7.71
388.362,729,7.63
388.858,729.5,7.52
389.373,730,7.40
389.883,730.5,7.14
390.407,731,7.07
390.925,731.5,7.11
391.423,732,6.90
391.918,732.5,6.90
392.407,733,6.97
392.907,733.5,6.91
393.424,734,6.82
393.919,734.5,6.75
394.401,735,6.74
394.893,735.5,6.71
395.387,736,6.68
395.889,736.5,6.66
396.397,737,6.61
396.91,737.5,6.44
397.421,738,6.22
397.932,738.5,6.06
398.44,739,5.89
398.922,739.5,5.83
399.407,740,5.76
399.933,740.5,5.64
400.441,741,5.53
400.903,741.5,5.47
401.388,742,5.47
401.907,742.5,5.36
402.406,743,5.26
402.898,743.5,5.25
403.41,744,5.22
403.915,744.5,5.17
404.394,745,5.08
404.885,745.5,5.01
405.386,746,4.90
405.902,746.5,4.71
406.395,747,4.54
406.854,747.5,4.37
407.355,748,4.21
407.87,748.5,4.12
408.368,749,4.08
408.869,749.5,4.02
409.38,750,3.96
409.888,750.5,3.92
410.381,751,3.89
410.877,751.5,3.91
411.378,752,3.86
411.88,752.5,3.76
412.423,753,3.70
412.958,753.5,3.64
413.456,754,3.59
413.97,754.5,3.58
414.459,755,3.49
414.965,755.5,3.38
415.484,756,3.30
415.963,756.5,3.22
416.447,757,3.16
416.949,757.5,3.07
417.444,758,2.88
417.952,758.5,2.78
418.439,759,2.74
418.902,759.5,2.69
419.394,760,2.67
419.903,760.5,2.73
420.408,761,2.77
420.93,761.5,2.77
421.433,762,2.72
421.96,762.5,2.63
422.481,763,2.52
422.97,763.5,2.36
423.48,764,2.31
424.01,764.5,2.28
424.524,765,2.14
425.007,765.5,2.04
425.49,766,2.01
426.004,766.5,2.00
426.48,767,2.00
426.957,767.5,2.00
427.471,768,2.03
427.981,768.5,2.07
428.484,769,2.04
428.97,769.5,1.95
429.459,770,1.90
429.979,770.5,1.84
430.49,771,1.76
430.974,771.5,1.71
431.457,772,1.66
431.942,772.5,1.59
432.435,773,1.48
432.939,773.5,1.44
433.445,774,1.45
433.939,774.5,1.35
434.432,775,1.25
434.956,775.5,1.22
435.463,776,1.23
435.946,776.5,1.19
436.455,777,1.18
436.988,777.5,1.21
437.488,778,1.31
438.002,778.5,1.35
438.527,779,1.26
439.03,779.5,1.19
439.535,780,1.24
440.058,780.5,1.21
440.587,781,1.11
441.096,781.5,1.07
441.608,782,0.99
442.113,782.5,0.97
442.606,783,1.02
443.08,783.5,1.01
443.546,784,0.95
444.047,784.5,0.86
444.563,785,0.79
445.07,785.5,0.83
445.586,786,0.86
446.085,786.5,0.89
446.564,787,0.86
447.065,787.5,0.84
447.572,788,0.88
448.07,788.5,0.88
448.589,789,0.85
449.149,789.5,0.83
449.686,790,0.86
450.182,790.5,0.84
450.666,791,0.80
451.157,791.5,0.79
451.662,792,0.75
452.167,792.5,0.68
452.665,793,0.62
453.159,793.5,0.59
453.664,794,0.53
454.165,794.5,0.47
454.646,795,0.51
455.093,795.5,0.60
455.527,796,0.64
456.002,796.5,0.56
456.495,797,0.46
457.024,797.5,0.50
457.537,798,0.47
458.053,798.5,0.46
458.578,799,0.45
459.093,799.5,0.45
459.604,800,0.48
460.106,800.5,0.51
460.624,801,0.53
461.173,801.5,0.46
461.676,802,0.39
462.155,802.5,0.37
462.658,803,0.40
463.174,803.5,0.37
463.669,804,0.30
464.16,804.5,0.34
464.66,805,0.37
465.16,805.5,0.40
465.653,806,0.44
466.152,806.5,0.45
466.663,807,0.53
467.155,807.5,0.55
467.625,808,0.46
468.115,808.5,0.40
468.629,809,0.38
469.132,809.5,0.34
469.636,810,0.24
470.151,810.5,0.21
470.663,811,0.24
471.161,811.5,0.24
471.653,812,0.20
472.146,812.5,0.19
472.642,813,0.18
473.13,813.5,0.14
473.608,814,0.13
474.108,814.5,0.20
474.615,815,0.17
475.109,815.5,0.11
475.61,816,0.21
476.137,816.5,0.28
476.664,817,0.24
477.161,817.5,0.18
477.669,818,0.11
478.191,818.5,0.05
478.701,819,0.03
479.224,819.5,0.00
479.773,820,0.02
480.283,820.5,0.09
480.77,821,0.06
481.267,821.5,0.01
481.765,822,0.02
482.27,822.5,0.10
482.779,823,0.13
483.292,823.5,0.06
483.802,824,0.06
484.299,824.5,0.09
484.787,825,0.12
485.275,825.5,0.12
485.769,826,0.08
486.267,826.5,0.04
486.763,827,0.01
487.245,827.5,0.02
487.729,828,0.06
488.231,828.5,0.06
488.726,829,0.09
489.226,829.5,0.13
489.75,830,0.15
490.27,830.5,0.13
490.766,831,0.03
491.257,831.5,-0.09
491.758,832,-0.16
492.251,832.5,-0.20
492.761,833,-0.23
493.292,833.5,-0.23
493.793,834,-0.13
494.274,834.5,-0.05
494.776,835,-0.03
495.289,835.5,0.06
495.788,836,0.10
496.286,836.5,0.08
496.794,837,0.02
497.306,837.5,-0.04
497.823,838,-0.07
498.34,838.5,-0.09
498.836,839,-0.11
499.324,839.5,-0.10
499.814,840,-0.09
500.311,840.5,-0.16
500.829,841,-0.24
501.346,841.5,-0.28
501.848,842,-0.21
502.346,842.5,-0.12
502.83,843,-0.04
503.335,843.5,0.03
503.853,844,0.03
504.357,844.5,0.01
504.847,845,0.00
505.334,845.5,0.01
505.836,846,-0.01
506.332,846.5,-0.02
506.836,847,-0.01
507.338,847.5,0.02
507.827,848,0.15
508.335,848.5,0.23
508.87,849,0.19
509.391,849.5,0.15
509.837,850,0.15
510.282,850.5,0.15
510.791,851,0.15
511.31,851.5,0.14
511.817,852,0.12
512.32,852.5,0.03
512.815,853,0.00
513.323,853.5,0.05
513.823,854,0.08
514.317,854.5,0.07
514.808,855,0.01
515.313,855.5,0.02
515.835,856,0.07
516.355,856.5,0.04
516.863,857,0.09
517.36,857.5,0.18
517.862,858,0.22
518.367,858.5,0.15
518.855,859,0.11
519.338,859.5,0.12
519.838,860,0.15
520.326,860.5,0.13
520.829,861,0.05
521.357,861.5,-0.01
521.873,862,-0.07
522.341,862.5,-0.06
522.803,863,-0.04
523.303,863.5,-0.04
523.824,864,-0.04
524.317,864.5,-0.05
524.8125,865,-0.06
525.317,865.5,-0.05
525.821,866,-0.11
526.327,866.5,-0.15
526.84,867,-0.05
527.347,867.5,0.05
527.873,868,0.11
528.417,868.5,0.13
528.926,869,0.04
529.416,869.5,0.10
529.915,870,0.17
530.434,870.5,0.17
530.951,871,0.22
531.466,871.5,0.14
531.993,872,0.18
532.486,872.5,0.22
533.003,873,0.06
533.514,873.5,-0.01
534.029,874,-0.01
534.485,874.5,-0.02
534.921,875,-0.08
535.416,875.5,-0.02
535.903,876,0.06
536.384,876.5,0.02
536.905,877,-0.01
537.419,877.5,-0.02
537.917,878,0.03
538.41,878.5,0.07
538.902,879,0.01
539.413,879.5,-0.09
539.943,880,-0.06
540.476,880.5,0.03
540.993,881,-0.03
541.488,881.5,-0.05
541.994,882,0.00
542.497,882.5,-0.09
542.961,883,-0.15
543.453,883.5,-0.13
543.967,884,-0.10
544.471,884.5,-0.05
544.969,885,0.08
545.467,885.5,0.17
545.986,886,0.12
546.467,886.5,0.15
546.913,887,0.10
547.397,887.5,0.01
547.894,888,-0.07
548.395,888.5,-0.09
548.9,889,-0.02
549.422,889.5,-0.04
549.938,890,-0.11
550.431,890.5,-0.12
550.933,891,-0.08
551.433,891.5,-0.12
551.945,892,-0.16
552.458,892.5,-0.15
553.013,893,-0.10
553.557,893.5,-0.11
554.059,894,-0.12
554.531,894.5,-0.14
555.031,895,-0.14
555.532,895.5,-0.16
556.029,896,-0.18
556.536,896.5,-0.20
557.029,897,-0.23
557.513,897.5,-0.15
558.009,898,-0.09
558.511,898.5,-0.03
559,899,0.00
559.484,899.5,0.02
560.005,900,0.08
560.509,900.5,0.11
560.998,901,0.03
561.483,901.5,-0.05
561.97,902,-0.19
562.483,902.5,-0.23
562.994,903,-0.26
563.503,903.5,-0.39
564.024,904,-0.28
564.51,904.5,-0.18
564.927,905,-0.17
565.389,905.5,-0.20
565.893,906,-0.19
566.412,906.5,-0.16
566.906,907,-0.09
567.404,907.5,-0.01
567.912,908,0.04
568.409,908.5,0.13
568.913,909,0.17
569.436,909.5,0.08
569.93,910,-0.08
570.455,910.5,-0.09
571.003,911,-0.06
571.546,911.5,-0.04
572.061,912,-0.01
572.555,912.5,-0.02
573.056,913,-0.02
573.56,913.5,-0.07
574.075,914,-0.23
574.586,914.5,-0.33
575.086,915,-0.30
575.576,915.5,-0.28
576.067,916,-0.20
576.564,916.5,-0.18
577.018,917,-0.25
577.467,917.5,-0.21
577.966,918,-0.15
578.467,918.5,-0.05
578.972,919,-0.02
579.477,919.5,-0.04
579.998,920,-0.03
580.489,920.5,-0.06
581.008,921,-0.07
581.524,921.5,-0.11
582.041,922,-0.20
582.524,922.5,-0.24
583.023,923,-0.19
583.545,923.5,-0.14
584.033,924,-0.12
584.522,924.5,-0.08
585.027,925,-0.05
585.534,925.5,0.01
586.05,926,0.11
586.561,926.5,0.14
587.051,927,0.10
587.538,927.5,0.11
588.053,928,0.22
588.581,928.5,0.22
589.127,929,0.22
589.66,929.5,0.26
590.187,930,0.26
590.701,930.5,0.16
591.183,931,0.12
591.658,931.5,0.14
592.158,932,0.12
592.658,932.5,0.12
593.157,933,0.12
593.655,933.5,0.11
594.145,934,0.15
594.651,934.5,0.15
595.146,935,0.11
595.615,935.5,0.11
596.104,936,0.16
596.615,936.5,0.20
597.093,937,0.26
597.584,937.5,0.31
598.088,938,0.24
598.575,938.5,0.18
599.086,939,0.12
599.571,939.5,0.04
600.066,940,0.08
600.604,940.5,0.15
601.107,941,0.12
601.586,941.5,0.18
602.068,942,0.25
602.557,942.5,0.26
603.03,943,0.22
603.526,943.5,0.20
604.065,944,0.15
604.589,944.5,0.08
605.101,945,0.05
605.602,945.5,0.03
606.088,946,0.06
606.586,946.5,0.07
607.104,947,0.00
607.579,947.5,0.01
608.033,948,0.05
608.522,948.5,-0.01
609.005,949,-0.02
609.51,949.5,0.01
610.028,950,-0.02
610.503,950.5,-0.05
610.991,951,0.04
611.482,951.5,0.08
611.984,952,0.02
612.497,952.5,-0.09
612.975,953,-0.12
613.478,953.5,-0.12
613.97,954,-0.10
614.483,954.5,-0.07
615.01,955,-0.13
615.52,955.5,-0.13
616.013,956,-0.12
616.489,956.5,-0.06
616.984,957,0.02
617.528,957.5,0.06
618.044,958,0.05
618.546,958.5,0.07
619.052,959,0.21
619.577,959.5,0.18
620.133,960,0.13
620.657,960.5,0.16
621.15,961,0.17
621.636,961.5,0.21
622.121,962,0.26
622.615,962.5,0.24
623.121,963,0.21
623.635,963.5,0.24
624.134,964,0.19
624.6,964.5,0.10
625.07,965,0.10
625.558,965.5,0.11
626.024,966,0.08
626.501,966.5,0.06
626.985,967,0.01
627.478,967.5,0.02
627.98,968,-0.02
628.493,968.5,-0.08
629.007,969,-0.06
629.51,969.5,-0.13
630.022,970,-0.14
630.505,970.5,-0.09
631.01,971,-0.08
631.554,971.5,-0.09
632.06,972,-0.07
632.556,972.5,-0.04
633.053,973,-0.06
633.534,973.5,-0.11
634.018,974,-0.16
634.514,974.5,-0.18
635.019,975,-0.13
635.512,975.5,-0.01
636.005,976,0.05
636.509,976.5,0.06
637.012,977,0.07
637.492,977.5,0.01
637.978,978,-0.05
638.487,978.5,-0.07
638.981,979,-0.03
639.472,979.5,-0.01
639.982,980,-0.06
640.511,980.5,-0.06
641.016,981,-0.02
641.516,981.5,-0.05
642.029,982,-0.05
642.523,982.5,-0.02
643.025,983,-0.05
643.524,983.5,-0.04
644.08,984,-0.05
644.627,984.5,0.00
645.143,985,0.05
645.654,985.5,-0.06
646.14,986,-0.17
646.61,986.5,-0.22
647.076,987,-0.24
647.567,987.5,-0.19
648.07,988,-0.11
648.563,988.5,-0.08
649.059,989,0.05
649.525,989.5,0.11