File: Wood/Calibration_Data/UDRI/UDRI_Cone_60kW_hor_R1.csv
Time (s),Mass (g),HRR (kW/m2),TC back 1 (K)
0,115.44,3.9,291.538
2,115.4,3.7,295.756
4,115.38,3.6,300.292
6,115.31,3.2,289.813
8,115.16,4,295.379
10,114.95,7.5,299.798
12,114.71,26.1,290.832
14,114.44,55,305.986
16,114.18,88,294.471
18,113.92,110.4,294.912
20,113.73,136.2,300.916
22,113.44,148,294.934
24,113.16,160.9,297.719
26,112.96,166.8,299.74
28,112.749,167.1,303.203
30,112.509,168.2,305.221
32,112.339,164.9,290.07
34,112.109,164.3,294.04
36,111.919,159.5,298.228
38,111.719,159.1,295.298
40,111.499,155.9,300.68
42,111.289,150.5,297.75
44,111.109,152.2,300.477
46,110.939,149.9,297.469
48,110.749,148,294.743
50,110.559,143.5,294.764
52,110.389,141.6,300.333
54,110.199,140.1,301.662
56,110.019,137.9,296.144
58,109.849,135.6,296.745
60,109.669,132.6,299.473
62,109.459,131.5,305.349
64,109.309,129.1,300.712
66,109.149,127.5,295.227
68,108.989,124.1,299.812
70,108.789,124.6,304.008
72,108.689,124.8,294.565
74,108.489,125.2,302.792
76,108.309,122.3,302.517
78,108.199,122.1,301.486
80,108.069,118.9,307.604
82,107.899,116.9,302.613
84,107.729,118.4,305.793
86,107.609,118.9,306.563
88,107.488,116,302.854
90,107.318,115.4,307.952
92,107.118,115.5,305.363
94,106.998,111,296.527
96,106.828,114.6,302.169
98,106.658,111.3,308.194
100,106.478,110,302.564
102,106.318,111.4,304.965
104,106.158,111,304.139
106,106.038,110.5,308.11
108,105.908,110.1,305.716
110,105.748,110.1,306.852
112,105.558,109.2,304.706
114,105.408,109.7,304.736
116,105.268,110.2,309.868
118,105.078,107.4,307.641
120,104.928,109,311.407
122,104.788,107.6,305.024
124,104.628,107.2,306.22
126,104.438,108.8,310.501
128,104.328,110.4,304.705
130,104.198,110.6,304.784
132,104.028,107.6,305.615
134,103.868,105.8,311.075
136,103.748,106.7,308.519
138,103.598,105.4,310.515
140,103.498,108.1,313.275
142,103.408,109.4,310.634
144,103.168,106.2,308.392
146,103.128,109.3,306.083
148,102.918,107.7,310.401
150,102.788,105.3,312.37
152,102.578,106.1,309.456
154,102.468,106.2,310.618
156,102.298,106.1,311.651
158,102.187,106.9,314.069
160,101.987,107,316.307
162,101.887,106.4,312.657
164,101.767,105.4,317.656
166,101.597,102.5,311.039
168,101.477,104.6,314.62
170,101.307,103.9,311.355
172,101.177,103.8,319.914
174,101.087,104.5,317.183
176,100.907,103,308.254
178,100.737,101.9,313.889
180,100.687,101.8,311.58
182,100.537,103.6,322.907
184,100.337,102.7,315.579
186,100.237,102.4,322.772
188,100.087,102.8,317.939
190,99.947,102.4,317.598
192,99.817,99.8,320.325
194,99.637,100.5,315.252
196,99.497,99.4,320.962
198,99.397,99.3,313.641
200,99.287,100.2,321.026
202,99.157,99,319.327
204,99.017,100.8,316.024
206,98.877,99,318.35
208,98.737,100.9,317.299
210,98.607,99.1,324.086
212,98.467,98.4,325.656
214,98.347,98.4,318.978
216,98.207,97.8,328.312
218,98.027,98,321.609
220,97.867,98.9,323.686
222,97.737,97.5,329.03
224,97.597,96.6,320.297
226,97.477,97.2,322.637
228,97.327,95.9,324.836
230,97.207,96.5,329.735
232,97.057,94.7,323.698
234,96.946,96.7,322.992
236,96.826,96.6,327.587
238,96.666,98,332.522
240,96.586,96.9,321.234
242,96.456,94.4,329.494
244,96.316,97.3,326.936
246,96.176,97.5,330.775
248,96.006,95.2,329.279
250,95.876,95.6,331.48
252,95.786,96.5,328.838
254,95.616,93.9,333.179
256,95.506,93.8,335.125
258,95.366,95.9,328.333
260,95.256,94.7,327.741
262,95.126,96.5,336.631
264,94.996,96.7,332.103
266,94.846,97.3,332.412
268,94.706,97.8,340.918
270,94.506,97.2,334.032
272,94.356,96,330.275
274,94.276,96.2,331.133
276,94.116,95.4,335.563
278,93.996,96.2,334.356
280,93.866,95.5,339.636
282,93.746,96.7,340.282
284,93.586,96.1,335.881
286,93.486,95.7,329.699
288,93.336,96.3,332.095
290,93.216,95.1,339.693
292,93.056,96.3,335.709
294,92.966,96.4,339.723
296,92.796,96.9,335.642
298,92.676,96.6,338.879
300,92.546,96.5,340.319
302,92.426,95.5,343.359
304,92.296,94.5,345.306
306,92.146,94.8,344.661
308,91.976,94.6,341.267
310,91.916,95.1,347.664
312,91.755,94.8,341.171
314,91.665,95.2,341.333
316,91.525,95.1,342.38
318,91.365,94.2,348.396
320,91.255,93.8,346.387
322,91.115,96.2,348.663
324,90.935,92.6,344.805
326,90.845,93,349.294
328,90.725,95.7,348.596
330,90.585,93.3,347.702
332,90.475,93,347.579
334,90.355,92.3,346.592
336,90.215,92.9,351.437
338,90.085,93.2,353.258
340,89.955,93.1,350.584
342,89.835,91.5,347.198
344,89.665,93,353.765
346,89.555,92.6,352.232
348,89.415,91.9,346.386
350,89.305,92.5,349.129
352,89.195,91.2,351.927
354,89.025,92.6,345.184
356,88.885,93.8,347.454
358,88.745,93.2,355.937
360,88.625,92.4,351.992
362,88.485,95,356.271
364,88.395,94.3,349.572
366,88.235,92.4,351.985
368,88.085,93.1,358.188
370,87.975,92.6,356.914
372,87.895,93.3,354.44
374,87.695,93.9,358.279
376,87.585,93.8,355.987
378,87.515,91.5,355.852
380,87.375,93.1,357.551
382,87.235,93.2,358.047
384,87.115,93.6,360.346
386,86.985,91.1,357.456
388,86.835,92.7,356.762
390,86.735,92.3,355.762
392,86.625,91.5,358.237
394,86.484,92.1,358.721
396,86.354,93.3,355.99
398,86.224,91.7,355.351
400,86.114,92.8,363.668
402,85.954,91.2,357.612
404,85.824,92.1,365.848
406,85.714,90.2,359.24
408,85.544,93.5,358.701
410,85.424,91,359.514
412,85.294,91.2,361.528
414,85.204,90.1,364.788
416,85.114,89.3,366.311
418,84.964,92.1,366.895
420,84.834,90.5,369.424
422,84.684,90.6,362.251
424,84.554,90.7,367.722
426,84.424,91.2,362.767
428,84.334,91.1,364.444
430,84.224,90.4,366.382
432,84.104,89.8,366.606
434,83.964,89.7,366.198
436,83.854,87.9,366.215
438,83.694,89.5,366.212
440,83.614,87.7,366.004
442,83.434,88.9,369.877
444,83.264,88,366.019
446,83.194,88.3,363.56
448,83.064,88.5,372.013
450,82.964,88.8,366.088
452,82.784,89.3,367.914
454,82.704,86.8,370.255
456,82.564,86.9,370.615
458,82.454,86.7,364.727
460,82.334,88.6,373.7
462,82.224,87.3,368.221
464,82.074,87,371.85
466,81.894,86.4,374.5
468,81.824,87.2,371.949
470,81.734,85.2,371.752
472,81.614,85.4,372.131
474,81.484,86.7,375.03
476,81.374,88.1,370.76
478,81.264,88.7,367.964
480,81.133,86.3,373.51
482,80.983,87.4,375.85
484,80.873,88.5,371.703
486,80.733,88.6,366.003
488,80.643,87.9,369.119
490,80.533,88.2,375.63
492,80.363,87.2,371.153
494,80.213,86.5,381.94
496,80.063,86.3,377.06
498,79.973,86,376.88
500,79.883,85.2,373.19
502,79.743,84.3,374.85
504,79.583,84.6,375.72
506,79.483,85.3,373.49
508,79.383,87.2,376.93
510,79.253,85,380.42
512,79.133,86.2,379.95
514,79.003,86.1,373.38
516,78.903,84.2,376.51
518,78.763,86.1,375.41
520,78.653,85.6,375.39
522,78.563,84.2,373.68
524,78.463,84.5,377.06
526,78.313,85,384.16
528,78.183,85.3,379.96
530,78.063,85.1,375.14
532,77.923,86.9,380.36
534,77.823,87.7,379.24
536,77.713,89.1,376.67
538,77.563,87,370.914
540,77.443,87.2,379.7
542,77.363,87.9,385.03
544,77.243,88.4,381.06
546,77.153,87.1,384.31
548,77.073,86.1,373.94
550,76.913,86,383.04
552,76.783,85.8,381.54
554,76.653,85.4,384.23
556,76.583,84.8,380.64
558,76.463,87.8,382.73
560,76.273,87.2,375.22
562,76.193,87.3,382.71
564,76.043,86.3,378.09
566,75.912,87.2,388.09
568,75.812,87.5,386.75
570,75.682,85.6,379.71
572,75.532,85.9,381.78
574,75.422,85.6,380.19
576,75.342,84,384.73
578,75.222,85.3,377.15
580,75.112,85.7,380.49
582,74.982,86.5,384.32
584,74.872,86.7,382.4
586,74.752,85.9,384.92
588,74.662,85,388.28
590,74.572,83.9,385.6
592,74.392,84.2,384.76
594,74.302,84.8,390.88
596,74.162,84.4,383.43
598,74.062,83.6,383.72
600,73.962,83,384.31
602,73.812,84.1,380.8
604,73.742,83.7,384.14
606,73.592,82,384.03
608,73.442,81.4,384.08
610,73.342,84.4,389.3
612,73.252,83.4,383.82
614,73.172,82.9,384.41
616,73.032,83.6,391.77
618,72.922,82.6,380.08
620,72.782,83.8,384.91
622,72.722,84.1,385.63
624,72.592,83.8,385.02
626,72.462,83.9,389.73
628,72.342,83.4,392.64
630,72.242,83.2,386.34
632,72.142,82.3,393.88
634,72.012,85.5,385.3
636,71.882,84.5,387.88
638,71.772,83.8,394.6
640,71.632,82.4,388.97
642,71.542,84.3,390.14
644,71.402,82.8,388.71
646,71.312,84.7,386.74
648,71.232,82.2,390.6
650,71.152,82.6,387.25
652,70.992,81.3,388.84
654,70.882,83.7,389.39
656,70.802,83.1,389.93
658,70.642,83.4,388.37
660,70.541,84.4,391
662,70.461,84.3,391.48
664,70.321,84.2,389.43
666,70.211,83.7,388.69
668,70.091,83.6,391.82
670,69.991,82.9,385.78
672,69.851,84.1,392.25
674,69.721,84.2,396.54
676,69.611,84.4,392.84
678,69.531,83.3,392.47
680,69.421,83,398
682,69.311,82.3,393.64
684,69.211,82.9,394.51
686,69.111,82.7,391.7
688,68.961,81.1,392.43
690,68.821,82.5,388.42
692,68.701,78.6,390.35
694,68.571,80.5,389.72
696,68.511,77.9,389.46
698,68.361,78.3,391.1
700,68.271,79.8,391.81
702,68.141,81.5,389.66
704,68.051,81.6,391.86
706,67.921,79.2,388.74
708,67.791,78.7,396.21
710,67.691,79.5,391.18
712,67.611,80.3,399.76
714,67.491,80.5,394.61
716,67.351,82,396.57
718,67.291,80.2,392.66
720,67.171,79.1,394.93
722,67.101,81.1,390.52
724,66.981,81,402.08
726,66.851,81,398.99
728,66.691,82.6,396.91
730,66.611,81.6,397.07
732,66.511,80.6,388.28
734,66.401,80.9,397.43
736,66.281,79.9,392.16
738,66.151,81.3,403.86
740,66.071,81.2,395.64
742,65.921,79.6,403.04
744,65.801,82.5,394.79
746,65.691,82.5,399.97
748,65.611,80.1,402.64
750,65.451,81.1,403.01
752,65.38,82.2,403.42
754,65.27,81.5,399.73
756,65.15,79.9,396.16
758,65.03,81.7,400.55
760,64.89,82.3,401.18
762,64.79,82.5,403.05
764,64.72,82.5,396.53
766,64.59,83.2,398.6
768,64.46,81.3,400.1
770,64.38,83,404.67
772,64.29,82.9,405.17
774,64.18,83.4,395.96
776,64.08,83.7,402.68
778,63.94,83.1,399.95
780,63.82,84,405.56
782,63.71,85.3,399.93
784,63.64,87.1,405.06
786,63.49,87,400.28
788,63.37,86.1,405.27
790,63.24,84.6,401.47
792,63.13,85.6,408.88
794,63.01,85.7,406.89
796,62.89,85.6,404.43
798,62.79,85,404.96
800,62.74,83.6,407.53
802,62.6,85.8,404.04
804,62.53,84.8,407.49
806,62.36,84.6,402.07
808,62.2,84.9,397.66
810,62.11,84.8,404.32
812,62.03,84.7,401.29
814,61.93,83.7,406.76
816,61.76,84.8,407.82
818,61.68,86.1,406.75
820,61.55,85.4,406.76
822,61.43,85.7,411.81
824,61.29,86.8,410.43
826,61.19,86.4,403.37
828,61.09,86.6,411.47
830,60.96,85.8,409.71
832,60.84,85.4,411.6
834,60.78,85.7,413.05
836,60.66,85.7,411.05
838,60.55,86.3,409.12
840,60.41,87,416.61
842,60.28,87.2,414.28
844,60.159,88,412.25
846,60.039,88.6,409.02
848,59.949,89.7,412.06
850,59.869,88.8,413.69
852,59.709,88.6,409.29
854,59.639,89.4,418.55
856,59.449,89.2,420.07
858,59.399,89.6,413.58
860,59.229,89.2,415.3
862,59.129,90.6,418.38
864,59.019,90.4,421.04
866,58.919,91.4,420.69
868,58.779,89.4,416.03
870,58.689,89.6,421.4
872,58.559,88.5,419.98
874,58.439,89.8,415.79
876,58.339,89.3,421.98
878,58.229,91.6,418.35
880,58.079,90.7,421.57
882,57.989,91.6,420.05
884,57.879,91.5,425.04
886,57.749,91.9,426.12
888,57.579,92.3,431.13
890,57.469,92.2,420.93
892,57.359,92,428.05
894,57.259,92.3,430.62
896,57.099,92.5,429.29
898,56.989,93.1,427
900,56.869,92.9,427.59
902,56.739,91.6,430.27
904,56.709,93.8,426.93
906,56.579,93.8,434.52
908,56.409,94.5,429.15
910,56.279,93.9,431.77
912,56.169,92.8,430.9
914,56.069,93.3,429.89
916,55.899,93.7,432.46
918,55.749,94.3,438.77
920,55.659,95.1,432.36
922,55.509,95.1,435.73
924,55.419,96.1,437.75
926,55.339,95.2,434.18
928,55.189,96.7,432.58
930,55.029,97.8,446.6
932,54.979,97.8,441.78
934,54.838,98.6,439.32
936,54.688,98.8,439.41
938,54.618,98.5,448.72
940,54.458,98.5,443.77
942,54.388,95.6,445.1
944,54.228,97.7,442.93
946,54.078,97.2,447.64
948,53.938,94.9,439.56
950,53.838,95.8,437.42
952,53.628,96.7,452.27
954,53.528,95.7,448.23
956,53.398,94.2,448.93
958,53.308,97.9,451.75
960,53.168,96.4,451.88
962,53.028,96,447.46
964,52.918,95.9,461.01
966,52.758,96.8,455.35
968,52.668,98.3,453.39
970,52.478,99.5,453.98
972,52.388,98.2,457.47
974,52.258,98.2,457.02
976,52.138,98.5,455.03
978,52.018,97.8,459
980,51.888,97.9,461.71
982,51.728,99.4,461.75
984,51.598,99.5,459.65
986,51.488,100.3,462.09
988,51.328,99.1,464.18
990,51.218,101,457.25
992,51.078,101.8,465.98
994,50.948,101.8,463.36
996,50.778,101.7,460.86
998,50.638,100.7,469.58
1000,50.518,103.8,465.39
1002,50.348,101.8,468.78
1004,50.208,102.5,478.57
1006,50.098,104.1,469.13
1008,49.958,103.2,465.13
1010,49.808,103.8,474.77
1012,49.668,104.3,482.24
1014,49.517,103.1,480.91
1016,49.377,107,476.21
1018,49.197,105.1,476.61
1020,49.127,106.7,473.86
1022,48.937,107.1,476.73
1024,48.817,106.2,479.63
1026,48.707,109.7,481.12
1028,48.537,109.8,482.03
1030,48.347,111.3,481.6
1032,48.257,110.5,481.32
1034,48.127,110.9,479.61
1036,47.977,109,487.8
1038,47.787,109,495.64
1040,47.647,110,487.87
1042,47.517,111.1,489.33
1044,47.337,110.2,491.03
1046,47.237,111.4,493.72
1048,47.057,108.4,492.17
1050,46.887,109.9,490.63
1052,46.737,110.9,487.46
1054,46.567,112.2,497.77
1056,46.407,112.3,492.65
1058,46.267,114.5,500.06
1060,46.137,114.6,496.72
1062,46.017,111.9,501.67
1064,45.887,112.2,503.66
1066,45.727,113.2,502.57
1068,45.587,115.3,500.64
1070,45.447,116.5,506.02
1072,45.287,117.3,504.53
1074,45.077,116.2,502.43
1076,44.937,117.1,501.93
1078,44.707,118,506.76
1080,44.587,116.3,508.63
1082,44.457,115.4,507.59
1084,44.327,118.1,506.29
1086,44.146,117.5,505.49
1088,43.986,119.4,515.46
1090,43.846,120.6,518.03
1092,43.636,120.7,511.98
1094,43.446,122.4,512.18
1096,43.326,124.2,517.78
1098,43.206,121.2,517.19
1100,43.026,122.2,521.73
1102,42.866,124.3,513.77
1104,42.696,122.1,521.28
1106,42.536,122.8,524.17
1108,42.356,121.9,519.44
1110,42.166,122.6,521.04
1112,41.996,125.3,528.32
1114,41.836,126.3,522.66
1116,41.706,125.8,526.43
1118,41.526,125.5,529.62
1120,41.346,127.6,534.19
1122,41.186,128.6,529.41
1124,41.056,124.8,528.18
1126,40.886,126.4,527.31
1128,40.746,125.6,531.31
1130,40.556,127.4,529.63
1132,40.346,127.1,536.59
1134,40.196,128,534.32
1136,40.036,128.4,534.65
1138,39.936,127.8,537.29
1140,39.756,127.5,538.69
1142,39.596,129.1,538.09
1144,39.386,127.6,535.93
1146,39.246,127.1,538.64
1148,39.055,127,539.49
1150,38.915,127,546.27
1152,38.715,126,546.45
1154,38.585,129.4,546.19
1156,38.455,128.2,546.29
1158,38.265,124.7,549.13
1160,38.125,126.8,551.5
1162,37.955,128.9,553.3
1164,37.805,129,555.75
1166,37.615,127.9,554.9
1168,37.475,126.9,553.89
1170,37.265,126.6,552.1
1172,37.125,127.1,556.83
1174,36.905,126.5,558.39
1176,36.755,126.6,564.27
1178,36.585,125.4,559.32
1180,36.375,125.6,569.01
1182,36.285,126.1,567.68
1184,36.095,126.3,560.38
1186,35.925,127.5,563.78
1188,35.785,126.2,563.4
1190,35.655,129.1,572.12
1192,35.405,127.6,568.65
1194,35.275,130.4,571.83
1196,35.075,129,572.77
1198,34.915,127,579.34
1200,34.775,125.9,576.65
1202,34.595,128.2,584.84
1204,34.495,126.4,578.94
1206,34.315,129.5,584
1208,34.115,128.6,574.93
1210,33.975,128.3,586
1212,33.835,127.3,589.24
1214,33.654,125.1,583.07
1216,33.514,128.9,585.3
1218,33.294,127.1,595.72
1220,33.154,127.7,589.87
1222,32.974,128.7,593.19
1224,32.814,127.1,594.46
1226,32.634,128.3,591.73
1228,32.524,127.5,599.83
1230,32.354,124.5,597.39
1232,32.144,125.9,594.32
1234,32.034,126.5,602.45
1236,31.824,123.1,598.4
1238,31.674,127.7,603.53
1240,31.534,126.5,607.73
1242,31.334,125.5,605.65
1244,31.104,125.3,606.05
1246,30.884,124.2,609.71
1248,30.804,122,604.59
1250,30.644,123.1,605.39
1252,30.484,123.9,610.14
1254,30.314,125.8,616.84
1256,30.144,125.2,611.31
1258,30.014,125.1,615.12
1260,29.874,124.2,619.95
1262,29.734,122.7,619.47
1264,29.584,121.6,625.1
1266,29.424,122.3,626.59
1268,29.314,124.6,622.95
1270,29.184,124.8,623.43
1272,29.054,121.1,623.59
1274,28.904,121.8,623.46
1276,28.774,119.9,622.73
1278,28.654,117.5,629.71
1280,28.504,115,629.68
1282,28.393,113.9,632.15
1284,28.263,114.3,631.17
1286,28.123,110.7,629.57
1288,27.983,109.6,635
1290,27.903,109.6,631.54
1292,27.733,105.9,632.17
1294,27.623,106.7,640.05
1296,27.493,103.5,640.96
1298,27.363,105.7,636.81
1300,27.223,100.7,636.05
1302,27.103,100.4,641.95
1304,26.963,99.6,641.29
1306,26.923,96.2,646.11
1308,26.783,93.3,652.13
1310,26.703,93.2,649.32
1312,26.583,92.2,646.57
1314,26.483,92.9,654.41
1316,26.343,91,656.16
1318,26.223,90.7,659.17
1320,26.093,91.5,670.42
1322,25.963,89,662.72
1324,25.903,86,662.13
1326,25.823,86,671.19
1328,25.783,84.5,669.75
1330,25.693,84.9,675.82
1332,25.563,84.5,673.1
1334,25.503,82.2,684.39
1336,25.433,81.7,682.55
1338,25.343,80.4,682.76
1340,25.253,79.6,692.42
1342,25.153,78.4,683.24
1344,25.033,78.5,684.66
1346,25.013,77.8,688.94
1348,24.953,74.6,693.62
1350,24.923,73.8,685.75
1352,24.853,72.5,696.31
1354,24.763,68.9,693.64
1356,24.683,68.1,692.77
1358,24.623,68,698.6
1360,24.633,67.5,697.7
1362,24.543,66,698.9
1364,24.453,64.9,703.76
1366,24.423,64.7,700.71
1368,24.403,62.7,691.37
1370,24.363,60.6,701.43
1372,24.283,60.3,700.4
1374,24.203,58.9,702.8
1376,24.173,59.5,707.71
1378,24.143,58.2,702.01
1380,24.093,57.3,694.96
1382,24.053,57.9,700.26
1384,24.033,57.6,703.61
1386,23.993,58.2,700.04
1388,23.953,58.6,701.64
1390,23.903,56.1,698.22
1392,23.863,55.7,702.12
1394,23.833,55.6,700.8
1396,23.793,55,703.5
1398,23.793,54.8,698.15
1400,23.743,54.4,702.26
1402,23.673,54,701.31
1404,23.613,53.7,697.56
1406,23.523,53.2,705.05
1408,23.523,53.1,703.27
1410,23.493,52.3,703.33
1412,23.443,52.9,708.4
1414,23.423,51.9,701.28
1416,23.413,51.4,704.65
1418,23.373,50.6,707.42
1420,23.343,49.9,707.57
1422,23.272,49,707.59
1424,23.283,50.2,705.53
1426,23.283,50.8,709.4
1428,23.193,49.5,709.76
1430,23.172,49.4,711.21
1432,23.092,48.6,708.78
1434,23.072,48.7,707.22
1436,22.992,48.7,709.44
1438,23.012,48.7,713.01
1440,22.992,48.9,710.06
1442,22.922,49.8,713.48
1444,22.922,49.6,709.15
1446,22.852,49,712.94
1448,22.792,49.6,712.96
1450,22.832,49.9,715.76
1452,22.772,50.3,710.59
1454,22.732,50.8,709.99
1456,22.682,49.8,712.79
1458,22.622,49,708.32
1460,22.652,49,712.39
1462,22.612,48.9,712.1
1464,22.622,49.2,719.32
1466,22.572,50,709.66
1468,22.492,48.8,707.55
1470,22.502,49.3,713.59
1472,22.482,49.3,714.18
1474,22.492,49.1,720.52
1476,22.392,49.7,711.49
1478,22.422,49,718.35
1480,22.392,49.2,718.91
1482,22.342,47.9,715.75
1484,22.232,47.6,722.84
1486,22.262,47.5,708.38
1488,22.212,47.4,715.83
1490,22.222,47.2,712.65
1492,22.152,48.3,715.14
1494,22.102,47.5,714.71
1496,22.092,47.2,715.07
1498,22.092,46.2,724.41
1500,22.072,46.4,716.86
1502,22.022,46.2,729.35
1504,21.992,44.7,727.65
1506,21.922,45.6,716.83
1508,21.872,45.6,720.23
1510,21.882,45.9,717.15
1512,21.842,45.6,721.82
1514,21.872,44.5,724.56
1516,21.822,44.6,727.54
1518,21.772,43.9,725.68
1520,21.732,44,716.84
1521,21.722,44.9,719.77