File: Wood/Calibration_Data/UDRI/UDRI_Wood_Cone_60kW_hor_R2.csv
Time (s),Mass (g),HRR (kW/m2),TC back 1 (K)
0,112.48,-0.3,293.885
2,112.46,0,299.114
4,112.43,0.4,298.768
6,112.4,1,297.081
8,112.3,1,293.52
10,112.2,1.7,295.27
12,111.97,1.4,299.537
14,111.69,10.3,295.21
16,111.42,39.2,291.231
18,111.14,87.2,296.505
20,110.84,128.3,300.091
22,110.62,156.6,304.365
24,110.35,179.6,298.564
26,110.08,183.9,286.944
28,109.83,189.2,304.999
30,109.599,194.5,294.841
32,109.369,194.5,296.673
34,109.079,199.5,294.89
36,108.819,205.2,302.455
38,108.609,201.2,299.786
40,108.349,200.6,300.228
42,108.119,200.3,302.902
44,107.889,194.4,301.619
46,107.659,198.8,300.759
48,107.379,200.9,296.815
50,107.179,200.3,294.222
52,106.949,198.1,298.7
54,106.749,192,297.321
56,106.509,188.5,296.369
58,106.279,188.6,299.664
60,106.079,184.3,304.453
62,105.889,184.2,300.233
64,105.679,182.3,290.209
66,105.459,179.8,301.283
68,105.259,181.8,299.134
70,105.039,177.9,310.449
72,104.839,177.4,295.696
74,104.619,173.5,306.151
76,104.418,175.5,311.056
78,104.198,173.3,300.482
80,104.028,169.6,305.173
82,103.808,171.6,302.239
84,103.608,165.7,297.933
86,103.418,166.4,304.398
88,103.238,166.4,301.949
90,103.058,165.3,305.754
92,102.828,163.4,304.722
94,102.658,165,302.294
96,102.448,163.7,305.924
98,102.248,161.5,305.557
100,102.078,157.9,304.651
102,101.908,159.8,305.094
104,101.698,160,303.036
106,101.528,154.9,304.71
108,101.308,151.7,303.751
110,101.148,151.2,303.857
112,100.988,148.9,301.179
114,100.778,150.2,308.669
116,100.598,148.1,302.459
118,100.398,147.5,304.607
120,100.268,146.5,297.786
122,100.038,149.7,300.121
124,99.868,147.9,301.501
126,99.678,148.6,304.742
128,99.508,146.2,307.582
130,99.298,143.9,301.596
132,99.107,147.6,301.085
134,98.927,145,314.207
136,98.717,145.7,306.013
138,98.567,146.5,308.49
140,98.387,143.9,308.353
142,98.227,146.2,308.929
144,98.017,146.6,307.639
146,97.877,144.7,308.236
148,97.667,141,308.693
150,97.497,141.3,313.958
152,97.317,141.9,306.432
154,97.177,140.4,306.258
156,96.987,139.4,307.843
158,96.797,137.8,312.817
160,96.627,136.7,310.591
162,96.487,135.9,320
164,96.317,134.9,317.315
166,96.157,132.9,313.254
168,95.997,134.7,325.332
170,95.817,134.1,307.51
172,95.627,133,318.778
174,95.477,130.8,308.153
176,95.327,131.4,317.916
178,95.117,128.4,315.596
180,94.977,128.3,310.506
182,94.827,127.4,311.874
184,94.647,126.4,321.173
186,94.517,129.7,313.938
188,94.357,127.6,314.321
190,94.157,125.4,322.837
192,94.007,127.4,313.643
194,93.856,125.8,318.205
196,93.716,125.4,317.591
198,93.516,125.5,323.13
200,93.346,126.3,315.1
202,93.196,124.5,322.432
204,93.026,124.1,319.282
206,92.876,124.4,317.473
208,92.676,122.3,323.229
210,92.566,121.7,320.18
212,92.446,119.6,315.412
214,92.246,120.2,314.323
216,92.106,120.5,322.717
218,91.946,119.8,322.618
220,91.786,119.9,315.241
222,91.656,117.9,327.442
224,91.466,120.1,329.494
226,91.336,118,318.251
228,91.206,118.8,316.481
230,91.056,116.7,325.198
232,90.906,117.2,325.424
234,90.706,115.8,311.445
236,90.566,115.2,315.215
238,90.426,114.4,324.447
240,90.306,112.8,337.134
242,90.156,114.7,331.814
244,89.966,113.4,328.682
246,89.826,113.5,329.928
248,89.666,113.3,327.721
250,89.516,112.2,322.946
252,89.346,112.6,334.004
254,89.206,112.7,321.599
256,89.056,113.4,338.586
258,88.876,112.8,328.935
260,88.766,112.3,330.371
262,88.646,110.9,332.777
264,88.495,113.2,334.161
266,88.345,110.2,339.363
268,88.165,108.9,335.136
270,88.015,110.9,328.892
272,87.865,110.7,336.172
274,87.725,110.7,334.45
276,87.615,110.7,339.004
278,87.425,108.8,333.993
280,87.275,109.5,340.011
282,87.145,107.4,337.788
284,87.005,109.3,344.715
286,86.825,109.4,332.642
288,86.675,108.7,341.041
290,86.545,107.9,339.102
292,86.395,108.5,339.387
294,86.265,109.3,340.669
296,86.125,108,344.105
298,85.975,108.9,338.652
300,85.785,109.2,342.885
302,85.655,109.3,346.083
304,85.515,108.4,338.768
306,85.385,108,345.014
308,85.235,107,341.014
310,85.095,106.4,342.058
312,84.955,107.5,338.494
314,84.785,106.4,349.181
316,84.645,107.2,346.822
318,84.495,106.3,340.719
320,84.355,105.9,346.714
322,84.215,106.7,347.764
324,84.095,106.5,349.076
326,83.895,106.2,347.64
328,83.805,106.2,345.536
330,83.655,104.9,346.984
332,83.525,106.4,347.872
334,83.365,106.1,344.014
336,83.244,104.6,342.725
338,83.114,103.2,360.913
340,82.964,102.1,347.857
342,82.814,103.2,341.839
344,82.654,104.2,349.267
346,82.544,105.5,356.18
348,82.384,104.3,346
350,82.254,101.6,352.567
352,82.124,101.7,354.546
354,81.994,103.9,354.37
356,81.804,102.9,349.812
358,81.704,102.2,353.833
360,81.564,100.5,356.584
362,81.434,100.7,354.247
364,81.294,101.3,356.907
366,81.174,101.5,360.044
368,81.024,100.5,357.468
370,80.874,99.4,348.466
372,80.734,100.3,359.399
374,80.624,100.1,362.568
376,80.494,98.1,354.921
378,80.354,96.4,353.952
380,80.214,97.3,361.623
382,80.054,96.3,361.199
384,79.934,98.7,358.66
386,79.784,97.8,359.628
388,79.684,99.2,362.287
390,79.534,98.6,365.085
392,79.414,99.4,362.66
394,79.264,98.7,361.133
396,79.154,97.9,364.134
398,79.044,98.2,367.596
400,78.874,97,356.835
402,78.744,97.4,368.962
404,78.584,97.9,368.301
406,78.504,98.7,364.076
408,78.344,97.5,365.242
410,78.234,98.1,371.061
412,78.053,96.7,367.387
414,77.953,97.9,362.961
416,77.823,96.8,363.624
418,77.663,97.2,373.75
420,77.563,95.6,367.332
422,77.433,94.6,367.741
424,77.303,94.4,374.42
426,77.173,92.6,382.18
428,77.033,95,361.664
430,76.923,95.7,371.769
432,76.773,94.2,363.091
434,76.643,94.6,369.809
436,76.543,94.7,365.701
438,76.393,94.8,379.66
440,76.273,94,373.81
442,76.143,95,374.44
444,76.023,95.8,365.67
446,75.883,94.6,372.565
448,75.763,96.9,379.93
450,75.603,95.2,378.39
452,75.513,95.8,373.91
454,75.383,95.7,371.5
456,75.243,95.2,367.304
458,75.123,95.6,369.778
460,74.973,95,373.032
462,74.853,93.9,385.91
464,74.723,92.7,364.487
466,74.653,94.7,371.991
468,74.483,95.1,374.9
470,74.393,94.9,375.39
472,74.283,93.5,373.81
474,74.143,94.4,377.87
476,74.023,92.5,374.73
478,73.873,94.5,374.53
480,73.763,92.5,378.92
482,73.603,93.4,371.722
484,73.483,92.7,372.498
486,73.353,93.6,373.43
488,73.223,92.6,379.8
490,73.123,92.1,374.47
492,73.013,93.9,373.47
494,72.883,91.9,383.22
496,72.762,93.5,376.53
498,72.612,93.9,372.155
500,72.502,92.3,377.81
502,72.392,91.9,382.54
504,72.262,92.4,380.96
506,72.152,93.3,373.28
508,72.012,94,371.082
510,71.922,91.3,387.07
512,71.762,88,373.006
514,71.672,88.2,377.56
516,71.532,89.9,377.94
518,71.402,90.3,376.98
520,71.282,91.1,382.5
522,71.142,89.3,375.89
524,71.042,90.3,384.87
526,70.922,90.7,371.81
528,70.832,90,379.37
530,70.682,89.7,385.39
532,70.572,89,381.44
534,70.442,89.4,380.24
536,70.322,88,369.966
538,70.222,90.6,382.09
540,70.092,89.4,379.4
542,69.952,89.6,384.39
544,69.852,89.9,381.6
546,69.722,88.4,369.48
548,69.602,88.9,380.99
550,69.492,89.6,384.45
552,69.352,88.6,377.76
554,69.262,88.1,383.56
556,69.152,89.7,371.709
558,69.052,89.2,384.59
560,68.922,89.7,379
562,68.812,87.5,381.53
564,68.692,88.2,382.89
566,68.552,88.9,381.39
568,68.442,89.6,384.24
570,68.322,87.6,380.5
572,68.202,87.8,381.63
574,68.082,87.4,382.51
576,68.002,88.8,382.6
578,67.892,88.3,374.96
580,67.752,88.1,385.48
582,67.651,86.2,377.49
584,67.531,86.1,387.18
586,67.441,87,381.51
588,67.331,87,378.11
590,67.171,87.6,379.13
592,67.071,85.6,386.51
594,66.961,84.9,389.93
596,66.851,85.2,386.5
598,66.761,83.7,371.461
600,66.641,82.2,384.92
602,66.541,82.5,385.99
604,66.431,82.7,380.17
606,66.311,83.6,381.47
608,66.201,82.8,382.77
610,66.091,82.5,383.8
612,65.941,82.5,386.16
614,65.841,83.4,383.74
616,65.751,83.3,384.43
618,65.641,84.1,387.28
620,65.541,83.2,382.11
622,65.421,83.1,383.65
624,65.291,83.6,391.62
626,65.181,84.5,380.51
628,65.091,83,382.41
630,64.981,82.2,386.19
632,64.841,83.8,385.45
634,64.731,84.6,381.52
636,64.631,83.2,389.21
638,64.571,83.3,381.76
640,64.421,83.3,389.12
642,64.321,82.1,384.23
644,64.241,82.1,380.05
646,64.101,81.4,380.62
648,63.961,83,389.26
650,63.871,83.1,381.12
652,63.761,83.3,382.52
654,63.641,84,380.73
656,63.521,82.4,378
658,63.451,83.8,379.98
660,63.311,81.6,385.57
662,63.191,81.6,393.59
664,63.131,84.2,389.82
666,62.971,83.6,387.45
668,62.881,82.8,386.46
670,62.781,84.1,390.92
672,62.681,84,386.61
674,62.561,83.5,391.82
676,62.421,83.8,388.27
678,62.32,84.8,388.99
680,62.24,84.5,387.31
682,62.13,82.6,392.59
684,62.03,81.8,390.91
686,61.89,82.8,394.54
688,61.81,81.7,381.2
690,61.7,83.2,383.63
692,61.55,82.6,389.75
694,61.46,84.3,393.03
696,61.37,84.3,392.36
698,61.25,84.8,394.37
700,61.15,83.1,389.05
702,61.04,83.1,381.42
704,60.92,84.3,388.9
706,60.81,84.3,384
708,60.7,83,383.07
710,60.6,84.1,396.56
712,60.47,83.9,391.21
714,60.38,82.6,390.81
716,60.25,83.5,391.9
718,60.13,84.4,384.92
720,60.04,83,396.81
722,59.93,83.3,387.49
724,59.8,84.4,386.28
726,59.7,85.2,395.11
728,59.6,84.7,397.07
730,59.49,85.1,397.89
732,59.41,83.4,392.35
734,59.28,82.5,389.26
736,59.17,81.2,394.4
738,59.06,82.2,392.06
740,58.95,82.7,392.95
742,58.85,81.5,392.52
744,58.75,80.5,397.42
746,58.61,79.8,392.59
748,58.52,80.5,393.36
750,58.4,80.9,393.71
752,58.3,81.7,391.44
754,58.18,82.2,387.5
756,58.07,81.7,390.17
758,57.96,83.2,392.93
760,57.86,83.3,402.07
762,57.78,82.9,404.38
764,57.63,83.4,398.06
766,57.56,83.1,390.96
768,57.41,83.2,400.44
770,57.31,82.6,400.42
772,57.21,84.4,400.48
774,57.099,84,402.6
776,56.979,83.1,400
778,56.869,83.1,391.87
780,56.759,83.8,404.63
782,56.659,82.8,391.81
784,56.539,82.9,409.89
786,56.419,85.1,405.12
788,56.299,84.1,401.57
790,56.209,84.2,405.49
792,56.069,84.3,398.95
794,55.939,83.2,403.7
796,55.879,83.3,402.99
798,55.759,83.8,409.14
800,55.649,83.6,406.17
802,55.539,84,413.65
804,55.439,82.7,407
806,55.339,84.3,400.18
808,55.229,85.2,406.24
810,55.109,83.4,405.45
812,55.019,83.3,410.6
814,54.899,83.7,406.94
816,54.799,83.8,404.88
818,54.679,81.7,404.9
820,54.579,84.2,407.25
822,54.449,84.1,411.91
824,54.329,83,410.67
826,54.249,83.7,422.16
828,54.149,84.3,418.48
830,54.059,85.3,406.78
832,53.919,83.4,401.04
834,53.789,85.3,403.22
836,53.659,85.9,417.9
838,53.579,86.3,410.67
840,53.439,86.5,413.56
842,53.339,85.6,411.34
844,53.249,86.5,410.17
846,53.149,85.8,419.93
848,52.999,84.3,415.18
850,52.919,86,414.29
852,52.799,84.5,416.15
854,52.689,86.5,423.01
856,52.589,86.3,419.58
858,52.469,84.7,424.86
860,52.369,86.1,412.26
862,52.259,85.7,418.3
864,52.169,86.4,429.25
866,52.039,87.1,422.13
868,51.969,85.7,419.54
870,51.819,86.3,412.86
872,51.708,85.6,417.36
874,51.608,86.7,422.25
876,51.468,85.7,423.47
878,51.368,86.5,422.92
880,51.278,87.3,422.85
882,51.148,88.2,426.68
884,51.038,87.9,424.12
886,50.958,87.5,432.82
888,50.808,87.6,423.28
890,50.718,87.1,423.64
892,50.558,86.4,430.48
894,50.468,87.5,425.2
896,50.348,88,429.58
898,50.238,88.3,423.4
900,50.128,87.8,434.3
902,49.978,88.5,431.11
904,49.898,88.8,437.5
906,49.798,88.2,441.73
908,49.658,88.3,440.44
910,49.568,88.3,440
912,49.438,91.2,432.15
914,49.318,89.9,429.27
916,49.218,88.2,438.96
918,49.088,89.4,442.16
920,48.958,91,445.98
922,48.848,90.1,442.49
924,48.748,89.4,445.74
926,48.628,91.1,444
928,48.478,90.9,443.96
930,48.358,91.3,449.1
932,48.288,91,439.94
934,48.158,91.5,439.66
936,48.058,90.9,449.2
938,47.908,89.7,439.22
940,47.778,89.7,449.45
942,47.688,91.7,451.2
944,47.548,92.8,456.72
946,47.408,93.1,444.31
948,47.308,93.3,454
950,47.188,92.9,455.37
952,47.068,93.5,459.23
954,46.968,93.2,452.17
956,46.868,92.4,454.68
958,46.708,94.4,455.26
960,46.568,93.9,452.52
962,46.487,94.5,450.02
964,46.367,94.5,460.85
966,46.227,93.7,456.6
968,46.087,95.4,471.31
970,45.957,94.5,470.91
972,45.837,96.4,455.48
974,45.707,97.5,460.95
976,45.597,95.9,459.26
978,45.497,96.9,460.46
980,45.377,98.3,458.77
982,45.227,97.2,461.79
984,45.087,97.5,467.17
986,44.957,97.5,465.48
988,44.837,96.2,461.45
990,44.717,99.2,462.92
992,44.587,96.3,467.6
994,44.437,97.5,466.8
996,44.337,97.8,473.62
998,44.167,99,473.34
1000,44.067,97.5,478.38
1002,43.887,99,460.12
1004,43.767,98.7,485.89
1006,43.647,98.2,481.64
1008,43.527,97.7,487.77
1010,43.377,100.1,475.17
1012,43.277,101.2,473.33
1014,43.137,102.4,470.08
1016,42.957,100.8,474.27
1018,42.837,101.9,482.33
1020,42.737,100,485.07
1022,42.577,101.1,475.69
1024,42.437,102.3,481.48
1026,42.307,103,493.01
1028,42.187,105.2,485.24
1030,42.097,104.1,477.85
1032,41.947,105.7,486.64
1034,41.767,104,487.29
1036,41.647,103,489.75
1038,41.467,103.8,484.84
1040,41.346,105.1,497.24
1042,41.207,103.8,488.58
1044,41.096,103.9,490.65
1046,40.936,104.7,485.98
1048,40.776,105.1,497.33
1050,40.676,106.7,487.33
1052,40.526,106.9,498.29
1054,40.386,108,494.89
1056,40.206,108.4,493.89
1058,40.056,106.2,499.15
1060,39.946,105.2,499.82
1062,39.776,105.9,501.27
1064,39.656,108.2,496.39
1066,39.496,110,502.75
1068,39.366,107.2,503.34
1070,39.236,110.5,503.22
1072,39.086,108.7,501.75
1074,38.926,108.3,504.35
1076,38.756,109.4,507.48
1078,38.606,110,504.63
1080,38.456,110.3,501.7
1082,38.316,109.8,503.85
1084,38.166,110.7,513.21
1086,38.006,111,501.42
1088,37.886,113.9,507.31
1090,37.766,112.5,505.46
1092,37.606,113.4,510.42
1094,37.386,114.5,513.19
1096,37.286,113.3,515.37
1098,37.106,114.3,517.58
1100,36.996,114.8,511.5
1102,36.846,115.1,514.44
1104,36.686,113.5,516.38
1106,36.496,117.1,523
1108,36.356,116.1,521.72
1110,36.176,115.8,513.65
1112,36.046,114.1,518.25
1114,35.875,118.4,520.05
1116,35.705,117.5,518.48
1118,35.585,116.5,520.04
1120,35.395,117.5,522.28
1122,35.265,117.2,525.64
1124,35.125,116.6,519.12
1126,34.955,116.7,531.35
1128,34.775,116.4,529.1
1130,34.665,119.2,529.61
1132,34.535,118.9,530.9
1134,34.355,117.7,524.74
1136,34.205,117.3,533.22
1138,34.025,118.8,533.71
1140,33.885,118.8,533.51
1142,33.695,118.3,535.47
1144,33.585,118.9,535.31
1146,33.425,120.2,535.29
1148,33.265,120.2,540.17
1150,33.115,117.4,542.5
1152,32.935,120.6,539.87
1154,32.815,120.9,540.68
1156,32.635,120.5,539.65
1158,32.505,119.9,543.14
1160,32.355,118.6,539.69
1162,32.205,119.3,543.59
1164,32.035,117.8,543.14
1166,31.875,118.6,541.81
1168,31.745,117.5,548.25
1170,31.575,119.5,547.51
1172,31.475,117.2,546.43
1174,31.295,116.7,549.33
1176,31.135,116.3,550.93
1178,30.955,119.5,550.36
1180,30.845,118.2,553.09
1182,30.664,117.4,551.88
1184,30.514,116.1,554.28
1186,30.354,118.7,558.04
1188,30.244,117.2,556.62
1190,30.034,117,555.76
1192,29.964,121.5,556.89
1194,29.804,116.1,559.47
1196,29.614,118.2,562.24
1198,29.494,118.9,560.79
1200,29.304,116.9,562.75
1202,29.154,117.9,563.14
1204,29.014,118.6,564.72
1206,28.904,117.9,565.24
1208,28.714,118,565.33
1210,28.604,116.2,565.49
1212,28.484,116.9,567.31
1214,28.314,115.1,568.63
1216,28.144,114,568.87
1218,28.024,114,568.72
1220,27.914,115.1,569.46
1222,27.684,115.6,573.48
1224,27.534,112.9,574.09
1226,27.424,113.7,575.58
1228,27.274,113.4,573.16
1230,27.144,112,575.48
1232,26.994,113.1,575.81
1234,26.864,112.1,576.26
1236,26.754,109.6,578.91
1238,26.564,113,579.53
1240,26.464,110.6,577.51
1242,26.304,108.9,579.31
1244,26.154,110,581.57
1246,26.044,110.5,581.61
1248,25.924,109.2,582.1
1250,25.794,109.1,581.4
1252,25.644,109.8,585.68
1254,25.534,109,582.92
1256,25.413,108,586.05
1258,25.313,107.6,585.76
1260,25.193,106.1,586.35
1262,25.073,106.8,586.68
1264,24.953,105.3,588.1
1266,24.813,105.8,588.55
1268,24.723,104.4,590.61
1270,24.623,102.3,589.11
1272,24.483,99.9,591.54
1274,24.373,98.5,590.66
1276,24.263,97,594.32
1278,24.153,97,594.96
1280,24.063,95.6,593.46
1282,23.923,97.1,595.24
1284,23.833,94,595.36
1286,23.723,92,596.61
1288,23.623,91.9,597.08
1290,23.563,90.9,598.29
1292,23.443,90.6,600.75
1294,23.333,88.5,598.17
1296,23.253,88,600.08
1298,23.163,88.5,601.61
1300,23.053,88.2,601.64
1302,22.983,85.5,603.91
1304,22.873,83.6,603.02
1306,22.783,83.2,603.63
1308,22.693,81.8,604.14
1310,22.583,81.5,605.17
1312,22.513,81.8,605.47
1314,22.423,80.3,606.25
1316,22.363,80.7,607.86
1318,22.303,78.6,605.94
1320,22.223,78.5,610.5
1322,22.103,76.1,609.18
1324,22.033,78,611.64
1326,21.953,78.2,611.2
1328,21.893,76.5,613.22
1330,21.793,74.7,612.04
1332,21.703,73.1,615.44
1334,21.653,73.7,615.54
1336,21.553,72,618.96
1338,21.523,71,617.49
1340,21.423,68.4,619.2
1342,21.393,67.9,618.67
1344,21.353,67,620.15
1346,21.233,65.5,621.57
1348,21.213,64.5,622.27
1350,21.153,63.8,622.26
1352,21.073,64.2,625.14
1354,21.003,61.6,626.41
1356,20.953,61.9,628.85
1358,20.893,62.4,626.87
1360,20.853,63,626.95
1362,20.793,61.9,630.79
1364,20.743,60.7,630.51
1366,20.653,60.5,632.73
1368,20.593,59.9,633.26
1370,20.523,58.9,635.05
1372,20.463,58.3,637.96
1374,20.383,58.4,638.24
1376,20.363,57.8,641.29
1378,20.303,57.3,642.67
1380,20.242,57,645.55
1382,20.182,56.9,644.33
1384,20.133,56.3,647.57
1386,20.092,56.2,649.9
1388,20.062,54.3,651.19
1390,20.012,54.9,654.44
1392,19.962,55,655.2
1394,19.912,54.3,659.71
1396,19.862,53.7,662.57
1398,19.802,54.8,665.4
1400,19.782,52.9,668.3
1402,19.752,52.9,671
1404,19.712,51.4,672.23
1406,19.682,50.7,673.66
1408,19.642,49.3,674.36
1410,19.622,49.3,676.69
1412,19.592,49.1,677.84
1414,19.532,48.9,679.54
1416,19.512,49.4,681.25
1418,19.452,48.2,681.93
1420,19.432,47.9,680.84
1422,19.402,47.8,681.45
1424,19.372,48.1,682.55
1426,19.322,48.2,680.75
1428,19.282,48,679.08
1430,19.242,48.3,683.63
1432,19.232,48.7,682.63
1434,19.172,48.9,679.88
1436,19.142,47.5,680.73
1438,19.112,47,681.81
1440,19.042,47.5,681.4
1442,19.052,47.6,683.93
1444,19.022,47,681.67
1446,18.972,46.8,683.8
1448,18.972,42.9,682.2
1450,18.932,41.9,681.95
1452,18.872,42.4,684.9
1454,18.832,42.2,681.42
1456,18.822,42.7,685.98
1458,18.782,42.4,681.69
1460,18.752,42.2,682.93
1462,18.722,41.7,682.97
1464,18.712,41.6,682.78
1466,18.662,41.4,685.46
1468,18.672,40.4,684.1
1470,18.622,41.4,686.37
1472,18.572,42,685.92
1474,18.542,41.9,685.55
1476,18.532,41.3,686.46
1478,18.502,41.5,687.97
1480,18.462,40.8,686.97
1482,18.412,41.3,688.26
1484,18.402,40.3,690.88
1486,18.372,39.7,686.3
1488,18.362,40.1,689.96
1490,18.342,38.6,690.16
1492,18.302,39.3,689.65
1494,18.282,39.4,689.54
1496,18.262,39.8,691.44
1498,18.212,39.5,690.46
1500,18.152,38.7,690.81
1502,18.122,40.5,693.43
1504,18.092,39.1,692.68
1506,18.072,39.2,694.99
1508,18.052,40,694.94
1510,18.052,39.3,694.55
1512,18.022,39.8,694.41
1514,17.962,38.9,695.26
1516,17.942,38.7,695.67
1518,17.902,38.5,695.49
1520,17.892,38.5,698.92
1522,17.822,39.8,696.69
1524,17.832,38.9,696.89
1526,17.792,38.9,696.84
1528,17.752,38,698.48
1530,17.722,38.1,700.18
1532,17.712,38.7,698.79
1534,17.682,38.4,699.99
1536,17.652,38.7,701.46
1538,17.632,37.5,702.32
1540,17.592,36.9,704.25
1542,17.572,37.4,703.25