File: Wood/Calibration_Data/UDRI/UDRI_Wood_Cone_60kW_hor_R4.csv
Time (s),Mass (g),HRR (kW/m2),TC back 1 (K)
0,110.9,4,299.922
1,110.86,3.3,299.888
2,110.89,3.6,304.634
3,110.76,3.9,296.402
4,110.66,3.4,293.963
5,110.56,3.9,298.265
6,110.44,9.1,303.672
7,110.36,19.1,297.96
8,110.23,32.1,300.246
9,110.12,50.6,299.645
10,109.96,73.9,285.887
11,109.82,97.4,289.49
12,109.66,123.3,295.631
13,109.52,138,300.757
14,109.38,161.7,291.453
15,109.25,183,298.547
16,109.11,197.7,302.036
17,108.93,213.1,298.359
18,108.76,219.8,298.985
19,108.63,236,297.253
20,108.46,239.6,301.441
21,108.37,245.8,304.967
22,108.199,248.3,295.653
23,107.989,252.2,297.36
24,107.859,256.2,296.27
25,107.679,257.8,304.392
26,107.519,262.6,305.162
27,107.439,267.9,297.565
28,107.239,269.2,301.422
29,107.119,266.5,297.817
30,106.989,267,302.598
31,106.909,262.1,299.698
32,106.759,259.1,298.93
33,106.659,260.7,300.989
34,106.539,258.5,300.114
35,106.379,263.1,299.501
36,106.219,268.1,299.564
37,106.059,264.1,300.073
38,105.959,259.6,300.344
39,105.809,256.6,300.319
40,105.689,257.3,300.067
41,105.579,251.7,303.87
42,105.429,251.4,299.659
43,105.319,251.6,300.21
44,105.219,252.7,302.574
45,105.059,250.1,298.179
46,104.969,251.6,301.847
47,104.839,254.6,299.472
48,104.699,249.9,298.868
49,104.599,246.1,301.538
50,104.529,240.3,300.782
51,104.389,237.2,302.196
52,104.269,238.8,302.296
53,104.159,231.5,303.849
54,104.089,233.7,303.54
55,103.969,229.9,301.551
56,103.869,234.7,300.611
57,103.749,229.5,304.207
58,103.629,234.5,300.762
59,103.529,229.7,301.217
60,103.399,230.2,300.327
61,103.259,228.6,303.612
62,103.149,224.6,300.71
63,103.019,224.1,298.478
64,102.928,223.1,302.633
65,102.798,219.1,300.032
66,102.728,217.7,299.452
67,102.578,216.6,301.735
68,102.468,217.4,299.393
69,102.368,221.2,301.075
70,102.318,216.8,302.612
71,102.158,215.5,303.144
72,102.018,214.5,305.014
73,101.908,209,302.729
74,101.838,209.6,301.114
75,101.758,210.2,304.85
76,101.638,206.5,301.7
77,101.548,209.1,301.17
78,101.408,205.8,303.61
79,101.298,204.5,304.516
80,101.218,206.3,302.539
81,101.088,206.5,303.091
82,100.978,202.6,305.553
83,100.888,201.2,303.037
84,100.818,206.1,302.92
85,100.718,205.6,302.421
86,100.618,199.5,302.681
87,100.478,200.5,303.916
88,100.428,200,302.104
89,100.328,195.7,301.215
90,100.228,194.3,302.091
91,100.118,197,303.365
92,100.038,195.9,302.941
93,99.958,196.4,304.88
94,99.818,198.1,304.109
95,99.718,195.4,302.872
96,99.598,192.1,302.392
97,99.488,191.1,304.801
98,99.398,190.2,302.436
99,99.318,189,304.011
100,99.208,190,301.944
101,99.108,190.8,304.289
102,99.018,191.9,303.767
103,98.918,190.5,304.521
104,98.808,191.2,303.287
105,98.698,189.2,304.675
106,98.608,189.7,304.863
107,98.538,187.6,302.035
108,98.398,189.1,303.884
109,98.288,189.6,303.856
110,98.198,184.7,303.881
111,98.128,189,304.554
112,97.998,185.6,305.254
113,97.898,187.9,306.209
114,97.818,181,304.386
115,97.717,180.1,306.622
116,97.627,182.7,304.433
117,97.487,183.2,305.062
118,97.417,185.4,304.973
119,97.347,181,304.137
120,97.227,179.3,307.5
121,97.117,179.5,305.971
122,97.037,178.9,306.584
123,96.927,178.7,304.715
124,96.807,178.8,306.06
125,96.737,179.4,308.072
126,96.627,178.7,306.058
127,96.537,179.1,306.892
128,96.447,177.3,304.572
129,96.357,177.4,306.862
130,96.217,176.7,306.22
131,96.127,174.7,306.32
132,96.027,176.2,306.457
133,95.947,179.3,305.562
134,95.827,176.7,304.607
135,95.737,178.9,307.318
136,95.667,177.5,306.883
137,95.567,180.9,306.717
138,95.447,180.3,306.315
139,95.367,177.7,305.694
140,95.237,178.2,307.295
141,95.137,172.8,308.095
142,95.067,174.6,308.038
143,94.947,173.9,307.482
144,94.867,173.1,309.1
145,94.797,174.6,308.366
146,94.647,177.7,307.66
147,94.547,176.1,305.174
148,94.447,175.7,307.578
149,94.347,178.4,308.624
150,94.227,176.5,308
151,94.147,176.1,307.244
152,94.087,171.2,308.774
153,93.997,174.1,308.41
154,93.907,174.4,308.079
155,93.827,174.8,308.113
156,93.737,175,308.751
157,93.627,175.5,309.786
158,93.557,172.3,308.428
159,93.437,173.5,308.749
160,93.367,171,306.926
161,93.257,171.6,308.931
162,93.187,172.3,309.782
163,93.057,173.3,308.693
164,93.017,171.6,312.202
165,92.887,170.6,309.335
166,92.807,167.9,308.643
167,92.717,167.6,310.212
168,92.617,166,308.128
169,92.527,166.8,308.544
170,92.457,165.5,309.364
171,92.346,166.9,310.097
172,92.256,166.7,310.982
173,92.136,167,311.471
174,92.076,167,311.045
175,91.966,165.9,309.592
176,91.886,163.6,310.022
177,91.786,165.2,313.645
178,91.676,160.7,309.754
179,91.586,165.4,309.825
180,91.536,163.9,312.806
181,91.446,163.3,312.487
182,91.326,161.2,311.059
183,91.246,162.3,313.217
184,91.176,161.3,311.642
185,91.086,161.9,312.02
186,90.956,162.8,310.358
187,90.876,161.3,312.99
188,90.796,163.6,312.414
189,90.736,159,310.457
190,90.586,163.9,312.394
191,90.526,163.9,313.121
192,90.436,164,313.239
193,90.376,161.4,312.16
194,90.256,159.8,313.969
195,90.156,163.6,316.175
196,89.986,160,312.024
197,89.946,162.5,314.287
198,89.876,159.6,315.315
199,89.786,163,311.806
200,89.686,161.6,312.514
201,89.606,161.3,313.911
202,89.516,159.3,312.187
203,89.406,159.3,314.017
204,89.326,156.8,315.649
205,89.216,161.1,315.441
206,89.166,159.8,314.659
207,89.126,160.2,316.161
208,89.016,159,315.437
209,88.906,159.2,314.833
210,88.796,157.8,313.977
211,88.736,157.2,315.738
212,88.656,158,314.813
213,88.596,158.9,317.711
214,88.486,160.1,314.11
215,88.406,157.3,315.242
216,88.316,156.3,317.002
217,88.186,154.9,316.601
218,88.126,156.7,315.966
219,88.036,154.8,315.479
220,87.966,156.6,314.068
221,87.856,153.6,316.248
222,87.806,155.5,319.837
223,87.746,154.4,316.551
224,87.656,152.7,313.617
225,87.556,151.6,316.021
226,87.436,151.4,315.722
227,87.396,151.1,317.063
228,87.316,152.5,317.115
229,87.206,152,318.883
230,87.155,152.1,318.697
231,87.045,152.2,319.381
232,86.945,150.7,316.212
233,86.885,153,319.198
234,86.735,152.2,316.325
235,86.685,152.2,318.235
236,86.585,154.6,318.597
237,86.485,151.4,319.791
238,86.435,151.3,318.106
239,86.315,149.9,318.88
240,86.255,148.9,318.383
241,86.225,151.5,319.012
242,86.135,150.1,320.345
243,86.045,150.9,320.528
244,86.005,150.2,320.165
245,85.925,151.9,323.999
246,85.855,146.5,319.034
247,85.785,146.4,320.676
248,85.685,148.2,321.195
249,85.595,149.8,320.027
250,85.495,147.6,320.831
251,85.425,149.4,321.584
252,85.305,150.1,321.514
253,85.265,147.4,322.364
254,85.185,149,320.127
255,85.065,146.4,321.42
256,84.985,146.6,324.409
257,84.925,145.2,323.088
258,84.815,148.5,322.63
259,84.735,146.5,322.363
260,84.645,146.8,322.382
261,84.535,145.3,322.92
262,84.495,147.3,321.767
263,84.375,142.6,324.906
264,84.305,145.2,324.928
265,84.225,145.1,322.154
266,84.115,144.3,322.255
267,84.005,146.3,324.865
268,83.995,145.4,323.272
269,83.905,145.7,321.341
270,83.775,145.8,325.701
271,83.725,144.7,323.613
272,83.605,143.8,324.385
273,83.525,143.1,325.556
274,83.445,141.9,325.064
275,83.375,146.2,326.502
276,83.285,145.9,326.144
277,83.215,146.6,324.855
278,83.125,145.7,324.923
279,83.055,146.3,324.289
280,83.005,143.5,326.27
281,82.955,145.8,326.507
282,82.855,144.1,325.138
283,82.735,146.4,325.753
284,82.635,145.6,328.121
285,82.625,145.4,326.61
286,82.485,146.1,326.486
287,82.385,143.2,327.105
288,82.345,144.6,328.805
289,82.295,145.9,325.677
290,82.225,143,327.925
291,82.155,145.5,325.843
292,82.075,147,327.211
293,81.985,145.9,326.678
294,81.895,146.2,330.765
295,81.784,145.9,329.611
296,81.734,143.7,326.839
297,81.624,142.7,329.526
298,81.554,144.2,331.142
299,81.494,143.8,327.576
300,81.444,146.7,329.92
301,81.354,147.6,327.465
302,81.254,146.9,330.13
303,81.204,144.9,331.233
304,81.084,143,331.643
305,81.024,142.1,329.71
306,80.944,143.7,331.818
307,80.844,140,330.219
308,80.764,144,333.205
309,80.724,143.9,331.111
310,80.614,145.1,333.081
311,80.524,144.4,332.416
312,80.474,141,329.784
313,80.394,143.7,333.454
314,80.324,141.3,331.713
315,80.234,144.7,333.58
316,80.174,138.6,332.876
317,80.104,142.1,333.725
318,79.994,138.9,333.177
319,79.944,139.5,334.29
320,79.814,139.5,335.011
321,79.754,139.4,332.645
322,79.684,139.7,334.571
323,79.584,141.7,334.739
324,79.514,144.2,333.836
325,79.424,139.5,333.682
326,79.364,139.7,335.087
327,79.314,141.8,334.122
328,79.154,140.4,336.145
329,79.134,139.9,334.686
330,79.074,142.1,333.765
331,79.004,141.5,336.291
332,78.894,139.8,335.738
333,78.784,138.1,334.002
334,78.734,140.1,336.772
335,78.664,139.6,335.694
336,78.604,140.3,336.722
337,78.524,141.1,337.858
338,78.414,139.4,338.032
339,78.354,142.8,337.822
340,78.274,141.8,338.691
341,78.194,144.3,337.282
342,78.084,141.6,338.833
343,78.024,140.3,336.833
344,77.954,139.5,339.336
345,77.944,141.3,338.661
346,77.834,140.3,340.565
347,77.774,141.1,339.257
348,77.714,140.8,338.153
349,77.554,139.3,342.069
350,77.504,138.6,340.106
351,77.454,139.4,341.116
352,77.344,141.7,338.769
353,77.254,139.3,341.33
354,77.174,139.4,340.391
355,77.134,137.1,342.639
356,77.054,139.1,342.144
357,76.994,139.6,341.085
358,76.894,139.3,340.716
359,76.794,139.6,342.874
360,76.734,140.3,341.032
361,76.704,141.4,341.009
362,76.583,141.3,344.697
363,76.503,141.5,342.821
364,76.393,143.8,343.617
365,76.333,137.2,346.132
366,76.233,140.2,344.492
367,76.173,139.7,344.419
368,76.143,143.2,343.464
369,76.073,140.5,346.032
370,75.993,141.3,345.682
371,75.883,142.7,345.576
372,75.813,141.2,348.016
373,75.723,143.5,346.156
374,75.603,141.4,348.32
375,75.543,140.5,347.499
376,75.463,141.5,346.443
377,75.363,143.3,348.133
378,75.303,140.5,347.35
379,75.213,142.5,347.425
380,75.113,142.4,348.788
381,75.063,141.2,347.186
382,74.983,143.5,349.63
383,74.893,141.8,349.626
384,74.793,140.4,346.841
385,74.793,140.7,349.933
386,74.693,144.8,351.379
387,74.593,141.9,349.835
388,74.543,141.2,349.618
389,74.473,141.3,349.317
390,74.393,140.6,351.67
391,74.293,143.5,352.963
392,74.233,138.8,352.753
393,74.123,140.2,352.956
394,74.063,141.9,351.694
395,73.963,141.1,353.67
396,73.893,143.7,353.675
397,73.803,143.1,354.224
398,73.723,144.4,353.195
399,73.643,143.7,352.58
400,73.553,143.5,355.505
401,73.483,142.8,355.113
402,73.423,140.6,354.02
403,73.353,142.9,353.15
404,73.263,142.3,355.501
405,73.193,143.1,354.989
406,73.133,140.8,354.683
407,73.093,140,355.821
408,73.003,140.5,356.897
409,72.873,141.1,357.06
410,72.773,138.1,358.123
411,72.713,138.5,357.089
412,72.623,139.6,357.703
413,72.623,140.9,356.862
414,72.503,140.2,358.513
415,72.423,141.5,358.389
416,72.313,140.1,359.944
417,72.263,139.2,358.893
418,72.203,142.1,360.358
419,72.113,141.4,360.055
420,72.053,139.9,361.141
421,71.943,140.7,360.443
422,71.833,140.5,361
423,71.803,140.3,361.375
424,71.673,140.2,359.99
425,71.603,139.9,361.061
426,71.513,139.7,362.136
427,71.443,139.9,360.183
428,71.402,139.3,362.242
429,71.333,140.1,363.484
430,71.262,140.6,363.861
431,71.142,139.5,364.126
432,71.072,137.4,363.478
433,70.982,139.8,363.695
434,70.922,142.7,363.776
435,70.832,141.8,364.091
436,70.792,142.1,363.606
437,70.712,144.1,367.859
438,70.622,141.9,363.765
439,70.552,141.4,365.511
440,70.442,141.7,363.105
441,70.452,141.1,364.631
442,70.372,141.9,363.491
443,70.262,139.9,365.601
444,70.182,140.4,367.641
445,70.062,142.4,366.062
446,70.022,144,367.494
447,69.922,142.6,367.431
448,69.802,143.8,367.445
449,69.712,141.2,366.693
450,69.652,143.1,366.52
451,69.572,141.9,367.496
452,69.492,142.4,367.397
453,69.412,141.5,368.038
454,69.342,142,365.855
455,69.312,140.9,366.495
456,69.212,141.3,367.589
457,69.112,141,366.852
458,69.082,142.8,368.642
459,68.992,141.1,367.799
460,68.892,140.1,367.654
461,68.792,143.6,368.269
462,68.742,141.3,363.514
463,68.692,141.8,369.734
464,68.612,142,367.185
465,68.472,142.2,367.872
466,68.422,143.2,370.791
467,68.342,142.9,367.829
468,68.272,143.1,370.052
469,68.162,145,369.114
470,68.092,145.2,373.074
471,68.042,141.7,371.632
472,67.952,144.4,368.47
473,67.872,143.4,367.617
474,67.772,141.7,369.786
475,67.682,142.8,372.737
476,67.592,141.3,371.039
477,67.562,146.7,371.882
478,67.422,141.5,369.23
479,67.362,140.9,373.63
480,67.272,143.5,373.32
481,67.222,143.5,372.332
482,67.132,143.6,373.92
483,67.012,140.5,374.08
484,66.962,141.3,373.51
485,66.902,141.7,374.02
486,66.832,143.1,370.006
487,66.732,141.8,369.464
488,66.672,142.4,369.884
489,66.622,142.8,374.73
490,66.542,143.7,368.051
491,66.422,146.8,374.88
492,66.322,143.2,374.61
493,66.161,144.7,373.3
494,66.112,143.4,380.15
495,66.061,143.2,372.817
496,65.981,142.6,372.44
497,65.881,143.2,374.09
498,65.811,141,368.758
499,65.751,142.3,372.297
500,65.701,142.7,376.59
501,65.581,142.5,369.689
502,65.481,143.7,373.073
503,65.391,144.5,371.365
504,65.391,142.2,377.32
505,65.281,143.7,376.76
506,65.201,143.5,376.66
507,65.191,144.6,376.66
508,65.081,143.7,378.59
509,64.981,142.3,379.11
510,64.871,142,377.92
511,64.821,143.5,378.35
512,64.791,141.7,377.57
513,64.691,142.7,378.45
514,64.541,143.1,376.68
515,64.461,143.7,378.14
516,64.451,145,377.2
517,64.351,145.5,371.124
518,64.311,144.8,379.66
519,64.191,143.2,374.67
520,64.161,145.5,377.72
521,64.051,142,378.99
522,63.921,142.5,377.79
523,63.841,142.9,379.2
524,63.751,142.5,381.03
525,63.661,143,379.35
526,63.601,142.8,378.37
527,63.521,141.8,380.44
528,63.461,144.4,379.29
529,63.401,144.2,381.69
530,63.311,142.6,378.61
531,63.241,143,380.54
532,63.121,143.8,382.85
533,63.021,141.9,377.01
534,62.931,140.3,380.48
535,62.901,140.9,381.06
536,62.821,145.2,383.09
537,62.771,145.8,388.28
538,62.641,143.4,380.66
539,62.581,145.9,380.32
540,62.491,144.2,381.81
541,62.421,144,383.87
542,62.371,144,378.93
543,62.251,145.1,381.73
544,62.121,144.2,382.02
545,62.071,145.4,383.42
546,62.001,146.3,383.83
547,61.901,147.2,381.97
548,61.831,144.2,382.43
549,61.771,145.3,384.78
550,61.671,144.6,384.69
551,61.591,144.3,381.22
552,61.491,144.1,383.12
553,61.401,143.6,379.34
554,61.351,144.6,384.92
555,61.291,143.4,381.38
556,61.201,143.7,383.88
557,61.111,144.9,381.94
558,61.041,142.8,377.87
559,60.951,144.5,383.77
560,60.881,143.7,384.62
561,60.78,144.8,382.78
562,60.66,142.7,382.97
563,60.58,143.4,385.94
564,60.59,143.3,383.36
565,60.52,143.8,384.23
566,60.43,146,385.06
567,60.33,144.8,384.84
568,60.26,146.3,385.3
569,60.13,146.2,386.22
570,60.1,148.5,385.6
571,60.02,147.1,386.14
572,59.92,145,385
573,59.84,143.6,385.47
574,59.74,141.3,384.23
575,59.7,142,384.79
576,59.66,142.8,385.07
577,59.59,143.9,381.07
578,59.49,144.2,383.96
579,59.39,145.7,385.26
580,59.33,143,385.53
581,59.23,145.7,387.23
582,59.15,143.3,385.16
583,59.02,143.3,383.4
584,58.96,146.3,384.66
585,58.88,144.6,388.49
586,58.81,148.1,385.81
587,58.69,145.4,390.51
588,58.61,146.6,387.65
589,58.52,143.8,387.64
590,58.46,142.3,387.39
591,58.36,143.7,387.45
592,58.28,143.6,387.51
593,58.26,144.7,385.12
594,58.13,143.1,383.09
595,58.07,145.8,390.89
596,58.01,146.4,388.64
597,57.9,146.4,387.23
598,57.88,146.4,385.73
599,57.76,144.5,387.75
600,57.67,142.6,389.38
601,57.56,141.3,387.14
602,57.48,143,387.61
603,57.45,143.4,388.03
604,57.34,144.5,391.65
605,57.28,146.4,388.67
606,57.21,145,390.93
607,57.1,145,388.83
608,57.04,144.2,391.02
609,56.96,144.6,388.01
610,56.85,141.5,392.38
611,56.78,143.2,393.64
612,56.7,144.4,391.5
613,56.68,145.5,388.82
614,56.59,146.1,393.29
615,56.51,145.4,390.24
616,56.4,144,388.71
617,56.31,142.7,390.13
618,56.25,140.6,392.38
619,56.13,144.1,391.79
620,56.05,143.7,394.63
621,56.01,145.2,389.7
622,55.91,144.1,391.39
623,55.81,145.6,393.43
624,55.76,145.4,392.6
625,55.68,144.8,392.33
626,55.559,145.9,392.45
627,55.469,143.2,391.92
628,55.399,146.5,393.17
629,55.319,145.5,393.85
630,55.239,145.7,394.34
631,55.179,143.7,395.05
632,55.069,143.9,394.3
633,54.999,142.5,393.57
634,54.919,145.7,394.08
635,54.879,142.6,392.5
636,54.819,141.2,393.2
637,54.709,144,393.38
638,54.649,143.1,393.91
639,54.549,143.6,396.98
640,54.509,144,395.29
641,54.419,143.4,394.5
642,54.389,142.1,396.69
643,54.229,143.1,395.65
644,54.189,144.6,396.76
645,54.029,143.5,394.27
646,53.959,141.7,396.05
647,53.889,142.4,397.72
648,53.869,143.3,396.3
649,53.729,143.1,395.19
650,53.619,141.2,396.22
651,53.569,141.4,395.54
652,53.469,143.1,396.62
653,53.459,140.2,396.72
654,53.359,141,398.62
655,53.269,138.6,398.84
656,53.199,140.8,399.41
657,53.109,137.9,397.11
658,53.079,140.4,399.22
659,52.929,140.6,399.31
660,52.869,140.5,401.43
661,52.819,139.6,400.63
662,52.719,140.4,401.64
663,52.639,140.1,400.41
664,52.499,138.4,399.71
665,52.449,142.7,399.1
666,52.399,141.1,399.59
667,52.299,138.1,398.37
668,52.219,139.5,403.26
669,52.139,141.8,401.28
670,52.059,139.3,401.52
671,51.959,141.2,402.55
672,51.869,143.5,401.97
673,51.849,140.3,403.03
674,51.709,138.4,402.54
675,51.679,138.4,402.31
676,51.569,138.9,403.52
677,51.469,137.7,403.14
678,51.439,137.4,404.97
679,51.329,138.5,405.09
680,51.269,138.4,402.53
681,51.139,139,404.87
682,51.089,140.1,402.12
683,51.049,142,404.65
684,50.979,138.1,402.78
685,50.909,137.6,406.6
686,50.849,137,405.37
687,50.749,138.5,406.08
688,50.689,135.9,405.98
689,50.569,137.5,405.47
690,50.499,138.8,403.59
691,50.419,139.9,404.58
692,50.379,137.3,404.55
693,50.319,138.3,407.54
694,50.238,138,406.84
695,50.158,140.3,406.97
696,50.068,137.6,406.85
697,49.958,137.2,408.01
698,49.908,138.9,407
699,49.838,135.4,407.95
700,49.748,135,408.6
701,49.668,135.4,408.77
702,49.598,132.8,410.4
703,49.488,136.5,410.32
704,49.438,133.9,408.98
705,49.308,135.3,409.42
706,49.288,133.4,406.51
707,49.268,133.5,411.74
708,49.188,134.4,412.49
709,49.108,133.2,408.74
710,48.978,132.9,412.86
711,48.938,133.1,411.16
712,48.848,132.4,410.32
713,48.808,131.8,411.87
714,48.698,131.5,409.28
715,48.598,134,413.36
716,48.508,133.5,413.18
717,48.458,134.3,413.8
718,48.388,132.2,412.68
719,48.298,132.3,414.32
720,48.238,131.7,412.94
721,48.168,132.3,414.58
722,48.138,132.3,414.84
723,48.068,134.2,413.59
724,47.988,135.1,414.98
725,47.928,132.7,416.39
726,47.808,133,414.83
727,47.738,131.4,420.98
728,47.678,131.7,418.55
729,47.588,131.3,416.42
730,47.528,136.4,417.31
731,47.438,132.2,415.82
732,47.408,129.8,418.81
733,47.288,132.1,416.66
734,47.208,130.1,418.73
735,47.198,130.5,416.07
736,47.088,129.5,417.49
737,46.998,129.9,419.1
738,46.918,130.3,421.99
739,46.858,129.6,418.98
740,46.758,126.3,420.72
741,46.658,127.6,417.21
742,46.598,128.2,417.14
743,46.548,128.3,421.77
744,46.428,127.2,420.75
745,46.388,127.6,422
746,46.258,125.5,421.75
747,46.258,126.7,421.86
748,46.198,128.7,421.61
749,46.138,128.4,423.24
750,46.048,129.5,422.85
751,45.988,129.3,424.13
752,45.898,125.5,424.08
753,45.838,127.9,421.3
754,45.738,123.7,423.99
755,45.678,126.3,424.94
756,45.598,125.9,425.73
757,45.508,126.2,425.77
758,45.448,124.7,426.45
759,45.428,125.2,426.09
760,45.348,124.8,423.81
761,45.288,125,430.36
762,45.178,122.9,427.32
763,45.108,123.6,427.09
764,45.038,122.7,428.14
765,45.008,124.5,428.27
766,44.897,123.8,430.14
767,44.807,124.9,429.55
768,44.727,123.8,428.49
769,44.697,122.6,430.69
770,44.637,123.2,429.82
771,44.587,121.4,431.5
772,44.487,122.1,429.45
773,44.407,120.9,431.59
774,44.327,120.8,429.64
775,44.287,122.1,425.42
776,44.207,123,423.38
777,44.117,121.9,431.88
778,44.087,124.1,440.25
779,43.997,122.8,434.84
780,43.937,124.6,431.51
781,43.857,122.6,433.54
782,43.787,121.3,432.71
783,43.737,121.5,433.68
784,43.647,122.1,433.72
785,43.617,122.3,435.2
786,43.557,120.1,433.39
787,43.517,120.5,437.03
788,43.467,119.2,435.06
789,43.387,120.4,436.72
790,43.277,120.2,442.16
791,43.207,121.3,439.09
792,43.147,120.9,427.36
793,43.057,121.3,436.53
794,42.967,121.9,440.64
795,42.917,120.8,439.54
796,42.807,122.9,439.81
797,42.807,121.2,442.69
798,42.737,122.2,438.55
799,42.657,121.5,438.22
800,42.597,120.7,438.19
801,42.567,119,438.4
802,42.507,120.5,446.36
803,42.437,119.6,435.81
804,42.347,118.9,447.48
805,42.297,120.7,443.35
806,42.207,118.9,446.75
807,42.127,119.2,444.53
808,42.077,118.6,446.9
809,41.997,117.2,435.88
810,41.937,118.3,444.93
811,41.837,117.3,444.78
812,41.757,117.3,443.03
813,41.697,119,450.68
814,41.647,119.6,445.56
815,41.507,120.9,450.04
816,41.497,120.7,452.25
817,41.457,120.2,446.17
818,41.337,119.4,445.54
819,41.287,119.2,449.69
820,41.187,119,455.96
821,41.147,119.7,452.21
822,41.117,120.9,455.26
823,41.047,121.1,454.97
824,40.977,120.1,457.84
825,40.927,121.6,455.65
826,40.837,120.4,449.96
827,40.747,119.3,451.84
828,40.657,118.6,452.52
829,40.627,118.8,457.05
830,40.547,117.5,467.58
831,40.497,118.4,458.25
832,40.417,119.2,454.1
833,40.337,120.2,457.92
834,40.297,121.8,459.73
835,40.237,119.2,457.53
836,40.167,120.6,436.14
837,40.067,120.3,459.91
838,40.007,121.3,453.05
839,39.907,121.3,457.74
840,39.827,121.2,462.05
841,39.807,119.3,458.06
842,39.737,119.2,471.67
843,39.676,120.2,462.19
844,39.616,121.3,467.82
845,39.546,118.2,463.59
846,39.496,118.3,460.63
847,39.456,118.7,459.89
848,39.366,121.2,465.51
849,39.336,117.9,472.02
850,39.256,121.7,465.36
851,39.186,120.4,465.14
852,39.096,119.4,469.28
853,39.006,121.9,469.81
854,38.906,119.5,467.65
855,38.846,119.6,472.62
856,38.786,121.1,467.17
857,38.676,120.6,473.34
858,38.636,120.5,464.43
859,38.626,120.4,471.52
860,38.556,118.9,476.39
861,38.506,120,469.85
862,38.396,116.9,467.48
863,38.356,122.2,472.74
864,38.316,123.9,471.79
865,38.246,122,467.83
866,38.176,122.1,479.31
867,38.056,121.5,478.8
868,38.026,121.9,474.59
869,37.966,121.1,486.84
870,37.896,122,472.92
871,37.796,119.3,477.34
872,37.736,119.8,477.69
873,37.726,120.3,480.86
874,37.656,118.7,478.46
875,37.576,119.6,479.73
876,37.476,118.7,476.15
877,37.436,120.1,481.45
878,37.326,118.8,479.9
879,37.266,119.6,481.09
880,37.226,119.8,478.89
881,37.116,121.5,485.8
882,37.086,121,484.98
883,37.006,119.3,486.31
884,36.956,119.8,484.45
885,36.876,118.7,484.91
886,36.766,119.3,494.13
887,36.716,118.5,487.04
888,36.656,120.3,492.06
889,36.586,121.5,485.98
890,36.516,120,491.99
891,36.446,120.6,489.2
892,36.356,120.1,498.25
893,36.306,119.1,495.96
894,36.256,119.7,495.98
895,36.216,119.1,489.15
896,36.116,122.1,491
897,36.036,119.6,490.37
898,36.016,120.2,501.79
899,35.916,118.8,491.37
900,35.796,120.7,498.21
901,35.736,120.3,498.54
902,35.686,119,497.32
903,35.616,121,499.03
904,35.536,120.5,500.01
905,35.466,119.4,499.91
906,35.426,118.3,500.7
907,35.366,120.5,500.85
908,35.286,121,503.08
909,35.226,118.3,502.88
910,35.126,118,503
911,35.046,118.8,504.54
912,35.006,120.8,505.45
913,34.926,120.2,505.2
914,34.876,121.8,501.96
915,34.806,118.5,502.58
916,34.746,118.9,503.38
917,34.676,119.2,505.09
918,34.606,118.9,506
919,34.556,120.2,508.67
920,34.486,121.2,505.77
921,34.415,119.2,507.71
922,34.315,121.2,504.52
923,34.205,120.3,517.41
924,34.145,124.2,512.14
925,34.095,119.1,512.71
926,34.045,119.3,509.53
927,33.975,120.5,513.57
928,33.915,118.3,511.81
929,33.855,119.8,518.22
930,33.795,120.8,516.31
931,33.735,118.2,519.2
932,33.635,118,517.87
933,33.545,118.5,515.53
934,33.485,117.2,513.33
935,33.465,120,519.21
936,33.375,117.6,517.68
937,33.325,118.3,520.7
938,33.285,119.4,514.27
939,33.215,119.1,512.22
940,33.125,118.4,528.01
941,33.065,120.8,523.15
942,33.025,120.6,520.96
943,32.945,120.8,524.06
944,32.885,121.5,521.81
945,32.745,122.7,522.79
946,32.715,118.4,523.39
947,32.655,120.9,524.6
948,32.605,119.9,524.69
949,32.525,119,514.66
950,32.465,118.5,530.27
951,32.355,119.1,521.31
952,32.265,118.9,529.02
953,32.195,119.6,531.29
954,32.165,120.3,526.88
955,32.135,120.9,528.49
956,32.045,121.1,530.61
957,31.975,121,531.57
958,31.935,119.1,528.16
959,31.845,118,529.21
960,31.815,118.4,528.23
961,31.705,116.7,532.7
962,31.645,118.8,535.89
963,31.575,117.4,530.54
964,31.515,119.2,530.25
965,31.405,118.4,533.97
966,31.365,116.6,536.64
967,31.315,118.9,540.05
968,31.265,120.1,533.62
969,31.195,120.3,540.17
970,31.125,118.9,536.34
971,31.095,119.9,535.83
972,31.035,120.2,539.14
973,30.965,119.2,542.58
974,30.885,119.5,538.97
975,30.825,118.2,534.01
976,30.765,119.2,539.05
977,30.645,118.7,539.79
978,30.565,117,547.73
979,30.495,119.6,539.54
980,30.415,119.6,544.81
981,30.375,116.5,534.67
982,30.295,116.9,546.87
983,30.245,119.3,542.29
984,30.185,117.1,540.13
985,30.175,118,556.31
986,30.055,119,549.55
987,30.005,119.2,550.65
988,29.975,117.2,548.08
989,29.875,120.4,556.05
990,29.855,118,545.81
991,29.845,116.5,553.13
992,29.765,119.3,555.13
993,29.665,119.1,553.93
994,29.605,116.8,548.89
995,29.505,118.4,558.64
996,29.455,118.6,552.54
997,29.375,118.5,548.85
998,29.325,119.6,553.38
999,29.275,116.8,563.97
1000,29.174,117.7,553.85
1001,29.084,117.6,556.27
1002,29.014,117.1,559.73
1003,28.964,115.2,558.07
1004,28.884,118.2,567.96
1005,28.864,115.9,555.34
1006,28.824,116.5,557.73
1007,28.754,116,564.44
1008,28.664,116.4,568.25
1009,28.614,116.9,568.9
1010,28.544,115.2,559.36
1011,28.434,117.7,564.64
1012,28.424,116.9,562.03
1013,28.314,117.4,571.18
1014,28.274,116.9,569.01
1015,28.194,118.7,566.56
1016,28.114,119.2,573.22
1017,28.074,117.9,567.67
1018,28.004,117.8,567.98
1019,27.964,118.7,563.46
1020,27.914,119.6,564.11
1021,27.814,118.6,574.33
1022,27.754,117.6,577.19
1023,27.694,116.6,570.47
1024,27.654,114.9,573.88
1025,27.584,116.5,574.95
1026,27.534,117.4,571.62
1027,27.454,117.2,573.8
1028,27.334,118,576.61
1029,27.324,116.4,572.86
1030,27.294,115.8,576.75
1031,27.234,116.2,583.13
1032,27.164,117.3,582.71
1033,27.114,115.9,578.13
1034,27.044,117.2,578.25
1035,26.964,115.1,586.14
1036,26.884,114.6,583.22
1037,26.854,113.4,576.57
1038,26.764,113,580.42
1039,26.714,115,579.63
1040,26.634,115.9,582.64
1041,26.594,113.5,580.78
1042,26.524,113.8,586.76
1043,26.454,112.3,586.6
1044,26.394,113.3,588.57
1045,26.304,115.1,593.51
1046,26.234,115,583.94
1047,26.194,114.6,589.74
1048,26.134,111.8,590.24
1049,26.114,113,592.03
1050,26.024,111.8,589.12
1051,25.934,113.1,591.6
1052,25.864,113.1,588.06
1053,25.834,115.5,601.73
1054,25.774,111.9,599.46
1055,25.694,110.8,595.01
1056,25.644,111.8,595.04
1057,25.604,110.1,592.43
1058,25.544,111.8,598.17
1059,25.504,112.5,596.38
1060,25.384,113.5,599.41
1061,25.334,110.8,600.48
1062,25.244,113.6,602.34
1063,25.204,110.6,605.66
1064,25.134,112.7,605.6
1065,25.084,111.8,593.66
1066,25.034,111.3,608.08
1067,24.954,110.8,608
1068,24.884,111,597.86
1069,24.844,110.8,609.13
1070,24.794,111,597.62
1071,24.714,110.2,611.05
1072,24.674,110,610.52
1073,24.604,110.6,610.3
1074,24.554,110.7,606.03
1075,24.514,110.6,614.53
1076,24.444,112.9,611.44
1077,24.344,110.3,608.19
1078,24.304,110.7,613.91
1079,24.234,113.7,613.8
1080,24.154,109.1,613.71
1081,24.154,111.2,619.26
1082,24.134,110.4,611.18
1083,24.084,111.5,620.81
1084,23.974,109.5,608.32
1085,23.893,109,614.8
1086,23.823,107,625.7
1087,23.763,106.4,622.29
1088,23.743,107.2,622.61
1089,23.703,106.3,627.12
1090,23.633,106.3,623.9
1091,23.563,107.4,630.04
1092,23.553,106.5,628.52
1093,23.473,107.6,628.78
1094,23.403,106.4,630.45
1095,23.353,106.3,625.34
1096,23.293,106.7,633.45
1097,23.223,106.9,629.79
1098,23.173,107,633.63
1099,23.143,106.7,623.95
1100,23.063,107.7,633.31
1101,23.043,106.4,633.92
1102,22.943,107.1,636.2
1103,22.873,107,640.8
1104,22.833,107.6,642.04
1105,22.763,105.5,633.06
1106,22.703,106.7,645.2
1107,22.643,103.8,639.42
1108,22.603,105.2,638.76
1109,22.543,104.2,639.8
1110,22.473,104.8,635.87
1111,22.413,104.7,645.93
1112,22.363,104.5,641.23
1113,22.353,105,640.14
1114,22.253,103,648.05
1115,22.193,103.2,641.28
1116,22.143,104.8,646.9
1117,22.113,104,641.96
1118,22.073,103.8,650.59
1119,22.033,102.5,647.67
1120,21.953,103.9,654.36
1121,21.923,102.7,648.88
1122,21.873,103.8,649.4
1123,21.813,102.1,653.72
1124,21.763,101.8,651.01
1125,21.693,102.3,655.48
1126,21.653,102.2,654.91
1127,21.593,99.1,655.24
1128,21.553,101.6,656.66
1129,21.483,100.3,662.1
1130,21.413,101,666.11
1131,21.393,99.6,661.81
1132,21.353,101.3,662.57
1133,21.323,100.4,661.26
1134,21.243,98.8,661.65
1135,21.203,98.7,660.2
1136,21.123,99,666.27
1137,21.053,99.9,658.24
1138,21.023,100.4,659.97
1139,20.983,99.4,662.44
1140,20.953,97.7,665.6
1141,20.943,96.9,670.23
1142,20.853,95.2,668.89
1143,20.793,95,667.01
1144,20.753,95.4,668.04
1145,20.693,95.1,670.49
1146,20.663,94.7,671.42
1147,20.603,93.9,667.65
1148,20.563,94.6,668.54
1149,20.493,95.1,673.64
1150,20.443,94.5,671.08
1151,20.373,95.3,677.44
1152,20.353,94.9,670.21
1153,20.283,95.5,668.41
1154,20.223,94.8,681.48
1155,20.223,94.1,677.45
1156,20.143,93,672.1
1157,20.113,93.6,675.23
1158,20.013,94.5,677.42
1159,20.033,93.6,683.86
1160,19.953,93.5,682
1161,19.903,93.6,672.52
1162,19.853,93.5,675.38
1163,19.803,95.1,676.68
1164,19.773,94.5,685.64
1165,19.713,95.3,684.72
1166,19.673,94.3,689.18
1167,19.643,92.5,693.48
1168,19.613,92.8,689.93
1169,19.583,93.2,685.01
1170,19.493,92.4,685.67
1171,19.393,93.3,685.41
1172,19.383,92,685.15
1173,19.343,93,687.9
1174,19.253,93.1,703.05
1175,19.203,92.9,692.64
1176,19.193,91.3,701.43
1177,19.173,92.3,698.93
1178,19.073,91.7,699.04
1179,19.033,89.8,702.4
1180,18.983,90.5,700.15
1181,18.963,88,702.74
1182,18.913,88,709.76
1183,18.883,88.1,701.62
1184,18.843,87.9,706.51
1185,18.773,86.6,709.74
1186,18.753,86.2,710.44
1187,18.712,85.4,713.02
1188,18.663,84,706.76
1189,18.622,83.8,711.42
1190,18.572,83.4,719.12
1191,18.502,83.8,717.26
1192,18.422,83.7,713.34
1193,18.442,82.3,720.69
1194,18.392,82,717.81
1195,18.352,81.2,715.4
1196,18.272,81.5,723.46
1197,18.222,79.4,713.17
1198,18.182,79.7,718.69
1199,18.142,79.7,721.56
1200,18.102,79.5,722.23
1201,18.042,78.5,715.88
1202,18.002,78.1,726.01
1203,17.952,77.4,720.78
1204,17.912,77.3,729.26
1205,17.902,77.1,726.75
1206,17.862,76.8,719.11
1207,17.902,77,729.11
1208,17.862,77.5,732.31
1209,17.822,76.3,733.32
1210,17.762,76,735.4
1211,17.742,75,734.83
1212,17.682,74.8,731.35
1213,17.652,75.9,739.94
1214,17.582,75.6,739.42
1215,17.542,77,734.43
1216,17.522,75.6,738.95
1217,17.482,74.9,738.52
1218,17.462,75.1,736.68
1219,17.432,73.4,742.28
1220,17.392,71.9,745.53
1221,17.382,72.2,737.4
1222,17.302,72.4,745.32
1223,17.322,71.1,745.51
1224,17.272,72,749.75
1225,17.282,72.5,742.96
1226,17.222,71.2,749.06
1227,17.182,70.9,745.83
1228,17.142,69.2,754.53
1229,17.112,70.3,749.26
1230,17.102,68.4,745.63
1231,17.032,68.8,750.46
1232,17.002,67,752.21
1233,17.012,67.6,753.4
1234,16.962,66.9,760.59
1235,16.902,67.5,756.46
1236,16.892,67.2,761.92
1237,16.832,67.9,753.99
1238,16.812,68.6,754.86
1239,16.792,67.3,749.63
1240,16.742,68.3,756.52
1241,16.732,67.9,756.19
1242,16.672,67.3,756.68
1243,16.672,68.3,762.69
1244,16.622,67.2,762.42
1245,16.592,67.2,760.67
1246,16.522,66.7,774.42
1247,16.502,66.9,765.45
1248,16.502,65.6,760.25
1249,16.452,65.5,764.44
1250,16.432,66.1,769.85
1251,16.412,66.5,768.15
1252,16.372,65,769.7
1253,16.342,64.6,769.37
1254,16.322,64.1,770.89
1255,16.262,63.8,766.06
1256,16.242,63.6,773.33
1257,16.202,63.9,776.22
1258,16.182,61.9,777.49
1259,16.152,62.3,765.01
1260,16.132,63.7,778.13
1261,16.102,62.6,777.66
1262,16.072,62.6,777.51
1263,16.052,61.1,771.15
1264,16.012,60.7,774.76
1265,15.992,60.2,783.22
1266,15.952,60.6,782.88
1267,15.942,60.4,783.99
1268,15.942,60.1,786.06
1269,15.882,59.6,785.36
1270,15.862,59.1,788.64
1271,15.852,59.3,786.88
1272,15.822,58.1,787.36
1273,15.772,58.7,787.82
1274,15.752,58.1,787.59
1275,15.722,58.6,786.33
1276,15.712,57.8,788.16
1277,15.682,57.6,787.49
1278,15.662,58.2,791.76
1279,15.642,57.3,787.55
1280,15.622,58.7,789.72
1281,15.562,58.4,795.54
1282,15.542,57.9,789.88
1283,15.542,58,791.16
1284,15.492,57.6,796.25
1285,15.482,56.8,798.31
1286,15.452,55.9,795.18
1287,15.442,55.9,796.44
1288,15.412,56,801.36
1289,15.422,56.9,801.81
1290,15.372,56.1,797.48
1291,15.332,55.3,800.8
1292,15.332,54.5,797.53
1293,15.302,55.4,801.16
1294,15.262,55.7,804.34
1295,15.262,55.4,802.97
1296,15.242,55.5,809.19
1297,15.232,55.2,804.23
1298,15.202,55.2,809.29
1299,15.172,55.2,810.99
1300,15.142,55,807.45
1301,15.112,55.8,807.29
1302,15.102,54.4,809.25
1303,15.082,54.8,812.31
1304,15.062,53.1,807.95
1305,15.032,53.6,804.76
1306,15.022,52.8,816.79
1307,15.002,52.6,813.56
1308,14.952,52.1,810.27
1309,14.952,51.4,818.01
1310,14.932,51.2,814.2
1311,14.892,51.7,813.89
1312,14.872,51.9,818.83
1313,14.882,51.9,822.41
1314,14.872,51.5,817.42
1315,14.842,52.3,817.93
1316,14.822,51.7,824.34
1317,14.812,51.5,819.8
1318,14.802,49,823.67
1319,14.762,48,826.66
1320,14.732,47.8,819.22
1321,14.712,47.7,820.62
1322,14.682,47.3,823.43
1323,14.682,47.7,825.97
1324,14.662,47.2,827.45
1325,14.622,46.7,826.28
1326,14.622,47.4,833.87
1327,14.632,47.6,825.55
1328,14.592,47.1,832.67
1329,14.562,46.4,828.08
1330,14.552,46.9,825.02
1331,14.502,47.7,826.1
1332,14.472,46.5,839.38
1333,14.502,46.1,831.25
1334,14.452,45.7,836.39
1335,14.422,44.7,829.24
1336,14.422,43.8,834.98
1337,14.392,44.6,841.08
1338,14.362,44.4,844.83
1339,14.352,44.7,845.79
1340,14.372,45.6,847.83
1341,14.322,45.9,846.41
1342,14.292,45.9,850.74
1343,14.272,46.5,853.57
1344,14.272,45.9,853.9
1345,14.282,46.2,850.19
1346,14.242,45.6,857.93
1347,14.212,45,865.95
1348,14.202,44.5,871.51
1349,14.172,43.9,868.12
1350,14.152,44.7,873.55
1351,14.122,45,862.4
1352,14.132,44.8,878.44
1353,14.112,45.3,873.46
1354,14.122,45.5,883.51
1355,14.062,45.4,865.01
1356,14.012,44.3,859.5
1357,13.992,44.4,872.44
1358,13.972,45.1,874.54
1359,13.952,44.7,871.04
1360,13.952,45.1,891.17
1361,13.952,45.4,884.44
1362,13.932,46.2,892.23
1363,13.922,45.5,913.3
1364,13.882,44.2,918.85
1365,13.892,44.6,910.34
1366,13.872,44.1,915.02
1367,13.862,44.9,934.15
1368,13.802,44.9,918.52
1369,13.802,44.7,931.76
1370,13.802,44.5,942.72
1371,13.772,44,948.95
1372,13.782,44.7,953.95
1373,13.762,45.8,952.9
1374,13.752,45.2,958.3
1375,13.752,45,957.86
1376,13.692,44.4,967.1
1377,13.692,43.9,969.1
1378,13.662,43.3,974.74
1379,13.652,43.4,976.05
1380,13.652,42.6,975.27
1381,13.632,43.1,981.2
1382,13.622,43.5,983.64
1383,13.602,42.7,976.14
1384,13.592,42.5,988.09
1385,13.602,43.1,986.73
1386,13.582,43.4,991.2
1387,13.602,43.1,996.71
1388,13.532,42.7,997.39
1389,13.542,42.5,998.26
1390,13.522,43.2,995.74
1391,13.512,41.9,1009.96
1392,13.492,42,1010.89
1393,13.482,42.7,1018.73
1394,13.472,42,1020.29
1395,13.462,42,1023.52
1396,13.432,41.6,1020.65
1397,13.432,41.9,1023.24
1398,13.432,41.7,1025.76
1399,13.421,41.7,1029.51
1400,13.371,41.3,1029.1
1401,13.382,40.8,1034.76
1402,13.341,40.2,1037.67
1403,13.322,40,1028.53
1404,13.311,40.3,1049.56
1405,13.301,41,1036.18
1406,13.281,41.1,1040.24
1407,13.301,41.4,1046.66
1408,13.292,40.6,1046.48
1409,13.241,40.5,1053.86
1410,13.241,40.2,1047.75
1411,13.281,40.8,1049.76
1412,13.231,40.1,1052.08
1413,13.231,41.4,1068.42
1414,13.261,40.5,1057.33
1415,13.231,40.6,1058.75
1416,13.211,39.9,1062.48
1417,13.181,39.8,1060.44
1418,13.151,40.1,1058.15
1419,13.151,39.1,1057.78
1420,13.111,40.1,1061.45
1421,13.111,39.5,1063.48
1422,13.101,39.9,1062.07
1423,13.101,39.5,1066.75
1424,13.071,39.9,1068.86
1425,13.081,39.5,1071.07
1426,13.041,39.2,1067.65
1427,13.051,39.4,1070.81
1428,12.961,39.5,1063.91
1429,12.971,40.4,1071.21
1430,12.951,40.4,1065.86
1431,12.961,40.8,1065.28
1432,12.971,40.6,1073.77
1433,12.961,40,1074.09
1434,12.921,40.2,1068.46
1435,12.911,39.8,1075.16
1436,12.911,39.9,1071.98
1437,12.881,39.3,1067.42
1438,12.871,38.9,1066.62
1439,12.861,38.7,1073.57
1440,12.871,38.2,1072.34
1441,12.861,38.9,1072.27