File: Wood/Calibration_Data/UDRI/UDRI_Wood_Cone_30kW_hor_R2.csv
Time (s),Mass (g),HRR (kW/m2),TC back 1 (K)
0,106.04,-3.7,298.326
2,106.09,-3.1,296.717
4,106.07,-2.6,298.93
6,106.05,-2.9,303.719
8,106.05,-2.8,292.676
10,106.05,-1.8,306.031
12,106.03,-3,305.129
14,106,-3.3,293.796
16,105.99,-2.5,300.586
18,105.95,-2.7,297.367
20,105.87,-2.2,297.626
22,105.86,-1.1,297.002
24,105.77,4,303.394
26,105.61,14,299.099
28,105.44,29,298.499
30,105.26,46.1,298.442
32,105.07,66.1,296.659
34,104.89,86.4,295.049
36,104.7,102.4,292.723
38,104.46,116.8,298.09
40,104.26,124.8,302.439
42,104.12,131,300.746
44,103.99,128.9,303.984
46,103.82,126.7,291.916
48,103.71,125.4,299.285
50,103.56,120.8,298.28
52,103.44,120.3,287.147
54,103.279,115,292.626
56,103.169,110.6,302.833
58,103.039,106.8,301.971
60,102.909,102.7,304.846
62,102.789,101.8,298.549
64,102.669,100.2,303.614
66,102.569,97.7,303.96
68,102.419,97.5,299.372
70,102.289,96.5,292.552
72,102.219,97.3,298.102
74,102.109,94.3,302.565
76,101.979,93.6,300.214
78,101.869,89.1,296.107
80,101.759,88.8,297.237
82,101.649,86.8,299.357
84,101.519,85.8,304.2
86,101.449,84.7,298.227
88,101.339,83.9,302.685
90,101.249,84.5,298.03
92,101.139,82.9,303.952
94,101.029,84.3,299.643
96,100.939,83.7,292.13
98,100.829,84.9,300.744
100,100.749,82.9,292.46
102,100.649,81.5,309.955
104,100.529,80.8,295.948
106,100.449,79.8,301.99
108,100.339,78.9,295.771
110,100.239,78.8,301.603
112,100.099,80.1,303.05
114,100.039,79.6,297.406
116,99.939,78.7,302.92
118,99.799,76.5,299.179
120,99.749,76.1,304.781
122,99.649,76.1,308.834
124,99.549,77.3,304.274
126,99.439,76.9,296.738
128,99.359,77.8,299.383
130,99.229,78.1,300.938
132,99.119,75.7,308.65
134,99.029,75.5,302.273
136,98.909,76.6,300.783
138,98.809,76.4,298.232
140,98.739,76.2,299.208
142,98.629,76.7,304.241
144,98.559,77.2,305.838
146,98.469,76.5,303.284
148,98.409,75.5,304.885
150,98.319,74.6,302.494
152,98.219,75.5,306.321
154,98.139,74.2,311.79
156,98.079,73.5,305.499
158,97.958,74.3,296.053
160,97.778,74.3,300.888
162,97.718,71.8,312.195
164,97.678,72.2,301.784
166,97.578,72.1,304.532
168,97.488,72,296.373
170,97.408,73.7,304.455
172,97.298,72.9,302.658
174,97.188,73.1,304.784
176,97.078,72.9,306.057
178,96.988,72.5,303.58
180,96.948,70.9,302.319
182,96.798,73.4,308.745
184,96.738,73.3,310.773
186,96.638,73.5,300.558
188,96.538,72.8,307.513
190,96.458,72.4,307.258
192,96.378,71,304.765
194,96.308,71.8,301.504
196,96.248,71.2,304.546
198,96.148,71.9,306.393
200,96.038,73.2,309.644
202,95.948,71.6,309.143
204,95.868,72.1,311.108
206,95.758,71.3,306.497
208,95.638,70.3,303.362
210,95.568,71,308.161
212,95.488,71.8,306.627
214,95.448,71.3,303.449
216,95.328,69.1,308.413
218,95.218,68.9,305.651
220,95.098,69.3,313.629
222,95.038,69.1,313.673
224,94.908,69.1,310.746
226,94.888,69.4,309.794
228,94.808,68.2,313.547
230,94.708,68.9,314.335
232,94.618,68.3,306.262
234,94.538,68.4,312.751
236,94.428,68.1,303.776
238,94.318,68.3,307.298
240,94.258,68.9,311.521
242,94.128,68.7,310.554
244,94.058,69.1,313.726
246,93.958,68.5,310.27
248,93.888,67.7,309.485
250,93.798,68.8,312.813
252,93.688,68,320.511
254,93.648,67.9,307.858
256,93.558,67.6,302.113
258,93.488,69.2,323.438
260,93.388,67.3,304.398
262,93.288,66.2,307.191
264,93.228,67.7,310.384
266,93.148,69.5,315.485
268,93.088,68.2,311.282
270,92.998,68.7,314.932
272,92.908,68.5,312.247
274,92.818,68.9,316.338
276,92.737,69.7,315.836
278,92.627,68.7,305.579
280,92.547,67.3,317.991
282,92.467,66,318.938
284,92.387,65.5,313.975
286,92.307,64.8,311.669
288,92.207,65.7,316.192
290,92.137,64.9,318.525
292,92.027,64.8,315.876
294,91.967,65.1,319.812
296,91.857,64.9,321.792
298,91.787,63.4,325.355
300,91.657,64.2,323.805
302,91.527,65.3,318.617
304,91.467,65.7,311.639
306,91.377,64.8,315.084
308,91.307,65.2,317.105
310,91.197,65.8,320.398
312,91.127,65.9,322.549
314,91.037,66.2,316.513
316,90.947,65.6,310.989
318,90.847,64.7,320.432
320,90.767,64.8,322.058
322,90.657,65.9,314.389
324,90.557,65.9,324.066
326,90.477,65.5,318.493
328,90.397,66.1,321.941
330,90.347,66.4,330.142
332,90.257,66.5,322.531
334,90.167,67,322.879
336,90.107,67.8,323.648
338,90.007,66.5,320.086
340,89.927,66.5,324.853
342,89.817,66.3,324.8
344,89.737,65.9,322.788
346,89.617,65.6,326.482
348,89.537,66.5,324.065
350,89.477,67.1,315.962
352,89.347,66.9,325.001
354,89.287,67.8,322.986
356,89.187,66.4,328.074
358,89.117,66.7,320.589
360,89.047,66.1,333.375
362,88.937,65.1,330.847
364,88.827,65.8,327.681
366,88.757,65.6,334.774
368,88.697,66.5,317.906
370,88.567,66.7,322.361
372,88.507,66.8,323.826
374,88.377,67.7,327.315
376,88.327,67,330.834
378,88.217,68.6,325.858
380,88.177,68.3,330.275
382,88.087,68.3,329.386
384,87.977,69.4,327.27
386,87.887,69.6,336.529
388,87.797,69.3,330.205
390,87.687,69.9,334.416
392,87.596,69.1,326.607
394,87.517,68.7,330.699
396,87.436,68.5,328.086
398,87.326,69.1,332.871
400,87.256,68.9,337.411
402,87.156,67.4,334.581
404,87.086,67.3,337.601
406,87.006,67.9,333.552
408,86.936,68.3,332.993
410,86.816,68.9,338.175
412,86.686,69.2,335.443
414,86.606,69.7,334.38
416,86.546,67.9,336.461
418,86.486,68.9,330.031
420,86.396,68,329.53
422,86.306,68.9,330.909
424,86.156,67.5,334.743
426,86.106,68.8,338.206
428,85.996,67.8,337.837
430,85.896,67.9,336.833
432,85.836,68.3,329.652
434,85.776,67.5,344.498
436,85.656,67.6,332.232
438,85.576,68.4,342.449
440,85.456,69.1,339.668
442,85.386,67.8,341.704
444,85.326,66.1,344.301
446,85.176,67.1,345.72
448,85.146,66.5,335.925
450,84.986,66.4,330.181
452,84.926,68.7,339.991
454,84.806,67.6,336.47
456,84.746,68.8,342.278
458,84.716,67.9,344.578
460,84.606,67.6,340.217
462,84.486,69.1,342.069
464,84.446,68.9,343.357
466,84.276,67.5,345.284
468,84.246,68.1,343.802
470,84.116,68.2,349.919
472,84.046,69.3,345.751
474,83.946,69.3,349.898
476,83.896,69.2,351.486
478,83.836,70.7,342.524
480,83.766,68.3,339.415
482,83.646,70.5,345.256
484,83.556,69.5,339.181
486,83.466,70,347.991
488,83.346,68.2,340.012
490,83.276,68.8,346.075
492,83.176,67.8,344.549
494,83.116,67.9,346.379
496,82.986,68.5,341.524
498,82.956,68.1,352.665
500,82.826,67.6,348.563
502,82.766,67.5,360.455
504,82.646,68.2,349.652
506,82.516,66.5,352.331
508,82.456,67.5,357.373
510,82.376,67,348.975
512,82.305,67,352.328
514,82.206,66.7,357.037
516,82.125,67,350.077
518,82.015,66.2,353.454
520,81.935,66.6,349.002
522,81.835,66.2,353.242
524,81.765,66.7,349.928
526,81.645,66,353.623
528,81.605,66.5,350.893
530,81.505,65.5,352.809
532,81.405,66.1,362.002
534,81.345,66.2,345.462
536,81.215,66.5,354.69
538,81.135,66.4,351.591
540,81.015,66.1,354.534
542,80.955,64.7,355.366
544,80.905,64.7,360.462
546,80.815,65.5,351.708
548,80.715,66,353.446
550,80.595,64.7,366.101
552,80.515,64.8,357.152
554,80.425,67.4,360.177
556,80.325,67,358.262
558,80.225,66.7,358.015
560,80.135,65.2,360.319
562,80.075,64.9,355.959
564,79.985,65.8,360.304
566,79.935,65.6,360.677
568,79.825,65.5,364.496
570,79.725,66.1,362.499
572,79.625,64.6,356.484
574,79.565,65.2,360.756
576,79.455,66.2,358.66
578,79.365,66,363.284
580,79.275,66.1,362.715
582,79.165,66.4,363.211
584,79.085,67.3,360.696
586,78.995,66.7,360.938
588,78.895,68.2,363.542
590,78.825,67.3,372.023
592,78.755,68,359.612
594,78.655,67,363.447
596,78.595,67.5,366.002
598,78.535,65.8,370.695
600,78.465,66.4,365.685
602,78.325,67.6,361.49
604,78.215,67.4,371.374
606,78.135,67.6,363.538
608,78.085,67.1,359.992
610,77.965,67.3,370.046
612,77.865,68.7,356.036
614,77.815,69,364.356
616,77.685,68.4,365.933
618,77.585,68.2,364.609
620,77.525,69.5,370.836
622,77.465,70.3,366.159
624,77.355,70,364.329
626,77.275,69.9,365.016
628,77.145,69.9,374.93
630,77.115,70.7,371.197
632,76.984,70,367.493
634,76.944,69.9,370.964
636,76.824,71.4,380.29
638,76.754,70.7,367.838
640,76.684,70.2,371.576
642,76.574,69.9,372.908
644,76.514,68.7,366.898
646,76.404,69.5,360.442
648,76.314,69.7,381.65
650,76.234,70.8,373.58
652,76.154,70.5,382.67
654,76.034,70.4,372.834
656,75.944,71.7,369.626
658,75.874,70.5,373.5
660,75.814,71.3,369.049
662,75.704,70.1,375.95
664,75.644,70.7,364.576
666,75.504,70.1,370.518
668,75.374,70.1,371.069
670,75.344,70.5,371.387
672,75.244,70.7,374.45
674,75.124,69.9,362.345
676,75.084,71.1,367.903
678,75.024,70.5,373.33
680,74.914,70.9,369.545
682,74.814,69.4,375.28
684,74.724,69,369.143
686,74.624,69.3,382.38
688,74.534,68.6,374.58
690,74.484,68.9,364.119
692,74.394,69.2,372.365
694,74.284,69.7,368.466
696,74.164,69.3,381.16
698,74.114,68.1,365.686
700,74.004,67.8,382.18
702,73.914,69,379.98
704,73.844,67.3,379.05
706,73.734,67.7,378.48
708,73.644,69,373.43
710,73.544,68.8,380.8
712,73.514,68.6,381.94
714,73.414,69.4,369.431
716,73.334,69.3,377.5
718,73.224,70.4,376.64
720,73.144,69.9,377.38
722,73.054,70.9,364.389
724,72.994,70.8,378.7
726,72.894,69.8,378.4
728,72.824,70.2,374.91
730,72.704,71.2,369.782
732,72.614,71.2,370.247
734,72.484,70.9,371.801
736,72.424,69.2,378.53
738,72.324,69.2,373.99
740,72.274,69.4,379.89
742,72.154,69.1,373.72
744,72.114,71,379.86
746,72.014,70.7,388.51
748,71.914,72.4,380.27
750,71.833,68.8,382.82
752,71.713,69.2,384.82
754,71.623,70.1,377.87
756,71.533,70.1,379.36
758,71.443,71.1,378.79
760,71.373,69.9,377.43
762,71.303,70.5,383.75
764,71.203,70,375.22
766,71.133,70.6,378.04
768,71.063,71.3,378.91
770,70.993,71.7,374.7
772,70.913,70.8,374.12
774,70.803,70.5,380.44
776,70.733,69.3,382.41
778,70.623,68.7,387.68
780,70.523,66.6,376.82
782,70.453,67.4,382.9
784,70.373,68.2,378.04
786,70.253,67.7,388.51
788,70.193,67.4,377.05
790,70.063,66.8,387.15
792,69.973,66.6,378.12
794,69.863,67.1,386.1
796,69.823,68.1,378.23
798,69.733,67.1,374.69
800,69.643,66.7,383.8
802,69.573,68,388.37
804,69.433,67.4,378.92
806,69.353,68.3,388.01
808,69.313,67.1,380.6
810,69.233,66.7,388.05
812,69.133,67.2,385.21
814,69.063,67.5,390.72
816,68.973,66.8,379.68
818,68.873,68,391.75
820,68.803,67.7,388.54
822,68.763,66.8,389.09
824,68.643,67.8,379.14
826,68.553,66.5,391
828,68.453,67.8,383.33
830,68.353,67.4,385.15
832,68.303,66.6,383.88
834,68.223,66.6,387.9
836,68.133,66.2,386.29
838,68.023,66.8,383.95
840,67.943,66.2,385.02
842,67.883,68.7,389.43
844,67.793,68.9,387.17
846,67.703,67.2,380.25
848,67.593,67.9,385.37
850,67.543,67.4,386.59
852,67.433,67.6,382.21
854,67.343,68.6,384.94
856,67.313,69.3,385.78
858,67.213,69.6,390.97
860,67.103,67.9,384.54
862,67.013,68.3,386.96
864,66.943,67.7,387.17
866,66.863,68.5,382.38
868,66.803,68.1,385.09
870,66.703,66.5,387.72
872,66.593,67.9,383.56
874,66.513,68.3,388.04
876,66.443,68,383.19
878,66.342,68.8,385.1
880,66.242,68,377.93
882,66.162,69.2,386.69
884,66.072,69.2,389.76
886,66.022,70,387.04
888,65.912,69.3,374.17
890,65.862,68.3,393.32
892,65.722,70.6,389.26
894,65.662,69.4,391.35
896,65.592,69.9,390.9
898,65.502,71,391.17
900,65.412,69.3,396.94
902,65.362,69.2,392.77
904,65.242,70.2,397.59
906,65.162,68.6,391.89
908,65.082,70.4,382.42
910,64.992,70,391.54
912,64.922,70.1,389.66
914,64.802,70.4,393.79
916,64.732,71.5,391.77
918,64.642,72.3,383.65
920,64.582,71.5,387.53
922,64.492,71.4,391.42
924,64.422,72.4,390.12
926,64.272,71.5,389.28
928,64.252,70.6,396.31
930,64.182,70.7,387.15
932,64.092,70.5,383.97
934,63.962,71,392.73
936,63.852,71.3,386.75
938,63.802,72.1,390.87
940,63.742,72.3,396.88
942,63.672,71.1,399.81
944,63.562,70.2,396.2
946,63.462,71,392.24
948,63.382,72.7,394.2
950,63.362,71.7,396.48
952,63.262,73,393.81
954,63.152,71.3,396.89
956,63.062,72.3,400.93
958,63.022,73.6,399.59
960,62.882,71,400.75
962,62.792,72.7,391.04
964,62.672,74.3,390.75
966,62.622,73.5,388.05
968,62.562,72.7,399.64
970,62.432,73.7,390.47
972,62.322,72.1,396.55
974,62.252,72.9,398.2
976,62.202,72.5,394.93
978,62.112,72.5,400.42
980,62.032,72.8,395.6
982,61.962,72.3,400.76
984,61.882,72.3,396.76
986,61.762,72.2,390.83
988,61.702,72.4,403.09
990,61.632,73.8,395.13
992,61.552,74.6,398.95
994,61.452,74.1,401.4
996,61.372,74.5,402.53
998,61.262,74.5,395.53
1000,61.211,74.1,394.09
1002,61.071,74.2,400.79
1004,61.041,73.1,406.81
1006,60.931,72.4,402.89
1008,60.851,74.1,398.5
1010,60.741,75.1,409.05
1012,60.671,73.3,402.61
1014,60.581,72.3,408.95
1016,60.491,72.7,408.55
1018,60.401,73,404.13
1020,60.341,73.6,402.11
1022,60.261,72.4,409.96
1024,60.191,72.3,402.36
1026,60.121,72.7,409.35
1028,59.981,71.3,407.84
1030,59.911,71.1,398.18
1032,59.791,71.6,402.7
1034,59.771,71,415.83
1036,59.661,72.5,404.89
1038,59.611,71.6,404.85
1040,59.501,72.1,413.17
1042,59.421,72.4,408.31
1044,59.351,71,415.82
1046,59.251,72.3,411.24
1048,59.161,72.6,407.13
1050,59.071,71.7,408.15
1052,58.991,71.4,409.54
1054,58.901,71.4,409.02
1056,58.831,73.1,406.85
1058,58.741,73.3,408.15
1060,58.711,73.1,413.48
1062,58.591,72.2,414.76
1064,58.501,73.9,418.66
1066,58.401,74.2,418.32
1068,58.331,74.3,413.48
1070,58.221,74.4,413.16
1072,58.171,74.8,409.06
1074,58.091,73.9,415.01
1076,58.031,74.9,415.71
1078,57.891,74.8,412.35
1080,57.801,75.4,425.59
1082,57.711,74.6,423.22
1084,57.601,75.3,418.93
1086,57.531,73.4,425.21
1088,57.481,75.5,420.95
1090,57.351,74.3,427.51
1092,57.251,76.1,423.56
1094,57.191,75.4,421.55
1096,57.081,76.6,423.41
1098,57.051,77.1,421.1
1100,56.911,76.6,432.92
1102,56.881,75,422.52
1104,56.771,76.1,423.1
1106,56.661,76.3,429.28
1108,56.551,78.6,426.41
1110,56.481,77.5,428.7
1112,56.391,77.7,441.5
1114,56.311,77.5,430.1
1116,56.211,78,425.52
1118,56.181,77.2,435.96
1120,56.061,78.1,429.53
1122,55.981,76.6,419.92
1124,55.91,76,428
1126,55.8,77.7,433.09
1128,55.69,77.9,435.85
1130,55.65,77.7,437.13
1132,55.52,76.9,431.41
1134,55.46,79.2,434.52
1136,55.4,78.3,432.87
1138,55.3,78.9,440.09
1140,55.26,77.4,437.01
1142,55.14,77.5,431.49
1144,55.01,80.4,434.43
1146,54.91,79.9,430.68
1148,54.84,79,451.96
1150,54.78,79.7,437.13
1152,54.66,81.4,442.42
1154,54.55,81.9,437.83
1156,54.5,80.5,436.57
1158,54.41,81.6,448.17
1160,54.31,81.5,443.57
1162,54.24,81,434.87
1164,54.15,81.1,436.64
1166,54.03,79.6,451.3
1168,53.9,79.8,448.6
1170,53.84,82.1,448.39
1172,53.7,84,455.08
1174,53.64,84.3,447.82
1176,53.55,84,445.72
1178,53.46,81.4,445.93
1180,53.36,83.6,449.09
1182,53.31,83.6,451.33
1184,53.21,84.6,453.66
1186,53.09,84.7,453.76
1188,53.01,83.3,456.14
1190,52.92,84.6,456.07
1192,52.83,85.4,461.73
1194,52.72,85.1,460.04
1196,52.63,84.9,450.84
1198,52.54,83.7,455.62
1200,52.49,84.6,464.14
1202,52.35,85.5,462.66
1204,52.29,84.9,464.26
1206,52.11,87.4,451.4
1208,52.07,86.9,453.89
1210,51.96,86.4,465.29
1212,51.89,86.3,463.92
1214,51.8,86.2,467.18
1216,51.7,87.1,457.77
1218,51.58,87,461.94
1220,51.51,88.8,461.26
1222,51.36,87.8,468.7
1224,51.3,88.9,463.81
1226,51.19,88.9,470.1
1228,51.11,88.3,465.49
1230,51.01,89,466.89
1232,50.87,87.9,465.52
1234,50.799,86.5,473.5
1236,50.66,88.4,473.41
1238,50.599,88.4,468.55
1240,50.489,88.5,467.88
1242,50.339,88.4,473.08
1244,50.259,88.7,469.93
1246,50.169,88.1,473.44
1248,50.079,89,475.46
1250,49.999,91.2,470.55
1252,49.839,89.7,481.41
1254,49.789,88.4,469.5
1256,49.639,89.9,479.94
1258,49.529,89.3,475.57
1260,49.439,90.6,476.39
1262,49.349,90.3,480.54
1264,49.239,91,486.31
1266,49.139,90.2,478.52
1268,49.029,91.1,483.53
1270,48.919,90.2,483.43
1272,48.829,90.7,483.08
1274,48.709,91.6,486.9
1276,48.629,90.9,485.48
1278,48.499,91.8,485.4
1280,48.409,93.7,485.13
1282,48.269,94.1,488.24
1284,48.199,94.3,490.7
1286,48.029,95.9,487.87
1288,47.979,92.7,485.47
1290,47.869,93.8,487.14
1292,47.779,94.6,493.92
1294,47.669,92.4,494.3
1296,47.579,93.7,495.7
1298,47.399,95.6,494.19
1300,47.309,93.5,498.12
1302,47.199,94.3,491.01
1304,47.059,94.4,496.23
1306,46.949,96.4,495.33
1308,46.839,97.1,496.37
1310,46.789,94,496.28
1312,46.649,96.5,497.16
1314,46.539,94.2,498.44
1316,46.429,97.1,504.31
1318,46.309,96.3,503.38
1320,46.239,96.5,502.41
1322,46.119,96.3,506.37
1324,45.959,96.3,508.15
1326,45.879,95.8,514.69
1328,45.719,95.9,508.95
1330,45.619,96.5,509.58
1332,45.559,97.7,509.12
1334,45.428,96.3,518.93
1336,45.288,97.4,503.6
1338,45.168,98.5,508.14
1340,45.078,96.7,512.66
1342,44.958,98.8,517.38
1344,44.848,98.5,514.91
1346,44.718,99.1,503.59
1348,44.628,99.4,512.86
1350,44.468,101.1,510.78
1352,44.348,101.3,520.36
1354,44.228,100.9,517.27
1356,44.138,100.2,513.08
1358,44.008,102,522.78
1360,43.878,101.2,517.83
1362,43.768,99.4,529.55
1364,43.678,101,528.38
1366,43.588,99.7,519.85
1368,43.388,99,530.86
1370,43.318,100.3,516.77
1372,43.208,100.3,527.93
1374,43.098,100.5,519.06
1376,42.958,97.1,528.79
1378,42.838,98.9,533.78
1380,42.718,98.7,536.77
1382,42.658,97.7,527.56
1384,42.458,99,530.37
1386,42.398,98.3,532.7
1388,42.268,98.8,531.74
1390,42.108,98.7,535.42
1392,41.988,99.2,538.75
1394,41.878,101.6,535.51
1396,41.718,101.9,532.75
1398,41.608,102,535.64
1400,41.548,101.9,539.81
1402,41.408,100.7,538.72
1404,41.268,101.2,538.39
1406,41.148,104.3,536.61
1408,41.018,104.5,538.13
1410,40.878,106.2,544.8
1412,40.768,108.2,544.49
1414,40.628,106.6,551.45
1416,40.528,105.9,552.38
1418,40.368,105.4,550.31
1420,40.298,106.3,548.18
1422,40.158,108.5,547.82
1424,40.007,106.1,550.44
1426,39.897,106.8,554.12
1428,39.807,107.5,552.77
1430,39.677,105.6,544.07
1432,39.507,107.3,559.67
1434,39.387,108.1,561.55
1436,39.247,110.3,554.94
1438,39.147,109.5,559.29
1440,39.037,108.8,557.49
1442,38.907,109.5,560.79
1444,38.767,110.7,560.93
1446,38.667,112.3,562.21
1448,38.527,111.4,555.89
1450,38.377,110.7,566.3
1452,38.227,110.6,566.02
1454,38.137,111.1,563.71
1456,37.977,108.5,564.85
1458,37.867,110.2,571.92
1460,37.737,113,564.95
1462,37.607,112.4,568.26
1464,37.457,112.7,570.05
1466,37.327,114,569.76
1468,37.187,114.3,567.07
1470,37.077,115.3,571.47
1472,36.927,114.9,577.96
1474,36.787,115.2,572.58
1476,36.647,113.9,569.04
1478,36.617,117.2,570.16
1480,36.467,114.3,577.78
1482,36.337,114.4,582.28
1484,36.197,114.2,580.78
1486,36.037,114.6,572.55
1488,35.927,115.4,580.72
1490,35.777,114.4,579.91
1492,35.637,115.8,580.03
1494,35.547,117.1,576.59
1496,35.417,116,578.12
1498,35.247,114.2,593.18
1500,35.147,115.6,581.16
1502,35.027,114.4,590.95
1504,34.907,114.1,583.39
1506,34.796,114.9,580.72
1508,34.646,113.2,587.78
1510,34.586,113.1,583.62
1512,34.426,115.1,589.82
1514,34.266,114.3,577.33
1516,34.166,114.9,588.79
1518,34.056,113.6,587.55
1520,33.946,113.5,589.05
1522,33.796,113.3,580.35
1524,33.696,112.4,602.06
1526,33.596,111.9,586.9
1528,33.466,112.8,589.12
1530,33.356,112,589
1532,33.216,110.7,590.02
1534,33.146,111.3,591.87
1536,33.016,111.3,587.36
1538,32.916,111.5,589.47
1540,32.766,109.7,595.44
1542,32.626,111.3,592.41
1544,32.496,111,595.25
1546,32.396,111.1,589.83
1548,32.276,108.8,595.96
1550,32.156,108.6,589.99
1552,32.036,107.1,596.59
1554,31.936,107.8,594.5
1556,31.846,107.5,603.85
1558,31.736,108,593.87
1560,31.646,108.4,603.85
1562,31.516,106.2,594.27
1564,31.416,105.3,592.75
1566,31.276,107.1,601.1
1568,31.166,106.4,599.77
1570,31.086,104.6,599.25
1572,30.996,105.2,596.38
1574,30.866,104.8,601.27
1576,30.756,104.2,607.94
1578,30.626,105,605.02
1580,30.536,105.2,610.02
1582,30.416,104.8,608.66
1584,30.286,104.7,600.31
1586,30.166,103.4,605.34
1588,30.096,104.1,600.81
1590,30.006,104,605.38
1592,29.846,101.8,610.71
1594,29.816,101.7,611.5
1596,29.696,102.5,602.04
1598,29.596,99.5,607.25
1600,29.485,102.6,606.02
1602,29.375,100.5,606.68
1604,29.295,101.2,603.24
1606,29.225,100.2,601.02
1608,29.115,100.8,608.02
1610,28.985,100.3,602.25
1612,28.925,99.9,596.47
1614,28.825,99.2,611.3
1616,28.735,96.7,612.48
1618,28.605,98.9,609.39
1620,28.515,98.3,606.35
1622,28.435,97.7,615.71
1624,28.345,98.2,612.08
1626,28.245,97.3,610.69
1628,28.155,97.7,621.84
1630,28.045,94.2,623.4
1632,27.955,94.6,617.92
1634,27.855,92.5,615.8
1636,27.815,92.7,617.74
1638,27.715,92.9,621.36
1640,27.645,91.1,623.33
1642,27.575,92.4,609.4
1644,27.475,91.7,613.32
1646,27.385,91.3,623.63
1648,27.295,89.6,619.38
1650,27.175,89.7,618.95
1652,27.085,88.4,621.74
1654,27.065,87.7,613.51
1656,26.975,88,623.85
1658,26.875,87.1,636.52
1660,26.765,87.8,623.71
1662,26.705,89.3,628.72
1664,26.635,87.1,624.05
1666,26.555,85,620.61
1668,26.475,84.2,627.67
1670,26.405,85.6,634.31
1672,26.305,85.3,633.06
1674,26.255,83.7,627.24
1676,26.175,82.4,629.6
1678,26.125,81.2,633.6
1680,26.075,81.3,635.1
1682,25.975,81.3,630.62
1684,25.925,79.6,639.04
1686,25.855,78.5,625.27
1688,25.775,77.5,637.66
1690,25.685,78.7,639.95
1692,25.625,77.9,637.96
1694,25.525,77.5,634.89
1696,25.465,77.4,632.84
1698,25.365,77.8,634.47
1700,25.325,74.7,634.78
1702,25.255,73.7,632.41
1704,25.215,74,641.49
1706,25.145,72.5,631.08
1708,25.055,72.7,634.5
1710,24.985,72.5,639.98
1712,24.945,72.7,637.42
1714,24.865,73.7,638.68
1716,24.805,71.2,642.02
1718,24.735,72.2,636.45
1720,24.685,70.5,635.05
1722,24.635,69.6,633.99
1724,24.505,70.3,642.33
1726,24.465,70.3,632.02
1728,24.405,68.7,641.81
1730,24.365,68.6,645.88
1732,24.285,68.9,641.09
1734,24.294,68.1,640.28
1736,24.194,68.3,636.81
1738,24.154,66.5,638.54
1740,24.084,66.6,645.94
1742,24.004,65.8,638.16
1744,23.944,65.6,643.32
1746,23.904,65.7,642.46
1748,23.834,66.1,641.71
1750,23.764,66.8,642.22
1752,23.704,66.2,649.16
1754,23.684,66.5,655.75
1756,23.614,65.1,643.04
1758,23.554,64.6,641.34
1760,23.534,64.3,642.87
1762,23.474,64.1,653.11
1764,23.414,63.6,642.43
1766,23.354,63,648.69
1768,23.324,62.2,642.67
1770,23.264,61.6,639.93
1772,23.244,63,649.77
1774,23.194,62.1,645.59
1776,23.134,60.8,646.96
1778,23.064,62.2,640.92
1780,23.034,61.2,650.01
1782,22.974,59.8,658.35
1784,22.914,59.3,639.38
1786,22.864,59.2,642.25
1788,22.824,59,646.44
1790,22.784,58.6,643.22
1792,22.674,58,647.34
1794,22.684,58.1,651.74
1796,22.624,58.3,646.28
1798,22.604,57.4,653.76
1800,22.544,57.9,641.81
1802,22.524,56.7,651.95
1804,22.424,56.9,647.39
1806,22.424,56.7,652.6
1808,22.334,55.7,652.04
1810,22.294,55.3,646.18
1812,22.254,54.8,651.31
1814,22.234,53.6,648.64
1816,22.184,52.3,643.15
1818,22.164,52.8,649.68
1820,22.124,52.7,642.34
1822,22.064,53.7,650.4
1824,22.014,54,641.7
1826,21.974,53.4,647.67
1828,21.944,53.2,645.91
1830,21.914,52.4,651.73
1832,21.884,51.7,643.82
1834,21.814,52.3,652.21
1836,21.784,51.1,648.14
1838,21.734,50.4,646.62
1840,21.714,50.2,656.4
1842,21.684,49.2,644.66
1844,21.664,50,648.56
1846,21.594,49.9,648.8
1848,21.584,49.8,640.98
1850,21.564,48,647.2
1852,21.524,49,655.36
1854,21.434,49.2,654.17
1856,21.414,48.2,657.15
1858,21.414,47.2,647.63
1860,21.384,47.6,649.62
1862,21.344,46.3,648.34
1864,21.304,46,651.33
1866,21.234,46.4,648.67
1868,21.194,46.8,648.51
1870,21.234,47.4,648.38
1872,21.184,46.2,653.47
1874,21.164,45.8,647.32
1876,21.064,46.7,652.5
1878,21.044,46.3,648.89
1880,21.044,46,652.31
1882,21.004,45.3,647.59
1884,20.984,45.1,651.49
1886,20.964,44.3,651.24
1888,20.924,43.3,650.15
1890,20.884,42.9,644.68
1892,20.854,41.9,661.69
1894,20.784,42.1,652.38
1896,20.794,41.5,650.75
1898,20.804,41.8,650.4
1900,20.764,41.9,649.98
1902,20.714,42,649.04
1904,20.694,42,651.46
1906,20.654,41.8,660.13
1908,20.644,40.2,647.25
1910,20.624,40.5,648.05
1912,20.634,40.1,656.72
1914,20.574,40.7,658.78
1916,20.544,40.9,651.3
1918,20.514,40.7,654.32
1920,20.514,40.9,656.53
1922,20.484,40.7,652.7
1924,20.454,41.5,650.61
1926,20.414,40.5,652.77
1928,20.374,40.6,651.41
1930,20.414,40.9,654.15
1932,20.344,41.4,649.08
1934,20.304,40.4,654.12
1936,20.274,39.3,654.37
1938,20.284,38.6,644.42
1940,20.234,38.1,651.14
1942,20.194,38.9,651.67
1944,20.184,38.8,645.11
1946,20.134,38.2,646.41
1948,20.104,39.5,645.12
1950,20.114,40.8,655.91
1952,20.064,40.2,644.42
1954,20.064,40,654.91
1956,20.274,38.8,653.11
1958,20.044,37.9,652.9
1960,20.044,36.9,649.45
1962,19.984,37.1,657.58
1964,19.954,37.1,649.34
1966,19.934,38.4,658.55
1968,19.914,37.9,649.44
1970,19.864,36.1,647.32
1972,19.844,36.1,646.22
1974,19.834,35.5,650.24
1976,19.824,36.1,653.06
1978,19.794,36.2,651.3
1980,19.894,36.7,647.21
1982,19.784,36.7,645.31
1984,19.744,35.7,657.73
1986,19.704,35.1,645.14
1988,19.704,35.9,646.58
1990,19.614,37.6,644.76
1992,19.604,37.3,647.96
1994,19.614,36.5,650.56
1996,19.594,36.7,651.6
1998,19.554,36.9,648.69
2000,19.524,37.2,653.36
2002,19.464,35.9,654.45
2004,19.434,35.4,649.45
2006,19.574,35.3,648.09
2008,19.574,35.3,644.35
2010,19.544,31.7,648.36
2012,19.424,27.9,651.95
2014,19.454,25.4,651.31
2016,19.414,27.3,648.06
2018,19.374,28.5,641.85
2020,19.384,30.6,650.83
2022,19.364,32,650.6
2024,19.354,32,646.88
2026,19.324,32.9,646.05
2028,19.304,33.8,651.25
2030,19.294,34.4,648.49
2032,19.284,34.5,648.11