File: Wood/Calibration_Data/UDRI/UDRI_Wood_Cone_30kW_hor_R1.csv
Time (s),Mass (g),HRR (kW/m2),TC back 1 (K)
0,110.44,-0.6,301.674
2,110.38,-0.6,294.042
4,110.38,0.2,304.873
6,110.34,0.9,288.757
8,110.32,2.5,294.574
10,110.3,3.7,311.345
12,110.26,3.9,291.99
14,110.23,4.3,299.279
16,110.16,5.4,295.035
18,110.07,5.9,298.04
20,109.93,11.1,292.189
22,109.71,21,300.171
24,109.53,49.4,296.42
26,109.34,73,301.792
28,109.12,89.1,302.227
30,108.97,104.9,301.595
32,108.77,117.2,291.621
34,108.61,127.4,296.262
36,108.43,133.1,296.111
38,108.23,134.7,299.914
40,108.08,136,303.065
42,107.9,133.2,301.431
44,107.759,131,298.534
46,107.619,130.1,303.018
48,107.449,124.2,300.412
50,107.329,123.5,298.628
52,107.179,119.1,296.646
54,107.039,116.4,301.675
56,106.879,112.5,302.329
58,106.789,109.3,301.829
60,106.659,107.8,301.31
62,106.559,108.3,295.268
64,106.419,105.3,300.324
66,106.299,104.7,302.193
68,106.159,101.3,300.393
70,106.039,101.4,298.731
72,105.919,101.2,298.825
74,105.859,100.2,303.146
76,105.699,97.4,304.245
78,105.579,96,298.514
80,105.469,97,297.807
82,105.399,94.8,296.685
84,105.259,93,305.07
86,105.179,92.6,293.917
88,105.069,89.2,301.852
90,104.959,89.5,304.328
92,104.859,87.1,302.013
94,104.759,86.8,302.102
96,104.669,86.6,302.385
98,104.599,84.3,299.981
100,104.479,85.4,302.069
102,104.379,84.3,295.691
104,104.289,82.8,303.586
106,104.219,82.6,304.333
108,104.079,81.9,304.313
110,103.999,80.7,305.321
112,103.909,79.5,304.214
114,103.809,80.1,305.761
116,103.689,79,307.14
118,103.589,79.2,298.645
120,103.479,79.4,301.801
122,103.389,79.1,302.368
124,103.299,78.1,309.14
126,103.209,78.8,304.786
128,103.089,81,306.168
130,102.989,79.2,307.377
132,102.889,77.3,297.037
134,102.769,77.5,303
136,102.719,76.8,308.429
138,102.589,77.4,302.476
140,102.499,76.8,304.029
142,102.418,75.9,302.66
144,102.348,75.9,308.48
146,102.238,75.6,303.068
148,102.148,73.8,304.986
150,102.068,74.7,301.884
152,101.948,74.5,308.629
154,101.858,73.9,305.282
156,101.778,74,303.518
158,101.708,73.3,302.008
160,101.618,73.9,303.055
162,101.538,72.8,304.712
164,101.488,73.5,301.013
166,101.378,71.2,312.765
168,101.268,71.7,302.702
170,101.188,71.4,305.075
172,101.088,70.4,304.453
174,100.968,71,306.025
176,100.948,70.5,304.822
178,100.858,68.9,305.167
180,100.788,71.2,303.205
182,100.688,71.3,308.984
184,100.548,71.2,307.81
186,100.468,70.7,314.984
188,100.358,71.9,302.496
190,100.298,70.4,310.056
192,100.238,70.1,312.351
194,100.158,70.2,309.078
196,100.058,69.1,307.409
198,99.958,67.9,312.135
200,99.868,67.9,313.526
202,99.828,69.3,313.313
204,99.748,68.9,308.028
206,99.658,68.6,315.26
208,99.548,69.7,308.557
210,99.468,69,307.771
212,99.398,69.7,317.015
214,99.298,69.7,310.029
216,99.188,69.4,312.599
218,99.058,68.5,306.838
220,98.988,69.4,312.241
222,98.918,68.8,310.116
224,98.838,68.6,313.708
226,98.748,68.9,314.293
228,98.708,69.2,312.886
230,98.608,68.6,317
232,98.568,69.2,310.696
234,98.488,69.3,313.543
236,98.378,69.2,313.041
238,98.318,70,319
240,98.208,69.6,307.519
242,98.088,69,319.304
244,98.058,67.4,319.368
246,97.958,68.4,316.245
248,97.868,67.7,317.171
250,97.768,68.5,317.284
252,97.718,67.7,319.371
254,97.648,66.5,318.815
256,97.558,67.3,315.78
258,97.498,67.6,322.122
260,97.408,66.7,321.751
262,97.338,67.7,314.74
264,97.257,67.4,314.952
266,97.188,68.2,318.306
268,97.047,67.6,317.593
270,96.997,66.9,317.102
272,96.887,67.8,327.451
274,96.807,66.9,320.234
276,96.677,66.7,321.23
278,96.627,68,322.879
280,96.507,67,324.477
282,96.437,65.8,327.52
284,96.337,65.6,316.562
286,96.277,65.3,319.585
288,96.187,64,319.289
290,96.147,65.8,318.483
292,96.067,65.4,325.522
294,96.007,65.2,325.275
296,95.907,64.6,324.977
298,95.807,66.5,320.536
300,95.737,65.2,330.049
302,95.637,64.9,327.755
304,95.557,65.1,319.362
306,95.487,65.6,322.531
308,95.407,66.3,323.384
310,95.317,65.8,328.175
312,95.227,65.5,325.445
314,95.157,65.3,325.324
316,95.057,65.1,328.54
318,94.987,64,325.592
320,94.897,65.1,326.099
322,94.827,65.9,330.628
324,94.717,65.9,334.95
326,94.677,65.1,333.545
328,94.597,66.3,328.707
330,94.517,65.5,328.198
332,94.417,66.6,333.189
334,94.357,65.9,334.456
336,94.257,66.5,330.297
338,94.187,66.2,337.124
340,94.117,67.2,333.532
342,93.997,68.4,332.928
344,93.927,67.5,334.62
346,93.877,66.6,331.581
348,93.757,66.5,331.172
350,93.687,68.5,333.164
352,93.597,67.2,332.105
354,93.517,69,336.525
356,93.447,66.9,337.22
358,93.367,68.1,337.996
360,93.287,68.2,330.576
362,93.187,68.9,337.595
364,93.107,69.1,334.985
366,93.037,66.7,334.485
368,92.957,68.1,339.439
370,92.877,69,337.57
372,92.827,68.7,332.759
374,92.717,68.9,335.886
376,92.617,67.2,335.593
378,92.537,67.8,333.395
380,92.477,67.1,338.255
382,92.407,67.2,335.577
384,92.307,67.9,344.758
386,92.227,68.3,339.64
388,92.127,67.7,336.341
390,92.087,67.9,334.843
392,91.947,67.3,344.037
394,91.896,67.7,340.887
396,91.796,66.1,341.819
398,91.716,67.6,336.954
400,91.656,68.2,343.389
402,91.566,68.6,340.613
404,91.496,67.7,344.456
406,91.416,68.4,343.115
408,91.346,68.5,339.842
410,91.276,67.3,340.505
412,91.166,66.8,343.243
414,91.096,66.5,341.062
416,90.996,67.7,341.951
418,90.936,67.4,339.534
420,90.846,66.4,351.627
422,90.776,65.7,344.622
424,90.646,65.6,343.852
426,90.556,67.3,340.507
428,90.466,68.8,345.769
430,90.376,68.2,342.938
432,90.336,67.9,340.421
434,90.256,69,346.183
436,90.186,68.5,342.736
438,90.096,68.4,343.615
440,90.036,68.4,344.197
442,89.976,67.9,346.747
444,89.886,67.5,341.487
446,89.806,68.5,349.152
448,89.736,68.1,350.108
450,89.606,69.7,352.244
452,89.566,69.4,347.207
454,89.436,68.3,345.681
456,89.346,68.3,357.328
458,89.286,68.7,351.564
460,89.216,68.1,350.542
462,89.136,67.9,347.406
464,89.066,67.8,351.533
466,88.946,68.4,346.964
468,88.876,67.9,352.327
470,88.776,69.4,352.237
472,88.686,68.8,349.233
474,88.636,70,355.449
476,88.556,68.7,353.195
478,88.406,69.3,349.719
480,88.386,68.5,351.874
482,88.276,68.2,349.719
484,88.186,69.4,357.145
486,88.116,67.6,351.756
488,88.056,68,357.524
490,87.986,67.5,356.346
492,87.876,67.3,354.612
494,87.806,67.5,352.041
496,87.726,67,350.418
498,87.616,67.2,355.662
500,87.556,66.3,353.008
502,87.486,66.7,345.888
504,87.396,66,355.274
506,87.326,65.1,353.267
508,87.246,66,361.361
510,87.166,66.6,356.762
512,87.086,66.2,353.716
514,87.006,67.4,351.975
516,86.896,67.6,350.156
518,86.796,67.5,354.855
520,86.736,67.9,355.322
522,86.635,67.4,355.181
524,86.535,67,352.263
526,86.455,67.3,360.952
528,86.395,67.3,354.658
530,86.295,66.2,362.265
532,86.205,66.6,352.389
534,86.165,65.1,359.116
536,86.095,65.2,354.226
538,85.985,66,354.803
540,85.905,65.1,356.72
542,85.845,65.5,355.612
544,85.725,64.7,352.625
546,85.645,65.2,355.683
548,85.525,64.4,360.949
550,85.495,65.7,365.612
552,85.415,64.7,350.04
554,85.335,64.9,356.052
556,85.265,65.8,359.316
558,85.165,64.3,357.893
560,85.095,65.2,353.513
562,85.045,65.3,360.518
564,84.945,66.8,363.093
566,84.855,64.8,362.241
568,84.765,65.5,355.941
570,84.695,66.2,357.708
572,84.635,65.5,356.053
574,84.525,66.3,358.425
576,84.435,65.4,357.66
578,84.375,65.4,360.721
580,84.275,64.8,362.243
582,84.185,64.5,353.717
584,84.115,65.5,359.785
586,84.055,65.6,357.967
588,83.965,65,358.903
590,83.865,65.5,361.561
592,83.755,66.2,359.158
594,83.715,64.8,359.33
596,83.645,63.7,356.256
598,83.535,64.1,356.287
600,83.445,66.1,356.506
602,83.365,66.7,358.023
604,83.275,66.9,363.144
606,83.215,67.8,365.03
608,83.125,67.4,363.012
610,83.075,68.7,365.121
612,82.995,67.8,359.896
614,82.905,69.6,360.552
616,82.845,68,362.465
618,82.755,67.2,363.899
620,82.675,66.5,357.635
622,82.565,67.2,359.182
624,82.485,66.1,353.994
626,82.395,66.8,360.393
628,82.315,66.1,362.546
630,82.205,65.6,359.131
632,82.115,65.8,361.776
634,82.035,66.7,361.489
636,81.985,66.2,362.619
638,81.885,66.3,358.286
640,81.825,65.5,362.106
642,81.735,66,363.833
644,81.665,65.2,363.439
646,81.575,67.2,361.907
648,81.495,65.4,365.306
650,81.444,65.8,365.579
652,81.344,65.8,362.838
654,81.274,66.9,357.61
656,81.144,66.1,362.391
658,81.064,67.7,359.161
660,80.994,67,359.92
662,80.964,65.4,361.374
664,80.834,65.4,364.259
666,80.764,66.1,366.864
668,80.674,66.6,365.319
670,80.594,65.6,363.305
672,80.514,65.3,366.714
674,80.434,65.2,361.337
676,80.364,64.4,364.501
678,80.264,65.1,361.79
680,80.204,65.5,366.038
682,80.144,66.9,362.986
684,80.084,65.9,365.343
686,79.954,65.8,360.387
688,79.894,67.2,360.018
690,79.784,68.3,362.616
692,79.684,66.5,363.758
694,79.614,65.7,368.715
696,79.534,67.2,366.019
698,79.414,65.3,363.062
700,79.374,64.6,360.251
702,79.274,64.7,365.731
704,79.204,66.1,367.241
706,79.094,66.8,364.753
708,79.044,66.6,365.334
710,78.944,66.8,363.207
712,78.874,67.4,366.72
714,78.794,67.3,366.267
716,78.744,67.9,367.234
718,78.624,66.9,367.043
720,78.554,68.1,367.482
722,78.444,67.6,364.229
724,78.374,66.3,363.667
726,78.254,66.8,366.865
728,78.204,66.1,367.389
730,78.094,66.1,362.275
732,78.054,67.4,371.445
734,77.974,68,372.084
736,77.914,66.8,365.366
738,77.794,67.6,361.549
740,77.714,67.4,370.765
742,77.644,66.9,368.789
744,77.574,67.1,366.923
746,77.514,67.1,374.44
748,77.394,66.9,366.103
750,77.324,66.3,366.39
752,77.244,66.8,364.18
754,77.154,66,365.828
756,77.094,66.4,366.836
758,77.034,67.1,367.044
760,76.934,67.7,369.401
762,76.844,67.3,371.601
764,76.734,68.7,373.93
766,76.644,69.5,367.282
768,76.554,68.9,372.11
770,76.494,68.3,369.315
772,76.404,68.8,372.203
774,76.344,67,369.192
776,76.294,67.3,372.085
778,76.204,66,373.81
780,76.113,64,372.282
782,76.043,63.9,364.656
784,75.913,65.7,367.946
786,75.883,66,368.142
788,75.793,67.2,368.7
790,75.733,67.8,371.325
792,75.643,67.9,368.627
794,75.563,66,366.986
796,75.443,66.5,367.252
798,75.403,64.9,371.234
800,75.273,66.1,371.77
802,75.233,67.5,372.338
804,75.133,66,368.233
806,75.073,65.5,368.391
808,74.933,66.6,371.827
810,74.883,65.9,368.345
812,74.813,65.3,366.964
814,74.743,65.7,376.16
816,74.673,66.8,368.884
818,74.573,66.5,374.92
820,74.493,66.1,365.77
822,74.433,67.1,373.44
824,74.343,67.2,372.51
826,74.293,68.5,371.233
828,74.193,67.4,371.245
830,74.103,67.1,375.52
832,74.013,67.8,371.121
834,73.943,68.8,376.73
836,73.853,67.5,367.765
838,73.813,66.7,371.33
840,73.703,66.7,373.115
842,73.603,67.2,369.896
844,73.513,67.9,369.486
846,73.433,67.5,372.765
848,73.353,67.7,370.857
850,73.263,65.7,380.07
852,73.203,66.6,375.44
854,73.123,66.9,373.94
856,73.023,68,375.47
858,72.953,67.5,374.59
860,72.883,68.5,371.605
862,72.783,68.6,378.51
864,72.693,67.7,376.84
866,72.663,67.2,380.16
868,72.553,67.9,376.09
870,72.493,68.1,377.35
872,72.423,66.3,377.02
874,72.343,67.4,372.965
876,72.253,66.7,376.34
878,72.143,68,372.532
880,72.103,67.9,378.53
882,72.013,67.5,376.31
884,71.933,66.4,370.192
886,71.843,66.1,378.26
888,71.763,66.6,376.34
890,71.693,65.6,378.27
892,71.593,65.3,381.44
894,71.513,65.8,377.84
896,71.443,65.1,379.59
898,71.353,64.5,377.78
900,71.283,65.1,378.85
902,71.173,65.8,378.04
904,71.093,65.4,372.657
906,71.023,66.5,379.8
908,70.872,64.3,375.11
910,70.853,63.9,372.445
912,70.812,63.3,375.99
914,70.692,62.9,378.65
916,70.612,62,373.22
918,70.522,63.4,381.2
920,70.492,63.6,379.12
922,70.402,64.3,382.37
924,70.302,64.7,374.81
926,70.212,64,379.07
928,70.162,65.1,380.8
930,70.082,64.5,380.34
932,70.042,65.2,378.24
934,69.942,62.8,378.94
936,69.872,63.6,381.07
938,69.782,63.3,381.33
940,69.702,65,386.04
942,69.602,64.8,379.04
944,69.582,65.3,380.95
946,69.472,66.2,381.76
948,69.412,64.2,377.99
950,69.322,65.9,380.81
952,69.242,65.7,376.15
954,69.142,65.4,384.92
956,69.062,63.5,380.27
958,69.002,63.8,378.15
960,68.922,64.9,379.58
962,68.842,66.9,380.78
964,68.762,65.6,380.85
966,68.682,65.9,383.84
968,68.592,66,379.92
970,68.522,66.7,382.54
972,68.462,67.1,381.88
974,68.362,66.2,383.86
976,68.272,66.1,386.47
978,68.212,67.3,387.6
980,68.132,65.5,381.95
982,68.042,65.9,386.87
984,67.972,66,381.93
986,67.882,65.9,386.82
988,67.842,66.4,382.08
990,67.722,66.9,387.91
992,67.672,66.2,386.72
994,67.582,67.5,379.58
996,67.512,67.6,385.77
998,67.432,68.1,387.88
1000,67.332,68.1,388.06
1002,67.282,67.8,386.29
1004,67.222,67.2,387.93
1006,67.152,66.5,381.4
1008,67.022,67.3,389.23
1010,66.952,67.9,390.91
1012,66.892,67,392.25
1014,66.822,64.6,387.69
1016,66.722,65.5,383.55
1018,66.652,67.2,388.07
1020,66.582,67.7,387.81
1022,66.502,67.8,383.85
1024,66.392,67.5,391.95
1026,66.322,67.4,389.94
1028,66.292,66.5,390.08
1030,66.202,67.3,390.22
1032,66.122,67.5,391.05
1034,66.072,67.3,392.47
1036,65.962,68.6,390.99
1038,65.872,69.3,390.73
1040,65.782,69,396.06
1042,65.742,68.6,386.64
1044,65.661,68.7,389.53
1046,65.591,68.4,394.41
1048,65.511,68.2,398.6
1050,65.411,68.7,398.24
1052,65.321,68.8,388.72
1054,65.241,68.1,391.48
1056,65.161,67.5,394.96
1058,65.131,67.2,390.61
1060,65.031,68.7,393.02
1062,64.981,68.2,391.72
1064,64.881,67.9,394.41
1066,64.831,67.8,394.53
1068,64.751,68,392.72
1070,64.631,67.3,397.94
1072,64.531,66.2,395.46
1074,64.511,68.2,396.55
1076,64.411,68.9,391.87
1078,64.321,68.7,398.29
1080,64.231,70.4,401.26
1082,64.161,69.5,393.18
1084,64.071,71.6,400.77
1086,64.001,70.7,397.41
1088,63.941,71.1,399.2
1090,63.881,70.6,399.91
1092,63.781,71.9,399
1094,63.731,70.2,403.38
1096,63.651,70.2,403.74
1098,63.581,70.9,398.45
1100,63.461,71.3,399.31
1102,63.391,70.5,398.19
1104,63.311,71.8,404.83
1106,63.251,72.4,405.77
1108,63.181,73.4,399.72
1110,63.081,72.5,404.89
1112,63.021,71.7,405.22
1114,62.931,73.5,402.98
1116,62.871,72.4,406.81
1118,62.781,73.5,402.89
1120,62.721,72.9,412.05
1122,62.601,71.8,404.94
1124,62.531,72.9,413.17
1126,62.461,73.7,401.86
1128,62.411,71.9,410.39
1130,62.311,72.1,410.39
1132,62.241,70.4,408.91
1134,62.171,71.5,407.27
1136,62.091,71.1,410.02
1138,62.001,69,414.18
1140,61.941,69.4,407.37
1142,61.841,70.1,408.66
1144,61.781,70.8,411.92
1146,61.701,71.7,411.28
1148,61.621,70.4,409.24
1150,61.531,69.4,418.48
1152,61.471,68.9,414.03
1154,61.381,70.1,410.97
1156,61.291,69.6,413.84
1158,61.211,70.9,418.33
1160,61.151,69.8,416.38
1162,61.051,70.3,416.7
1164,60.991,71.3,417.6
1166,60.881,70.2,410.27
1168,60.801,69.7,415.14
1170,60.741,70,414.45
1172,60.661,69.5,416.03
1174,60.571,69.6,415.85
1176,60.491,69.6,415.7
1178,60.411,70,419.11
1180,60.331,69.8,414.73
1182,60.26,70,420.08
1184,60.18,70,417.01
1186,60.1,70,412.67
1188,60.02,69,418.7
1190,59.94,69.2,422.22
1192,59.88,70.5,416.72
1194,59.82,70.2,420.01
1196,59.76,69.6,429.36
1198,59.63,69.5,421.81
1200,59.52,69.8,425.55
1202,59.46,71.6,425.63
1204,59.37,71.4,428.86
1206,59.28,72,423.49
1208,59.23,71.9,427.85
1210,59.16,71.6,426.27
1212,59.09,70.7,421.14
1214,59,72,427.97
1216,58.91,70.9,432.26
1218,58.83,71.9,422.87
1220,58.72,72.2,421.38
1222,58.66,71.9,427.84
1224,58.55,73.7,429.86
1226,58.5,73.9,431.94
1228,58.41,74,427.47
1230,58.32,72.9,431.8
1232,58.23,74.6,428.17
1234,58.17,73.7,435.12
1236,58.08,73.7,432.4
1238,58.03,73.7,431.34
1240,57.91,74.3,431.37
1242,57.83,75.4,436.94
1244,57.76,75.4,437.46
1246,57.67,77.6,437.72
1248,57.59,76.4,429.51
1250,57.5,76.5,431.58
1252,57.38,76.7,438.36
1254,57.34,76.3,436.46
1256,57.23,75.9,434.36
1258,57.16,75.4,437.19
1260,57.06,75.4,434.53
1262,56.99,74.6,437
1264,56.87,76.2,443.27
1266,56.79,74.3,439.53
1268,56.72,74.4,438.47
1270,56.63,76.1,441.15
1272,56.54,75.7,443.6
1274,56.43,76.7,436.92
1276,56.39,77.4,440.4
1278,56.27,78.4,438.73
1280,56.2,77.5,440.07
1282,56.15,78,443.7
1284,56,77,444.43
1286,55.92,77.2,447.33
1288,55.83,77.5,445.85
1290,55.73,77.9,453.97
1292,55.65,77.2,442.38
1294,55.56,77.1,453.25
1296,55.5,77.2,448.79
1298,55.37,78,445.89
1300,55.34,78.7,448.19
1302,55.22,77.9,449.18
1304,55.15,77.8,446.42
1306,55.059,77.2,446.63
1308,54.989,76.5,449.84
1310,54.899,77.9,451.37
1312,54.829,77,453.28
1314,54.699,75.6,453.1
1316,54.629,76.2,453.09
1318,54.509,76.2,452.45
1320,54.449,77.8,451.69
1322,54.339,79.5,451.09
1324,54.239,78.6,450.71
1326,54.169,79.1,456.35
1328,54.109,79.9,454.73
1330,53.989,79.2,457.4
1332,53.879,81.3,453
1334,53.799,79.5,449.81
1336,53.739,80.4,458.51
1338,53.609,80.7,455.31
1340,53.539,79.9,456.47
1342,53.459,80.1,457.15
1344,53.359,79.9,457.54
1346,53.249,79.7,461.26
1348,53.169,79.6,456.24
1350,53.089,79.7,464.69
1352,52.989,79.5,460.63
1354,52.889,81.3,461.4
1356,52.789,82.2,462.53
1358,52.719,82.4,461.59
1360,52.609,83.5,456.98
1362,52.549,82.2,463.09
1364,52.439,83.5,465.01
1366,52.349,82.7,464.81
1368,52.229,83.2,460.83
1370,52.159,84.3,464.25
1372,52.029,82.9,469.59
1374,51.959,83.7,461.42
1376,51.849,83.9,466.02
1378,51.749,83.2,465.19
1380,51.659,82.6,467.74
1382,51.539,83.5,466.8
1384,51.459,83.4,467.52
1386,51.359,82.8,463.82
1388,51.269,83.9,467.56
1390,51.189,86,473.01
1392,51.099,85.2,470.88
1394,50.969,84.7,469.58
1396,50.899,86.4,469.62
1398,50.779,86.7,472.81
1400,50.679,86.1,469.01
1402,50.559,86.7,468.98
1404,50.439,88.7,475.2
1406,50.369,86,471.57
1408,50.299,86.3,472.15
1410,50.199,86.7,467.11
1412,50.119,86.8,474.17
1414,49.999,85.5,474.38
1416,49.889,87.1,473.77
1418,49.799,87.7,480.62
1420,49.728,86.5,477.29
1422,49.588,87.7,478.39
1424,49.508,89.4,476.12
1426,49.388,89,481.2
1428,49.268,90.4,480.09
1430,49.188,89.4,479.5
1432,49.068,91.3,478.23
1434,48.978,92.2,481.42
1436,48.868,91.4,482.79
1438,48.768,93.1,479.39
1440,48.688,93.8,479.79
1442,48.588,94,485.57
1444,48.498,92.8,483.22
1446,48.348,93.4,487.17
1448,48.268,94.3,480.54
1450,48.158,95.6,485.9
1452,48.038,95.8,485.8
1454,47.958,93.6,484.2
1456,47.808,95.3,487.89
1458,47.748,96.4,483.35
1460,47.638,95.8,482.37
1462,47.528,96.6,482.67
1464,47.388,95.1,485.58
1466,47.308,94.4,488.14
1468,47.218,95.8,491.66
1470,47.108,94.8,488.23
1472,46.998,96.8,497.34
1474,46.888,97.7,492.26
1476,46.758,94.9,492.36
1478,46.648,96.4,499.71
1480,46.508,97.2,488.12
1482,46.418,97.5,489.72
1484,46.328,96.5,496.15
1486,46.218,97.5,498.14
1488,46.108,99,491.72
1490,45.978,101.4,492.91
1492,45.888,100.1,496.22
1494,45.768,100.2,498.97
1496,45.658,101.9,493.03
1498,45.558,100.1,493.99
1500,45.468,100.2,497.79
1502,45.338,101.5,501.99
1504,45.228,100.4,502.1
1506,45.158,101.1,501.06
1508,45.038,102.3,500.22
1510,44.878,101.5,503.76
1512,44.788,100.6,499.47
1514,44.668,102.1,502.14
1516,44.548,104.6,499.1
1518,44.437,106.2,502.56
1520,44.317,104,498.02
1522,44.197,103.4,501.18
1524,44.117,104.4,504.08
1526,43.977,103.4,503.28
1528,43.897,104.6,503.67
1530,43.737,104.8,502.14
1532,43.647,104.3,510.88
1534,43.487,103.6,504.25
1536,43.357,104.1,504.18
1538,43.267,101.8,510
1540,43.157,101.1,504.08
1542,43.057,101.2,509.62
1544,42.967,100.2,511.69
1546,42.817,102,503.7
1548,42.707,103.3,513.47
1550,42.587,104.6,510.26
1552,42.467,102.3,517.06
1554,42.337,104.2,515.02
1556,42.227,103.5,512.14
1558,42.117,103.1,512.58
1560,42.017,101.8,511.64
1562,41.897,101.3,510.71
1564,41.777,102.7,514.36
1566,41.667,101.9,510.42
1568,41.547,104.3,511.58
1570,41.467,103.7,514.29
1572,41.347,103.2,518.55
1574,41.227,102,516.94
1576,41.107,104.9,512.63
1578,41.017,103.4,517.59
1580,40.867,103.8,519.7
1582,40.727,104.9,516.11
1584,40.597,105,523.37
1586,40.477,104.2,516.8
1588,40.387,102.6,519.01
1590,40.257,102.7,516.11
1592,40.137,103.5,522.68
1594,40.067,102.8,517.25
1596,39.927,105.9,520.47
1598,39.797,107.9,518.96
1600,39.657,105.3,523.13
1602,39.557,105,521
1604,39.407,106.4,521.85
1606,39.327,105.8,521.8
1608,39.146,106.5,524.34
1610,39.096,105.2,523.79
1612,38.936,104.1,521.72
1614,38.806,104.6,522.32
1616,38.696,105.3,521.3
1618,38.616,105.1,529.51
1620,38.506,106.7,526.31
1622,38.356,104.5,525.84
1624,38.266,106.2,524.16
1626,38.136,107.2,520.35
1628,38.036,106.9,531.03
1630,37.936,105.6,522.62
1632,37.796,104.9,526.5
1634,37.646,106.3,531.57
1636,37.556,108.3,527.5
1638,37.436,106.8,525.58
1640,37.336,106.3,531.93
1642,37.166,105.8,531.29
1644,37.096,104.9,529.54
1646,36.976,105.3,522.55
1648,36.836,106.1,532.38
1650,36.756,106,535.01
1652,36.616,105.8,530.48
1654,36.486,105.7,538.34
1656,36.406,106.5,531.01
1658,36.276,106,531.75
1660,36.176,105.5,536.17
1662,36.046,104.9,535.89
1664,35.926,103.8,534.77
1666,35.786,105,533.14
1668,35.726,104.6,533.92
1670,35.586,102.7,536.26
1672,35.486,103.7,537.18
1674,35.386,103.9,529.28
1676,35.276,104.7,536.65
1678,35.176,103.6,534.63
1680,35.046,105,536.39
1682,34.936,102.9,541.81
1684,34.826,102.8,543.27
1686,34.736,103.9,537.26
1688,34.616,102.6,539.41
1690,34.516,101.6,544.26
1692,34.396,103.9,540.17
1694,34.266,102.8,540.67
1696,34.206,102.5,538.96
1698,34.076,101,545.18
1700,33.985,101.7,537.84
1702,33.875,100.7,540.39
1704,33.745,100.4,539.27
1706,33.655,101,539.39
1708,33.545,101.7,543.49
1710,33.405,100.7,543.44
1712,33.315,101.9,541.25
1714,33.195,101.8,540.87
1716,33.125,100.8,550.47
1718,33.015,101.8,544.92
1720,32.935,101.3,549.83
1722,32.795,101.6,547.04
1724,32.735,102.9,546.71
1726,32.605,100.6,545.87
1728,32.515,101.1,543.71
1730,32.375,101.4,547.1
1732,32.305,100.1,548.24
1734,32.185,98.8,543.85
1736,32.085,98.2,552.13
1738,31.975,98.8,552.23
1740,31.875,99.5,543.98
1742,31.785,100.6,543.87
1744,31.675,99.3,553.6
1746,31.575,99.4,539.98
1748,31.495,98.1,543.85
1750,31.385,97.7,543.93
1752,31.295,97.2,545.63
1754,31.225,97.9,547.42
1756,31.095,97.8,549.69
1758,30.995,98.4,551.32
1760,30.885,97.1,548.49
1762,30.795,97.7,550.56
1764,30.675,95.3,550.17
1766,30.585,96.8,552.21
1768,30.475,96.3,550.92
1770,30.395,95.9,552.62
1772,30.295,95.6,551.09
1774,30.215,96.5,551.7
1776,30.085,96.5,552.46
1778,30.015,95.8,556.8
1780,29.905,95.3,550.24
1782,29.845,96.6,553.11
1784,29.765,95.6,554.78
1786,29.655,96.3,547.49
1788,29.565,94.3,549.73
1790,29.475,94.5,550.73
1792,29.385,91.9,554.27
1794,29.305,93.3,555.02
1796,29.185,90.3,548.66
1798,29.115,90.7,553.62
1800,29.035,90.8,557.09
1802,28.935,90.7,556.29
1804,28.875,90.4,557.71
1806,28.795,89.3,559.26
1808,28.694,91,551.34
1810,28.604,88.9,561.91
1812,28.534,88.7,559.88
1814,28.424,88.8,555.32
1816,28.334,87.3,554.61
1818,28.244,87.3,557.48
1820,28.184,88.6,555.3
1822,28.114,86.7,560.28
1824,28.044,86.4,555.37
1826,27.934,85.7,557.05
1828,27.874,86,563.55
1830,27.804,84.4,558.49
1832,27.734,83.7,564.81
1834,27.634,82.8,565.03
1836,27.574,81.7,559.4
1838,27.474,81.6,565.16
1840,27.424,83.3,560.85
1842,27.344,81.2,559.82
1844,27.244,80.6,563.79
1846,27.174,80.9,560.39
1848,27.104,80.1,565.22
1850,27.054,81.5,561.8
1852,26.944,81.6,565.84
1854,26.874,80.3,562.82
1856,26.814,80.6,565.3
1858,26.754,80,566.16
1860,26.654,79,565.14
1862,26.614,77.3,566.07
1864,26.504,78.6,565.21
1866,26.444,79.5,568.32
1868,26.374,78.9,567.84
1870,26.324,78.8,561.08
1872,26.254,77.2,568.81
1874,26.204,75.4,567.37
1876,26.074,74,567.4
1878,26.034,74.1,571.05
1880,25.924,74.4,564.02
1882,25.864,74.9,575.36
1884,25.784,73.7,567.12
1886,25.744,73.8,566.76
1888,25.664,73.4,573.98
1890,25.604,72.1,577.61
1892,25.534,72.6,567.02
1894,25.474,72.3,567.63
1896,25.414,70.3,567.9
1898,25.354,70,572.29
1900,25.284,71.7,571.77
1902,25.214,72,570.79
1904,25.184,71.8,573.29
1906,25.114,72.9,571.69
1908,25.034,72.6,576.19
1910,24.984,72.2,571.22
1912,24.914,71,573.72
1914,24.864,70.3,576.06
1916,24.834,69.1,572.93
1918,24.744,69.3,581.57
1920,24.694,68.8,571.3
1922,24.624,69.8,571.54
1924,24.574,68.8,575.13
1926,24.484,67.8,575.79
1928,24.444,68.2,571.33
1930,24.384,67.7,571.89
1932,24.314,67.1,575.52
1934,24.254,67,575.73
1936,24.204,66,578.15
1938,24.144,65.5,573.38
1940,24.064,65.4,578.51
1942,24.044,66.3,575.22
1944,23.984,66.3,576.24
1946,23.904,66.2,577.01
1948,23.884,65.1,573.11
1950,23.824,64.5,580.08
1952,23.774,63.4,574.12
1954,23.734,63.2,576.61
1956,23.664,61.2,574.28
1958,23.624,62.7,577.29
1960,23.564,62.6,575.67
1962,23.523,62.4,582.85
1964,23.453,61.1,576.83
1966,23.434,59,580.13
1968,23.363,58.4,576.37
1970,23.303,58.6,581.13
1972,23.233,59.4,578.73
1974,23.213,59.5,578.13
1976,23.143,59.7,580.86
1978,23.103,59.3,576.36
1980,23.043,59.1,576.51
1982,23.013,57.2,585.24
1984,22.953,57.2,579.31
1986,22.883,57.6,579.41
1988,22.863,57.1,578.3
1990,22.823,57.5,579.32
1992,22.773,56,579.02
1994,22.743,56,581.93
1996,22.673,56.2,576.32
1998,22.623,54.6,580.22
2000,22.593,54.1,578.83
2002,22.533,53.7,578.2
2004,22.513,53.6,578.6
2006,22.453,53,576.46
2008,22.443,54.4,577.81
2010,22.393,53.3,577.6
2012,22.323,53.3,577.56
2014,22.283,53.8,584.45
2016,22.223,53,579
2018,22.183,52.9,580.01
2020,22.133,55.6,582.29
2022,22.103,55.6,580.19
2024,22.063,54.2,578.67
2026,22.013,54,578.98
2028,21.943,54,583.25
2030,21.943,55.3,577.62
2032,21.883,53.9,580.38
2034,21.863,54.3,574.81
2036,21.803,54.3,574.72
2038,21.813,53.8,583.22
2040,21.723,55.7,582.07
2042,21.703,54.1,578.25
2044,21.643,53.2,581.69
2046,21.623,52.9,582.08
2048,21.603,51.9,577.85
2050,21.543,50.8,581.63
2052,21.503,50.1,580.35
2054,21.473,49.7,575.26
2056,21.403,49.4,581.71
2058,21.363,48.9,583.87
2060,21.343,47.8,581.7
2062,21.333,48.1,580.22
2064,21.273,47,581.82
2066,21.233,46.5,580.68
2068,21.203,47.2,575.41
2070,21.183,46.2,582.62
2072,21.143,47.3,581.8
2074,21.103,45.4,581.1
2076,21.083,45.4,577.13
2078,21.023,45.8,585.96
2080,21.013,47,579.6
2082,20.953,46.6,579.73
2084,20.913,46.3,583.74
2086,20.873,46.2,582.01
2088,20.823,46.5,578.97
2090,20.793,45.4,583.07
2092,20.793,43.9,580.07
2094,20.723,42.8,583.56
2096,20.703,43.5,585.6
2098,20.653,44.7,581.71
2100,20.623,44,585.41
2102,20.603,43.8,584.99
2104,20.553,43,580.37
2106,20.523,42.4,581.99
2108,20.513,44.9,577.04
2110,20.473,43.9,582.33
2112,20.433,43.5,583.45
2114,20.393,44.1,580.9
2116,20.363,42.7,584.52
2118,20.333,42.3,582.95
2120,20.303,42.1,584.91
2122,20.273,42.6,578.33
2124,20.253,42.2,580.62
2126,20.233,42.9,579
2128,20.173,41.5,584.14
2130,20.173,42.5,584.11
2132,20.123,42.1,584.82
2134,20.103,41.8,578.74
2136,20.083,41.9,577.7
2138,20.033,40.9,583.29
2140,20.023,40.4,580.34
2142,19.983,40.2,580.51
2144,19.963,40.9,589.03
2146,19.933,40.3,577.58
2148,19.873,39.6,586.47
2150,19.873,39.3,582.2
2152,19.873,41.1,584.68
2154,19.813,40.3,577.71
2156,19.813,39.3,586.04
2158,19.743,39.6,574.92
2160,19.723,38.7,577.91
2162,19.683,39.4,579.2
2164,19.643,38.6,582.05
2166,19.633,40.4,585.61
2168,19.613,38.8,580.69
2170,19.593,38.2,574.74
2172,19.583,37,580.47
2174,19.533,36.9,581.44
2176,19.523,37.1,581.27
2178,19.473,37.6,577.81
2180,19.493,37.7,584.85
2182,19.443,36.9,584.7
2184,19.413,37.1,581.72
2186,19.363,36.5,581.97
2188,19.353,36.9,581.64
2190,19.333,36.1,583.13
2192,19.333,36.2,582.05
2194,19.293,36.3,580.2
2196,19.263,36.1,583.4
2198,19.233,35.6,585.05
2200,19.213,35.5,578.8
2202,19.193,35.5,576.88
2204,19.173,36.1,578.45
2206,19.123,35.8,578.5
2208,19.113,35.4,582.88
2210,19.083,36.2,579.99
2212,19.073,35.1,582.66
2214,19.023,35.3,579.44
2216,18.983,35.5,577.11
2218,18.993,34.3,583.46
2220,18.963,34.2,582.7
2222,18.953,35.1,586.19
2224,18.913,36,584.2
2226,18.903,36.3,583.55
2228,18.873,35.5,582.59
2230,18.863,35,581.66
2232,18.833,35.5,581.49
2234,18.813,34.2,580.99
2236,18.773,34.4,577.96
2238,18.773,35.4,584.61
2240,18.723,35.5,585.23
2242,18.713,34.7,581.67
2244,18.673,34.4,580.97
2246,18.673,34.7,582.95
2248,18.663,33,579.97
2250,18.623,32.5,578.03
2252,18.613,32.1,582.17
2254,18.593,32.3,577.94
2256,18.573,31.1,583.75
2258,18.593,31.1,581.46
2260,18.543,31.2,581.33
2262,18.503,30.1,577.15
2264,18.473,29.2,580.39
2266,18.453,29.4,580.26
2268,18.443,29,579.75
2270,18.423,29,577.01
2272,18.423,28.6,585.79
2274,18.403,27.7,579.58
2276,18.373,27.6,585.04
2278,18.343,27.6,582.39
2280,18.343,28.6,583.72
2282,18.293,28.2,583.4
2284,18.313,28.3,585.56
2286,18.263,28,581.48
2288,18.242,27.9,580.31
2290,18.232,28.2,581.13
2292,18.212,28.8,584.42
2294,18.182,27.9,578.64
2296,18.182,27.9,583.34
2298,18.142,27.3,579.76
2300,18.103,28.1,581.07
2302,18.112,27.2,575.07
2304,18.092,26.2,582.94
2306,18.072,27.1,582.11
2308,18.052,27.5,580.12
2310,18.032,27.5,585.01
2312,18.002,27.8,586.31
2314,17.992,27.1,579.57
2316,17.982,26.3,580.41
2318,17.942,26,582.34
2320,17.952,27.5,579.5
2322,17.892,27.7,581.42
2324,17.892,29,587.59
2326,17.882,27.3,579.41
2328,17.862,27.3,576.5
2330,17.862,27.1,576
2332,17.852,28,583.83
2334,17.812,27.5,582.74
2336,17.792,27.3,579.09
2338,17.772,27.1,583.38
2340,17.752,26.4,578.8
2342,17.772,26.1,581.66
2344,17.732,26.7,581.35
2346,17.712,27,581.6
2348,17.682,27.6,586.74
2350,17.692,27.6,580.47
2352,17.672,26.9,581.46
2354,17.652,28.1,585.64
2356,17.642,27.7,584.47
2358,17.602,27.3,583.83
2359,17.602,28.1,582.12