File: PMMA/Validation_Results/DBI/csv_files_non_calibrated/DBI-1_Gasification_q50_MLR_R4.csv
Time,MLR
[s],[g/m2/s]
0,0
1,0
2,0
3.01,1.94398E-06
4.01,9.07189E-06
5.01,3.44294E-05
6.01,0.000107836
7.01,0.000293625
8.01,0.000715223
9.01,0.001588951
10.01,0.003266249
11.01,0.006281748
12.01,0.0114078
13.01,0.0197079
14.01,0.0325884
15.01,0.051841
16.01,0.0795021
17.01,0.118513
18,0.171733
19,0.242609
20,0.33437
21,0.451649
22,0.598016
23,0.777107
24,0.992172
25,1.2458
26,1.53972
27,1.87457
28,2.24979
29,2.66358
30,3.1129
31,3.59361
32,4.1007
33,4.62845
34,5.17081
35,5.72182
36,6.27592
37,6.82811
38,7.37409
39,7.91022
40,8.43351
41,8.94139
42,9.43355
43,9.90394
44.01,10.3546
45.01,10.7852
46.01,11.1999
47.01,11.5961
48.01,11.9776
49.01,12.346
50.01,12.701
51.01,13.0418
52.01,13.3686
53.01,13.6814
54.01,13.9811
55.01,14.2688
56.01,14.5447
57.01,14.809
58.01,15.0622
59.01,15.305
60.01,15.5382
61.01,15.763
62.01,15.9809
63.01,16.1928
64.01,16.399
65.01,16.5993
66.01,16.7936
67.01,16.9819
68.01,17.165
69.01,17.3439
70.01,17.5186
71.01,17.6881
72.01,17.8544
73,18.0156
74,18.1711
75,18.3206
76,18.4669
77,18.6107
78,18.7535
79,18.8952
80,19.0349
81,19.1728
82,19.3108
83,19.4507
84,19.5933
85,19.7387
86,19.8851
87,20.0285
88,20.1671
89,20.3011
90,20.4303
91,20.5576
92,20.685
93,20.8124
94,20.9395
95,21.0653
96,21.1897
97,21.3141
98,21.4395
99,21.5665
100,21.6945
101,21.8215
102,21.947
103,22.0714
104,22.1942
105,22.3154
106,22.4357
107,22.5557
108,22.6757
109,22.7957
110,22.9163
111,23.0381
112,23.1616
113,23.2874
114,23.4151
115,23.5444
116,23.6749
117,23.805
118,23.9334
119,24.0598
120,24.1853
121,24.3105
122,24.435
123,24.5584
124,24.6807
125,24.804
126,24.9298
127,25.0587
128,25.1903
129,25.3243
130,25.4613
131,25.6019
132,25.7452
133,25.8887
134,26.0297
135,26.1661
136,26.2985
137,26.4295
138,26.5625
139,26.6997
140,26.8419
141,26.9883
142,27.1366
143,27.2834
144,27.4274
145,27.5704
146,27.7123
147,27.8505
148,27.9849
149,28.1167
150,28.2506
151,28.3941
152,28.5495
153,28.7131
154,28.8808
155,29.0503
156,29.2207
157,29.3912
158,29.5625
159,29.7364
160.01,29.9247
161.01,30.1417
162.01,30.3776
163.01,30.606
164.01,30.821
165.01,31.0193
166.01,31.2017
167.01,31.3747
168.01,31.5393
169.01,31.7019
170.01,31.8711
171.01,32.0435
172.01,32.2074
173.01,32.3544
174.01,32.4901
175.01,32.6289
176.01,32.7744
177.01,32.9209
178.01,33.0703
179.01,33.2324
180.01,33.4117
181.01,33.5972
182.01,33.771
183.01,33.9253
184.01,34.0629
185.01,34.1934
186.01,34.3264
187.01,34.4659
188.01,34.6144
189.01,34.773
190.01,34.9369
191.01,35.0951
192.01,35.2365
193.01,35.3611
194.01,35.4846
195.01,35.6209
196.01,35.7681
197.01,35.916
198.01,36.0533
199.01,36.1734
200.01,36.2822
201.01,36.389
202.01,36.4977
203.01,36.6108
204.01,36.7281
205.01,36.847
206.01,36.9661
207.01,37.0836
208.01,37.1983
209.01,37.3114
210.01,37.423
211.01,37.5306
212.01,37.6312
213.01,37.7219
214.01,37.8045
215.01,37.8852
216.01,37.9683
217.01,38.054
218.01,38.1392
219.01,38.2202
220.01,38.2955
221.01,38.3652
222.01,38.4278
223.01,38.4801
224.01,38.5241
225.01,38.5699
226.01,38.6266
227.01,38.6931
228.01,38.7615
229.01,38.8272
230.01,38.8924
231.01,38.9574
232.01,39.0166
233.01,39.0611
234.01,39.0845
235.01,39.0955
236.01,39.1134
237.01,39.1451
238.01,39.1793
239.01,39.1999
240.01,39.1956
241.01,39.1653
242.01,39.124
243.01,39.0951
244.01,39.0869
245.01,39.0806
246.01,39.052
247.01,38.9854
248.01,38.8803
249.01,38.7619
250.01,38.6545
251.01,38.5514
252.01,38.4294
253.01,38.2732
254.01,38.0761
255.01,37.8455
256.01,37.6009
257.01,37.3471
258.01,37.0632
259.01,36.7294
260.01,36.3387
261.01,35.8912
262.01,35.3972
263.01,34.8588
264.01,34.2521
265.01,33.548
266.01,32.7235
267.01,31.7588
268.01,30.6368
269.01,29.3007
270.01,27.5583
271.01,25.0471
272.01,21.2451
273.01,15.8753
274.01,9.96701
275.01,4.94567
276.01,1.56028
277.01,0.179309
278.01,0
279.01,0
280.01,0
281.01,0
282.01,0
283.01,0
284.01,0
285.01,0
286.01,0
287.01,0
288.01,0
289.01,0
290.01,0
291.01,0
292.01,0
293.01,0
294.01,0
295.01,0
296.01,0
297.01,0
298.01,0
299.01,0
300.01,0
301.01,0
302.01,0
303.01,0
304.01,0
305.01,0
306.01,0
307.01,0
308.01,0
309.01,0
310.01,0
311.01,0
312.01,0
313.01,0
314.01,0
315.01,0
316.01,0
317.01,0
318.01,0
319.01,0
320.01,0
321.01,0
322.01,0
323.01,0
324.01,0
325.01,0
326.01,0
327.01,0
328.01,0
329.01,0
330.01,0
331.01,0
332.01,0
333.01,0
334.01,0
335.01,0
336.01,0
337.01,0
338.01,0
339.01,0
340.01,0
341.01,0
342.01,0
343.01,0
344.01,0
345.01,0
346.01,0
347.01,0
348.01,0
349.01,0
350.01,0
351.01,0
352.01,0
353.01,0
354.01,0
355.01,0
356.01,0
357.01,0
358.01,0
359.01,0
360.01,0
361.01,0
362.01,0
363.01,0
364.01,0
365.01,0
366.01,0
367.01,0
368.01,0
369.01,0
370.01,0
371.01,0
372.01,0
373.01,0
374.01,0
375.01,0
376.01,0
377.01,0
378.01,0
379.01,0
380.01,0
381.01,0
382.01,0
383.01,0
384.01,0
385.01,0
386.01,0
387.01,0
388.01,0
389.01,0
390.01,0
391.01,0
392.01,0
393.01,0
394.01,0
395.01,0
396.01,0
397.01,0
398.01,0
399.01,0
400.01,0
401.01,0
402.01,0
403.01,0
404.01,0
405.01,0
406.01,0
407.01,0
408.01,0
409.01,0
410.01,0
411.01,0
412.01,0
413.01,0
414.01,0
415.01,0
416.01,0
417.01,0
418.01,0
419.01,0
420.01,0
421.01,0
422.01,0
423.01,0
424.01,0
425.01,0
426.01,0
427.01,0
428.01,0
429.01,0
430.01,0
431.01,0
432.01,0
433.01,0
434.01,0
435.01,0
436.01,0
437.01,0
438.01,0
439.01,0
440.01,0
441.01,0
442.01,0
443.01,0
444.01,0
445.01,0
446.01,0
447.01,0
448.01,0
449.01,0
450.01,0
451.01,0
452.01,0
453.01,0
454.01,0
455.01,0
456.01,0
457.01,0
458.01,0
459.01,0
460.01,0
461.01,0
462.01,0
463.01,0
464.01,0
465.01,0
466.01,0
467.01,0
468.01,0
469.01,0
470.01,0
471.01,0
472.01,0
473.01,0
474.01,0
475.01,0
476.01,0
477.01,0
478.01,0
479.01,0
480.01,0
481.01,0
482.01,0
483.01,0
484.01,0
485.01,0
486.01,0
487.01,0
488.01,0
489.01,0
490.01,0
491.01,0
492.01,0
493.01,0
494.01,0
495.01,0
496.01,0
497.01,0
498.01,0
499.01,0
500,0