File: PMMA/Validation_Results/DBI/csv_files_non_calibrated/DBI-1_Gasification_q50_Mass_R5.csv
Time,Mass
[s],[g]
0.00,28.113
1.00,28.113
2.00,28.113
3.01,28.113
4.01,28.113
5.01,28.113
6.01,28.113
7.01,28.113
8.01,28.113
9.01,28.113
10.01,28.113
11.01,28.113
12.01,28.1129
13.01,28.1129
14.01,28.1128
15.01,28.1127
16.01,28.1124
17.01,28.1121
18.00,28.1116
19.00,28.1108
20.00,28.1098
21.00,28.1084
22.00,28.1064
23.00,28.1039
24.00,28.1005
25.00,28.0963
26.00,28.0911
27.00,28.0846
28.00,28.0768
29.00,28.0674
30.00,28.0563
31.00,28.0435
32.00,28.0287
33.00,28.0119
34.00,27.993
35.00,27.972
36.00,27.9489
37.00,27.9236
38.00,27.8962
39.00,27.8667
40.00,27.8351
41.00,27.8016
42.00,27.7662
43.00,27.7289
44.01,27.6894
45.01,27.6486
46.01,27.6062
47.01,27.5623
48.01,27.5169
49.01,27.47
50.01,27.4218
51.01,27.3722
52.01,27.3214
53.01,27.2693
54.01,27.2161
55.01,27.1617
56.01,27.1063
57.01,27.0499
58.01,26.9925
59.01,26.9341
60.01,26.8749
61.01,26.8148
62.01,26.7539
63.01,26.6922
64.01,26.6297
65.01,26.5665
66.01,26.5025
67.01,26.4378
68.01,26.3725
69.01,26.3065
70.01,26.2398
71.01,26.1725
72.01,26.1047
73.00,26.0369
74.00,25.9678
75.00,25.8983
76.00,25.8282
77.00,25.7577
78.00,25.6866
79.00,25.6151
80.00,25.543
81.00,25.4705
82.00,25.3976
83.00,25.3241
84.00,25.2501
85.00,25.1757
86.00,25.1008
87.00,25.0253
88.00,24.9494
89.00,24.873
90.00,24.7962
91.00,24.7189
92.00,24.6413
93.00,24.5633
94.00,24.4849
95.00,24.4061
96.00,24.3269
97.00,24.2472
98.00,24.1672
99.00,24.0868
100.00,24.0059
101.00,23.9247
102.00,23.843
103.00,23.761
104.00,23.6786
105.00,23.5958
106.00,23.5126
107.00,23.429
108.00,23.3451
109.00,23.2607
110.00,23.176
111.00,23.0909
112.00,23.0055
113.00,22.9196
114.00,22.8334
115.00,22.7469
116.00,22.66
117.00,22.5728
118.00,22.4852
119.00,22.3973
120.00,22.3091
121.00,22.2206
122.00,22.1316
123.00,22.0423
124.00,21.9526
125.00,21.8625
126.00,21.7721
127.00,21.6812
128.00,21.5899
129.00,21.4982
130.00,21.4061
131.00,21.3137
132.00,21.2209
133.00,21.1276
134.00,21.034
135.00,20.9399
136.00,20.8455
137.00,20.7508
138.00,20.6559
139.00,20.5606
140.00,20.4649
141.00,20.3686
142.00,20.2717
143.00,20.1743
144.00,20.0764
145.00,19.9781
146.00,19.8793
147.00,19.7802
148.00,19.6806
149.00,19.5805
150.00,19.4801
151.00,19.3793
152.00,19.2781
153.00,19.1764
154.00,19.0743
155.00,18.9717
156.00,18.8687
157.00,18.7652
158.00,18.6613
159.00,18.5571
160.01,18.4515
161.01,18.3464
162.01,18.2409
163.01,18.1349
164.01,18.0283
165.01,17.9212
166.01,17.8136
167.01,17.7055
168.01,17.597
169.01,17.488
170.01,17.3785
171.01,17.2687
172.01,17.1585
173.01,17.0477
174.01,16.9363
175.01,16.8244
176.01,16.712
177.01,16.599
178.01,16.4855
179.01,16.3713
180.01,16.2567
181.01,16.1415
182.01,16.0258
183.01,15.9094
184.01,15.7925
185.01,15.6748
186.01,15.5563
187.01,15.437
188.01,15.3167
189.01,15.1951
190.01,15.0727
191.01,14.9504
192.01,14.8278
193.01,14.7045
194.01,14.5805
195.01,14.4561
196.01,14.3312
197.01,14.2057
198.01,14.0797
199.01,13.9531
200.01,13.8258
201.01,13.698
202.01,13.5695
203.01,13.4406
204.01,13.3111
205.01,13.1812
206.01,13.0508
207.01,12.9199
208.01,12.7884
209.01,12.6563
210.01,12.5237
211.01,12.3907
212.01,12.2571
213.01,12.123
214.01,11.9884
215.01,11.8532
216.01,11.7175
217.01,11.5811
218.01,11.4442
219.01,11.3069
220.01,11.1692
221.01,11.031
222.01,10.8922
223.01,10.7528
224.01,10.6127
225.01,10.4723
226.01,10.3316
227.01,10.1905
228.01,10.049
229.01,9.90705
230.01,9.76451
231.01,9.62139
232.01,9.47789
233.01,9.33415
234.01,9.19015
235.01,9.04578
236.01,8.90094
237.01,8.75561
238.01,8.60993
239.01,8.46398
240.01,8.31777
241.01,8.17129
242.01,8.02449
243.01,7.87731
244.01,7.72977
245.01,7.58199
246.01,7.43402
247.01,7.28586
248.01,7.13741
249.01,6.98854
250.01,6.83926
251.01,6.68981
252.01,6.54029
253.01,6.3907
254.01,6.24103
255.01,6.09111
256.01,5.94077
257.01,5.79013
258.01,5.63944
259.01,5.48882
260.01,5.33823
261.01,5.18768
262.01,5.03706
263.01,4.88624
264.01,4.73517
265.01,4.58408
266.01,4.43316
267.01,4.28236
268.01,4.13155
269.01,3.98066
270.01,3.82982
271.01,3.67926
272.01,3.52908
273.01,3.37926
274.01,3.22984
275.01,3.08076
276.01,2.93198
277.01,2.78353
278.01,2.63564
279.01,2.48851
280.01,2.34226
281.01,2.19698
282.01,2.0528
283.01,1.90974
284.01,1.76782
285.01,1.62713
286.01,1.48792
287.01,1.35049
288.01,1.21512
289.01,1.08193
290.01,0.951163
291.01,0.823281
292.01,0.698734
293.01,0.577761
294.01,0.461059
295.01,0.350312
296.01,0.247314
297.01,0.154865
298.01,0.0787594
299.01,0.0276648
300.01,0.007054751
301.01,0.004503333
302.01,0.004503333
303.01,0.004503333
304.01,0.004503333
305.01,0.004503333
306.01,0.004503333
307.01,0.004503333
308.01,0.004503333
309.01,0.004503333
310.01,0.004503333
311.01,0.004503333
312.01,0.004503333
313.01,0.004503333
314.01,0.004503333
315.01,0.004503333
316.01,0.004503333
317.01,0.004503333
318.01,0.004503333
319.01,0.004503333
320.01,0.004503333
321.01,0.004503333
322.01,0.004503333
323.01,0.004503333
324.01,0.004503333
325.01,0.004503333
326.01,0.004503333
327.01,0.004503333
328.01,0.004503333
329.01,0.004503333
330.01,0.004503333
331.01,0.004503333
332.01,0.004503333
333.01,0.004503333
334.01,0.004503333
335.01,0.004503333
336.01,0.004503333
337.01,0.004503333
338.01,0.004503333
339.01,0.004503333
340.01,0.004503333
341.01,0.004503333
342.01,0.004503333
343.01,0.004503333
344.01,0.004503333
345.01,0.004503333
346.01,0.004503333
347.01,0.004503333
348.01,0.004503333
349.01,0.004503333
350.01,0.004503333
351.01,0.004503333
352.01,0.004503333
353.01,0.004503333
354.01,0.004503333
355.01,0.004503333
356.01,0.004503333
357.01,0.004503333
358.01,0.004503333
359.01,0.004503333
360.01,0.004503333
361.01,0.004503333
362.01,0.004503333
363.01,0.004503333
364.01,0.004503333
365.01,0.004503333
366.01,0.004503333
367.01,0.004503333
368.01,0.004503333
369.01,0.004503333
370.01,0.004503333
371.01,0.004503333
372.01,0.004503333
373.01,0.004503333
374.01,0.004503333
375.01,0.004503333
376.01,0.004503333
377.01,0.004503333
378.01,0.004503333
379.01,0.004503333
380.01,0.004503333
381.01,0.004503333
382.01,0.004503333
383.01,0.004503333
384.01,0.004503333
385.01,0.004503333
386.01,0.004503333
387.01,0.004503333
388.01,0.004503333
389.01,0.004503333
390.01,0.004503333
391.01,0.004503333
392.01,0.004503333
393.01,0.004503333
394.01,0.004503333
395.01,0.004503333
396.01,0.004503333
397.01,0.004503333
398.01,0.004503333
399.01,0.004503333
400.01,0.004503333
401.01,0.004503333
402.01,0.004503333
403.01,0.004503333
404.01,0.004503333
405.01,0.004503333
406.01,0.004503333
407.01,0.004503333
408.01,0.004503333
409.01,0.004503333
410.01,0.004503333
411.01,0.004503333
412.01,0.004503333
413.01,0.004503333
414.01,0.004503333
415.01,0.004503333
416.01,0.004503333
417.01,0.004503333
418.01,0.004503333
419.01,0.004503333
420.01,0.004503333
421.01,0.004503333
422.01,0.004503333
423.01,0.004503333
424.01,0.004503333
425.01,0.004503333
426.01,0.004503333
427.01,0.004503333
428.01,0.004503333
429.01,0.004503333
430.01,0.004503333
431.01,0.004503333
432.01,0.004503333
433.01,0.004503333
434.01,0.004503333
435.01,0.004503333
436.01,0.004503333
437.01,0.004503333
438.01,0.004503333
439.01,0.004503333
440.01,0.004503333
441.01,0.004503333
442.01,0.004503333
443.01,0.004503333
444.01,0.004503333
445.01,0.004503333
446.01,0.004503333
447.01,0.004503333
448.01,0.004503333
449.01,0.004503333
450.01,0.004503333
451.01,0.004503333
452.01,0.004503333
453.01,0.004503333
454.01,0.004503333
455.01,0.004503333
456.01,0.004503333
457.01,0.004503333
458.01,0.004503333
459.01,0.004503333
460.01,0.004503333
461.01,0.004503333
462.01,0.004503333
463.01,0.004503333
464.01,0.004503333
465.01,0.004503333
466.01,0.004503333
467.01,0.004503333
468.01,0.004503333
469.01,0.004503333
470.01,0.004503333
471.01,0.004503333
472.01,0.004503333
473.01,0.004503333
474.01,0.004503333
475.01,0.004503333
476.01,0.004503333
477.01,0.004503333
478.01,0.004503333
479.01,0.004503333
480.01,0.004503333
481.01,0.004503333
482.01,0.004503333
483.01,0.004503333
484.01,0.004503333
485.01,0.004503333
486.01,0.004503333
487.01,0.004503333
488.01,0.004503333
489.01,0.004503333
490.01,0.004503333
491.01,0.004503333
492.01,0.004503333
493.01,0.004503333
494.01,0.004503333
495.01,0.004503333
496.01,0.004503333
497.01,0.004503333
498.01,0.004503333
499.01,0.004503333
500.00,0.004503333