File: PMMA/Validation_Results/DBI/csv_files_non_calibrated/DBI-1_Gasification_q50_MLR_R3.csv
Time,MLR
[s],[g/m2/s]
0,0
1,0
2,6.47992E-07
3.01,1.94398E-06
4.01,9.71988E-06
5.01,3.5079E-05
6.01,0.000109784
7.01,0.000299471
8.01,0.000729514
9.01,0.001622081
10.01,0.003333159
11.01,0.006409072
12.01,0.01163585
13.01,0.0200964
14.01,0.0332212
15.01,0.0528323
16.01,0.080996
17.01,0.120699
18,0.17484
19,0.246907
20,0.340161
21,0.45928
22,0.607853
23,0.789522
24,1.00752
25,1.26442
26,1.56187
27,1.90044
28,2.27948
29,2.69706
30,3.15004
31,3.63419
32,4.14435
33,4.67477
34,5.21931
35,5.77201
36,6.32728
37,6.88015
38,7.42635
39,7.96228
40,8.485
41,8.99199
42,9.48296
43,9.95192
44.01,10.4009
45.01,10.8297
46.01,11.2424
47.01,11.6366
48.01,12.016
49.01,12.3822
50.01,12.7348
51.01,13.0731
52.01,13.3972
53.01,13.7072
54.01,14.004
55.01,14.2886
56.01,14.5612
57.01,14.8222
58.01,15.0718
59.01,15.3108
60.01,15.5401
61.01,15.7608
62.01,15.9745
63.01,16.1819
64.01,16.3833
65.01,16.5787
66.01,16.7678
67.01,16.9506
68.01,17.1281
69.01,17.3012
70.01,17.47
71.01,17.6335
72.01,17.7932
73,17.9473
74,18.0951
75,18.2364
76,18.3738
77,18.5088
78,18.6432
79,18.7773
80,18.9107
81,19.0434
82,19.176
83,19.31
84,19.4458
85,19.5825
86,19.7191
87,19.8544
88,19.9857
89,20.111
90,20.2299
91,20.3433
92,20.4539
93,20.5644
94,20.6763
95,20.7909
96,20.9079
97,21.0265
98,21.1455
99,21.2632
100,21.3791
101,21.493
102,21.6044
103,21.714
104,21.8233
105,21.9343
106,22.0471
107,22.16
108,22.2718
109,22.3819
110,22.4916
111,22.6023
112,22.7135
113,22.8242
114,22.9338
115,23.0409
116,23.1463
117,23.2509
118,23.3555
119,23.4624
120,23.573
121,23.6882
122,23.8074
123,23.9286
124,24.0491
125,24.1669
126,24.2819
127,24.395
128,24.5077
129,24.62
130,24.7303
131,24.8381
132,24.944
133,25.0501
134,25.16
135,25.2761
136,25.3981
137,25.5255
138,25.6581
139,25.7949
140,25.9351
141,26.0766
142,26.2166
143,26.3525
144,26.4822
145,26.6052
146,26.7225
147,26.8373
148,26.9545
149,27.0789
150,27.2123
151,27.3531
152,27.4982
153,27.6445
154,27.7897
155,27.9328
156,28.0727
157,28.2092
158,28.344
159,28.4788
160.01,28.6175
161.01,28.7625
162.01,28.9141
163.01,29.0673
164.01,29.2201
165.01,29.3725
166.01,29.5265
167.01,29.6858
168.01,29.85315
169.01,30.0303
170.01,30.216
171.01,30.4142
172.01,30.6438
173.01,30.8845
174.01,31.0946
175.01,31.2704
176.01,31.4145
177.01,31.5567
178.01,31.7226
179.01,31.8942
180.01,32.0537
181.01,32.1947
182.01,32.3279
183.01,32.4671
184.01,32.6091
185.01,32.7484
186.01,32.8879
187.01,33.0313
188.01,33.1777
189.01,33.3261
190.01,33.4763
191.01,33.6244
192.01,33.7676
193.01,33.9118
194.01,34.063
195.01,34.2181
196.01,34.3701
197.01,34.5157
198.01,34.6551
199.01,34.7925
200.01,34.9323
201.01,35.0741
202.01,35.2172
203.01,35.36
204.01,35.4984
205.01,35.6293
206.01,35.7532
207.01,35.8801
208.01,36.0211
209.01,36.1701
210.01,36.3113
211.01,36.4338
212.01,36.5354
213.01,36.6302
214.01,36.7386
215.01,36.8661
216.01,36.9999
217.01,37.1238
218.01,37.2273
219.01,37.312
220.01,37.396
221.01,37.4987
222.01,37.6181
223.01,37.7358
224.01,37.8356
225.01,37.9083
226.01,37.9626
227.01,38.0254
228.01,38.1134
229.01,38.2173
230.01,38.3184
231.01,38.4023
232.01,38.4635
233.01,38.5149
234.01,38.5747
235.01,38.644
236.01,38.7128
237.01,38.7723
238.01,38.8195
239.01,38.8631
240.01,38.9194
241.01,38.9875
242.01,39.0503
243.01,39.0949
244.01,39.1151
245.01,39.116
246.01,39.1104
247.01,39.1057
248.01,39.1081
249.01,39.1238
250.01,39.1481
251.01,39.1695
252.01,39.1761
253.01,39.1619
254.01,39.1368
255.01,39.1121
256.01,39.0814
257.01,39.0307
258.01,38.9516
259.01,38.8425
260.01,38.7162
261.01,38.5924
262.01,38.476
263.01,38.3517
264.01,38.1984
265.01,37.999
266.01,37.7496
267.01,37.4679
268.01,37.1733
269.01,36.8658
270.01,36.528
271.01,36.137
272.01,35.6732
273.01,35.1324
274.01,34.5345
275.01,33.8989
276.01,33.1959
277.01,32.3771
278.01,31.4388
279.01,30.2873
280.01,28.7217
281.01,26.5537
282.01,23.436
283.01,18.9925
284.01,13.3782
285.01,7.81111
286.01,3.47317
287.01,0.839681
288.01,0.003703438
289.01,0
290.01,0
291.01,0
292.01,0
293.01,0
294.01,0
295.01,0
296.01,0
297.01,0
298.01,0
299.01,0
300.01,0
301.01,0
302.01,0
303.01,0
304.01,0
305.01,0
306.01,0
307.01,0
308.01,0
309.01,0
310.01,0
311.01,0
312.01,0
313.01,0
314.01,0
315.01,0
316.01,0
317.01,0
318.01,0
319.01,0
320.01,0
321.01,0
322.01,0
323.01,0
324.01,0
325.01,0
326.01,0
327.01,0
328.01,0
329.01,0
330.01,0
331.01,0
332.01,0
333.01,0
334.01,0
335.01,0
336.01,0
337.01,0
338.01,0
339.01,0
340.01,0
341.01,0
342.01,0
343.01,0
344.01,0
345.01,0
346.01,0
347.01,0
348.01,0
349.01,0
350.01,0
351.01,0
352.01,0
353.01,0
354.01,0
355.01,0
356.01,0
357.01,0
358.01,0
359.01,0
360.01,0
361.01,0
362.01,0
363.01,0
364.01,0
365.01,0
366.01,0
367.01,0
368.01,0
369.01,0
370.01,0
371.01,0
372.01,0
373.01,0
374.01,0
375.01,0
376.01,0
377.01,0
378.01,0
379.01,0
380.01,0
381.01,0
382.01,0
383.01,0
384.01,0
385.01,0
386.01,0
387.01,0
388.01,0
389.01,0
390.01,0
391.01,0
392.01,0
393.01,0
394.01,0
395.01,0
396.01,0
397.01,0
398.01,0
399.01,0
400.01,0
401.01,0
402.01,0
403.01,0
404.01,0
405.01,0
406.01,0
407.01,0
408.01,0
409.01,0
410.01,0
411.01,0
412.01,0
413.01,0
414.01,0
415.01,0
416.01,0
417.01,0
418.01,0
419.01,0
420.01,0
421.01,0
422.01,0
423.01,0
424.01,0
425.01,0
426.01,0
427.01,0
428.01,0
429.01,0
430.01,0
431.01,0
432.01,0
433.01,0
434.01,0
435.01,0
436.01,0
437.01,0
438.01,0
439.01,0
440.01,0
441.01,0
442.01,0
443.01,0
444.01,0
445.01,0
446.01,0
447.01,0
448.01,0
449.01,0
450.01,0
451.01,0
452.01,0
453.01,0
454.01,0
455.01,0
456.01,0
457.01,0
458.01,0
459.01,0
460.01,0
461.01,0
462.01,0
463.01,0
464.01,0
465.01,0
466.01,0
467.01,0
468.01,0
469.01,0
470.01,0
471.01,0
472.01,0
473.01,0
474.01,0
475.01,0
476.01,0
477.01,0
478.01,0
479.01,0
480.01,0
481.01,0
482.01,0
483.01,0
484.01,0
485.01,0
486.01,0
487.01,0
488.01,0
489.01,0
490.01,0
491.01,0
492.01,0
493.01,0
494.01,0
495.01,0
496.01,0
497.01,0
498.01,0
499.01,0
500,0