File: PMMA/Validation_Results/DBI/csv_files_non_calibrated/DBI-1_Gasification_q50_MLR_R5.csv
Time,MLR
[s],[g/m2/s]
0,0
1,0
2,6.47992E-07
3.01,1.94398E-06
4.01,9.07189E-06
5.01,3.44294E-05
6.01,0.000107836
7.01,0.000294924
8.01,0.00071912
9.01,0.001598046
10.01,0.003284438
11.01,0.006316827
12.01,0.0114702
13.01,0.0198138
14.01,0.0327606
15.01,0.0521112
16.01,0.0799098
17.01,0.11911
18,0.172583
19,0.243785
20,0.335956
21,0.45374
22,0.600714
23,0.780514
24,0.996387
25,1.25092
26,1.5458
27,1.88168
28,2.25795
29,2.67278
30,3.1231
31,3.60474
32,4.11265
33,4.6411
34,5.18401
35,5.73542
36,6.28975
37,6.84199
38,7.38786
39,7.92372
40,8.44658
41,8.95388
42,9.44528
43,9.91477
44.01,10.3643
45.01,10.7938
46.01,11.207
47.01,11.6017
48.01,11.9814
49.01,12.3478
50.01,12.7006
51.01,13.0389
52.01,13.3629
53.01,13.6727
54.01,13.969
55.01,14.253
56.01,14.5249
57.01,14.7848
58.01,15.0332
59.01,15.2707
60.01,15.4983
61.01,15.7171
62.01,15.9285
63.01,16.1334
64.01,16.3322
65.01,16.5246
66.01,16.7105
67.01,16.8899
68.01,17.0636
69.01,17.2327
70.01,17.3973
71.01,17.5563
72.01,17.7112
73,17.8602
74,18.0024
75,18.138
76,18.2694
77,18.3981
78,18.5256
79,18.652
80,18.7774
81,18.9019
82,19.0265
83,19.1526
84,19.28
85,19.4081
86,19.5362
87,19.6632
88,19.7863
89,19.9033
90,20.0135
91,20.1178
92,20.2199
93,20.3228
94,20.4272
95,20.5328
96,20.6385
97,20.744
98,20.8493
99,20.9543
100,21.0589
101,21.1625
102,21.2647
103,21.3656
104,21.4658
105,21.5658
106,21.6659
107,21.7659
108,21.8651
109,21.9635
110,22.0615
111,22.1588
112,22.2551
113,22.3495
114,22.4412
115,22.5309
116,22.6188
117,22.7057
118,22.7926
119,22.8806
120,22.9709
121,23.0638
122,23.1593
123,23.2571
124,23.3575
125,23.4599
126,23.5638
127,23.668
128,23.7701
129,23.8705
130,23.9707
131,24.072
132,24.1761
133,24.2821
134,24.3847
135,24.4784
136,24.562
137,24.6407
138,24.7267
139,24.8306
140,24.9552
141,25.0943
142,25.2357
143,25.3689
144,25.4906
145,25.6037
146,25.7138
147,25.8236
148,25.9333
149,26.0411
150,26.1459
151,26.2512
152,26.3609
153,26.4765
154,26.5967
155,26.7161
156,26.8292
157,26.9343
158,27.0347
159,27.1353
160.01,27.2423
161.01,27.3595
162.01,27.4879
163.01,27.6223
164.01,27.7579
165.01,27.8902
166.01,28.0176
167.01,28.1429
168.01,28.2643
169.01,28.3786
170.01,28.4893
171.01,28.6021
172.01,28.7244
173.01,28.8592
174.01,29.0013
175.01,29.1446
176.01,29.2882
177.01,29.4338
178.01,29.5798
179.01,29.7231
180.01,29.8634
181.01,30.005
182.01,30.1552
183.01,30.3189
184.01,30.4961
185.01,30.6881
186.01,30.9057
187.01,31.1624
188.01,31.4163
189.01,31.615
190.01,31.7606
191.01,31.865
192.01,31.9707
193.01,32.1104
194.01,32.2619
195.01,32.4031
196.01,32.5357
197.01,32.6747
198.01,32.8264
199.01,32.9848
200.01,33.1421
201.01,33.293
202.01,33.4345
203.01,33.5675
204.01,33.6962
205.01,33.826
206.01,33.9604
207.01,34.0989
208.01,34.2391
209.01,34.3781
210.01,34.514
211.01,34.6465
212.01,34.7778
213.01,34.9125
214.01,35.0541
215.01,35.2017
216.01,35.3487
217.01,35.4883
218.01,35.6162
219.01,35.736
220.01,35.86
221.01,35.9991
222.01,36.148
223.01,36.2915
224.01,36.4188
225.01,36.5257
226.01,36.6202
227.01,36.72
228.01,36.8371
229.01,36.969
230.01,37.1003
231.01,37.2163
232.01,37.3111
233.01,37.3922
234.01,37.4793
235.01,37.5826
236.01,37.692
237.01,37.7945
238.01,37.8835
239.01,37.9585
240.01,38.0307
241.01,38.1108
242.01,38.197
243.01,38.2817
244.01,38.358
245.01,38.4217
246.01,38.4802
247.01,38.551
248.01,38.6358
249.01,38.7198
250.01,38.79
251.01,38.8362
252.01,38.8624
253.01,38.8924
254.01,38.9453
255.01,39.014
256.01,39.0795
257.01,39.1254
258.01,39.1415
259.01,39.136
260.01,39.13122
261.01,39.1443
262.01,39.1758
263.01,39.2102
264.01,39.2306
265.01,39.2285
266.01,39.2117
267.01,39.1993
268.01,39.1936
269.01,39.1782
270.01,39.1377
271.01,39.0671
272.01,38.9755
273.01,38.8792
274.01,38.7882
275.01,38.6996
276.01,38.5996
277.01,38.4732
278.01,38.309
279.01,38.1029
280.01,37.8623
281.01,37.5978
282.01,37.3163
283.01,37.0183
284.01,36.6953
285.01,36.3294
286.01,35.9038
287.01,35.4165
288.01,34.8682
289.01,34.2483
290.01,33.5451
291.01,32.7517
292.01,31.8377
293.01,30.7246
294.01,29.3248
295.01,27.4718
296.01,24.8347
297.01,20.9596
298.01,15.6075
299.01,9.76769
300.01,4.82376
301.01,1.50459
302.01,0.165743
303.01,0
304.01,0
305.01,0
306.01,0
307.01,0
308.01,0
309.01,0
310.01,0
311.01,0
312.01,0
313.01,0
314.01,0
315.01,0
316.01,0
317.01,0
318.01,0
319.01,0
320.01,0
321.01,0
322.01,0
323.01,0
324.01,0
325.01,0
326.01,0
327.01,0
328.01,0
329.01,0
330.01,0
331.01,0
332.01,0
333.01,0
334.01,0
335.01,0
336.01,0
337.01,0
338.01,0
339.01,0
340.01,0
341.01,0
342.01,0
343.01,0
344.01,0
345.01,0
346.01,0
347.01,0
348.01,0
349.01,0
350.01,0
351.01,0
352.01,0
353.01,0
354.01,0
355.01,0
356.01,0
357.01,0
358.01,0
359.01,0
360.01,0
361.01,0
362.01,0
363.01,0
364.01,0
365.01,0
366.01,0
367.01,0
368.01,0
369.01,0
370.01,0
371.01,0
372.01,0
373.01,0
374.01,0
375.01,0
376.01,0
377.01,0
378.01,0
379.01,0
380.01,0
381.01,0
382.01,0
383.01,0
384.01,0
385.01,0
386.01,0
387.01,0
388.01,0
389.01,0
390.01,0
391.01,0
392.01,0
393.01,0
394.01,0
395.01,0
396.01,0
397.01,0
398.01,0
399.01,0
400.01,0
401.01,0
402.01,0
403.01,0
404.01,0
405.01,0
406.01,0
407.01,0
408.01,0
409.01,0
410.01,0
411.01,0
412.01,0
413.01,0
414.01,0
415.01,0
416.01,0
417.01,0
418.01,0
419.01,0
420.01,0
421.01,0
422.01,0
423.01,0
424.01,0
425.01,0
426.01,0
427.01,0
428.01,0
429.01,0
430.01,0
431.01,0
432.01,0
433.01,0
434.01,0
435.01,0
436.01,0
437.01,0
438.01,0
439.01,0
440.01,0
441.01,0
442.01,0
443.01,0
444.01,0
445.01,0
446.01,0
447.01,0
448.01,0
449.01,0
450.01,0
451.01,0
452.01,0
453.01,0
454.01,0
455.01,0
456.01,0
457.01,0
458.01,0
459.01,0
460.01,0
461.01,0
462.01,0
463.01,0
464.01,0
465.01,0
466.01,0
467.01,0
468.01,0
469.01,0
470.01,0
471.01,0
472.01,0
473.01,0
474.01,0
475.01,0
476.01,0
477.01,0
478.01,0
479.01,0
480.01,0
481.01,0
482.01,0
483.01,0
484.01,0
485.01,0
486.01,0
487.01,0
488.01,0
489.01,0
490.01,0
491.01,0
492.01,0
493.01,0
494.01,0
495.01,0
496.01,0
497.01,0
498.01,0
499.01,0
500,0