File: PMMA/Validation_Results/DBI/csv_files_non_calibrated/DBI_Gasification_q50_Temp_R5.csv
Time,Temp
[s],[K]
0,298.15
1,298.15
2,298.15
3.01,298.15
4.01,298.15
5.01,298.15
6.01,298.15
7.01,298.15
8.01,298.15
9.01,298.15
10.01,298.15
11.01,298.151
12.01,298.152
13.01,298.155
14.01,298.16
15.01,298.168
16.01,298.18
17.01,298.199
18,298.227
19,298.264
20,298.314
21,298.38
22,298.462
23,298.565
24,298.69
25,298.839
26,299.015
27,299.219
28,299.454
29,299.722
30,300.024
31,300.361
32,300.735
33,301.147
34,301.597
35,302.088
36,302.618
37,303.19
38,303.803
39,304.458
40,305.155
41,305.894
42,306.675
43,307.5
44.01,308.373
45.01,309.295
46.01,310.26
47.01,311.27
48.01,312.322
49.01,313.412
50.01,314.532
51.01,315.679
52.01,316.852
53.01,318.052
54.01,319.277
55.01,320.527
56.01,321.799
57.01,323.095
58.01,324.411
59.01,325.749
60.01,327.107
61.01,328.486
62.01,329.884
63.01,331.301
64.01,332.737
65.01,334.19
66.01,335.659
67.01,337.143
68.01,338.642
69.01,340.154
70.01,341.679
71.01,343.217
72.01,344.765
73,346.316
74,347.878
75,349.456
76,351.043
77,352.639
78,354.242
79,355.852
80,357.469
81,359.091
82,360.72
83,362.354
84,363.992
85,365.635
86,367.282
87,368.933
88,370.587
89,372.245
90,373.905
91,375.568
92,377.233
93,378.9
94,380.568
95,382.239
96,383.91
97,385.583
98,387.257
99,388.932
100,390.608
101,392.284
102,393.96
103,395.637
104,397.314
105,398.99
106,400.667
107,402.344
108,404.02
109,405.696
110,407.371
111,409.047
112,410.721
113,412.396
114,414.072
115,415.746
116,417.421
117,419.094
118,420.767
119,422.439
120,424.11
121,425.78
122,427.449
123,429.117
124,430.784
125,432.45
126,434.116
127,435.779
128,437.442
129,439.104
130,440.764
131,442.424
132,444.082
133,445.74
134,447.395
135,449.051
136,450.704
137,452.356
138,454.008
139,455.657
140,457.306
141,458.954
142,460.6
143,462.245
144,463.888
145,465.53
146,467.171
147,468.811
148,470.449
149,472.086
150,473.721
151,475.355
152,476.987
153,478.617
154,480.247
155,481.874
156,483.5
157,485.125
158,486.747
159,488.368
160.01,489.996
161.01,491.622
162.01,493.238
163.01,494.851
164.01,496.464
165.01,498.073
166.01,499.681
167.01,501.287
168.01,502.89
169.01,504.491
170.01,506.089
171.01,507.685
172.01,509.279
173.01,510.87
174.01,512.459
175.01,514.044
176.01,515.627
177.01,517.207
178.01,518.784
179.01,520.357
180.01,521.927
181.01,523.494
182.01,525.056
183.01,526.615
184.01,528.168
185.01,529.721
186.01,531.273
187.01,532.818
188.01,534.359
189.01,535.898
190.01,537.433
191.01,538.963
192.01,540.489
193.01,542.011
194.01,543.528
195.01,545.041
196.01,546.548
197.01,548.051
198.01,549.548
199.01,551.041
200.01,552.527
201.01,554.009
202.01,555.484
203.01,556.954
204.01,558.417
205.01,559.874
206.01,561.326
207.01,562.77
208.01,564.208
209.01,565.639
210.01,567.063
211.01,568.481
212.01,569.892
213.01,571.297
214.01,572.695
215.01,574.087
216.01,575.473
217.01,576.853
218.01,578.226
219.01,579.594
220.01,580.956
221.01,582.313
222.01,583.665
223.01,585.011
224.01,586.354
225.01,587.692
226.01,589.027
227.01,590.359
228.01,591.689
229.01,593.016
230.01,594.342
231.01,595.666
232.01,596.99
233.01,598.314
234.01,599.642
235.01,600.971
236.01,602.301
237.01,603.634
238.01,604.971
239.01,606.315
240.01,607.665
241.01,609.022
242.01,610.385
243.01,611.755
244.01,613.134
245.01,614.524
246.01,615.928
247.01,617.345
248.01,618.773
249.01,620.215
250.01,621.673
251.01,623.149
252.01,624.647
253.01,626.163
254.01,627.696
255.01,629.248
256.01,630.822
257.01,632.423
258.01,634.057
259.01,635.716
260.01,637.399
261.01,639.105
262.01,640.841
263.01,642.608
264.01,644.415
265.01,646.271
266.01,648.166
267.01,650.089
268.01,652.044
269.01,654.039
270.01,656.075
271.01,658.172
272.01,660.337
273.01,662.539
274.01,664.766
275.01,667.043
276.01,669.376
277.01,671.774
278.01,674.253
279.01,676.801
280.01,679.375
281.01,681.985
282.01,684.674
283.01,687.475
284.01,690.391
285.01,693.347
286.01,696.329
287.01,699.413
288.01,702.61
289.01,705.913
290.01,709.402
291.01,713.224
292.01,717.246
293.01,721.356
294.01,726.095
295.01,731.721
296.01,738.236
297.01,746.291
298.01,756.415
299.01,769.799
300.01,789.285
301.01,814.479
302.01,837.356
303.01,844.625
304.01,848.896
305.01,851.95
306.01,854.328
307.01,856.261
308.01,857.9
309.01,859.31
310.01,860.543
311.01,861.629
312.01,862.592
313.01,863.47
314.01,864.3
315.01,865.096
316.01,865.774
317.01,866.38
318.01,866.949
319.01,867.596
320.01,868.172
321.01,868.799
322.01,869.333
323.01,869.741
324.01,870.093
325.01,870.542
326.01,871.011
327.01,871.412
328.01,871.754
329.01,872.04
330.01,872.325
331.01,872.683
332.01,873.016
333.01,873.258
334.01,873.524
335.01,873.783
336.01,874.051
337.01,874.366
338.01,874.702
339.01,874.963
340.01,875.208
341.01,875.386
342.01,875.554
343.01,875.741
344.01,875.953
345.01,876.252
346.01,876.507
347.01,876.732
348.01,876.853
349.01,876.906
350.01,877.038
351.01,877.259
352.01,877.494
353.01,877.743
354.01,877.986
355.01,878.113
356.01,878.206
357.01,878.331
358.01,878.54
359.01,878.721
360.01,878.88
361.01,879.008
362.01,879.202
363.01,879.368
364.01,879.517
365.01,879.619
366.01,879.707
367.01,879.817
368.01,879.988
369.01,880.15
370.01,880.309
371.01,880.461
372.01,880.601
373.01,880.665
374.01,880.733
375.01,880.85
376.01,881.01
377.01,881.202
378.01,881.359
379.01,881.467
380.01,881.575
381.01,881.68
382.01,881.766
383.01,881.905
384.01,881.973
385.01,882.011
386.01,882.109
387.01,882.262
388.01,882.397
389.01,882.533
390.01,882.66
391.01,882.769
392.01,882.864
393.01,882.95
394.01,883.08
395.01,883.221
396.01,883.225
397.01,883.364
398.01,883.495
399.01,883.628
400.01,883.789
401.01,883.892
402.01,883.985
403.01,884.091
404.01,884.191
405.01,884.272
406.01,884.346
407.01,884.411
408.01,884.489
409.01,884.58
410.01,884.667
411.01,884.743
412.01,884.844
413.01,884.915
414.01,884.945
415.01,885.024
416.01,885.149
417.01,885.286
418.01,885.37
419.01,885.442
420.01,885.535
421.01,885.638
422.01,885.694
423.01,885.817
424.01,885.888
425.01,885.955
426.01,886.004
427.01,885.964
428.01,886.041
429.01,886.201
430.01,886.295
431.01,886.379
432.01,886.492
433.01,886.591
434.01,886.659
435.01,886.679
436.01,886.726
437.01,886.852
438.01,887.007
439.01,887.139
440.01,887.2
441.01,887.255
442.01,887.318
443.01,887.382
444.01,887.428
445.01,887.453
446.01,887.486
447.01,887.574
448.01,887.696
449.01,887.801
450.01,887.86
451.01,887.919
452.01,887.99
453.01,888.057
454.01,888.118
455.01,888.193
456.01,888.276
457.01,888.377
458.01,888.496
459.01,888.581
460.01,888.621
461.01,888.659
462.01,888.707
463.01,888.778
464.01,888.863
465.01,888.897
466.01,888.873
467.01,888.885
468.01,889.003
469.01,889.121
470.01,889.238
471.01,889.342
472.01,889.396
473.01,889.452
474.01,889.56
475.01,889.633
476.01,889.701
477.01,889.742
478.01,889.783
479.01,889.846
480.01,889.885
481.01,889.903
482.01,890.019
483.01,890.127
484.01,890.21
485.01,890.281
486.01,890.338
487.01,890.381
488.01,890.448
489.01,890.528
490.01,890.578
491.01,890.613
492.01,890.669
493.01,890.734
494.01,890.791
495.01,890.781
496.01,890.868
497.01,890.984
498.01,891.065
499.01,891.125
500,891.225