File: PMMA/Calibration_Data/TIFP/TIFP_Cone_25kW_1.csv
Time,mass,HRR,Back surface temperature 1,Back surface temperature 2
s,g,kW/m2,K,K
0,71.44,0,297.25,297.25
1,71.4346,-0.03813881,297.25,297.25
2,71.4154,-1.21344,297.25,297.25
3,71.4156,-1.08702,297.25,297.25
4,71.40949,-0.470611,297.25,297.25
5,71.3922,-1.20977,297.25,297.25
6,71.3488,-0.783726,297.25,297.35
7,71.3246,-1.30271,297.35,297.35
8,71.3018,-0.0696196,297.35,297.45
9,71.2726,1.02268,297.45,297.45
10,71.2302,1.89644,297.45,297.45
11,71.2232,1.61732,297.45,297.45
12,71.2115,1.59665,297.45,297.55
13,71.217,1.24981,297.55,297.55
14,71.2077,2.53347,297.55,297.55
15,71.2011,3.01642,297.55,297.55
16,71.2067,1.62437,297.55,297.55
17,71.1751,1.81721,297.65,297.55
18,71.2244,0.298918,297.65,297.55
19,71.306,1.18054,297.65,297.65
20,71.3107,0.761806,297.75,297.75
21,71.3144,0.717835,297.85,297.95
22,71.3159,0.532611,297.85,297.95
23,71.3404,-0.274976,297.95,298.05
24,71.2969,-0.927616,298.15,298.25
25,71.2708,1.22079,298.35,298.55
26,71.3146,1.51785,298.35,298.55
27,71.2668,0.729102,298.65,298.85
28,71.2326,0.806836,298.95,299.15
29,71.2325,0.595743,299.25,299.55
30,71.2206,1.84474,299.65,299.55
31,71.1319,1.35566,299.65,299.95
32,71.0416,1.09545,300.05,300.45
33,71.21481,1.48565,300.55,302.05
34,71.2865,0.918044,302.15,302.05
35,71.2309,0.512902,302.15,302.65
36,71.1712,9.43E-03,302.75,303.25
37,71.1315,1.20247,303.55,304.15
38,71.1402,1.43316,304.15,304.15
39,71.1637,-0.589978,304.15,304.85
40,71.1826,0.0510181,304.85,305.55
41,71.1338,1.08828,305.65,306.45
42,71.1148,1.94128,306.45,307.25
43,71.0895,0.0525432,306.45,307.25
44,70.708,3.2125,307.35,308.15
45,71.0174,1.28835,308.25,309.05
46,71.0915,2.93177,309.15,310.05
47,71.1317,3.27246,309.15,310.05
48,71.1581,2.40262,310.15,310.95
49,71.1407,3.51084,311.15,311.95
50,71.2369,4.41287,312.05,312.95
51,71.2792,4.36487,312.95,312.95
52,71.1233,4.11766,312.95,314.05
53,71.1357,5.71874,314.05,315.05
54,71.25983,5.56378,315.15,316.15
55,71.2218,5.28971,316.15,316.15
56,71.2044,6.03468,316.15,317.15
57,71.19597,5.57911,317.35,318.25
58,71.1809,3.64658,318.45,319.35
59,71.179,2.7742,319.65,320.55
60,71.1958,3.67581,319.65,320.55
61,71.1884,2.74469,320.75,321.65
62,71.1933,1.95076,321.85,322.75
63,71.1923,2.08916,323.05,323.95
64,71.192,1.87251,323.05,323.95
65,71.2104,2.61395,324.25,325.05
66,71.2294,4.40331,325.55,326.25
67,71.2171,4.93961,326.55,327.45
68,71.20113,4.43749,326.55,327.45
69,71.2104,5.78144,327.75,328.65
70,71.2198,5.17677,329.05,329.85
71,71.214,7.05662,330.35,331.05
72,71.2165,7.40353,331.55,331.05
73,71.21963,8.18131,331.55,332.15
74,71.2261,5.98959,332.85,333.35
75,71.2026,5.36655,334.05,334.65
76,71.2051,5.25548,335.35,334.65
77,71.22072,6.08997,335.35,335.95
78,71.2368,4.52971,336.55,337.05
79,71.2451,5.66137,337.75,338.35
80,71.23277,6.24123,339.05,338.35
81,71.22141,7.67896,339.05,339.45
82,71.2374,6.31946,340.35,340.65
83,71.2582,6.87152,341.65,341.95
84,71.2496,6.77016,342.95,343.15
85,71.2401,6.42076,342.95,343.15
86,71.2434,5.57648,344.15,344.25
87,71.24576,5.40202,345.45,345.65
88,71.2443,5.22095,346.75,346.85
89,71.2361,4.29697,346.75,346.85
90,71.2324,4.33114,348.05,347.95
91,71.2177,4.76961,349.25,349.25
92,71.1977,3.00117,350.65,350.45
93,71.2098,4.24243,350.65,350.45
94,71.2339,3.08847,351.85,351.65
95,71.23437,3.72268,353.15,352.85
96,71.2252,4.13806,354.35,354.05
97,71.2179,4.28637,355.75,354.05
98,71.204,2.42178,355.75,355.25
99,71.189,1.08212,356.95,356.45
100,71.1809,3.35939,358.25,357.65
101,71.1774,8.88486,359.45,357.65
102,71.1622,17.7652,359.45,358.85
103,71.1495,36.9703,360.85,360.05
104,71.1627,64.0411,362.15,361.25
105,71.13,89.097,363.45,362.45
106,71.183,112.461,363.45,362.45
107,71.0977,133.041,364.75,363.65
108,71.0303,157.026,366.05,364.95
109,70.9647,175.505,367.35,366.15
110,70.9073,194.988,367.35,366.15
111,70.8524,220.724,368.65,367.25
112,70.7649,240.346,369.85,368.45
113,70.6486,262.695,371.05,369.55
114,70.457,283.72,371.05,369.55
115,70.5013,296.999,372.15,370.75
116,70.3721,312.691,373.35,371.75
117,70.2218,317.144,374.55,372.95
118,70.1493,322.184,375.65,372.95
119,70.0916,325.295,375.65,374.05
120,69.93162,318.418,376.85,375.05
121,69.7915,316.966,377.95,376.25
122,69.6859,323.216,379.05,376.25
123,69.561,336.52,379.05,377.35
124,69.4389,328.88,380.15,378.45
125,69.3281,332.064,381.35,379.45
126,69.1946,339.484,382.45,379.45
127,69.0939,336.011,382.45,380.55
128,68.9744,341.339,383.55,381.55
129,68.8416,331.423,384.65,382.65
130,68.7382,337.057,385.75,383.75
131,68.5866,336.02,385.75,383.75
132,68.4555,333.185,386.85,384.85
133,68.3407,336.697,387.85,385.85
134,68.2493,339.77,388.95,386.85
135,68.1485,336.672,388.95,386.85
136,68.0182,340.467,389.95,387.85
137,67.8658,355.792,391.05,388.95
138,67.7419,358.036,392.15,390.05
139,67.6235,353.983,392.15,390.05
140,67.4972,346.277,393.15,391.15
141,67.3694,356.258,394.25,392.15
142,67.365,358.506,395.15,393.15
143,67.2647,359.359,396.45,393.15
144,67.1568,365.792,396.45,394.35
145,67.0609,369.9353,397.55,395.35
146,66.9823,352.959,398.65,396.65
147,66.81701,362.362,399.75,396.65
148,66.6715,361.146,399.75,397.75
149,66.5366,360.391,400.95,398.85
150,66.3853,361.033,402.05,400.05
151,66.2327,353.366,403.15,400.05
152,66.1073,376.153,404.25,401.15
153,65.9755,376.669,404.25,402.35
154,65.8433,392.505,405.35,403.45
155,65.7241,380.324,406.45,404.75
156,65.5693,369.228,407.55,404.75
157,65.4181,384.868,407.55,405.85
158,65.2807,365.357,408.55,406.95
159,65.1447,374.181,409.75,408.15
160,65.0176,376.761,410.75,408.15
161,64.8636,373.267,410.75,409.35
162,64.7402,387.649,411.95,410.55
163,64.627,368.853,413.05,411.65
164,64.499,374.508,414.15,412.85
165,64.3451,376.07,414.15,412.85
166,64.2107,392.19,415.25,414.05
167,64.0988,372.424,416.45,415.35
168,63.9605,382.689,417.55,416.55
169,63.8445,380.173,417.55,416.55
170,63.7139,377.941,418.65,417.65
171,63.6017,378.12,419.75,418.85
172,63.4105,386.909,420.95,420.05
173,63.2605,389.023,420.95,420.05
174,63.1236,393.368,422.05,421.25
175,62.9996,390.866,423.15,422.45
176,62.8618,387.077,424.15,423.65
177,62.732,380.748,425.35,423.65
178,62.5886,387.278,425.35,424.85
179,62.4438,378.611,426.45,425.95
180,62.2986,387.769,427.65,427.15
181,62.1664,373.993,428.65,427.15
182,62.0223,382.389,428.65,428.25
183,61.8734,389.586,429.75,429.35
184,61.7555,392.004,430.85,430.65
185,61.6165,382.43,431.95,430.65
186,61.4723,386.811,431.95,431.75
187,61.3359,379.651,433.15,432.95
188,61.1903,391.432,434.25,434.15
189,61.0526,398.17,435.35,435.35
190,60.8946,389.763,435.35,435.35
191,60.7579,382.466,436.45,436.55
192,60.6186,412.911,437.55,437.65
193,60.4888,412.727,438.65,438.75
194,60.34763,384.067,438.65,438.75
195,60.2007,401.207,439.65,439.95
196,60.0454,402.183,440.75,440.95
197,59.9122,393.712,441.85,442.05
198,59.8032,397.247,442.95,442.05
199,59.6582,398.422,442.95,443.25
200,59.5021,382.845,444.05,444.35
201,59.37111,393.278,445.15,445.55
202,59.2156,386.167,446.15,445.55
203,59.145,389.8,446.15,446.75
204,58.9818,385.439,447.45,447.95
205,58.8182,381.821,448.45,448.95
206,58.6635,403.917,449.55,450.15
207,58.5036,410.89,449.55,450.15
208,58.3506,405.858,450.65,451.25
209,58.1933,413.031,451.65,452.45
210,58.05,418.901,452.85,453.55
211,57.9341,414.034,452.85,453.55
212,57.8035,414.219,453.85,454.75
213,57.67382,405.065,454.95,455.85
214,57.50868,401.728,455.95,456.95
215,57.3484,405.574,455.95,456.95
216,57.19179,396.536,457.15,458.05
217,57.0543,395.326,458.15,459.15
218,56.9165,403.496,459.25,460.35
219,56.7547,385.929,460.45,460.35
220,56.6282,404.164,460.45,461.45
221,56.4682,419.442,461.45,462.55
222,56.3554,415.425,462.65,463.75
223,56.4487,407.922,463.75,463.75
224,56.4008,413.809,463.75,464.85
225,56.25508,410.135,464.85,465.95
226,56.1063,420.025,465.95,467.05
227,55.9462,419.25,467.05,468.05
228,55.81941,421.918,467.05,468.05
229,55.6259,408.659,468.05,469.25
230,55.4735,409.423,469.15,470.35
231,55.3548,422.225,470.25,471.55
232,55.2226,412.357,470.25,471.55
233,55.0546,399.969,471.35,472.55
234,54.8876,410.568,472.35,473.85
235,54.7409,429.06,473.45,474.85
236,54.5874,419.851,473.45,474.85
237,54.4549,415.886,474.55,475.95
238,54.2991,413.381,475.55,476.95
239,54.1191,409.987,476.55,478.15
240,53.9689,401.599,477.65,478.15
241,53.83415,410.096,477.65,479.15
242,53.6763,419.904,478.65,480.35
243,53.5418,408.031,479.65,481.35
244,53.3941,428.099,480.65,481.35
245,53.25884,425.895,480.65,482.55
246,53.11,417.926,481.85,483.65
247,52.9628,427.479,482.75,484.75
248,52.8118,433.24,483.85,484.75
249,52.6468,432.255,483.85,485.85
250,52.5028,422.871,484.85,486.95
251,52.348,411.407,485.95,488.05
252,52.1907,427.015,487.35,488.05
253,52.0462,416.087,487.35,489.15
254,51.905,417.391,488.65,490.05
255,51.7664,433.284,489.65,491.45
256,51.5869,435.149,490.65,492.55
257,51.4108,436.66,490.65,492.55
258,51.2436,429.506,491.45,493.65
259,51.0927,425.025,492.35,494.75
260,50.9509,415.389,493.35,495.65
261,50.7942,436.497,493.35,495.65
262,50.6341,420.533,494.25,496.85
263,50.4643,430.264,495.25,497.85
264,50.273,431.554,495.95,499.15
265,50.097,435.833,496.85,499.15
266,49.9447,435.397,496.85,499.95
267,49.8167,436.231,497.55,501.15
268,49.6958,445.354,498.35,502.25
269,49.5486,436.624,499.15,502.25
270,49.3736,455.044,499.15,503.35
271,49.2072,440.052,500.05,504.35
272,49.0676,445.249,500.85,505.45
273,48.8797,459.439,501.55,506.55
274,48.6894,443.488,501.55,506.55
275,48.5321,441.358,502.25,507.65
276,48.3787,455.968,503.25,508.75
277,48.2012,473.945,504.05,509.75
278,48.0237,462.961,504.05,509.75
279,47.8651,454.518,504.85,510.85
280,47.6783,446.788,505.85,511.95
281,47.5081,438.057,506.75,513.05
282,47.3816,451.148,507.65,513.05
283,47.4144,464.083,507.65,514.15
284,47.3025,463.656,508.65,515.25
285,47.1044,458.948,509.65,516.35
286,46.9426,469.008,510.65,516.35
287,46.7438,465.641,510.65,517.25
288,46.542,451.86,511.75,518.25
289,46.3615,476.109,512.85,519.25
290,46.1512,447.446,513.75,520.15
291,46.0081,453.858,513.75,520.15
292,45.8328,459.263,514.75,521.35
293,45.7025,465.587,515.75,522.35
294,45.5118,451.632,517.25,522.35
295,45.3182,451.242,517.25,523.15
296,45.1211,483.617,518.15,524.15
297,44.9741,513.639,519.05,525.15
298,44.8107,488.425,519.95,525.15
299,44.6095,460.016,520.95,525.95
300,44.4208,456.263,520.95,526.85
301,44.239,465.506,521.85,527.75
302,44.049,479.621,522.75,528.65
303,43.8758,471.348,522.75,528.65
304,43.7065,484.458,523.65,529.45
305,43.5418,473.322,524.55,530.15
306,43.5528,464.276,525.45,530.85
307,43.54114,472.296,525.45,530.85
308,43.3761,477.301,526.45,531.55
309,43.1787,475.967,527.45,532.35
310,43.0167,479.232,528.55,533.05
311,42.869,491.597,529.55,533.05
312,42.6996,486.832,529.55,533.95
313,42.5255,490.422,530.55,534.85
314,42.338,482.05,531.65,535.75
315,42.1679,492.143,532.65,535.75
316,41.9719,491.794,532.65,536.75
317,41.7849,486.293,533.95,537.75
318,41.628,491.424,535.15,538.75
319,41.484,476.615,536.35,539.85
320,41.3003,515.88,536.35,539.85
321,41.1135,498.042,537.55,540.95
322,40.954,493.029,538.85,542.15
323,40.7757,487.662,540.15,543.45
324,40.5911,494.265,540.15,543.45
325,40.4311,488.821,541.55,544.65
326,40.2441,501.876,542.85,545.95
327,40.0809,512.068,544.15,547.25
328,39.8992,494.94,545.65,547.25
329,39.7277,494.319,545.65,548.55
330,39.5687,477.393,546.85,549.95
331,39.3915,496.608,548.35,551.45
332,39.2346,490.318,549.85,552.85
333,39.0684,479.494,549.85,552.85
334,38.8903,483.812,551.25,554.25
335,38.7113,492.429,552.65,555.85
336,38.528,488.968,554.15,555.85
337,38.3656,479.878,554.15,557.35
338,38.1888,485.054,555.55,558.85
339,38.0142,507.588,557.05,560.35
340,37.888,503.002,558.55,560.35
341,37.77011,488.454,560.05,562.05
342,37.6328,519.347,560.05,563.55
343,37.4272,502.551,561.55,565.05
344,37.2371,513.086,563.25,566.65
345,37.0401,517.907,563.25,566.65
346,36.8425,536.594,564.75,568.35
347,36.6574,513.355,566.35,569.75
348,36.4717,519.227,567.75,571.45
349,36.3142,507.707,569.35,571.45
350,36.1532,483.356,569.35,572.95
351,35.9738,503.814,570.95,574.45
352,35.7984,502.026,572.75,576.05
353,35.6214,515.943,574.65,576.05
354,35.5106,507.414,574.65,577.55
355,35.2968,512.887,576.55,579.05
356,35.0875,520.887,579.05,580.65
357,34.8737,515.283,587.95,582.15
358,34.6854,522.775,587.95,582.15
359,34.5187,507.541,589.15,583.65
360,34.33637,490.153,590.35,585.25
361,34.163,507.22,591.75,586.65
362,33.9682,499.613,591.75,586.65
363,33.7829,514.653,592.95,588.15
364,33.6141,527.974,594.25,589.55
365,33.42421,530.924,591.75,591.05
366,33.2306,535.591,591.75,591.05
367,33.0486,528.255,591.75,592.35
368,32.88203,525.351,593.35,593.85
369,32.6953,514.704,594.65,595.25
370,32.5026,519.2,596.55,595.25
371,32.3285,516.975,596.55,596.55
372,32.1508,509.384,598.15,597.95
373,31.9726,517.467,599.75,599.25
374,31.774,508.045,601.55,600.55
375,31.5722,545.942,601.55,600.55
376,31.3751,522.931,605.75,601.95
377,31.1883,516.483,607.35,603.15
378,31.0519,520.625,607.35,603.15
379,30.93483,525.58,607.35,604.45
380,30.7534,519.94,609.65,605.75
381,30.5633,511.421,611.05,606.95
382,30.3635,509.093,612.25,606.95
383,30.1783,520.098,613.65,608.25
384,30.0018,541.277,613.65,609.55
385,29.8109,558.037,614.95,610.85
386,29.6029,546.226,616.45,612.15
387,29.40694,551.859,616.45,612.15
388,29.2139,540.987,617.75,613.55
389,29.0344,539.451,619.45,614.95
390,28.8517,540.901,621.15,616.35
391,28.6408,539.91,621.15,616.35
392,28.4692,554.418,622.75,617.75
393,28.3269,515.503,624.55,619.25
394,28.1029,560.244,626.15,620.75
395,27.8892,558.098,627.85,620.75
396,27.677,511.916,627.85,622.35
397,27.4984,538.29,629.55,623.95
398,27.325,539.688,631.35,625.45
399,27.1241,541.01,633.15,626.95
400,26.949,542.504,633.15,626.95
401,26.739,541.978,,
402,26.5781,538.881,,
403,26.4086,554.072,,
404,26.2206,552.532,,
405,26.00788,526.985,,
406,25.80201,560.718,,
407,25.6484,564.691,,
408,25.47289,560.353,,
409,25.2783,568.767,,
410,25.0687,559.332,,
411,24.871,588.125,,
412,24.6719,564.467,,
413,24.4593,545.064,,
414,24.2676,530.794,,
415,24.0683,566.264,,
416,23.8596,575.555,,
417,23.6678,560.411,,
418,23.4727,565.711,,
419,23.3052,565.908,,
420,23.1133,567.463,,
421,22.9148,555.663,,
422,22.7197,538.224,,
423,22.5043,547.624,,
424,22.305,549.42,,
425,22.1236,550.95,,
426,21.9494,543.459,,
427,21.743,549.388,,
428,21.535,537.586,,
429,21.3097,540.079,,
430,21.0944,530.181,,
431,20.8901,539.97,,
432,20.6985,528.254,,
433,20.5752,532.678,,
434,20.3876,522.831,,
435,20.1914,531.416,,
436,19.9916,510.226,,
437,19.81483,527.201,,
438,19.64345,514.649,,
439,19.4877,499.485,,
440,19.2912,480.641,,
441,19.028,487.056,,
442,18.8729,466.945,,
443,18.6989,483.239,,
444,18.5166,508.255,,
445,18.3298,500.884,,
446,18.1637,479.248,,
447,18.0085,447.754,,
448,17.8572,429.87,,
449,17.7005,418.027,,
450,17.5269,422.712,,
451,17.35575,409.197,,
452,17.1994,407.87,,
453,17.0673,408.723,,
454,16.9196,388.247,,
455,16.7734,387.494,,
456,16.6394,366.695,,
457,16.5203,368.283,,
458,16.3932,363.628,,
459,16.28071,357.854,,
460,16.1323,352.224,,
461,15.9917,350.394,,
462,15.8584,339.049,,
463,15.69913,320.629,,
464,15.619,311.903,,
465,15.5284,296.275,,
466,15.4094,280.414,,
467,15.2902,272.276,,
468,15.21116,256.598,,
469,15.1353,247.522,,
470,15.035,247.033,,
471,14.9238,245.398,,
472,14.8204,236.466,,
473,14.7468,224.758,,
474,14.6756,220.411,,
475,14.6002,224.167,,
476,14.5172,212.39,,
477,14.4388,206.212,,
478,14.3774,196.177,,
479,14.3137,195,,
480,14.2341,186.892,,
481,14.1535,184.832,,
482,14.0751,189.378,,
483,13.9646,183.057,,
484,13.9079,173.052,,
485,13.8576,176.052,,
486,13.7975,172.854,,
487,13.73457,173.615,,
488,13.6551,164.609,,
489,13.5894,166.357,,
490,13.523,167.742,,
491,13.4726,170.796,,
492,13.4201,169.369,,
493,13.347,169.842,,
494,13.2872,168.807,,
495,13.2472,159.837,,
496,13.1992,157.345,,
497,13.1424,160.14,,
498,13.0947,162.915,,
499,13.0379,159.568,,
500,12.9743,156.314,,
501,12.9119,158.289,,
502,12.8777,149.315,,
503,12.8357,146.153,,
504,12.7831,144.034,,
505,12.7284,143.398,,
506,12.6884,137.775,,
507,12.643,136.737,,
508,12.59377,129.24,,
509,12.5395,132.029,,
510,12.4806,130.564,,
511,12.4359,132.644,,
512,12.3913,130.286,,
513,12.3529,130.973,,
514,12.31,128.081,,
515,12.2706,125.797,,
516,12.2233,124.352,,
517,12.1306,126.085,,
518,12.1141,122.875,,
519,12.0944,122.644,,
520,12.0279,121.179,,
521,11.9741,120.895,,
522,11.9172,124.68,,
523,11.882,126.05,,
524,11.8331,123.905,,
525,11.8044,117.516,,
526,11.76568,120.651,,
527,11.7371,115.331,,
528,11.7034,112.849,,
529,11.6396,112.184,,
530,11.6006,109.948,,
531,11.5763,109.731,,
532,11.5345,106.346,,
533,11.4773,111.59,,
534,11.4514,110.967,,
535,11.3715,107.95,,
536,11.3307,105.217,,
537,11.3005,106.859,,
538,11.2305,103.533,,
539,11.2133,106.495,,
540,11.1698,108.253,,
541,11.1622,108.181,,
542,11.0975,108.319,,
543,11.0546,108.382,,
544,11.0448,100.972,,
545,11.0351,104.741,,
546,11.00815,102.858,,
547,10.9653,99.9033,,
548,10.9174,102.52,,
549,10.8786,97.7541,,
550,10.8348,97.7786,,
551,10.8013,96.0491,,
552,10.7433,96.4002,,
553,10.7174,98.6958,,
554,10.6812,102.235,,
555,10.6647,100.496,,
556,10.62824,100.086,,
557,10.6,94.9787,,
558,10.5582,93.418,,
559,10.52,94.1585,,
560,10.482,98.0525,,
561,10.4571,94.5709,,
562,10.4031,95.6062,,
563,10.3482,97.1544,,
564,10.3227,95.1284,,
565,10.3068,93.2753,,
566,10.2718,94.7083,,
567,10.23074,92.9039,,
568,10.2108,92.6446,,
569,10.1789,90.0094,,
570,10.1369,91.4854,,
571,10.1264,90.6324,,
572,10.13,90.1871,,
573,10.0914,89.7642,,
574,10.0285,91.0538,,
575,9.977415,88.431,,
576,9.923846,87.1901,,
577,9.886043,89.7623,,
578,9.854122,90.5725,,
579,9.832897,92.5838,,
580,9.802385,91.0969,,
581,9.774432,89.3786,,
582,9.754424,91.1214,,
583,9.718929,89.7869,,
584,9.687428,91.6311,,
585,9.644095,91.2269,,
586,9.618569,95.668,,
587,9.596336,92.205,,
588,9.5531,93.3732,,
589,9.51886,94.1284,,
590,9.493569,91.6414,,
591,9.447607,94.5716,,
592,9.41798,93.1549,,
593,9.387022,91.8427,,
594,9.358266,95.2276,,
595,9.327167,91.3052,,
596,9.296329,90.3122,,
597,9.275553,91.0779,,
598,9.24534,87.2864,,
599,9.217512,86.4066,,
600,9.189752,88.2994,,
601,9.151347,86.3726,,
602,9.129282,85.6053,,
603,9.1083,87.57,,
604,9.067964,86.4736,,
605,9.043691,85.682,,
606,9.003745,85.2587,,
607,8.946186,83.6725,,
608,8.903359,82.4589,,
609,8.882454,82.2189,,
610,8.85396,80.8568,,
611,8.838402,82.6737,,
612,8.812066,83.6825,,
613,8.78681,84.4296,,
614,8.751539,83.1635,,
615,8.716705,82.3755,,
616,8.701014,79.2255,,
617,8.67474,73.4603,,
618,8.647538,79.1786,,
619,8.55167,79.3683,,
620,8.574734,79.6977,,
621,8.556039,79.543,,
622,8.509713,79.7631,,
623,8.437413,77.9721,,
624,8.420429,77.6801,,
625,8.405921,79.1345,,
626,8.374615,77.6993,,
627,8.361941,77.4018,,
628,8.352074,77.1177,,
629,8.330949,76.7957,,
630,8.269513,77.8606,,
631,8.230275,76.5997,,
632,8.203231,79.2429,,
633,8.178841,79.3232,,
634,8.147375,80.3521,,
635,8.116717,81.0927,,
636,8.10375,81.2583,,
637,8.075732,80.5711,,
638,8.052351,83.9758,,
639,8.035287,81.0864,,
640,8.002933,79.4569,,
641,7.968664,77.6953,,
642,7.946771,79.4452,,
643,7.922759,76.8599,,
644,7.888161,74.7782,,
645,7.858924,73.9924,,
646,7.836763,73.9219,,
647,7.803039,74.1946,,
648,7.76811,72.3879,,
649,7.757769,70.5805,,
650,7.7562,69.105,,
651,7.692759,72.1085,,
652,7.666761,70.5196,,
653,7.655048,69.8935,,
654,7.617548,69.7407,,
655,7.583253,69.5258,,
656,7.558984,72.2517,,
657,7.553404,69.2899,,
658,7.531573,68.215,,
659,7.495462,68.6115,,
660,7.446669,68.3382,,
661,7.416956,68.9073,,
662,7.4437,69.19,,
663,7.37496,68.8831,,
664,7.354773,66.774,,
665,7.346639,69.0756,,
666,7.279639,73.3875,,
667,7.212275,73.6359,,
668,7.3071,73.1935,,
669,7.280278,69.9486,,
670,7.230561,71.7369,,
671,7.181109,73.9624,,
672,7.158024,71.2372,,
673,7.184954,71.3717,,
674,7.166649,71.9782,,
675,7.121375,69.6635,,
676,7.074641,69.4731,,
677,7.071446,67.9938,,
678,7.035502,67.831,,
679,7.002922,68.6114,,
680,6.969882,69.9063,,
681,6.97193,68.7583,,
682,6.957925,69.1826,,
683,6.956445,69.1931,,
684,7.004596,70.1289,,
685,6.915302,66.7941,,
686,6.870002,67.5278,,
687,6.843573,68.8781,,
688,6.824488,66.7861,,
689,6.777187,68.0859,,
690,6.737279,69.3681,,
691,6.718806,66.4901,,
692,6.695158,64.1478,,
693,6.676671,61.9067,,
694,6.655977,64.9128,,
695,6.640848,64.9501,,
696,6.610287,66.1293,,
697,6.587922,62.9902,,
698,6.562519,64.0262,,
699,6.533893,66.8785,,
700,6.500433,66.9346,,
701,6.477945,63.3139,,
702,6.43734,65.1227,,
703,6.383018,66.704,,
704,6.380179,68.2236,,
705,6.379609,68.956,,
706,6.379793,70.365,,
707,6.357412,67.5487,,
708,6.326049,69.6362,,
709,6.287542,69.4539,,
710,6.273586,68.08,,
711,6.252492,67.0209,,
712,6.244781,65.8244,,
713,6.250327,63.4875,,
714,6.213171,66.8943,,
715,6.187355,64.5525,,
716,6.156781,66.9619,,
717,6.138876,65.7324,,
718,6.087456,62.3242,,
719,6.043096,60.9898,,
720,6.046994,61.5931,,
721,6.038789,59.3038,,
722,6.019145,60.1086,,
723,5.986409,59.7047,,
724,5.936214,59.7815,,
725,5.920251,59.7483,,
726,5.922174,58.8344,,
727,5.927769,61.1769,,
728,5.885494,59.5272,,
729,5.860441,58.128,,
730,5.839003,58.189,,
731,5.810858,61.4716,,
732,5.768286,61.3703,,
733,5.465192,65.0864,,
734,5.626815,67.6277,,
735,5.761107,67.9106,,
736,5.72746,67.601,,
737,5.680381,68.0586,,
738,5.652877,67.1772,,
739,5.64407,66.4462,,
740,5.724247,68.2894,,
741,5.72015,71.7922,,
742,5.59587,74.2159,,
743,5.563781,73.9213,,
744,5.525896,71.3384,,
745,5.493124,74.3757,,
746,5.462392,76.2758,,
747,5.424972,78.00253,,
748,5.406631,76.5548,,
749,5.401604,76.2493,,
750,5.368976,73.1079,,
751,5.327591,75.4617,,
752,5.299026,72.2449,,
753,5.284485,70.1219,,
754,5.270918,70.4773,,
755,5.251351,66.5779,,
756,5.235876,61.7485,,
757,5.212309,63.4088,,
758,5.19287,59.24,,
759,5.165906,58.2276,,
760,5.148606,54.4605,,
761,5.142827,52.3421,,
762,5.143577,49.2008,,
763,5.083976,47.59669,,
764,5.011006,45.6585,,
765,5.066096,43.6874,,
766,5.039119,45.4598,,
767,5.006047,44.5015,,
768,5.000795,42.1865,,
769,4.991405,39.9058,,
770,4.996214,41.1465,,
771,5.010845,40.1621,,
772,4.960896,41.3008,,
773,4.953557,40.7904,,
774,4.925704,38.9093,,
775,4.936253,38.2265,,
776,4.921424,38.5886,,
777,4.899337,40.0139,,
778,4.874236,40.0492,,
779,4.853804,37.7889,,
780,4.836373,38.017,,
781,4.835448,38.2331,,
782,4.810154,37.7729,,
783,4.75081,37.4305,,
784,4.76157,36.3241,,
785,4.782288,37.556,,
786,4.773271,35.3029,,
787,4.777178,36.9145,,
788,4.756178,34.9757,,
789,4.729263,34.489,,
790,4.692221,34.3417,,
791,4.68742,34.2701,,
792,4.679003,32.2734,,
793,4.679394,35.5825,,
794,4.699027,34.956,,
795,4.701654,31.8228,,
796,4.647904,32.7113,,
797,4.631645,33.1218,,
798,4.619055,34.5717,,
799,4.62641,34.8014,,
800,4.640236,32.3607,,
801,4.599595,34.4847,,
802,4.599939,32.3945,,
803,4.611672,32.1658,,
804,4.586224,31.7128,,
805,4.56072,34.2169,,
806,4.551148,33.8837,,
807,4.540391,32.711,,
808,4.51881,31.9336,,
809,4.502955,31.6075,,
810,4.508796,31.9424,,
811,4.52763,33.6877,,
812,4.498005,33.1364,,
813,4.465246,32.2073,,
814,4.449477,30.1539,,
815,4.450978,31.2655,,
816,4.427299,31.288,,
817,4.418604,28.988,,
818,4.41012,30.8189,,
819,4.39682,30.5682,,
820,4.390836,30.5992,,
821,4.36515,32.2212,,
822,4.355031,33.9729,,
823,4.347759,33.6311,,
824,4.338096,36.1721,,
825,4.325821,34.7195,,
826,4.313468,33.1126,,
827,4.310188,34.8181,,
828,4.291514,33.7536,,
829,4.272781,34.1293,,
830,4.271402,34.5767,,
831,4.261527,34.6253,,
832,4.248045,31.489,,
833,4.240263,31.0168,,
834,4.228833,31.4735,,
835,4.22283,31.5391,,
836,4.199303,30.072,,
837,4.185972,29.7519,,
838,4.190406,30.5099,,
839,4.173041,30.3753,,
840,4.164798,31.9744,,
841,4.153692,31.2739,,
842,4.128044,32.2582,,
843,4.120413,31.0726,,
844,4.105694,30.8702,,
845,4.09722,31.0131,,
846,4.11172,31.5381,,
847,4.094493,30.3424,,
848,4.090578,31.586,,
849,4.07181,29.3503,,
850,4.066195,30.2783,,
851,4.069176,30.4807,,
852,4.044663,28.8066,,
853,4.013787,29.5731,,
854,4.010169,31.1256,,
855,3.992945,30.60953,,
856,3.993569,30.8216,,
857,3.983968,31.7875,,
858,3.981799,32.0866,,
859,3.965928,31.5742,,
860,3.945349,31.5929,,
861,3.941791,30.9475,,
862,3.935759,31.8276,,
863,3.918191,30.9191,,
864,3.901471,30.2193,,
865,3.895617,30.7772,,
866,3.880834,29.4015,,
867,3.870722,28.6539,,
868,3.861813,27.2006,,
869,3.848927,27.3119,,
870,3.835568,28.9971,,
871,3.834565,28.6303,,
872,3.827106,27.9452,,
873,3.807013,27.0918,,
874,3.798038,26.7719,,
875,3.793012,28.5307,,
876,3.773112,28.9164,,
877,3.763215,27.98622,,
878,3.75726,26.1427,,
879,3.744791,27.6107,,
880,3.721685,27.9311,,
881,3.708904,27.7193,,
882,3.714142,26.7461,,
883,3.697207,28.8615,,
884,3.684859,27.349,,
885,3.67514,27.4839,,
886,3.667424,27.4599,,
887,3.663633,29.1499,,
888,3.650207,28.8488,,
889,3.634126,29.0347,,
890,3.615369,28.02,,
891,3.612577,29.1932,,
892,3.613,26.5053,,
893,3.604285,28.0356,,
894,3.591795,29.0712,,
895,3.566725,26.6718,,
896,3.553908,27.8309,,
897,3.550428,30.4586,,
898,3.546798,29.2282,,
899,3.537278,29.8096,,
900,3.519184,30.0489,,
901,3.502519,29.0164,,
902,3.491096,31.8329,,
903,3.473088,30.1376,,
904,3.46115,29.9196,,
905,3.454227,29.8328,,
906,3.447484,29.8276,,
907,3.436417,32.24066,,
908,3.435582,32.5663,,
909,3.432052,34.0608,,
910,3.424767,35.8013,,
911,3.405894,35.6943,,
912,3.390711,35.0643,,
913,3.382512,34.4426,,
914,3.377822,34.9086,,
915,3.36913,35.7023,,
916,3.359024,35.9745,,
917,3.335672,35.4397,,
918,3.311863,35.2229,,
919,3.303109,36.6766,,
920,3.291139,34.85728,,
921,3.298273,34.6122,,
922,3.276726,37.6264,,
923,3.252543,37.0248,,
924,3.24082,38.5369,,
925,3.221409,38.1184,,
926,3.21219,37.3334,,
927,3.209418,35.2786,,
928,3.197777,34.7578,,
929,3.187966,35.1582,,
930,3.185212,35.1098,,
931,3.151414,35.2414,,
932,3.126947,34.5146,,
933,3.119075,35.0925,,
934,3.085906,36.1418,,
935,3.113641,34.8788,,
936,3.119844,35.3852,,
937,3.102992,34.6678,,
938,3.075213,36.5953,,
939,3.03895,37.7338,,
940,3.041141,36.1906,,
941,3.03855,38.5218,,
942,3.019566,37.7277,,
943,3.007935,37.6936,,
944,3.007567,37.3221,,
945,3.00643,36.9109,,
946,3.002007,35.7485,,
947,2.987339,36.7412,,
948,2.968142,36.7298,,
949,2.955293,35.1317,,
950,2.940503,35.0269,,
951,2.929877,35.5951,,
952,2.922512,34.1523,,
953,2.905904,34.159,,
954,2.88626,33.7294,,
955,2.887499,32.819,,
956,2.884202,33.5086,,
957,2.883792,34.1229,,
958,2.880051,34.2319,,
959,2.866535,33.123,,
960,2.843244,32.7202,,
961,2.833231,31.7147,,
962,2.812399,32.7796,,
963,2.799174,32.8071,,
964,2.796216,31.9464,,
965,2.79121,33.39345,,
966,2.73859,33.4205,,
967,2.716984,33.2942,,
968,2.712655,35.171,,
969,2.638227,36.1986,,
970,2.684187,33.2385,,
971,2.701217,34.9286,,
972,2.733308,35.5369,,
973,2.788196,35.2914,,
974,2.734091,37.5105,,
975,2.68702,38.1352,,
976,2.664036,36.7028,,
977,2.656052,35.9792,,
978,2.647988,32.84343,,
979,2.638106,34.0851,,
980,2.611756,36.7131,,
981,2.605,33.6017,,
982,2.58459,34.5374,,
983,2.571948,33.6492,,
984,2.57,33.3924,,
985,2.57236,33.7925,,
986,2.549366,33.7805,,
987,2.545369,34.9661,,
988,2.547583,36.3016,,
989,2.526911,34.2785,,
990,2.502797,35.2913,,
991,2.490944,36.9901,,
992,2.500727,37.5023,,
993,2.522806,35.1046,,
994,2.500505,36.0214,,
995,2.431431,35.3386,,
996,2.441341,33.1857,,
997,2.438523,32.1905,,
998,2.46171,31.9954,,
999,2.458114,28.577,,
1000,2.414463,27.2511,,