File: PMMA/Calibration_Data/TIFP/TIFP_TGA_N2_10K_9.csv
Time,Temperature,Mass fraction
[s],[K],[mg]
0,300.147,5.7491
3,300.148,5.7491
6,300.149,5.7484
9,300.149,5.7477
12,300.153,5.7492
15,300.16,5.749
18,300.177,5.7492
21,300.19,5.7492
24,300.22,5.7497
27,300.259,5.7499
30,300.309,5.7503
33,300.367,5.7509
36,300.443,5.7502
39,300.534,5.7514
42,300.643,5.7521
45,300.768,5.7504
48,300.91,5.7489
51,301.075,5.7495
54,301.26,5.7512
57,301.465,5.7522
60,301.697,5.7537
63,301.95,5.7522
66,302.227,5.7514
69,302.528,5.752
72,302.855,5.7514
75,303.205,5.7518
78,303.579,5.7504
81,303.981,5.7496
84,304.407,5.7515
87,304.857,5.7528
90,305.332,5.7532
93,305.834,5.753
96,306.348,5.7539
99,306.892,5.7541
102,307.452,5.7539
105,308.039,5.7524
108,308.642,5.7531
111,309.261,5.7535
114,309.899,5.7529
117,310.549,5.7524
120,311.218,5.7542
123,311.897,5.7537
126,312.589,5.7538
129,313.294,5.754
132,314.005,5.7551
135,314.728,5.7556
138,315.454,5.7543
141,316.19,5.7558
144,316.928,5.755
147,317.672,5.7545
150,318.42,5.7554
153,319.167,5.7562
156,319.915,5.7559
159,320.665,5.7566
162,321.417,5.7566
165,322.161,5.757
168,322.906,5.7561
171,323.65,5.7562
174,324.388,5.756
177,325.121,5.7553
180,325.849,5.7553
183,326.572,5.755
186,327.289,5.755
189,328.001,5.7563
192,328.705,5.7563
195,329.407,5.755
198,330.092,5.755
201,330.779,5.7563
204,331.452,5.7577
207,332.123,5.7577
210,332.786,5.7563
213,333.44,5.7563
216,334.083,5.7563
219,334.727,5.7563
222,335.357,5.7563
225,335.981,5.7563
228,336.6,5.7573
231,337.21,5.7573
234,337.812,5.7587
237,338.414,5.7573
240,339.005,5.7573
243,339.591,5.7573
246,340.166,5.756
249,340.74,5.7573
252,341.306,5.7587
255,341.869,5.7587
258,342.428,5.7573
261,342.979,5.7577
264,343.53,5.7587
267,344.072,5.7587
270,344.61,5.7597
273,345.146,5.7614
276,345.678,5.761
279,346.206,5.76
282,346.73,5.76
285,347.252,5.76
288,347.773,5.76
291,348.291,5.76
294,348.807,5.7614
297,349.317,5.76
300,349.83,5.7604
303,350.341,5.7597
306,350.85,5.7597
309,351.351,5.76
312,351.859,5.761
315,352.363,5.7624
318,352.866,5.761
321,353.37,5.761
324,353.869,5.761
327,354.372,5.761
330,354.868,5.761
333,355.37,5.761
336,355.866,5.7624
339,356.367,5.762
342,356.865,5.763
345,357.361,5.763
348,357.856,5.7624
351,358.355,5.7637
354,358.852,5.7634
357,359.348,5.7637
360,359.846,5.7637
363,360.344,5.7637
366,360.84,5.7637
369,361.339,5.7637
372,361.833,5.7629
375,362.327,5.7623
378,362.824,5.7636
381,363.321,5.7636
384,363.819,5.7636
387,364.316,5.765
390,364.811,5.765
393,365.303,5.7651
396,365.802,5.7637
399,366.298,5.7637
402,366.794,5.7637
405,367.287,5.7644
408,367.784,5.7637
411,368.279,5.7637
414,368.778,5.7624
417,369.274,5.7637
420,369.767,5.7627
423,370.263,5.7637
426,370.757,5.7637
429,371.252,5.7637
432,371.746,5.7651
435,372.242,5.7661
438,372.74,5.7664
441,373.231,5.7651
444,373.73,5.7651
447,374.223,5.7664
450,374.714,5.7651
453,375.21,5.7641
456,375.708,5.7637
459,376.199,5.7642
462,376.693,5.7653
465,377.188,5.7653
468,377.685,5.7653
471,378.177,5.7639
474,378.676,5.7626
477,379.171,5.7639
480,379.661,5.7649
483,380.158,5.7653
486,380.652,5.7653
489,381.149,5.766
492,381.643,5.7653
495,382.14,5.7653
498,382.634,5.766
501,383.129,5.7653
504,383.628,5.7653
507,384.123,5.7653
510,384.619,5.7646
513,385.116,5.7653
516,385.614,5.7639
519,386.11,5.7636
522,386.61,5.7633
525,387.105,5.7644
528,387.602,5.7657
531,388.103,5.7647
534,388.602,5.7657
537,389.104,5.7657
540,389.602,5.7644
543,390.1,5.7657
546,390.599,5.7671
549,391.099,5.7661
552,391.599,5.7671
555,392.099,5.7671
558,392.602,5.7657
561,393.105,5.7657
564,393.608,5.7657
567,394.108,5.7667
570,394.61,5.7671
573,395.111,5.7671
576,395.617,5.7671
579,396.119,5.7667
582,396.625,5.7671
585,397.127,5.7684
588,397.627,5.7684
591,398.135,5.7684
594,398.638,5.7684
597,399.142,5.7671
600,399.649,5.7664
603,400.153,5.7671
606,400.656,5.7657
609,401.16,5.7664
612,401.668,5.7657
615,402.173,5.7657
618,402.679,5.7644
621,403.184,5.7644
624,403.691,5.7665
627,404.197,5.7667
630,404.702,5.7674
633,405.208,5.7674
636,405.715,5.7661
639,406.219,5.7667
642,406.726,5.7661
645,407.235,5.7654
648,407.74,5.7647
651,408.247,5.7647
654,408.752,5.7647
657,409.258,5.7647
660,409.765,5.7647
663,410.272,5.7657
666,410.777,5.7647
669,411.282,5.7661
672,411.789,5.7654
675,412.294,5.7661
678,412.802,5.7671
681,413.306,5.7661
684,413.814,5.7647
687,414.318,5.7647
690,414.824,5.7634
693,415.329,5.7644
696,415.836,5.7634
699,416.341,5.7644
702,416.845,5.7634
705,417.349,5.7634
708,417.858,5.762
711,418.362,5.762
714,418.868,5.7624
717,419.368,5.762
720,419.874,5.762
723,420.378,5.763
726,420.882,5.762
729,421.387,5.761
732,421.89,5.7607
735,422.396,5.7607
738,422.897,5.7607
741,423.401,5.7607
744,423.903,5.7594
747,424.405,5.7594
750,424.909,5.758
753,425.406,5.758
756,425.91,5.7594
759,426.41,5.7594
762,426.912,5.758
765,427.415,5.7573
768,427.914,5.7567
771,428.416,5.7567
774,428.918,5.756
777,429.415,5.756
780,429.917,5.7547
783,430.419,5.7537
786,430.917,5.7523
789,431.42,5.7513
792,431.919,5.751
795,432.42,5.751
798,432.92,5.7523
801,433.416,5.7523
804,433.919,5.7523
807,434.417,5.751
810,434.919,5.7483
813,435.419,5.7496
816,435.919,5.7486
819,436.419,5.7486
822,436.916,5.7496
825,437.418,5.7496
828,437.916,5.749
831,438.414,5.7496
834,438.91,5.7486
837,439.412,5.7455
840,439.911,5.7442
843,440.41,5.7438
846,440.911,5.7415
849,441.41,5.7411
852,441.908,5.7401
855,442.408,5.7388
858,442.904,5.7388
861,443.405,5.7374
864,443.904,5.7374
867,444.398,5.7364
870,444.896,5.7364
873,445.396,5.7348
876,445.893,5.7331
879,446.395,5.7307
882,446.893,5.7287
885,447.39,5.7267
888,447.89,5.7254
891,448.387,5.724
894,448.886,5.724
897,449.385,5.7217
900,449.881,5.7217
903,450.38,5.7203
906,450.878,5.719
909,451.376,5.7187
912,451.873,5.716
915,452.373,5.7133
918,452.872,5.713
921,453.37,5.711
924,453.866,5.7093
927,454.366,5.7079
930,454.866,5.7066
933,455.365,5.7045
936,455.864,5.7004
939,456.363,5.6957
942,456.86,5.6957
945,457.358,5.6957
948,457.857,5.6947
951,458.351,5.6931
954,458.85,5.6904
957,459.349,5.689
960,459.845,5.6875
963,460.344,5.6844
966,460.845,5.683
969,461.343,5.681
972,461.842,5.6768
975,462.339,5.6755
978,462.836,5.6742
981,463.334,5.6726
984,463.833,5.6719
987,464.332,5.6699
990,464.83,5.6685
993,465.329,5.665
996,465.827,5.663
999,466.326,5.6616
1002,466.824,5.6602
1005,467.323,5.6588
1008,467.821,5.6575
1011,468.32,5.6562
1014,468.82,5.6519
1017,469.318,5.6492
1020,469.814,5.6479
1023,470.314,5.6479
1026,470.812,5.6452
1029,471.313,5.6439
1032,471.809,5.6425
1035,472.309,5.6415
1038,472.806,5.6398
1041,473.306,5.6379
1044,473.803,5.6356
1047,474.302,5.6339
1050,474.8,5.6321
1053,475.301,5.6301
1056,475.799,5.6284
1059,476.299,5.6264
1062,476.796,5.6261
1065,477.295,5.6261
1068,477.792,5.6245
1071,478.287,5.6231
1074,478.788,5.6217
1077,479.286,5.6204
1080,479.786,5.6177
1083,480.279,5.6164
1086,480.78,5.6137
1089,481.28,5.6123
1092,481.776,5.611
1095,482.275,5.611
1098,482.772,5.6097
1101,483.27,5.6083
1104,483.768,5.6063
1107,484.265,5.6056
1110,484.763,5.6043
1113,485.26,5.603
1116,485.758,5.6014
1119,486.255,5.5999
1122,486.753,5.5976
1125,487.251,5.5976
1128,487.752,5.5973
1131,488.248,5.5946
1134,488.745,5.5932
1137,489.243,5.5932
1140,489.74,5.5919
1143,490.236,5.5922
1146,490.738,5.5905
1149,491.233,5.5892
1152,491.729,5.5892
1155,492.227,5.5892
1158,492.726,5.5892
1161,493.222,5.5892
1164,493.722,5.5879
1167,494.221,5.5865
1170,494.716,5.5865
1173,495.217,5.5865
1176,495.714,5.5862
1179,496.213,5.5848
1182,496.714,5.5848
1185,497.21,5.5848
1188,497.71,5.5848
1191,498.21,5.5838
1194,498.708,5.5835
1197,499.207,5.5835
1200,499.706,5.5835
1203,500.202,5.5822
1206,500.703,5.5822
1209,501.203,5.5808
1212,501.702,5.5808
1215,502.201,5.5808
1218,502.699,5.5808
1221,503.198,5.5808
1224,503.697,5.5812
1227,504.197,5.5808
1230,504.696,5.5822
1233,505.194,5.5822
1236,505.695,5.5808
1239,506.191,5.5795
1242,506.693,5.5781
1245,507.192,5.5775
1248,507.692,5.5771
1251,508.191,5.5786
1254,508.694,5.5772
1257,509.194,5.5772
1260,509.694,5.5772
1263,510.191,5.5759
1266,510.69,5.5759
1269,511.192,5.5759
1272,511.691,5.5752
1275,512.19,5.5752
1278,512.691,5.5759
1281,513.189,5.5752
1284,513.689,5.5752
1287,514.188,5.5749
1290,514.687,5.5749
1293,515.185,5.5749
1296,515.687,5.5746
1299,516.187,5.5736
1302,516.686,5.5736
1305,517.184,5.5736
1308,517.684,5.5722
1311,518.181,5.5732
1314,518.685,5.5719
1317,519.181,5.5705
1320,519.682,5.5705
1323,520.181,5.5705
1326,520.68,5.5705
1329,521.18,5.5692
1332,521.678,5.5689
1335,522.179,5.5675
1338,522.678,5.5675
1341,523.178,5.5675
1344,523.677,5.5675
1347,524.177,5.5675
1350,524.677,5.5675
1353,525.174,5.5675
1356,525.675,5.5668
1359,526.174,5.5668
1362,526.672,5.5662
1365,527.172,5.5658
1368,527.671,5.5635
1371,528.172,5.5635
1374,528.671,5.5635
1377,529.17,5.5632
1380,529.671,5.5622
1383,530.169,5.5622
1386,530.668,5.5622
1389,531.169,5.5622
1392,531.667,5.5595
1395,532.167,5.5595
1398,532.666,5.5581
1401,533.163,5.5581
1404,533.661,5.5568
1407,534.159,5.5568
1410,534.659,5.5568
1413,535.161,5.5554
1416,535.657,5.5541
1419,536.156,5.5528
1422,536.656,5.5514
1425,537.154,5.5514
1428,537.655,5.5514
1431,538.152,5.5504
1434,538.65,5.5487
1437,539.151,5.5474
1440,539.651,5.5481
1443,540.151,5.5474
1446,540.648,5.5474
1449,541.15,5.5474
1452,541.649,5.5446
1455,542.148,5.5433
1458,542.649,5.5419
1461,543.147,5.5406
1464,543.649,5.5406
1467,544.15,5.5392
1470,544.65,5.5379
1473,545.149,5.5352
1476,545.65,5.5352
1479,546.15,5.5333
1482,546.652,5.5315
1485,547.151,5.5315
1488,547.651,5.5315
1491,548.149,5.5288
1494,548.651,5.5288
1497,549.151,5.5274
1500,549.649,5.526
1503,550.148,5.5245
1506,550.647,5.5223
1509,551.151,5.5217
1512,551.649,5.5207
1515,552.15,5.52
1518,552.648,5.5175
1521,553.148,5.5149
1524,553.646,5.5133
1527,554.148,5.5116
1530,554.645,5.5092
1533,555.145,5.5078
1536,555.645,5.5065
1539,556.145,5.505
1542,556.642,5.502
1545,557.142,5.5004
1548,557.643,5.4982
1551,558.144,5.4962
1554,558.642,5.4932
1557,559.14,5.4916
1560,559.642,5.4889
1563,560.143,5.4864
1566,560.641,5.4845
1569,561.139,5.4831
1572,561.636,5.4818
1575,562.137,5.4795
1578,562.637,5.4773
1581,563.134,5.4739
1584,563.633,5.4711
1587,564.133,5.4682
1590,564.63,5.4651
1593,565.132,5.4642
1596,565.628,5.4609
1599,566.126,5.4584
1602,566.628,5.4566
1605,567.126,5.4543
1608,567.626,5.4506
1611,568.123,5.4466
1614,568.623,5.4434
1617,569.122,5.4407
1620,569.619,5.4368
1623,570.121,5.4335
1626,570.619,5.4311
1629,571.115,5.4289
1632,571.616,5.4257
1635,572.114,5.4231
1638,572.612,5.4187
1641,573.113,5.4152
1644,573.61,5.4118
1647,574.109,5.4097
1650,574.607,5.4062
1653,575.107,5.4014
1656,575.607,5.3979
1659,576.107,5.3941
1662,576.607,5.3911
1665,577.108,5.3896
1668,577.607,5.3857
1671,578.105,5.3819
1674,578.602,5.3787
1677,579.103,5.3759
1680,579.603,5.3723
1683,580.103,5.3681
1686,580.604,5.363
1689,581.101,5.3597
1692,581.602,5.3554
1695,582.102,5.3528
1698,582.6,5.3472
1701,583.1,5.3429
1704,583.6,5.3374
1707,584.1,5.3332
1710,584.598,5.3287
1713,585.099,5.3256
1716,585.599,5.322
1719,586.099,5.3186
1722,586.598,5.3149
1725,587.099,5.3096
1728,587.598,5.3052
1731,588.098,5.3019
1734,588.595,5.298
1737,589.098,5.2923
1740,589.596,5.2875
1743,590.096,5.2818
1746,590.596,5.2774
1749,591.098,5.272
1752,591.597,5.2668
1755,592.098,5.2603
1758,592.597,5.2544
1761,593.097,5.2495
1764,593.597,5.2444
1767,594.096,5.2377
1770,594.595,5.2309
1773,595.094,5.2257
1776,595.594,5.2192
1779,596.093,5.2126
1782,596.593,5.2056
1785,597.091,5.1997
1788,597.593,5.1918
1791,598.093,5.186
1794,598.589,5.1796
1797,599.09,5.1712
1800,599.587,5.1623
1803,600.089,5.1553
1806,600.588,5.1474
1809,601.088,5.1387
1812,601.588,5.1292
1815,602.085,5.1198
1818,602.586,5.1105
1821,603.082,5.1012
1824,603.582,5.0909
1827,604.083,5.0836
1830,604.581,5.0729
1833,605.079,5.0623
1836,605.579,5.0504
1839,606.078,5.0402
1842,606.574,5.0273
1845,607.076,5.0158
1848,607.573,5.0031
1851,608.072,4.9916
1854,608.573,4.9791
1857,609.069,4.967
1860,609.569,4.9522
1863,610.067,4.9376
1866,610.566,4.9233
1869,611.068,4.9085
1872,611.566,4.894
1875,612.063,4.8784
1878,612.564,4.8627
1881,613.064,4.8451
1884,613.564,4.8275
1887,614.059,4.8105
1890,614.559,4.7938
1893,615.06,4.7757
1896,615.56,4.7566
1899,616.059,4.7389
1902,616.562,4.718
1905,617.06,4.6988
1908,617.56,4.6764
1911,618.062,4.6556
1914,618.56,4.6342
1917,619.061,4.611
1920,619.562,4.5868
1923,620.06,4.5647
1926,620.564,4.5416
1929,621.062,4.516
1932,621.561,4.4891
1935,622.061,4.4648
1938,622.561,4.4379
1941,623.061,4.4101
1944,623.562,4.382
1947,624.061,4.3541
1950,624.56,4.3257
1953,625.063,4.2964
1956,625.563,4.2649
1959,626.06,4.2345
1962,626.561,4.2027
1965,627.061,4.1702
1968,627.559,4.1358
1971,628.059,4.103
1974,628.559,4.0686
1977,629.058,4.033
1980,629.559,3.9958
1983,630.057,3.9612
1986,630.56,3.924
1989,631.057,3.8863
1992,631.554,3.8462
1995,632.053,3.8091
1998,632.548,3.7698
2001,633.046,3.7291
2004,633.543,3.6856
2007,634.042,3.6453
2010,634.536,3.6044
2013,635.032,3.5613
2016,635.529,3.5169
2019,636.024,3.4752
2022,636.516,3.4328
2025,637.013,3.3897
2028,637.504,3.3447
2031,638.002,3.3035
2034,638.498,3.2609
2037,638.99,3.2158
2040,639.484,3.1715
2043,639.981,3.1294
2046,640.476,3.0864
2049,640.973,3.0433
2052,641.467,2.9994
2055,641.972,2.9585
2058,642.471,2.9164
2061,642.971,2.8717
2064,643.479,2.8242
2067,643.979,2.7788
2070,644.482,2.734
2073,644.983,2.6868
2076,645.486,2.6385
2079,645.984,2.5939
2082,646.488,2.5484
2085,646.985,2.5013
2088,647.478,2.4536
2091,647.984,2.4087
2094,648.479,2.3626
2097,648.975,2.3162
2100,649.474,2.269
2103,649.976,2.2255
2106,650.476,2.1818
2109,650.979,2.1335
2112,651.479,2.0851
2115,651.98,2.0392
2118,652.48,1.9929
2121,652.978,1.9473
2124,653.479,1.8998
2127,653.976,1.8545
2130,654.479,1.8094
2133,654.978,1.7656
2136,655.481,1.7194
2139,655.978,1.678
2142,656.48,1.6363
2145,656.978,1.5928
2148,657.481,1.547
2151,657.981,1.5043
2154,658.48,1.4619
2157,658.982,1.4193
2160,659.48,1.3753
2163,659.98,1.3337
2166,660.481,1.2925
2169,660.976,1.2503
2172,661.478,1.2122
2175,661.976,1.1745
2178,662.475,1.1336
2181,662.975,1.0976
2184,663.475,1.0611
2187,663.973,1.0286
2190,664.474,0.9954
2193,664.971,0.9609
2196,665.469,0.9282
2199,665.969,0.8985
2202,666.466,0.8676
2205,666.964,0.8377
2208,667.466,0.8094
2211,667.961,0.7819
2214,668.462,0.7557
2217,668.962,0.7318
2220,669.461,0.7081
2223,669.962,0.6851
2226,670.461,0.6624
2229,670.961,0.6407
2232,671.462,0.6189
2235,671.963,0.5973
2238,672.462,0.5776
2241,672.962,0.5576
2244,673.464,0.5383
2247,673.965,0.5202
2250,674.465,0.5037
2253,674.967,0.4864
2256,675.469,0.4708
2259,675.966,0.4587
2262,676.47,0.4453
2265,676.968,0.4307
2268,677.47,0.4176
2271,677.969,0.4051
2274,678.469,0.3933
2277,678.967,0.3817
2280,679.469,0.3689
2283,679.971,0.3571
2286,680.47,0.3467
2289,680.97,0.3378
2292,681.471,0.3288
2295,681.971,0.3205
2298,682.471,0.3113
2301,682.972,0.3046
2304,683.47,0.2978
2307,683.969,0.29
2310,684.468,0.2828
2313,684.97,0.2773
2316,685.469,0.2717
2319,685.971,0.2627
2322,686.473,0.2527
2325,686.971,0.249
2328,687.474,0.2463
2331,687.97,0.2416
2334,688.472,0.237
2337,688.972,0.2332
2340,689.47,0.2287
2343,689.971,0.2262
2346,690.47,0.2217
2349,690.969,0.2174
2352,691.469,0.2122
2355,691.97,0.2091
2358,692.469,0.2056
2361,692.969,0.2034
2364,693.47,0.2011
2367,693.97,0.1998
2370,694.465,0.1981
2373,694.965,0.1962
2376,695.464,0.1949
2379,695.963,0.1915
2382,696.461,0.1868
2385,696.96,0.1849
2388,697.458,0.1825
2391,697.956,0.181
2394,698.456,0.1794
2397,698.953,0.1774
2400,699.448,0.1768
2403,699.947,0.1754
2406,700.446,0.1754
2409,700.943,0.1747
2412,701.441,0.1727
2415,701.938,0.1705
2418,702.435,0.168
2421,702.932,0.1662
2424,703.43,0.1649
2427,703.926,0.1649
2430,704.426,0.1649
2433,704.924,0.1636
2436,705.422,0.1622
2439,705.921,0.1609
2442,706.417,0.1609
2445,706.917,0.1599
2448,707.414,0.1585
2451,707.912,0.1585
2454,708.41,0.1585
2457,708.908,0.1585
2460,709.406,0.1572
2463,709.908,0.1568
2466,710.406,0.1568
2469,710.906,0.1568
2472,711.407,0.1568
2475,711.906,0.1568
2478,712.404,0.1568
2481,712.904,0.1568
2484,713.402,0.1568
2487,713.9,0.1558
2490,714.399,0.1558
2493,714.9,0.1558
2496,715.398,0.1558
2499,715.899,0.1572
2502,716.396,0.1572
2505,716.895,0.1555
2508,717.395,0.1545
2511,717.894,0.1545
2514,718.394,0.1565
2517,718.89,0.1585
2520,719.388,0.1585
2523,719.885,0.1585
2526,720.386,0.1585
2529,720.882,0.1585
2532,721.381,0.1572
2535,721.879,0.1572
2538,722.379,0.1562
2541,722.878,0.1558
2544,723.378,0.1558
2547,723.877,0.1572
2550,724.377,0.1558
2553,724.876,0.1558
2556,725.373,0.1572
2559,725.875,0.1558
2562,726.373,0.1558
2565,726.874,0.1558
2568,727.375,0.1558
2571,727.873,0.1545
2574,728.373,0.1545
2577,728.874,0.1545
2580,729.374,0.1545
2583,729.874,0.1545
2586,730.373,0.1545
2589,730.875,0.1545
2592,731.375,0.1545
2595,731.876,0.1545
2598,732.373,0.1558
2601,732.876,0.1558
2604,733.375,0.1545
2607,733.875,0.1545
2610,734.375,0.1545
2613,734.874,0.1555
2616,735.373,0.1555
2619,735.874,0.1545
2622,736.375,0.1545
2625,736.873,0.1545
2628,737.373,0.1545
2631,737.872,0.1568
2634,738.372,0.1568
2637,738.868,0.1565
2640,739.37,0.1555
2643,739.87,0.1555
2646,740.369,0.1545
2649,740.87,0.1532
2652,741.369,0.1532
2655,741.867,0.1532
2658,742.367,0.1545
2661,742.867,0.1558
2664,743.367,0.1558
2667,743.866,0.1545
2670,744.368,0.1532
2673,744.864,0.1532
2676,745.368,0.1545
2679,745.866,0.1545
2682,746.367,0.1545
2685,746.866,0.1545
2688,747.366,0.1558
2691,747.868,0.1558
2694,748.37,0.1558
2697,748.873,0.1558
2700,749.372,0.1558
2703,749.872,0.1542
2706,750.376,0.1538
2709,750.879,0.1532
2712,751.379,0.1545
2715,751.881,0.1545
2718,752.381,0.1558
2721,752.882,0.1558
2724,753.382,0.1572
2727,753.885,0.1572
2730,754.384,0.1558
2733,754.885,0.1558
2736,755.387,0.1552
2739,755.887,0.1552
2742,756.389,0.1542
2745,756.888,0.1542
2748,757.387,0.1542
2751,757.89,0.1538
2754,758.388,0.1538
2757,758.89,0.1538
2760,759.392,0.1552
2763,759.892,0.1552
2766,760.394,0.1565
2769,760.893,0.1545
2772,761.397,0.1545
2775,761.898,0.1545
2778,762.4,0.1532
2781,762.898,0.1545
2784,763.403,0.1558
2787,763.903,0.1558
2790,764.405,0.1545
2793,764.905,0.1555
2796,765.408,0.1542
2799,765.908,0.1538
2802,766.41,0.1548
2805,766.912,0.1552
2808,767.412,0.1538
2811,767.912,0.1538
2814,768.413,0.1552
2817,768.912,0.1552
2820,769.413,0.1552
2823,769.914,0.1552
2826,770.414,0.1542
2829,770.914,0.1538
2832,771.413,0.1538
2835,771.91,0.1548
2838,772.41,0.1555
2841,772.909,0.1558
2844,773.408,0.1558
2847,773.906,0.1558
2850,774.407,0.1545
2853,774.906,0.1545
2856,775.409,0.1535
2859,775.907,0.1545
2862,776.406,0.1545
2865,776.905,0.1555
2868,777.405,0.1555
2871,777.907,0.1555
2874,778.404,0.1555
2877,778.905,0.1558
2880,779.404,0.1548
2883,779.904,0.1548
2886,780.405,0.1548
2889,780.907,0.1548
2892,781.407,0.1548
2895,781.909,0.1545
2898,782.412,0.1535
2901,782.912,0.1548
2904,783.414,0.1548
2907,783.916,0.1548
2910,784.42,0.1548
2913,784.922,0.1535
2916,785.423,0.1535
2919,785.926,0.1535
2922,786.426,0.1545
2925,786.928,0.1545
2928,787.43,0.1545
2931,787.933,0.1545
2934,788.435,0.1532
2937,788.938,0.1528
2940,789.439,0.1518
2943,789.941,0.1525
2946,790.443,0.1525
2949,790.945,0.1525
2952,791.444,0.1541
2955,791.946,0.1541
2958,792.449,0.1554
2961,792.948,0.1554
2964,793.449,0.1554
2967,793.953,0.1554
2970,794.453,0.1554
2973,794.958,0.1554
2976,795.458,0.1567
2979,795.959,0.1567
2982,796.459,0.1564
2985,796.957,0.1554
2988,797.457,0.1544
2991,797.96,0.1544
2994,798.461,0.1531
2997,798.961,0.1531
3000,799.46,0.1517
3003,799.961,0.1524
3006,800.462,0.1544
3009,800.962,0.156
3012,801.462,0.1549
3015,801.962,0.1549
3018,802.461,0.156
3021,802.963,0.156
3024,803.461,0.156
3027,803.959,0.155
3030,804.461,0.155
3033,804.959,0.155
3036,805.459,0.1543
3039,805.958,0.1533
3042,806.46,0.1546
3045,806.958,0.1549
3048,807.457,0.1573
3051,807.959,0.1573
3054,808.458,0.157
3057,808.959,0.1549
3060,809.457,0.1533
3063,809.961,0.1533
3066,810.463,0.1539
3069,810.963,0.1539
3072,811.463,0.1553
3075,811.962,0.1553
3078,812.465,0.1553
3081,812.967,0.1543
3084,813.469,0.1539
3087,813.968,0.1529
3090,814.471,0.1529
3093,814.971,0.1529
3096,815.471,0.1556
3099,815.971,0.1556
3102,816.472,0.1543
3105,816.972,0.1543
3108,817.474,0.1543
3111,817.974,0.1553
3114,818.477,0.1556
3117,818.98,0.1556
3120,819.477,0.1543
3123,819.98,0.1556
3126,820.484,0.1556
3129,820.983,0.1553
3132,821.484,0.1539
3135,821.985,0.1543