File: PMMA/Calibration_Data/TIFP/TIFP_TGA_O2-21_10K_1.csv
Time,Temperature,Mass
s,K,mg
0,297.6031,4.47709
3,297.69,4.47692
6,297.8684,4.47564
9,298.1558,4.4757
12,298.5239,4.47415
15,298.9183,4.47327
18,299.3325,4.47269
21,299.7456,4.47272
24,300.1735,4.47342
27,300.5929,4.47227
30,301.0276,4.47212
33,301.4497,4.47187
36,301.8983,4.47164
39,302.3317,4.47135
42,302.7687,4.47108
45,303.1958,4.47074
48,303.6379,4.47043
51,304.0724,4.4701
54,304.5283,4.46969
57,304.9727,4.46929
60,305.4102,4.46883
63,305.8751,4.46831
66,306.322,4.46779
69,306.7546,4.46729
72,307.2109,4.46682
75,307.6714,4.46637
78,308.1193,4.46593
81,308.5662,4.46558
84,309.025,4.46534
87,309.5026,4.46516
90,309.95,4.46485
93,310.4093,4.46452
96,310.8682,4.4642
99,311.3146,4.46389
102,311.7989,4.46357
105,312.2576,4.46325
108,312.7038,4.46292
111,313.1836,4.46261
114,313.6289,4.46231
117,314.0906,4.46203
120,314.5601,4.46173
123,315.0233,4.46142
126,315.4895,4.4611
129,315.9602,4.46074
132,316.4219,4.46042
135,316.875,4.46014
138,317.3554,4.45989
141,317.8102,4.45964
144,318.2897,4.45936
147,318.751,4.45907
150,319.2268,4.45884
153,319.6993,4.45866
156,320.1621,4.45846
159,320.6377,4.45821
162,321.0991,4.45795
165,321.5738,4.45764
168,322.0421,4.45735
171,322.5202,4.45712
174,322.9993,4.4569
177,323.4774,4.45677
180,323.9411,4.45664
183,324.4218,4.45648
186,324.8839,4.45636
189,325.3574,4.45618
192,325.8356,4.45603
195,326.3165,4.45588
198,326.7933,4.45562
201,327.2677,4.45539
204,327.732,4.4552
207,328.2132,4.45503
210,328.6843,4.45484
213,329.1827,4.45457
216,329.6494,4.4544
219,330.1259,4.4543
222,330.5997,4.45417
225,331.0868,4.45409
228,331.5559,4.45391
231,332.0421,4.45373
234,332.5199,4.45355
237,332.9991,4.45336
240,333.4718,4.45321
243,333.9553,4.45304
246,334.4452,4.45295
249,334.9172,4.45289
252,335.3996,4.45282
255,335.8798,4.45269
258,336.3629,4.45248
261,336.8378,4.45244
264,337.3287,4.45234
267,337.798,4.45226
270,338.2917,4.45206
273,338.7691,4.45192
276,339.2655,4.45178
279,339.7427,4.45173
282,340.2348,4.45164
285,340.7218,4.45145
288,341.2021,4.45138
291,341.6831,4.45125
294,342.1758,4.45119
297,342.6513,4.45116
300,343.1384,4.4511
303,343.6218,4.451
306,344.1093,4.45092
309,344.5964,4.45087
312,345.0738,4.4508
315,345.5557,4.45078
318,346.0567,4.45059
321,346.5409,4.45048
324,347.0117,4.45037
327,347.5059,4.4503
330,348.0068,4.45023
333,348.4952,4.45016
336,348.9741,4.4501
339,349.4611,4.45002
342,349.9543,4.44988
345,350.4402,4.44986
348,350.9391,4.44983
351,351.4197,4.44979
354,351.9171,4.44967
357,352.409,4.44954
360,352.8951,4.4494
363,353.389,4.44921
366,353.8673,4.44916
369,354.3723,4.44912
372,354.8577,4.44904
375,355.3437,4.44891
378,355.8313,4.44877
381,356.3233,4.44878
384,356.8214,4.44879
387,357.3236,4.44871
390,357.803,4.4487
393,358.2967,4.44864
396,358.7894,4.44864
399,359.2825,4.44848
402,359.7727,4.44839
405,360.2714,4.44825
408,360.7739,4.44822
411,361.2571,4.44815
414,361.7537,4.44806
417,362.2472,4.44794
420,362.7423,4.44784
423,363.2343,4.44777
426,363.7253,4.44767
429,364.2305,4.44767
432,364.7194,4.44771
435,365.2177,4.44764
438,365.7116,4.4476
441,366.2151,4.44749
444,366.7079,4.44756
447,367.2107,4.44748
450,367.7069,4.44747
453,368.2052,4.44737
456,368.7101,4.44739
459,369.1961,4.44729
462,369.6865,4.44712
465,370.1871,4.44702
468,370.684,4.44698
471,371.1894,4.44694
474,371.698,4.44676
477,372.1947,4.44673
480,372.6759,4.44667
483,373.163,4.44664
486,373.673,4.44658
489,374.173,4.4466
492,374.689,4.44644
495,375.179,4.44625
498,375.665,4.44614
501,376.174,4.44617
504,376.666,4.4461
507,377.165,4.44596
510,377.663,4.44593
513,378.179,4.4459
516,378.667,4.44576
519,379.165,4.44571
522,379.657,4.44555
525,380.163,4.44544
528,380.676,4.44536
531,381.167,4.44525
534,381.67,4.44511
537,382.171,4.44501
540,382.681,4.44499
543,383.18,4.4448
546,383.674,4.44466
549,384.185,4.44454
552,384.685,4.44442
555,385.184,4.44441
558,385.692,4.44427
561,386.19,4.44413
564,386.696,4.44413
567,387.189,4.44402
570,387.685,4.44381
573,388.192,4.44377
576,388.697,4.44372
579,389.186,4.4437
582,389.695,4.44355
585,390.216,4.4432
588,390.709,4.44306
591,391.222,4.44295
594,391.702,4.44272
597,392.232,4.44262
600,392.731,4.44252
603,393.23,4.44238
606,393.733,4.44223
609,394.233,4.44224
612,394.747,4.44195
615,395.249,4.44171
618,395.759,4.44151
621,396.265,4.44127
624,396.769,4.44107
627,397.266,4.44097
630,397.771,4.44089
633,398.288,4.44065
636,398.788,4.44058
639,399.3,4.44045
642,399.803,4.44023
645,400.318,4.44004
648,400.816,4.43991
651,401.32,4.43985
654,401.829,4.43953
657,402.323,4.43911
660,402.834,4.43888
663,403.341,4.43882
666,403.853,4.43853
669,404.357,4.43818
672,404.865,4.43776
675,405.376,4.43754
678,405.877,4.43751
681,406.375,4.43734
684,406.891,4.43712
687,407.401,4.43665
690,407.899,4.4363
693,408.409,4.43628
696,408.924,4.43615
699,409.426,4.43592
702,409.939,4.43555
705,410.446,4.43514
708,410.946,4.43467
711,411.465,4.43441
714,411.972,4.43431
717,412.488,4.43414
720,412.985,4.43391
723,413.487,4.43355
726,414.001,4.43316
729,414.506,4.43271
732,415.011,4.43233
735,415.52,4.43199
738,416.025,4.43177
741,416.541,4.43173
744,417.054,4.43159
747,417.556,4.43126
750,418.076,4.43096
753,418.569,4.43051
756,419.088,4.43014
759,419.599,4.42969
762,420.102,4.42925
765,420.607,4.42894
768,421.121,4.42889
771,421.636,4.42886
774,422.132,4.42858
777,422.646,4.42826
780,423.163,4.42783
783,423.672,4.4274
786,424.177,4.42707
789,424.681,4.42662
792,425.183,4.4262
795,425.716,4.42583
798,426.215,4.42538
801,426.723,4.42519
804,427.223,4.42518
807,427.75,4.42505
810,428.263,4.42491
813,428.764,4.42452
816,429.274,4.42411
819,429.788,4.42372
822,430.296,4.42331
825,430.814,4.42288
828,431.321,4.4226
831,431.825,4.42262
834,432.336,4.4225
837,432.844,4.42228
840,433.365,4.42195
843,433.875,4.42154
846,434.382,4.42119
849,434.896,4.42072
852,435.403,4.42032
855,435.921,4.42023
858,436.414,4.42011
861,436.924,4.4201
864,437.445,4.41981
867,437.959,4.4194
870,438.463,4.41911
873,438.965,4.41868
876,439.486,4.41826
879,439.999,4.41792
882,440.509,4.41761
885,441.02,4.41757
888,441.533,4.41752
891,442.039,4.41729
894,442.561,4.41693
897,443.068,4.41656
900,443.578,4.41619
903,444.084,4.41583
906,444.605,4.41556
909,445.108,4.41558
912,445.616,4.41554
915,446.13,4.4153
918,446.648,4.41501
921,447.166,4.41467
924,447.67,4.41425
927,448.188,4.41402
930,448.703,4.41389
933,449.212,4.41389
936,449.727,4.41375
939,450.239,4.4134
942,450.746,4.41309
945,451.252,4.41275
948,451.764,4.41233
951,452.281,4.41211
954,452.796,4.41209
957,453.304,4.412
960,453.824,4.41191
963,454.34,4.41154
966,454.843,4.41116
969,455.357,4.41085
972,455.869,4.41064
975,456.388,4.41068
978,456.905,4.41055
981,457.42,4.41022
984,457.922,4.41
987,458.445,4.40961
990,458.955,4.4092
993,459.466,4.40905
996,459.985,4.40894
999,460.488,4.40901
1002,461.009,4.4088
1005,461.536,4.40842
1008,462.037,4.40816
1011,462.549,4.40779
1014,463.065,4.40764
1017,463.571,4.40777
1020,464.078,4.40767
1023,464.595,4.40735
1026,465.116,4.40707
1029,465.627,4.40673
1032,466.14,4.40649
1035,466.65,4.40655
1038,467.155,4.40652
1041,467.672,4.40625
1044,468.192,4.40602
1047,468.706,4.40571
1050,469.214,4.40545
1053,469.729,4.40557
1056,470.247,4.40559
1059,470.76,4.40531
1062,471.272,4.40509
1065,471.783,4.40468
1068,472.304,4.40463
1071,472.812,4.40482
1074,473.323,4.40466
1077,473.835,4.40437
1080,474.353,4.40414
1083,474.853,4.40387
1086,475.376,4.40373
1089,475.884,4.40382
1092,476.392,4.40372
1095,476.912,4.4034
1098,477.424,4.40319
1101,477.943,4.40284
1104,478.46,4.4028
1107,478.968,4.4029
1110,479.477,4.40265
1113,479.989,4.40234
1116,480.506,4.40205
1119,481.008,4.40184
1122,481.533,4.40177
1125,482.045,4.40186
1128,482.557,4.40162
1131,483.072,4.40124
1134,483.58,4.40108
1137,484.103,4.401
1140,484.617,4.40094
1143,485.135,4.40091
1146,485.652,4.40066
1149,486.154,4.40031
1152,486.672,4.4
1155,487.183,4.39985
1158,487.699,4.39979
1161,488.202,4.39992
1164,488.727,4.39978
1167,489.247,4.39941
1170,489.761,4.39917
1173,490.269,4.39896
1176,490.782,4.39891
1179,491.289,4.39895
1182,491.798,4.39893
1185,492.311,4.3986
1188,492.835,4.39821
1191,493.352,4.39805
1194,493.872,4.398
1197,494.369,4.39803
1200,494.886,4.39801
1203,495.398,4.3979
1206,495.91,4.39755
1209,496.423,4.39717
1212,496.933,4.397
1215,497.446,4.39685
1218,497.961,4.39689
1221,498.482,4.39691
1224,498.989,4.39666
1227,499.5,4.3963
1230,500.022,4.39605
1233,500.53,4.39578
1236,501.042,4.39559
1239,501.547,4.3957
1242,502.067,4.39584
1245,502.585,4.39556
1248,503.097,4.3952
1251,503.618,4.39502
1254,504.119,4.39468
1257,504.641,4.39453
1260,505.142,4.39474
1263,505.66,4.39482
1266,506.168,4.39452
1269,506.69,4.39418
1272,507.199,4.39394
1275,507.709,4.39386
1278,508.23,4.39389
1281,508.746,4.39391
1284,509.258,4.39362
1287,509.769,4.39329
1290,510.279,4.39308
1293,510.796,4.3929
1296,511.303,4.39249
1299,511.824,4.39217
1302,512.337,4.39216
1305,512.846,4.3922
1308,513.366,4.39207
1311,513.879,4.39191
1314,514.392,4.39171
1317,514.909,4.39132
1320,515.413,4.39107
1323,515.925,4.39093
1326,516.432,4.39095
1329,516.952,4.39098
1332,517.472,4.39105
1335,517.975,4.39094
1338,518.486,4.39062
1341,518.997,4.39027
1344,519.511,4.39005
1347,520.023,4.38983
1350,520.539,4.38943
1353,521.053,4.38917
1356,521.557,4.38896
1359,522.069,4.3886
1362,522.594,4.38821
1365,523.105,4.38806
1368,523.611,4.38796
1371,524.126,4.38762
1374,524.646,4.38735
1377,525.151,4.38752
1380,525.659,4.38762
1383,526.167,4.38736
1386,526.689,4.38713
1389,527.202,4.38703
1392,527.705,4.38672
1395,528.23,4.38634
1398,528.73,4.38612
1401,529.251,4.38602
1404,529.761,4.38569
1407,530.273,4.38501
1410,530.786,4.38441
1413,531.298,4.38403
1416,531.818,4.38363
1419,532.323,4.3829
1422,532.833,4.38232
1425,533.351,4.38184
1428,533.856,4.38118
1431,534.372,4.38036
1434,534.882,4.37973
1437,535.397,4.3791
1440,535.918,4.37818
1443,536.429,4.3771
1446,536.943,4.37616
1449,537.455,4.37518
1452,537.969,4.3739
1455,538.476,4.37248
1458,538.999,4.37125
1461,539.51,4.36985
1464,540.022,4.36827
1467,540.536,4.36663
1470,541.052,4.36501
1473,541.569,4.36314
1476,542.083,4.36113
1479,542.594,4.3591
1482,543.106,4.35718
1485,543.62,4.35501
1488,544.136,4.35259
1491,544.654,4.35011
1494,545.162,4.3477
1497,545.668,4.34494
1500,546.191,4.34188
1503,546.709,4.33889
1506,547.22,4.3359
1509,547.733,4.33271
1512,548.242,4.32914
1515,548.763,4.32558
1518,549.278,4.32196
1521,549.797,4.31834
1524,550.309,4.31434
1527,550.826,4.31018
1530,551.345,4.30599
1533,551.856,4.30183
1536,552.372,4.29737
1539,552.886,4.29291
1542,553.401,4.2885
1545,553.915,4.28416
1548,554.434,4.27957
1551,554.954,4.27501
1554,555.458,4.27061
1557,555.98,4.26631
1560,556.497,4.26179
1563,557.015,4.25733
1566,557.526,4.25304
1569,558.038,4.24872
1572,558.551,4.24427
1575,559.068,4.23999
1578,559.581,4.23583
1581,560.098,4.23169
1584,560.605,4.22729
1587,561.121,4.22286
1590,561.651,4.21852
1593,562.163,4.2142
1596,562.675,4.20956
1599,563.197,4.2049
1602,563.71,4.20033
1605,564.222,4.19557
1608,564.74,4.1905
1611,565.25,4.18536
1614,565.774,4.18029
1617,566.28,4.17493
1620,566.809,4.16924
1623,567.319,4.16342
1626,567.837,4.15759
1629,568.342,4.15135
1632,568.868,4.14473
1635,569.376,4.1379
1638,569.895,4.13103
1641,570.413,4.12385
1644,570.921,4.11616
1647,571.441,4.10818
1650,571.959,4.09999
1653,572.479,4.09146
1656,572.992,4.08233
1659,573.511,4.07283
1662,574.025,4.06309
1665,574.536,4.05287
1668,575.052,4.04204
1671,575.566,4.03059
1674,576.088,4.01889
1677,576.608,4.00665
1680,577.129,3.99358
1683,577.651,3.97985
1686,578.169,3.96571
1689,578.687,3.95078
1692,579.199,3.9347
1695,579.719,3.91767
1698,580.24,3.89988
1701,580.757,3.88097
1704,581.279,3.86056
1707,581.799,3.83893
1710,582.323,3.81631
1713,582.842,3.79241
1716,583.368,3.76695
1719,583.881,3.74041
1722,584.401,3.71318
1725,584.926,3.68506
1728,585.451,3.65607
1731,585.974,3.62681
1734,586.505,3.59781
1737,587.029,3.56874
1740,587.555,3.53981
1743,588.087,3.51138
1746,588.613,3.48367
1749,589.135,3.45664
1752,589.666,3.42994
1755,590.195,3.40337
1758,590.71,3.3768
1761,591.237,3.34939
1764,591.765,3.32061
1767,592.278,3.29125
1770,592.808,3.26244
1773,593.333,3.23475
1776,593.86,3.20754
1779,594.388,3.18039
1782,594.904,3.15338
1785,595.426,3.12613
1788,595.953,3.09749
1791,596.476,3.06762
1794,596.996,3.03805
1797,597.521,3.0098
1800,598.038,2.98244
1803,598.548,2.95469
1806,599.065,2.92597
1809,599.587,2.89496
1812,600.109,2.86174
1815,600.625,2.82764
1818,601.15,2.79348
1821,601.659,2.75884
1824,602.188,2.72281
1827,602.704,2.68513
1830,603.222,2.64634
1833,603.759,2.60638
1836,604.28,2.56562
1839,604.803,2.52416
1842,605.337,2.48249
1845,605.861,2.44083
1848,606.39,2.39912
1851,606.91,2.35733
1854,607.441,2.31598
1857,607.973,2.27482
1860,608.497,2.23361
1863,609.032,2.19221
1866,609.557,2.15124
1869,610.085,2.11066
1872,610.614,2.07033
1875,611.138,2.02981
1878,611.672,1.98951
1881,612.199,1.94942
1884,612.734,1.90997
1887,613.267,1.87073
1890,613.804,1.83182
1893,614.333,1.79272
1896,614.866,1.75363
1899,615.401,1.71544
1902,615.924,1.67941
1905,616.448,1.64535
1908,616.979,1.61182
1911,617.503,1.57822
1914,618.028,1.544
1917,618.548,1.5099
1920,619.074,1.47604
1923,619.598,1.4425
1926,620.12,1.40907
1929,620.643,1.37606
1932,621.166,1.34334
1935,621.68,1.31077
1938,622.208,1.27827
1941,622.731,1.24666
1944,623.253,1.21609
1947,623.774,1.18673
1950,624.291,1.1575
1953,624.81,1.12844
1956,625.32,1.09979
1959,625.834,1.07158
1962,626.353,1.04359
1965,626.88,1.01589
1968,627.403,0.98862
1971,627.915,0.9619
1974,628.441,0.93593
1977,628.963,0.91095
1980,629.478,0.887
1983,630,0.86403
1986,630.512,0.84144
1989,631.026,0.81919
1992,631.534,0.79756
1995,632.041,0.7767
1998,632.565,0.75609
2001,633.083,0.7357
2004,633.584,0.71607
2007,634.089,0.69712
2010,634.591,0.67847
2013,635.103,0.65995
2016,635.608,0.64207
2019,636.12,0.62478
2022,636.627,0.60765
2025,637.127,0.59063
2028,637.635,0.57417
2031,638.135,0.55829
2034,638.647,0.54274
2037,639.152,0.52724
2040,639.649,0.51217
2043,640.152,0.49751
2046,640.656,0.48324
2049,641.147,0.46905
2052,641.66,0.45532
2055,642.163,0.44205
2058,642.653,0.42912
2061,643.156,0.41627
2064,643.656,0.40369
2067,644.159,0.39163
2070,644.655,0.37993
2073,645.154,0.36851
2076,645.654,0.35719
2079,646.145,0.34619
2082,646.643,0.33557
2085,647.135,0.32533
2088,647.635,0.31517
2091,648.129,0.30523
2094,648.632,0.29572
2097,649.127,0.28659
2100,649.619,0.27752
2103,650.117,0.26858
2106,650.607,0.26008
2109,651.103,0.25189
2112,651.597,0.24377
2115,652.085,0.2358
2118,652.576,0.22824
2121,653.066,0.22101
2124,653.55,0.21383
2127,654.045,0.20674
2130,654.535,0.20001
2133,655.015,0.19364
2136,655.509,0.18746
2139,655.989,0.18124
2142,656.472,0.17523
2145,656.96,0.16954
2148,657.442,0.16413
2151,657.923,0.15864
2154,658.4,0.15329
2157,658.882,0.1482
2160,659.369,0.14344
2163,659.854,0.13858
2166,660.33,0.13385
2169,660.819,0.12932
2172,661.306,0.12516
2175,661.785,0.12091
2178,662.263,0.11686
2181,662.751,0.11302
2184,663.232,0.10942
2187,663.716,0.10571
2190,664.198,0.10214
2193,664.676,0.09873
2196,665.17,0.0956
2199,665.651,0.09247
2202,666.141,0.08933
2205,666.624,0.08626
2208,667.102,0.08352
2211,667.591,0.08095
2214,668.079,0.07837
2217,668.555,0.07573
2220,669.048,0.07333
2223,669.533,0.0711
2226,670.019,0.06894
2229,670.511,0.06666
2232,670.996,0.06456
2235,671.486,0.06271
2238,671.97,0.06121
2241,672.457,0.05969
2244,672.943,0.05803
2247,673.428,0.05647
2250,673.915,0.05523
2253,674.403,0.054
2256,674.886,0.0526
2259,675.378,0.05142
2262,675.864,0.05056
2265,676.354,0.04984
2268,676.839,0.04914
2271,677.328,0.0483
2274,677.815,0.04746
2277,678.302,0.04716
2280,678.787,0.0469
2283,679.279,0.04656
2286,679.768,0.0462
2289,680.261,0.04606
2292,680.753,0.04588
2295,681.247,0.04553
2298,681.74,0.04518
2301,682.228,0.04506
2304,682.723,0.04499
2307,683.214,0.0447
2310,683.712,0.04429
2313,684.209,0.0441
2316,684.694,0.04401
2319,685.192,0.04387
2322,685.685,0.0435
2325,686.181,0.04321
2328,686.678,0.04303
2331,687.18,0.04301
2334,687.674,0.04281
2337,688.169,0.04241
2340,688.67,0.04215
2343,689.168,0.04239
2346,689.667,0.04262
2349,690.162,0.04248
2352,690.658,0.04219
2355,691.164,0.04205
2358,691.659,0.04212
2361,692.155,0.04219
2364,692.651,0.04224
2367,693.159,0.04205
2370,693.665,0.04202
2373,694.164,0.04191
2376,694.663,0.04173
2379,695.16,0.04173
2382,695.66,0.04187
2385,696.157,0.04197
2388,696.659,0.04187
2391,697.153,0.04151
2394,697.653,0.04134
2397,698.157,0.04151
2400,698.665,0.04183
2403,699.161,0.04178
2406,699.665,0.04142
2409,700.169,0.04113
2412,700.663,0.04131
2415,701.173,0.04154
2418,701.672,0.04141
2421,702.17,0.04114
2424,702.674,0.04104
2427,703.178,0.04106
2430,703.674,0.04124
2433,704.173,0.0413
2436,704.686,0.04109
2439,705.184,0.04104
2442,705.689,0.04104
2445,706.19,0.04109
2448,706.687,0.04108
2451,707.189,0.04104
2454,707.693,0.041
2457,708.198,0.04092
2460,708.697,0.04082
2463,709.199,0.04083
2466,709.703,0.04093
2469,710.203,0.04095
2472,710.706,0.04067
2475,711.204,0.04041
2478,711.709,0.04051
2481,712.213,0.04083
2484,712.714,0.04087
2487,713.222,0.04055
2490,713.723,0.04023
2493,714.225,0.04024
2496,714.724,0.04059
2499,715.227,0.04068
2502,715.736,0.04043
2505,716.227,0.04011
2508,716.739,0.04012
2511,717.239,0.04037
2514,717.741,0.04047
2517,718.24,0.04021
2520,718.745,0.04008
2523,719.246,0.04004
2526,719.754,0.04026
2529,720.25,0.04034
2532,720.752,0.04013
2535,721.254,0.04006
2538,721.757,0.04
2541,722.259,0.04
2544,722.76,0.04
2547,723.267,0.04
2550,723.77,0.03998
2553,724.269,0.03999
2556,724.772,0.03976
2559,725.273,0.03955
2562,725.781,0.03961
2565,726.284,0.03983
2568,726.786,0.03998
2571,727.29,0.03983
2574,727.79,0.03956
2577,728.292,0.0396
2580,728.801,0.0398
2583,729.302,0.03994
2586,729.803,0.03984
2589,730.303,0.03957
2592,730.806,0.03961
2595,731.306,0.03984
2598,731.812,0.03995
2601,732.309,0.0398
2604,732.813,0.03942
2607,733.323,0.03926
2610,733.821,0.03955
2613,734.33,0.0398
2616,734.83,0.03977
2619,735.336,0.03942
2622,735.836,0.03915
2625,736.343,0.03911
2628,736.841,0.03941
2631,737.352,0.03951
2634,737.849,0.03923
2637,738.35,0.0391
2640,738.852,0.03901
2643,739.353,0.0392
2646,739.859,0.0394
2649,740.361,0.0393
2652,740.867,0.03907
2655,741.363,0.03902
2658,741.859,0.03909
2661,742.362,0.03924
2664,742.865,0.0393
2667,743.372,0.03907
2670,743.869,0.03903
2673,744.374,0.03911
2676,744.871,0.0393
2679,745.373,0.03931
2682,745.883,0.03912
2685,746.38,0.03905
2688,746.888,0.039
2691,747.392,0.03887
2694,747.892,0.03884
2697,748.393,0.03892
2700,748.893,0.03896
2703,749.399,0.03899
2706,749.904,0.03887
2709,750.402,0.03883
2712,750.909,0.03887
2715,751.411,0.03895
2718,751.91,0.039
2721,752.412,0.03879
2724,752.918,0.03868
2727,753.42,0.0388
2730,753.921,0.03898
2733,754.419,0.03898
2736,754.918,0.03893
2739,755.426,0.03876
2742,755.929,0.03875
2745,756.428,0.03891
2748,756.93,0.03897
2751,757.432,0.03903
2754,757.935,0.03904
2757,758.44,0.03911
2760,758.944,0.03901
2763,759.442,0.03901
2766,759.942,0.03899
2769,760.445,0.03889
2772,760.944,0.03886
2775,761.445,0.03893
2778,761.957,0.03898
2781,762.451,0.039
2784,762.958,0.03898
2787,763.454,0.03892
2790,763.956,0.039
2793,764.463,0.03898
2796,764.967,0.039
2799,765.465,0.03886
2802,765.962,0.03882
2805,766.469,0.03886
2808,766.969,0.03895
2811,767.469,0.039
2814,767.973,0.03884
2817,768.472,0.03864
2820,768.974,0.03872
2823,769.472,0.0389
2826,769.969,0.03896
2829,770.471,0.03899
2832,770.978,0.03888
2835,771.487,0.03879
2838,771.987,0.0389
2841,772.489,0.03896
2844,772.99,0.03898
2847,773.499,0.0388
2850,773.993,0.03854
2853,774.503,0.03863
2856,774.998,0.03884
2859,775.498,0.03894
2862,776.001,0.03898
2865,776.502,0.03879
2868,777.002,0.03864
2871,777.506,0.03873
2874,778.002,0.0389
2877,778.512,0.03894
2880,779.007,0.03866
2883,779.507,0.03841
2886,780.012,0.03852
2889,780.512,0.03879
2892,781.016,0.03897
2895,781.512,0.03893
2898,782.02,0.0386
2901,782.515,0.03843
2904,783.025,0.03862
2907,783.527,0.03889
2910,784.031,0.03895
2913,784.534,0.03872
2916,785.029,0.03835
2919,785.535,0.03839
2922,786.031,0.03876
2925,786.531,0.03891
2928,787.033,0.03873
2931,787.539,0.03841
2934,788.042,0.03836
2937,788.541,0.03866
2940,789.039,0.0389
2943,789.547,0.03895
2946,790.047,0.03869
2949,790.548,0.0384
2952,791.053,0.03849
2955,791.553,0.03882
2958,792.053,0.03895
2961,792.558,0.03882
2964,793.053,0.03851
2967,793.556,0.03842
2970,794.053,0.03873
2973,794.56,0.03896
2976,795.06,0.03898
2979,795.555,0.03885
2982,796.064,0.03859
2985,796.561,0.03862
2988,797.066,0.03885
2991,797.567,0.03895
2994,798.068,0.03897
2997,798.57,0.03869
3000,799.068,0.03857
3003,799.569,0.03873
3006,800.076,0.03889
3009,800.57,0.03898
3012,801.07,0.03898
3015,801.568,0.03877
3018,802.078,0.03868
3021,802.581,0.03881
3024,803.078,0.03894
3027,803.576,0.03898
3030,804.079,0.0389
3033,804.578,0.03871
3036,805.08,0.03868
3039,805.574,0.03885
3042,806.083,0.03898
3045,806.58,0.03899
3048,807.078,0.03884
3051,807.58,0.03877
3054,808.077,0.03884
3057,808.585,0.03894
3060,809.082,0.03898
3063,809.585,0.03898
3066,810.085,0.03875
3069,810.581,0.03875
3072,811.092,0.03888
3075,811.586,0.03896
3078,812.087,0.039
3081,812.582,0.03887
3084,813.089,0.03868
3087,813.587,0.03873
3090,814.089,0.03891
3093,814.587,0.03896
3096,815.082,0.03899
3099,815.591,0.03898
3102,816.091,0.03897
3105,816.592,0.03899
3108,817.094,0.039
3111,817.59,0.03902
3114,818.093,0.039
3117,818.595,0.03894
3120,819.097,0.0389
3123,819.598,0.0389
3126,820.095,0.03895
3129,820.597,0.03899
3132,821.101,0.03899
3135,821.6,0.03875
3138,822.109,0.0387
3141,822.609,0.03881
3144,823.105,0.03893
3147,823.609,0.039
3150,824.109,0.03899
3153,824.606,0.03899
3156,825.109,0.039
3159,825.605,0.03896
3162,826.113,0.03896
3165,826.61,0.03899
3168,827.116,0.039
3171,827.613,0.03903
3174,828.117,0.03909
3177,828.612,0.03906
3180,829.118,0.03909
3183,829.617,0.039
3186,830.124,0.039
3189,830.621,0.03902
3192,831.118,0.03905
3195,831.62,0.0391
3198,832.117,0.039
3201,832.624,0.03901
3204,833.124,0.03901
3207,833.622,0.039
3210,834.125,0.03908
3213,834.627,0.03913
3216,835.117,0.03911
3219,835.629,0.039
3222,836.12,0.039
3225,836.619,0.039
3228,837.116,0.03911
3231,837.622,0.03934
3234,838.122,0.03934
3237,838.625,0.03913
3240,839.119,0.03905
3243,839.622,0.03902
3246,840.127,0.03929
3249,840.623,0.03952
3252,841.127,0.03939
3255,841.623,0.03912
3258,842.125,0.03904
3261,842.623,0.03902
3264,843.123,0.03928
3267,843.616,0.0397
3270,844.117,0.03989
3273,844.62,0.0398
3276,845.123,0.03947
3279,845.624,0.03913
3282,846.129,0.03926
3285,846.62,0.03957
3288,847.125,0.03975
3291,847.627,0.03948
3294,848.118,0.03917
3297,848.623,0.03905
3300,849.124,0.0392
3303,849.619,0.03958
3306,850.117,0.03984
3309,850.618,0.03994
3312,851.12,0.03968
3315,851.617,0.0393
3318,852.118,0.03916
3321,852.626,0.0394
3324,853.121,0.03977
3327,853.622,0.03992
3330,854.124,0.03998
3333,854.617,0.03985
3336,855.124,0.03952
3339,855.618,0.03949
3342,856.122,0.03969
3345,856.616,0.03991
3348,857.117,0.03997
3351,857.61,0.03999
3354,858.112,0.04
3357,858.615,0.03981
3360,859.118,0.03971
3363,859.615,0.03982
3366,860.119,0.03998
3369,860.612,0.03998
3372,861.113,0.03999
3375,861.613,0.04005
3378,862.109,0.04029
3381,862.612,0.04038
3384,863.108,0.04016
3387,863.609,0.04006
3390,864.115,0.04002
3393,864.606,0.04
3396,865.113,0.04015
3399,865.607,0.04054
3402,866.108,0.04066
3405,866.612,0.0404
3408,867.116,0.04014
3411,867.608,0.04005
3414,868.106,0.04003
3417,868.608,0.04031
3420,869.102,0.04069
3423,869.609,0.04075
3426,870.104,0.04045
3429,870.594,0.04011
3432,871.101,0.04004
3435,871.599,0.04011
3438,872.103,0.04045
3441,872.596,0.04081
3444,873.099,0.04082
3447,873.598,0.04049
3450,874.091,0.04018
3453,874.589,0.04006
3456,875.091,0.04027
3459,875.585,0.04058
3462,876.089,0.04089
3465,876.584,0.04083
3468,877.088,0.04049
3471,877.589,0.04021
3474,878.088,0.04005
3477,878.589,0.04028
3480,879.086,0.04062
3483,879.58,0.04085
3486,880.085,0.04077
3489,880.585,0.04042
3492,881.091,0.04012
3495,881.587,0.03994
3498,882.082,0.04008
3501,882.579,0.04046
3504,883.08,0.04077
3507,883.582,0.04086
3510,884.076,0.04061
3513,884.587,0.0402
3516,885.078,0.04001
3519,885.581,0.04017
3522,886.078,0.04057
3525,886.576,0.04078
3528,887.07,0.04088
3531,887.572,0.04089
3534,888.07,0.04063
3537,888.568,0.04024
3540,889.066,0.04031
3543,889.564,0.0406
3546,890.063,0.0408
3549,890.562,0.04086
3552,891.068,0.04062
3555,891.569,0.0403
3558,892.064,0.04019
3561,892.565,0.04049
3564,893.066,0.04075
3567,893.561,0.04078
3570,894.061,0.04048
3573,894.554,0.04016
3576,895.056,0.03994
3579,895.549,0.03993
3582,896.05,0.04019
3585,896.547,0.04052
3588,897.048,0.04074
3591,897.551,0.04047
3594,898.045,0.0401
3597,898.545,0.03996
3600,899.052,0.03999
3603,899.548,0.04033
3606,900.042,0.04066
3609,900.542,0.04081
3612,901.039,0.04053
3615,901.532,0.04014
3618,902.042,0.04
3621,902.533,0.04018
3624,903.031,0.04053
3627,903.527,0.04077
3630,904.029,0.04086
3633,904.53,0.04083
3636,905.031,0.04051
3639,905.525,0.04011
3642,906.026,0.04019
3645,906.52,0.04048
3648,907.02,0.04079
3651,907.517,0.04086
3654,908.015,0.04089
3657,908.513,0.04077
3660,909.008,0.0405
3663,909.509,0.04053
3666,910.011,0.04072
3669,910.514,0.04084
3672,911.01,0.04088
3675,911.513,0.04089
3678,912.015,0.04065
3681,912.515,0.04039
3684,913.01,0.04042
3687,913.503,0.04069
3690,914,0.04087
3693,914.502,0.04088
3696,915.001,0.04082
3699,915.501,0.04052
3702,915.997,0.04049
3705,916.498,0.04071
3708,916.991,0.0409
3711,917.494,0.04097
3714,917.99,0.041
3717,918.491,0.04083
3720,918.991,0.04058
3723,919.487,0.0407
3726,919.981,0.04085
3729,920.484,0.04095
3732,920.983,0.04099
3735,921.481,0.041
3738,921.979,0.04082
3741,922.478,0.04059
3744,922.976,0.04068
3747,923.473,0.04088
3750,923.967,0.04095
3753,924.473,0.04099
3756,924.969,0.04095
3759,925.464,0.04062
3762,925.962,0.04038
3765,926.455,0.04051
3768,926.956,0.04078
3771,927.457,0.04097
3774,927.955,0.04098
3777,928.456,0.04099
3780,928.941,0.04083
3783,929.447,0.04044
3786,929.938,0.04043
3789,930.437,0.04075
3792,930.932,0.04091
3795,931.434,0.04099
3798,931.926,0.04099
3801,932.428,0.04081
3804,932.929,0.04046
3807,933.431,0.0405
3810,933.934,0.04075
3813,934.424,0.04091
3816,934.914,0.04097
3819,935.412,0.041
3822,935.919,0.04084
3825,936.417,0.04046
3828,936.915,0.04038
3831,937.412,0.04058
3834,937.907,0.04086
3837,938.4,0.04096
3840,938.898,0.041
3843,939.401,0.04093
3846,939.894,0.04059
3849,940.392,0.04042
3852,940.892,0.04061
3855,941.388,0.04089
3858,941.888,0.04096
3861,942.392,0.04099
3864,942.885,0.04086
3867,943.387,0.04053
3870,943.872,0.04034
3873,944.375,0.04065
3876,944.877,0.0409
3879,945.373,0.04097
3882,945.867,0.04099
3885,946.365,0.04098
3888,946.871,0.04076
3891,947.357,0.04067
3894,947.856,0.04082
3897,948.349,0.04098
3900,948.857,0.04098
3903,949.351,0.04099
3906,949.847,0.041
3909,950.344,0.04092
3912,950.842,0.04067
3915,951.341,0.04062
3918,951.838,0.04082
3921,952.337,0.04098
3924,952.83,0.04098
3927,953.327,0.04099
3930,953.826,0.04093
3933,954.32,0.04057
3936,954.816,0.04047
3939,955.318,0.04069
3942,955.813,0.04088
3945,956.309,0.04099
3948,956.81,0.04099
3951,957.308,0.041
3954,957.8,0.04084
3957,958.298,0.04073
3960,958.794,0.04076
3963,959.29,0.0409
3966,959.781,0.04099
3969,960.287,0.04099
3972,960.785,0.041
3975,961.277,0.04087
3978,961.777,0.04049
3981,962.272,0.04047
3984,962.77,0.04076
3987,963.269,0.04092
3990,963.755,0.04099
3993,964.261,0.04099
3996,964.757,0.041
3999,965.258,0.04101
4002,965.758,0.04114
4005,966.255,0.04119
4008,966.747,0.04105
4011,967.25,0.04102
4014,967.742,0.04101
4017,968.24,0.041
4020,968.737,0.041
4023,969.229,0.04108
4026,969.726,0.04103
4029,970.222,0.04105
4032,970.716,0.04101
4035,971.21,0.04101
4038,971.707,0.041
4041,972.205,0.041
4044,972.701,0.04099
4047,973.195,0.04081
4050,973.692,0.04077
4053,974.192,0.04085
4056,974.692,0.04095
4059,975.179,0.041
4062,975.679,0.041
4065,976.17,0.041
4068,976.668,0.041
4071,977.163,0.04081
4074,977.657,0.04057
4077,978.159,0.04057
4080,978.644,0.04081
4083,979.144,0.04097
4086,979.641,0.04098
4089,980.137,0.04099
4092,980.626,0.04097
4095,981.13,0.04067
4098,981.619,0.04043
4101,982.116,0.04052
4104,982.613,0.04079
4107,983.107,0.04097
4110,983.602,0.04098
4113,984.103,0.04099
4116,984.598,0.041
4119,985.089,0.041
4122,985.585,0.0409
4125,986.078,0.04089
4128,986.576,0.04099
4131,987.079,0.04097
4134,987.568,0.04099
4137,988.065,0.04099
4140,988.562,0.04076
4143,989.055,0.04043
4146,989.555,0.04012
4149,990.049,0.0403
4152,990.55,0.0406
4155,991.034,0.04089
4158,991.541,0.04096
4161,992.039,0.04099
4164,992.534,0.0409
4167,993.026,0.04058
4170,993.527,0.0402
4173,994.021,0.04035
4176,994.523,0.04063
4179,995.017,0.0409
4182,995.513,0.04097
4185,995.999,0.04099
4188,996.499,0.041
4191,996.999,0.04089
4194,997.498,0.04054
4197,997.988,0.04019
4200,998.486,0.04023
4203,998.982,0.04055
4206,999.481,0.04084
4209,999.962,0.04095
4212,1000.466,0.04099
4215,1000.962,0.041
4218,1001.457,0.04094
4221,1001.946,0.04065
4224,1002.446,0.04064
4227,1002.938,0.04084
4230,1003.429,0.04095
4233,1003.927,0.041
4236,1004.421,0.041
4239,1004.919,0.041
4242,1005.409,0.041
4245,1005.91,0.04087
4248,1006.402,0.04055
4251,1006.9,0.04042
4254,1007.398,0.04071
4257,1007.885,0.04095
4260,1008.387,0.04098
4263,1008.881,0.04099
4266,1009.371,0.041
4269,1009.864,0.041
4272,1010.364,0.041
4275,1010.857,0.04088
4278,1011.355,0.04057
4281,1011.847,0.04057
4284,1012.34,0.04084
4287,1012.842,0.04095
4290,1013.337,0.041
4293,1013.827,0.041
4296,1014.325,0.041
4299,1014.816,0.041
4302,1015.316,0.04093
4305,1015.813,0.04067
4308,1016.305,0.04058
4311,1016.804,0.0408
4314,1017.291,0.04097
4317,1017.785,0.04098
4320,1018.285,0.04099
4323,1018.782,0.041
4326,1019.263,0.041
4329,1019.769,0.041
4332,1020.262,0.041
4335,1020.752,0.04089
4338,1021.242,0.04085
4341,1021.736,0.04084
4344,1022.235,0.04095
4347,1022.73,0.041
4350,1023.229,0.041