File: PMMA/Calibration_Data/TIFP/TIFP_DSC_N2_10K_9.csv
Time,Temperature,Heat Flow
[s],[K],[mW/mg]
0,300.147,0.0045
3,300.148,0.00445
6,300.149,0.00406
9,300.149,0.00434
12,300.153,0.00428
15,300.16,0.00436
18,300.177,0.00462
21,300.19,0.00439
24,300.22,0.00517
27,300.259,0.00515
30,300.309,0.00559
33,300.367,0.00623
36,300.443,0.00704
39,300.534,0.0076
42,300.643,0.00852
45,300.768,0.00963
48,300.91,0.00988
51,301.075,0.0111
54,301.26,0.0121
57,301.465,0.0133
60,301.697,0.0144
63,301.95,0.0155
66,302.227,0.0165
69,302.528,0.0183
72,302.855,0.0194
75,303.205,0.0208
78,303.579,0.0219
81,303.981,0.0233
84,304.407,0.0247
87,304.857,0.0261
90,305.332,0.0276
93,305.834,0.0294
96,306.348,0.0313
99,306.892,0.0327
102,307.452,0.034
105,308.039,0.0359
108,308.642,0.0374
111,309.261,0.0389
114,309.899,0.0403
117,310.549,0.0417
120,311.218,0.0432
123,311.897,0.0446
126,312.589,0.0457
129,313.294,0.0468
132,314.005,0.0478
135,314.728,0.0488
138,315.454,0.0493
141,316.19,0.05
144,316.928,0.0506
147,317.672,0.0516
150,318.42,0.052
153,319.167,0.0527
156,319.915,0.0531
159,320.665,0.0536
162,321.417,0.0538
165,322.161,0.0542
168,322.906,0.0546
171,323.65,0.0546
174,324.388,0.0553
177,325.121,0.0554
180,325.849,0.056
183,326.572,0.0566
186,327.289,0.0568
189,328.001,0.0569
192,328.705,0.0571
195,329.407,0.0573
198,330.092,0.0577
201,330.779,0.0584
204,331.452,0.0586
207,332.123,0.0593
210,332.786,0.0597
213,333.44,0.0604
216,334.083,0.0609
219,334.727,0.0616
222,335.357,0.0623
225,335.981,0.0627
228,336.6,0.0635
231,337.21,0.064
234,337.812,0.0648
237,338.414,0.0652
240,339.005,0.0661
243,339.591,0.0671
246,340.166,0.0676
249,340.74,0.0685
252,341.306,0.0694
255,341.869,0.0705
258,342.428,0.0715
261,342.979,0.0725
264,343.53,0.0732
267,344.072,0.0744
270,344.61,0.0755
273,345.146,0.0765
276,345.678,0.0777
279,346.206,0.0788
282,346.73,0.0802
285,347.252,0.0813
288,347.773,0.0824
291,348.291,0.0837
294,348.807,0.0849
297,349.317,0.0863
300,349.83,0.0874
303,350.341,0.0889
306,350.85,0.0903
309,351.351,0.0919
312,351.859,0.0931
315,352.363,0.0946
318,352.866,0.0956
321,353.37,0.097
324,353.869,0.0981
327,354.372,0.0996
330,354.868,0.10062
333,355.37,0.1015
336,355.866,0.1024
339,356.367,0.10309
342,356.865,0.10372
345,357.361,0.10402
348,357.856,0.1045
351,358.355,0.10443
354,358.852,0.10469
357,359.348,0.10443
360,359.846,0.10441
363,360.344,0.10415
366,360.84,0.10411
369,361.339,0.10395
372,361.833,0.1036
375,362.327,0.10314
378,362.824,0.10335
381,363.321,0.10327
384,363.819,0.1026
387,364.316,0.10269
390,364.811,0.10278
393,365.303,0.10262
396,365.802,0.10284
399,366.298,0.10305
402,366.794,0.10295
405,367.287,0.1029
408,367.784,0.10292
411,368.279,0.10333
414,368.778,0.1034
417,369.274,0.10415
420,369.767,0.10398
423,370.263,0.10437
426,370.757,0.10451
429,371.252,0.105
432,371.746,0.10512
435,372.242,0.10563
438,372.74,0.10597
441,373.231,0.10619
444,373.73,0.10663
447,374.223,0.10678
450,374.714,0.10756
453,375.21,0.10786
456,375.708,0.10788
459,376.199,0.10891
462,376.693,0.10915
465,377.188,0.10991
468,377.685,0.10999
471,378.177,0.1105
474,378.676,0.11123
477,379.171,0.11182
480,379.661,0.11241
483,380.158,0.11285
486,380.652,0.11351
489,381.149,0.11393
492,381.643,0.11459
495,382.14,0.1152
498,382.634,0.11598
501,383.129,0.11669
504,383.628,0.1175
507,384.123,0.11802
510,384.619,0.11882
513,385.116,0.11927
516,385.614,0.12036
519,386.11,0.12088
522,386.61,0.12191
525,387.105,0.12233
528,387.602,0.12318
531,388.103,0.1239
534,388.602,0.12473
537,389.104,0.12568
540,389.602,0.12651
543,390.1,0.1272
546,390.599,0.12787
549,391.099,0.12872
552,391.599,0.12973
555,392.099,0.13049
558,392.602,0.13139
561,393.105,0.13242
564,393.608,0.13342
567,394.108,0.13431
570,394.61,0.13581
573,395.111,0.13706
576,395.617,0.13816
579,396.119,0.13959
582,396.625,0.14072
585,397.127,0.1422
588,397.627,0.14364
591,398.135,0.14486
594,398.638,0.14642
597,399.142,0.14761
600,399.649,0.14881
603,400.153,0.15008
606,400.656,0.15143
609,401.16,0.15277
612,401.668,0.15402
615,402.173,0.15479
618,402.679,0.15523
621,403.184,0.15523
624,403.691,0.15548
627,404.197,0.15513
630,404.702,0.15502
633,405.208,0.15484
636,405.715,0.15466
639,406.219,0.15417
642,406.726,0.15425
645,407.235,0.15419
648,407.74,0.15407
651,408.247,0.15401
654,408.752,0.15443
657,409.258,0.15435
660,409.765,0.15482
663,410.272,0.15494
666,410.777,0.15536
669,411.282,0.15562
672,411.789,0.1555
675,412.294,0.15614
678,412.802,0.1565
681,413.306,0.157
684,413.814,0.15736
687,414.318,0.15772
690,414.824,0.15796
693,415.329,0.15851
696,415.836,0.15882
699,416.341,0.15919
702,416.845,0.1596
705,417.349,0.16008
708,417.858,0.16059
711,418.362,0.16086
714,418.868,0.16139
717,419.368,0.16164
720,419.874,0.16201
723,420.378,0.16245
726,420.882,0.16299
729,421.387,0.16319
732,421.89,0.16339
735,422.396,0.16398
738,422.897,0.16464
741,423.401,0.16511
744,423.903,0.1652
747,424.405,0.16591
750,424.909,0.16646
753,425.406,0.16724
756,425.91,0.16783
759,426.41,0.1686
762,426.912,0.16922
765,427.415,0.17015
768,427.914,0.17134
771,428.416,0.17221
774,428.918,0.17328
777,429.415,0.17434
780,429.917,0.17542
783,430.419,0.17658
786,430.917,0.17778
789,431.42,0.17925
792,431.919,0.18043
795,432.42,0.18137
798,432.92,0.18282
801,433.416,0.18419
804,433.919,0.18565
807,434.417,0.18695
810,434.919,0.18817
813,435.419,0.18986
816,435.919,0.19158
819,436.419,0.19287
822,436.916,0.1945
825,437.418,0.19608
828,437.916,0.19756
831,438.414,0.1992
834,438.91,0.20117
837,439.412,0.20331
840,439.911,0.20497
843,440.41,0.20677
846,440.911,0.20897
849,441.41,0.21083
852,441.908,0.21326
855,442.408,0.2153
858,442.904,0.21771
861,443.405,0.21934
864,443.904,0.22169
867,444.398,0.22375
870,444.896,0.22606
873,445.396,0.22786
876,445.893,0.23044
879,446.395,0.23283
882,446.893,0.23497
885,447.39,0.23729
888,447.89,0.23939
891,448.387,0.24184
894,448.886,0.24448
897,449.385,0.24647
900,449.881,0.24868
903,450.38,0.25087
906,450.878,0.25323
909,451.376,0.25549
912,451.873,0.25732
915,452.373,0.25938
918,452.872,0.26153
921,453.37,0.26347
924,453.866,0.26557
927,454.366,0.26732
930,454.866,0.26912
933,455.365,0.27097
936,455.864,0.27292
939,456.363,0.27441
942,456.86,0.27597
945,457.358,0.2772
948,457.857,0.27855
951,458.351,0.27966
954,458.85,0.28053
957,459.349,0.28125
960,459.845,0.282
963,460.344,0.28324
966,460.845,0.28409
969,461.343,0.28458
972,461.842,0.28541
975,462.339,0.2859
978,462.836,0.28649
981,463.334,0.28649
984,463.833,0.28688
987,464.332,0.28687
990,464.83,0.28707
993,465.329,0.28718
996,465.827,0.28733
999,466.326,0.28724
1002,466.824,0.28723
1005,467.323,0.28754
1008,467.821,0.28733
1011,468.32,0.28759
1014,468.82,0.28766
1017,469.318,0.28792
1020,469.814,0.28799
1023,470.314,0.28793
1026,470.812,0.28842
1029,471.313,0.28876
1032,471.809,0.28891
1035,472.309,0.28927
1038,472.806,0.28982
1041,473.306,0.28984
1044,473.803,0.29076
1047,474.302,0.29135
1050,474.8,0.29208
1053,475.301,0.29315
1056,475.799,0.29422
1059,476.299,0.2949
1062,476.796,0.2956
1065,477.295,0.29678
1068,477.792,0.29771
1071,478.287,0.29928
1074,478.788,0.29995
1077,479.286,0.30131
1080,479.786,0.302
1083,480.279,0.30321
1086,480.78,0.30448
1089,481.28,0.30522
1092,481.776,0.30602
1095,482.275,0.30677
1098,482.772,0.3078
1101,483.27,0.3084
1104,483.768,0.30883
1107,484.265,0.30937
1110,484.763,0.30975
1113,485.26,0.31016
1116,485.758,0.30997
1119,486.255,0.31053
1122,486.753,0.31042
1125,487.251,0.31016
1128,487.752,0.3103
1131,488.248,0.31014
1134,488.745,0.31033
1137,489.243,0.3103
1140,489.74,0.31037
1143,490.236,0.31049
1146,490.738,0.31051
1149,491.233,0.31081
1152,491.729,0.31043
1155,492.227,0.31038
1158,492.726,0.31058
1161,493.222,0.31111
1164,493.722,0.31136
1167,494.221,0.31182
1170,494.716,0.31208
1173,495.217,0.31277
1176,495.714,0.31353
1179,496.213,0.31455
1182,496.714,0.31525
1185,497.21,0.31617
1188,497.71,0.31725
1191,498.21,0.31793
1194,498.708,0.31934
1197,499.207,0.32017
1200,499.706,0.32154
1203,500.202,0.32296
1206,500.703,0.32431
1209,501.203,0.32602
1212,501.702,0.32735
1215,502.201,0.32921
1218,502.699,0.33022
1221,503.198,0.33189
1224,503.697,0.33335
1227,504.197,0.33498
1230,504.696,0.33725
1233,505.194,0.33903
1236,505.695,0.34031
1239,506.191,0.34256
1242,506.693,0.34482
1245,507.192,0.34678
1248,507.692,0.34928
1251,508.191,0.35131
1254,508.694,0.35315
1257,509.194,0.35541
1260,509.694,0.35759
1263,510.191,0.35998
1266,510.69,0.36183
1269,511.192,0.36418
1272,511.691,0.3663
1275,512.19,0.36839
1278,512.691,0.37073
1281,513.189,0.3732
1284,513.689,0.37499
1287,514.188,0.37739
1290,514.687,0.37977
1293,515.185,0.38197
1296,515.687,0.38449
1299,516.187,0.38673
1302,516.686,0.38925
1305,517.184,0.39189
1308,517.684,0.39406
1311,518.181,0.39639
1314,518.685,0.39888
1317,519.181,0.40177
1320,519.682,0.40464
1323,520.181,0.4072
1326,520.68,0.41014
1329,521.18,0.4131
1332,521.678,0.4161
1335,522.179,0.41871
1338,522.678,0.42164
1341,523.178,0.42476
1344,523.677,0.42778
1347,524.177,0.43083
1350,524.677,0.43386
1353,525.174,0.43671
1356,525.675,0.44005
1359,526.174,0.4431
1362,526.672,0.44631
1365,527.172,0.44961
1368,527.671,0.4534
1371,528.172,0.4565
1374,528.671,0.46046
1377,529.17,0.4637
1380,529.671,0.46717
1383,530.169,0.47072
1386,530.668,0.47415
1389,531.169,0.47753
1392,531.667,0.48155
1395,532.167,0.4854
1398,532.666,0.4891
1401,533.163,0.49304
1404,533.661,0.49678
1407,534.159,0.50063
1410,534.659,0.50462
1413,535.161,0.5086
1416,535.657,0.51287
1419,536.156,0.51691
1422,536.656,0.52072
1425,537.154,0.52513
1428,537.655,0.52944
1431,538.152,0.53349
1434,538.65,0.5376
1437,539.151,0.54278
1440,539.651,0.54677
1443,540.151,0.55085
1446,540.648,0.55527
1449,541.15,0.55969
1452,541.649,0.56456
1455,542.148,0.56928
1458,542.649,0.57395
1461,543.147,0.57873
1464,543.649,0.58362
1467,544.15,0.58873
1470,544.65,0.59412
1473,545.149,0.5993
1476,545.65,0.6043
1479,546.15,0.60945
1482,546.652,0.61475
1485,547.151,0.61978
1488,547.651,0.62499
1491,548.149,0.63043
1494,548.651,0.63527
1497,549.151,0.64065
1500,549.649,0.64597
1503,550.148,0.65129
1506,550.647,0.65667
1509,551.151,0.66142
1512,551.649,0.66654
1515,552.15,0.67226
1518,552.648,0.67752
1521,553.148,0.68326
1524,553.646,0.68839
1527,554.148,0.6934
1530,554.645,0.69864
1533,555.145,0.70389
1536,555.645,0.70932
1539,556.145,0.71473
1542,556.642,0.72049
1545,557.142,0.72612
1548,557.643,0.73168
1551,558.144,0.73725
1554,558.642,0.74325
1557,559.14,0.74862
1560,559.642,0.75456
1563,560.143,0.76049
1566,560.641,0.76592
1569,561.139,0.77181
1572,561.636,0.77725
1575,562.137,0.78306
1578,562.637,0.78864
1581,563.134,0.79441
1584,563.633,0.79979
1587,564.133,0.80555
1590,564.63,0.81118
1593,565.132,0.81631
1596,565.628,0.82199
1599,566.126,0.82756
1602,566.628,0.83319
1605,567.126,0.83821
1608,567.626,0.84345
1611,568.123,0.84936
1614,568.623,0.85445
1617,569.122,0.86001
1620,569.619,0.86563
1623,570.121,0.87076
1626,570.619,0.87586
1629,571.115,0.88114
1632,571.616,0.88638
1635,572.114,0.89157
1638,572.612,0.89671
1641,573.113,0.90198
1644,573.61,0.90702
1647,574.109,0.91217
1650,574.607,0.91732
1653,575.107,0.92278
1656,575.607,0.92802
1659,576.107,0.9332
1662,576.607,0.93861
1665,577.108,0.94379
1668,577.607,0.94863
1671,578.105,0.95394
1674,578.602,0.95932
1677,579.103,0.96499
1680,579.603,0.97098
1683,580.103,0.9774
1686,580.604,0.9838
1689,581.101,0.99054
1692,581.602,0.99759
1695,582.102,1.00432
1698,582.6,1.01077
1701,583.1,1.01765
1704,583.6,1.02487
1707,584.1,1.03273
1710,584.598,1.04003
1713,585.099,1.04763
1716,585.599,1.05535
1719,586.099,1.06297
1722,586.598,1.07105
1725,587.099,1.07888
1728,587.598,1.08664
1731,588.098,1.0951
1734,588.595,1.10342
1737,589.098,1.11194
1740,589.596,1.12168
1743,590.096,1.13065
1746,590.596,1.14046
1749,591.098,1.15026
1752,591.597,1.16022
1755,592.098,1.17129
1758,592.597,1.18177
1761,593.097,1.19309
1764,593.597,1.20438
1767,594.096,1.21577
1770,594.595,1.22822
1773,595.094,1.24015
1776,595.594,1.2527
1779,596.093,1.26577
1782,596.593,1.27874
1785,597.091,1.29229
1788,597.593,1.30632
1791,598.093,1.32047
1794,598.589,1.33503
1797,599.09,1.34967
1800,599.587,1.36533
1803,600.089,1.3811
1806,600.588,1.39714
1809,601.088,1.41373
1812,601.588,1.43082
1815,602.085,1.4483
1818,602.586,1.46666
1821,603.082,1.48412
1824,603.582,1.50331
1827,604.083,1.52231
1830,604.581,1.54145
1833,605.079,1.56131
1836,605.579,1.58274
1839,606.078,1.60398
1842,606.574,1.62548
1845,607.076,1.64803
1848,607.573,1.67058
1851,608.072,1.69399
1854,608.573,1.71782
1857,609.069,1.74194
1860,609.569,1.76693
1863,610.067,1.79261
1866,610.566,1.81898
1869,611.068,1.84594
1872,611.566,1.87341
1875,612.063,1.90153
1878,612.564,1.93016
1881,613.064,1.95975
1884,613.564,1.98984
1887,614.059,2.02047
1890,614.559,2.05258
1893,615.06,2.08462
1896,615.56,2.11764
1899,616.059,2.15192
1902,616.562,2.1866
1905,617.06,2.22174
1908,617.56,2.25832
1911,618.062,2.2948
1914,618.56,2.33263
1917,619.061,2.37131
1920,619.562,2.41086
1923,620.06,2.45105
1926,620.564,2.49212
1929,621.062,2.5333
1932,621.561,2.57588
1935,622.061,2.61906
1938,622.561,2.6635
1941,623.061,2.70842
1944,623.562,2.75462
1947,624.061,2.80113
1950,624.56,2.84885
1953,625.063,2.89833
1956,625.563,2.94769
1959,626.06,2.99801
1962,626.561,3.0487
1965,627.061,3.10117
1968,627.559,3.15386
1971,628.059,3.2062
1974,628.559,3.26056
1977,629.058,3.31457
1980,629.559,3.36849
1983,630.057,3.42269
1986,630.56,3.47906
1989,631.057,3.53431
1992,631.554,3.58333
1995,632.053,3.6374
1998,632.548,3.69049
2001,633.046,3.74307
2004,633.543,3.791
2007,634.042,3.83604
2010,634.536,3.86849
2013,635.032,3.90133
2016,635.529,3.9272
2019,636.024,3.92829
2022,636.516,3.93615
2025,637.013,3.94854
2028,637.504,3.92647
2031,638.002,3.92611
2034,638.498,3.92012
2037,638.99,3.87995
2040,639.484,3.85474
2043,639.981,3.81813
2046,640.476,3.79748
2049,640.973,3.75255
2052,641.467,3.72072
2055,641.972,3.78253
2058,642.471,3.79873
2061,642.971,3.83837
2064,643.479,4.00963
2067,643.979,4.0571
2070,644.482,4.07497
2073,644.983,4.11665
2076,645.486,4.16011
2079,645.984,4.16351
2082,646.488,4.2352
2085,646.985,4.22688
2088,647.478,4.17018
2091,647.984,4.26824
2094,648.479,4.20391
2097,648.975,4.16841
2100,649.474,4.15849
2103,649.976,4.24662
2106,650.476,4.20248
2109,650.979,4.29631
2112,651.479,4.31602
2115,651.98,4.33943
2118,652.48,4.36104
2121,652.978,4.29831
2124,653.479,4.30064
2127,653.976,4.27653
2130,654.479,4.29343
2133,654.978,4.26327
2136,655.481,4.30141
2139,655.978,4.21967
2142,656.48,4.21935
2145,656.978,4.20742
2148,657.481,4.24024
2151,657.981,4.24797
2154,658.48,4.18299
2157,658.982,4.20272
2160,659.48,4.15012
2163,659.98,4.14108
2166,660.481,4.1534
2169,660.976,4.05727
2172,661.478,4.0662
2175,661.976,4.0352
2178,662.475,3.98317
2181,662.975,3.917
2184,663.475,3.88732
2187,663.973,3.83483
2190,664.474,3.77924
2193,664.971,3.72395
2196,665.469,3.65023
2199,665.969,3.61255
2202,666.466,3.53336
2205,666.964,3.43341
2208,667.466,3.36803
2211,667.961,3.28987
2214,668.462,3.20382
2217,668.962,3.1405
2220,669.461,3.09682
2223,669.962,3.03982
2226,670.461,2.97781
2229,670.961,2.92089
2232,671.462,2.86186
2235,671.963,2.80219
2238,672.462,2.75259
2241,672.962,2.72742
2244,673.464,2.6846
2247,673.965,2.64427
2250,674.465,2.60323
2253,674.967,2.56278
2256,675.469,2.53397
2259,675.966,2.49417
2262,676.47,2.45615
2265,676.968,2.41933
2268,677.47,2.38197
2271,677.969,2.34331
2274,678.469,2.30633
2277,678.967,2.27006
2280,679.469,2.23495
2283,679.971,2.20438
2286,680.47,2.17503
2289,680.97,2.14617
2292,681.471,2.11707
2295,681.971,2.0891
2298,682.471,2.06169
2301,682.972,2.03609
2304,683.47,2.01041
2307,683.969,1.98633
2310,684.468,1.96335
2313,684.97,1.94208
2316,685.469,1.92209
2319,685.971,1.90257
2322,686.473,1.88551
2325,686.971,1.86934
2328,687.474,1.85392
2331,687.97,1.83971
2334,688.472,1.82669
2337,688.972,1.81396
2340,689.47,1.80236
2343,689.971,1.79209
2346,690.47,1.78216
2349,690.969,1.77351
2352,691.469,1.76522
2355,691.97,1.75807
2358,692.469,1.75174
2361,692.969,1.74547
2364,693.47,1.73999
2367,693.97,1.73508
2370,694.465,1.73065
2373,694.965,1.72655
2376,695.464,1.72325
2379,695.963,1.72078
2382,696.461,1.71855
2385,696.96,1.71701
2388,697.458,1.71613
2391,697.956,1.71487
2394,698.456,1.71438
2397,698.953,1.71465
2400,699.448,1.71413
2403,699.947,1.71384
2406,700.446,1.71377
2409,700.943,1.71313
2412,701.441,1.71285
2415,701.938,1.71324
2418,702.435,1.71302
2421,702.932,1.71273
2424,703.43,1.71295
2427,703.926,1.71323
2430,704.426,1.71314
2433,704.924,1.71409
2436,705.422,1.71481
2439,705.921,1.71608
2442,706.417,1.71742
2445,706.917,1.71913
2448,707.414,1.72072
2451,707.912,1.72332
2454,708.41,1.72595
2457,708.908,1.72948
2460,709.406,1.73364
2463,709.908,1.73788
2466,710.406,1.74249
2469,710.906,1.74774
2472,711.407,1.75379
2475,711.906,1.76072
2478,712.404,1.76616
2481,712.904,1.76792
2484,713.402,1.77062
2487,713.9,1.77424
2490,714.399,1.77927
2493,714.9,1.78475
2496,715.398,1.79041
2499,715.899,1.79713
2502,716.396,1.80385
2505,716.895,1.81163
2508,717.395,1.81988
2511,717.894,1.82816
2514,718.394,1.83614
2517,718.89,1.84389
2520,719.388,1.85267
2523,719.885,1.86085
2526,720.386,1.869
2529,720.882,1.87733
2532,721.381,1.88593
2535,721.879,1.89488
2538,722.379,1.90312
2541,722.878,1.91227
2544,723.378,1.92127
2547,723.877,1.93054
2550,724.377,1.93917
2553,724.876,1.94845
2556,725.373,1.95769
2559,725.875,1.96691
2562,726.373,1.97589
2565,726.874,1.98568
2568,727.375,1.99494
2571,727.873,2.0045
2574,728.373,2.01384
2577,728.874,2.02334
2580,729.374,2.03357
2583,729.874,2.04319
2586,730.373,2.05265
2589,730.875,2.06248
2592,731.375,2.07195
2595,731.876,2.082
2598,732.373,2.09174
2601,732.876,2.10138
2604,733.375,2.11159
2607,733.875,2.12089
2610,734.375,2.13114
2613,734.874,2.14102
2616,735.373,2.15124
2619,735.874,2.161
2622,736.375,2.17123
2625,736.873,2.18176
2628,737.373,2.19173
2631,737.872,2.20176
2634,738.372,2.21169
2637,738.868,2.22211
2640,739.37,2.23262
2643,739.87,2.24271
2646,740.369,2.25276
2649,740.87,2.26327
2652,741.369,2.27417
2655,741.867,2.28406
2658,742.367,2.29477
2661,742.867,2.30494
2664,743.367,2.31476
2667,743.866,2.32536
2670,744.368,2.33565
2673,744.864,2.34632
2676,745.368,2.35611
2679,745.866,2.36713
2682,746.367,2.37735
2685,746.866,2.38763
2688,747.366,2.39827
2691,747.868,2.40872
2694,748.37,2.41944
2697,748.873,2.42989
2700,749.372,2.44088
2703,749.872,2.45128
2706,750.376,2.46142
2709,750.879,2.47249
2712,751.379,2.4829
2715,751.881,2.49408
2718,752.381,2.50468
2721,752.882,2.51571
2724,753.382,2.52677
2727,753.885,2.53792
2730,754.384,2.54827
2733,754.885,2.55965
2736,755.387,2.57024
2739,755.887,2.58146
2742,756.389,2.59267
2745,756.888,2.60341
2748,757.387,2.61442
2751,757.89,2.62572
2754,758.388,2.6366
2757,758.89,2.64754
2760,759.392,2.65827
2763,759.892,2.6699
2766,760.394,2.68059
2769,760.893,2.69155
2772,761.397,2.70271
2775,761.898,2.71371
2778,762.4,2.72502
2781,762.898,2.7362
2784,763.403,2.74684
2787,763.903,2.75853
2790,764.405,2.76975
2793,764.905,2.78092
2796,765.408,2.79257
2799,765.908,2.80346
2802,766.41,2.81506
2805,766.912,2.82614
2808,767.412,2.83765
2811,767.912,2.84944
2814,768.413,2.86074
2817,768.912,2.87189
2820,769.413,2.88338
2823,769.914,2.89539
2826,770.414,2.90688
2829,770.914,2.91836
2832,771.413,2.93019
2835,771.91,2.9417
2838,772.41,2.95357
2841,772.909,2.96416
2844,773.408,2.97629
2847,773.906,2.98834
2850,774.407,3.00047
2853,774.906,3.0112
2856,775.409,3.0232
2859,775.907,3.03491
2862,776.406,3.04606
2865,776.905,3.058
2868,777.405,3.06993
2871,777.907,3.08135
2874,778.404,3.09259
2877,778.905,3.10443
2880,779.404,3.1161
2883,779.904,3.12777
2886,780.405,3.13947
2889,780.907,3.15101
2892,781.407,3.1623
2895,781.909,3.17347
2898,782.412,3.18519
2901,782.912,3.19658
2904,783.414,3.20777
2907,783.916,3.21938
2910,784.42,3.23072
2913,784.922,3.24248
2916,785.423,3.2536
2919,785.926,3.26543
2922,786.426,3.27705
2925,786.928,3.28862
2928,787.43,3.30015
2931,787.933,3.31199
2934,788.435,3.32402
2937,788.938,3.3358
2940,789.439,3.34726
2943,789.941,3.35951
2946,790.443,3.37103
2949,790.945,3.38266
2952,791.444,3.39424
2955,791.946,3.40634
2958,792.449,3.41755
2961,792.948,3.42918
2964,793.449,3.44117
2967,793.953,3.45323
2970,794.453,3.46445
2973,794.958,3.47669
2976,795.458,3.48801
2979,795.959,3.50039
2982,796.459,3.51181
2985,796.957,3.52406
2988,797.457,3.53554
2991,797.96,3.54733
2994,798.461,3.55951
2997,798.961,3.57144
3000,799.46,3.58344
3003,799.961,3.59548
3006,800.462,3.60694
3009,800.962,3.61911
3012,801.462,3.6304
3015,801.962,3.64263
3018,802.461,3.65434
3021,802.963,3.66623
3024,803.461,3.67792
3027,803.959,3.68955
3030,804.461,3.70142
3033,804.959,3.71387
3036,805.459,3.72536
3039,805.958,3.73695
3042,806.46,3.74882
3045,806.958,3.76063
3048,807.457,3.77236
3051,807.959,3.78339
3054,808.458,3.79469
3057,808.959,3.80638
3060,809.457,3.81767
3063,809.961,3.8299
3066,810.463,3.8414
3069,810.963,3.85265
3072,811.463,3.86425
3075,811.962,3.87551
3078,812.465,3.88685
3081,812.967,3.8985
3084,813.469,3.90997
3087,813.968,3.92167
3090,814.471,3.93268
3093,814.971,3.94453
3096,815.471,3.956
3099,815.971,3.96797
3102,816.472,3.9795
3105,816.972,3.99118
3108,817.474,4.0024
3111,817.974,4.01393
3114,818.477,4.02557
3117,818.98,4.03668
3120,819.477,4.04822
3123,819.98,4.05938
3126,820.484,4.0705
3129,820.983,4.08256
3132,821.484,4.09385
3135,821.985,4.10477