File: PMMA/Calibration_Data/TIFP/TIFP_Gasification_65kW_2.csv
Time,Mass
[s],[g]
0,74.4
1,74.2376
2,74.34111
3,74.4613
4,74.2607
5,74.0535
6,74.3441
7,74.2018
8,74.36808
9,73.9795
10,74.2382
11,74.318
12,73.8843
13,74.0346
14,74.1869
15,74.0283
16,73.4105
17,73.3628
18,73.5743
19,74.4054
20,74.6652
21,74.0473
22,73.9116
23,74.3728
24,74.25542
25,74.278
26,73.7291
27,73.5255
28,73.6511
29,73.1358
30,73.0531
31,72.6112
32,72.6657
33,73.2797
34,73.0007
35,72.8071
36,72.7337
37,72.7222
38,72.7946
39,72.1247
40,71.1338
41,70.9075
42,71.50218
43,71.7752
44,71.911
45,71.0827
46,70.3386
47,70.638
48,70.1864
49,69.9393
50,70.33017
51,70.1233
52,70.0529
53,69.7343
54,69.5231
55,69.3704
56,69.0985
57,68.70659
58,68.8444
59,68.3605
60,68.5677
61,68.57684
62,68.1941
63,67.81283
64,67.6993
65,67.3993
66,67.73632
67,67.5354
68,67.4068
69,67.1727
70,67.1089
71,66.2381
72,66.3421
73,65.8467
74,65.3203
75,65.3433
76,64.77579
77,65.04915
78,64.9238
79,64.5915
80,64.4475
81,64.5463
82,63.9904
83,64.157
84,64.2294
85,63.9288
86,63.7411
87,62.9936
88,62.6428
89,62.3895
90,62.6227
91,62.4847
92,62.2131
93,62.0372
94,61.6094
95,61.6204
96,61.564
97,61.5055
98,61.0303
99,61.0075
100,60.8057
101,60.3971
102,60.3625
103,59.8969
104,59.6906
105,59.5847
106,59.3682
107,58.7175
108,58.8888
109,58.7359
110,58.5474
111,57.9897
112,57.6078
113,57.7187
114,57.9975
115,57.83272
116,57.6289
117,57.389
118,56.6551
119,56.6622
120,56.6348
121,56.6446
122,56.4125
123,55.8943
124,55.8748
125,55.4677
126,55.1556
127,55.0014
128,54.4293
129,54.7938
130,54.50755
131,54.3706
132,53.4921
133,53.2523
134,53.15144
135,53.5591
136,53.5455
137,53.4063
138,53.1002
139,52.1474
140,51.5471
141,51.7698
142,52.1072
143,52.085
144,51.3572
145,50.8179
146,50.4414
147,50.705
148,50.6542
149,50.3606
150,50.1468
151,49.7521
152,49.54859
153,49.3596
154,49.1023
155,48.8763
156,48.5179
157,48.2126
158,47.92546
159,48.15928
160,47.4571
161,47.4641
162,47.4425
163,47.1942
164,46.6589
165,46.2845
166,46.45
167,46.0187
168,45.6544
169,45.8765
170,45.9392
171,45.4493
172,45.0675
173,45.3177
174,44.7396
175,44.1705
176,44.5831
177,44.1488
178,43.8177
179,43.5585
180,43.2998
181,43.1322
182,42.85532
183,42.7943
184,42.5691
185,42.17
186,41.67889
187,41.26175
188,40.7769
189,40.7488
190,40.6272
191,40.8171
192,40.366
193,39.9312
194,39.8317
195,39.5099
196,39.4235
197,39.1514
198,38.564
199,38.3424
200,38.243
201,37.8417
202,37.6397
203,37.6132
204,37.2972
205,37.11361
206,36.6989
207,36.454
208,35.95349
209,35.6032
210,35.3633
211,34.9083
212,35.4075
213,35.1823
214,34.9197
215,34.4702
216,34.0366
217,33.8581
218,33.4784
219,33.09554
220,33.0322
221,32.53405
222,32.1103
223,32.0209
224,32.0409
225,31.3475
226,30.7158
227,30.4287
228,30.252
229,30.0742
230,30.198
231,29.8841
232,29.23553
233,29.1327
234,28.8509
235,28.5787
236,28.5146
237,27.887
238,27.6583
239,27.6053
240,27.0328
241,27.3059
242,26.6608
243,26.6595
244,25.9202
245,25.5824
246,25.1283
247,24.8894
248,24.79232
249,24.9756
250,24.7649
251,24.24371
252,23.68747
253,22.9749
254,23.0622
255,22.8793
256,22.2429
257,22.1912
258,21.9773
259,21.4847
260,21.6125
261,21.2739
262,20.7076
263,20.3123
264,19.9983
265,19.7531
266,18.9457
267,18.5617
268,18.5228
269,18.2953
270,18.245
271,17.4035
272,17.2073
273,17.06221
274,16.9118
275,16.4314
276,16.4293
277,16.2873
278,15.9554
279,15.7456
280,15.4232
281,15.3122
282,15.3245
283,15.0768
284,14.5693
285,14.2392
286,14.1963
287,14.2516
288,13.8961
289,14.2053
290,14.3536
291,13.71755
292,13.3259
293,13.3454
294,12.8263
295,12.727
296,12.8549
297,13.1874
298,12.7804
299,12.7646
300,12.816
301,12.2503
302,12.0848
303,12.09697
304,11.9951
305,11.8526
306,11.75173
307,11.6253
308,11.4971
309,11.4275
310,11.3163
311,11.1852
312,11.0899
313,11.0063
314,10.8813
315,10.7591
316,10.6913
317,10.5752
318,10.4564
319,10.3481
320,10.2626
321,10.17242
322,10.08877
323,10.0469
324,9.910589
325,9.804341
326,9.728073
327,9.635603
328,9.567248
329,9.447409
330,9.347206
331,9.272342
332,9.216098
333,9.125182
334,9.045246
335,8.973821
336,8.875936
337,8.78478
338,8.739117
339,8.658154
340,8.583373
341,8.4997
342,8.434958
343,8.336925
344,8.279866
345,8.233422
346,8.13506
347,8.048523
348,8.002923
349,7.942949
350,7.874879
351,7.803152
352,7.74685
353,7.659161
354,7.602897
355,7.537033
356,7.493482
357,7.449485
358,7.374556
359,7.307339
360,7.244007
361,7.199385
362,7.135383
363,7.09575
364,7.044236
365,6.975247
366,6.920494
367,6.89251
368,6.811647
369,6.757215
370,6.709363
371,6.684371
372,6.624235
373,6.572461
374,6.534892
375,6.478979
376,6.405853
377,6.367868
378,6.332984
379,6.289015
380,6.224405
381,6.188356
382,6.120505
383,6.075435
384,6.035619
385,5.989908
386,5.935449
387,5.871754
388,5.825743
389,5.801666
390,5.745254
391,5.706006
392,5.648685
393,5.595538
394,5.535481
395,5.504401
396,5.485871
397,5.429517
398,5.364619
399,5.309491
400,5.266727
401,5.222017
402,5.192973
403,5.148858
404,5.068718
405,5.012204
406,4.982222
407,4.944578
408,4.894909
409,4.846857
410,4.786907
411,4.739308
412,4.692365
413,4.671077
414,4.616481
415,4.561004
416,4.504353
417,4.457892
418,4.432461
419,4.379414
420,4.337146
421,4.271284
422,4.235242
423,4.185372
424,4.134337
425,4.102564
426,4.037959
427,3.98548
428,3.925124
429,3.893918
430,3.849322
431,3.787944
432,3.767274
433,3.703379
434,3.658627
435,3.639692
436,3.56897
437,3.502281
438,3.458982
439,3.419858
440,3.366889
441,3.31939
442,3.295505
443,3.223857
444,3.165036
445,3.122647
446,3.076286
447,3.047188
448,3.006907
449,2.948939
450,2.896405
451,2.859207
452,2.824692
453,2.774822
454,2.722483
455,2.674721
456,2.62688
457,2.59674
458,2.538429
459,2.505165
460,2.448925
461,2.41656
462,2.378587
463,2.343335
464,2.303762
465,2.243538
466,2.204842
467,2.165401
468,2.133316
469,2.10151
470,2.045442
471,1.998507
472,1.969314
473,1.923204
474,1.900702
475,1.839305
476,1.800952
477,1.754887
478,1.719188
479,1.697782
480,1.656512
481,1.605002
482,1.570625
483,1.532327
484,1.518451
485,1.475778
486,1.437029
487,1.399702
488,1.362387
489,1.338876
490,1.305241
491,1.285756
492,1.245575
493,1.184699
494,1.178173
495,1.161447
496,1.145009
497,1.108117
498,1.080848
499,1.045786
500,1.013347
501,1.001776
502,0.997569
503,0.959389
504,0.935189
505,0.915267
506,0.915302
507,0.895069
508,0.867471
509,0.857081
510,0.83192
511,0.817653
512,0.809362
513,0.793279
514,0.78167
515,0.729708
516,0.687224
517,0.701685
518,0.725303
519,0.719036
520,0.682433
521,0.674
522,0.658429
523,0.644195
524,0.64529
525,0.631886
526,0.613378
527,0.571765
528,0.580166
529,0.588019
530,0.566876
531,0.550581
532,0.527559
533,0.533645
534,0.537641
535,0.531318
536,0.510992
537,0.484247
538,0.48663
539,0.467884
540,0.486283
541,0.480514
542,0.43824
543,0.43987
544,0.43215
545,0.446471
546,0.42811
547,0.429029
548,0.41657
549,0.385733
550,0.385708
551,0.396027
552,0.384051
553,0.377116
554,0.366496
555,0.36437
556,0.351681
557,0.35729
558,0.363138
559,0.327495
560,0.32
561,0.329131
562,0.336003
563,0.324917
564,0.300189
565,0.290072
566,0.28569
567,0.290875
568,0.304887
569,0.289926
570,0.274473
571,0.25746
572,0.261343
573,0.276951
574,0.240553
575,0.231189
576,0.226063
577,0.234095
578,0.237657
579,0.222466
580,0.229606
581,0.200424
582,0.196467
583,0.209312