File: PMMA/Calibration_Data/TIFP/TIFP_TGA_N2_10K_5.csv
Time,Temperature,Mass
[s],[K],[mg]
0,300.513,5.7616
3,300.508,5.7616
6,300.503,5.7619
9,300.497,5.7632
12,300.492,5.7636
15,300.493,5.7638
18,300.493,5.7637
21,300.508,5.7646
24,300.528,5.7651
27,300.554,5.7654
30,300.593,5.7644
33,300.645,5.7642
36,300.705,5.7632
39,300.788,5.7636
42,300.883,5.7645
45,300.994,5.7656
48,301.122,5.765
51,301.273,5.765
54,301.446,5.7644
57,301.635,5.7653
60,301.852,5.7656
63,302.088,5.7651
66,302.349,5.767
69,302.634,5.7668
72,302.945,5.7667
75,303.277,5.7672
78,303.639,5.7672
81,304.019,5.7682
84,304.427,5.7687
87,304.862,5.7706
90,305.318,5.7685
93,305.799,5.7687
96,306.305,5.7689
99,306.833,5.77
102,307.381,5.7712
105,307.948,5.7693
108,308.534,5.772
111,309.146,5.7737
114,309.765,5.7732
117,310.406,5.7725
120,311.062,5.774
123,311.733,5.7732
126,312.418,5.7733
129,313.109,5.7745
132,313.818,5.7741
135,314.532,5.775
138,315.253,5.7748
141,315.981,5.7754
144,316.714,5.7758
147,317.454,5.7773
150,318.2,5.7775
153,318.944,5.7776
156,319.692,5.7763
159,320.438,5.7764
162,321.188,5.7774
165,321.934,5.7774
168,322.682,5.7788
171,323.423,5.7805
174,324.164,5.7798
177,324.898,5.7812
180,325.632,5.7827
183,326.358,5.7827
186,327.079,5.7827
189,327.792,5.7827
192,328.503,5.7827
195,329.206,5.7824
198,329.901,5.7837
201,330.59,5.784
204,331.271,5.784
207,331.947,5.7857
210,332.617,5.7864
213,333.274,5.7867
216,333.929,5.7881
219,334.575,5.7891
222,335.211,5.7894
225,335.843,5.7884
228,336.469,5.7894
231,337.085,5.7894
234,337.693,5.7881
237,338.299,5.7896
240,338.895,5.791
243,339.484,5.791
246,340.066,5.791
249,340.647,5.7923
252,341.22,5.7923
255,341.789,5.791
258,342.35,5.7923
261,342.909,5.7916
264,343.457,5.7923
267,344.008,5.7936
270,344.549,5.795
273,345.092,5.7936
276,345.628,5.7936
279,346.159,5.795
282,346.69,5.7957
285,347.216,5.7957
288,347.737,5.797
291,348.256,5.797
294,348.773,5.7983
297,349.292,5.7983
300,349.805,5.7983
303,350.316,5.799
306,350.825,5.799
309,351.334,5.8004
312,351.84,5.8004
315,352.345,5.8004
318,352.853,5.8004
321,353.354,5.8017
324,353.856,5.8027
327,354.358,5.8027
330,354.857,5.803
333,355.36,5.803
336,355.861,5.803
339,356.359,5.8044
342,356.857,5.8044
345,357.355,5.8044
348,357.855,5.8057
351,358.354,5.8057
354,358.853,5.8057
357,359.35,5.8054
360,359.849,5.8057
363,360.345,5.8044
366,360.844,5.8057
369,361.338,5.8057
372,361.834,5.8064
375,362.333,5.8071
378,362.827,5.8084
381,363.327,5.8084
384,363.822,5.8097
387,364.322,5.8097
390,364.815,5.8111
393,365.312,5.8124
396,365.81,5.8124
399,366.302,5.8124
402,366.803,5.8114
405,367.296,5.8111
408,367.795,5.8097
411,368.289,5.8097
414,368.786,5.8097
417,369.285,5.8097
420,369.778,5.8111
423,370.275,5.8124
426,370.772,5.8124
429,371.266,5.8138
432,371.762,5.8138
435,372.26,5.8151
438,372.753,5.8151
441,373.251,5.8138
444,373.745,5.8147
447,374.239,5.8147
450,374.735,5.8147
453,375.231,5.816
456,375.724,5.816
459,376.22,5.8157
462,376.711,5.8175
465,377.208,5.8188
468,377.704,5.8175
471,378.199,5.8165
474,378.694,5.8175
477,379.187,5.8165
480,379.685,5.8178
483,380.18,5.8188
486,380.674,5.8191
489,381.167,5.8188
492,381.665,5.8201
495,382.159,5.8198
498,382.653,5.8188
501,383.146,5.8188
504,383.644,5.8188
507,384.138,5.8201
510,384.637,5.8273
513,385.129,5.8242
516,385.627,5.8358
519,386.123,5.8236
522,386.621,5.8327
525,387.117,5.8358
528,387.615,5.8329
531,388.113,5.8289
534,388.61,5.8279
537,389.107,5.8295
540,389.605,5.8302
543,390.104,5.8286
546,390.606,5.8269
549,391.106,5.8258
552,391.605,5.8269
555,392.105,5.8269
558,392.607,5.8257
561,393.106,5.8267
564,393.609,5.8271
567,394.113,5.8281
570,394.614,5.8281
573,395.117,5.8267
576,395.618,5.8281
579,396.124,5.8281
582,396.628,5.8267
585,397.132,5.8267
588,397.636,5.8271
591,398.14,5.829
594,398.646,5.8283
597,399.151,5.828
600,399.66,5.8283
603,400.162,5.8296
606,400.664,5.8283
609,401.174,5.8283
612,401.68,5.8293
615,402.185,5.8296
618,402.693,5.8296
621,403.201,5.8307
624,403.71,5.8293
627,404.216,5.828
630,404.726,5.828
633,405.233,5.8293
636,405.741,5.8293
639,406.246,5.8306
642,406.754,5.8306
645,407.262,5.8293
648,407.768,5.8308
651,408.276,5.837
654,408.785,5.8193
657,409.293,5.7989
660,409.799,5.8419
663,410.305,5.8307
666,410.811,5.8291
669,411.317,5.8291
672,411.825,5.8291
675,412.331,5.8291
678,412.838,5.8291
681,413.346,5.8277
684,413.852,5.8277
687,414.358,5.8277
690,414.861,5.8291
693,415.37,5.8291
696,415.878,5.8291
699,416.382,5.8291
702,416.887,5.8304
705,417.392,5.8275
708,417.898,5.8275
711,418.405,5.8275
714,418.911,5.8262
717,419.417,5.8275
720,419.919,5.8275
723,420.427,5.8275
726,420.929,5.8279
729,421.434,5.8275
732,421.936,5.8261
735,422.44,5.8261
738,422.945,5.8261
741,423.447,5.8261
744,423.949,5.8247
747,424.453,5.8261
750,424.957,5.8261
753,425.458,5.8261
756,425.962,5.8261
759,426.463,5.8247
762,426.965,5.8247
765,427.468,5.8247
768,427.966,5.8247
771,428.47,5.8234
774,428.972,5.8227
777,429.469,5.8224
780,429.969,5.8247
783,430.474,5.8229
786,430.972,5.8216
789,431.472,5.8229
792,431.974,5.8229
795,432.474,5.8223
798,432.977,5.8203
801,433.476,5.8203
804,433.977,5.8216
807,434.475,5.8192
810,434.975,5.8189
813,435.475,5.8189
816,435.975,5.8189
819,436.48,5.8189
822,436.978,5.8162
825,437.479,5.8162
828,437.978,5.8149
831,438.479,5.8149
834,438.979,5.8162
837,439.477,5.8162
840,439.979,5.8149
843,440.48,5.8149
846,440.977,5.8136
849,441.476,5.8109
852,441.977,5.8095
855,442.478,5.8082
858,442.978,5.8082
861,443.477,5.8082
864,443.975,5.8068
867,444.474,5.8068
870,444.974,5.8055
873,445.475,5.8065
876,445.973,5.8044
879,446.473,5.8026
882,446.97,5.8012
885,447.469,5.7999
888,447.97,5.7999
891,448.466,5.7976
894,448.967,5.7948
897,449.465,5.7944
900,449.966,5.7931
903,450.462,5.7907
906,450.964,5.7897
909,451.461,5.7888
912,451.963,5.787
915,452.459,5.7857
918,452.958,5.785
921,453.459,5.7847
924,453.951,5.7834
927,454.45,5.7833
930,454.952,5.7809
933,455.449,5.7792
936,455.948,5.7799
939,456.444,5.7619
942,456.944,5.7753
945,457.441,5.7692
948,457.943,5.7668
951,458.44,5.7623
954,458.939,5.762
957,459.438,5.7603
960,459.935,5.7586
963,460.434,5.7573
966,460.933,5.756
969,461.429,5.7553
972,461.928,5.754
975,462.428,5.7526
978,462.925,5.7505
981,463.425,5.7482
984,463.921,5.7469
987,464.421,5.7442
990,464.921,5.7429
993,465.421,5.7413
996,465.918,5.7383
999,466.418,5.7376
1002,466.917,5.7356
1005,467.414,5.7356
1008,467.912,5.7336
1011,468.412,5.7314
1014,468.913,5.731
1017,469.411,5.7297
1020,469.911,5.7294
1023,470.411,5.728
1026,470.909,5.7264
1029,471.407,5.7253
1032,471.908,5.7212
1035,472.406,5.7199
1038,472.906,5.7185
1041,473.404,5.7172
1044,473.903,5.7158
1047,474.405,5.7145
1050,474.905,5.7145
1053,475.401,5.7145
1056,475.901,5.7132
1059,476.399,5.7105
1062,476.901,5.7082
1065,477.396,5.706
1068,477.899,5.7046
1071,478.395,5.7033
1074,478.896,5.702
1077,479.395,5.7002
1080,479.896,5.6975
1083,480.396,5.6961
1086,480.896,5.6947
1089,481.396,5.6947
1092,481.896,5.6934
1095,482.395,5.693
1098,482.893,5.692
1101,483.393,5.6907
1104,483.894,5.6907
1107,484.393,5.6893
1110,484.893,5.687
1113,485.389,5.686
1116,485.891,5.6846
1119,486.39,5.684
1122,486.888,5.6826
1125,487.385,5.6798
1128,487.89,5.6783
1131,488.385,5.6773
1134,488.885,5.6779
1137,489.386,5.6765
1140,489.885,5.6752
1143,490.383,5.6794
1146,490.882,5.6797
1149,491.385,5.6782
1152,491.883,5.6772
1155,492.381,5.6761
1158,492.88,5.6761
1161,493.381,5.6772
1164,493.879,5.6772
1167,494.378,5.6768
1170,494.878,5.6761
1173,495.376,5.6761
1176,495.878,5.6761
1179,496.378,5.6748
1182,496.876,5.6748
1185,497.378,5.6748
1188,497.876,5.6721
1191,498.376,5.671
1194,498.876,5.671
1197,499.379,5.671
1200,499.877,5.671
1203,500.378,5.671
1206,500.876,5.671
1209,501.377,5.671
1212,501.877,5.6697
1215,502.379,5.6687
1218,502.88,5.6682
1221,503.381,5.67
1224,503.88,5.67
1227,504.379,5.67
1230,504.885,5.67
1233,505.38,5.669
1236,505.883,5.6687
1239,506.385,5.6687
1242,506.883,5.6697
1245,507.383,5.67
1248,507.884,5.6713
1251,508.383,5.6696
1254,508.885,5.6696
1257,509.383,5.6696
1260,509.883,5.6696
1263,510.386,5.6696
1266,510.886,5.6696
1269,511.387,5.6682
1272,511.891,5.6659
1275,512.389,5.6645
1278,512.888,5.6645
1281,513.388,5.666
1284,513.888,5.6673
1287,514.388,5.668
1290,514.888,5.6683
1293,515.383,5.6683
1296,515.886,5.6673
1299,516.384,5.6673
1302,516.885,5.6687
1305,517.384,5.6677
1308,517.883,5.6677
1311,518.385,5.6677
1314,518.884,5.6673
1317,519.382,5.6673
1320,519.883,5.6666
1323,520.381,5.6666
1326,520.881,5.6666
1329,521.378,5.6666
1332,521.879,5.6653
1335,522.38,5.6646
1338,522.879,5.6645
1341,523.38,5.6632
1344,523.881,5.6622
1347,524.378,5.6615
1350,524.881,5.6605
1353,525.382,5.6592
1356,525.882,5.6592
1359,526.381,5.6608
1362,526.879,5.6609
1365,527.38,5.6606
1368,527.878,5.6626
1371,528.375,5.6623
1374,528.875,5.659
1377,529.377,5.6604
1380,529.877,5.659
1383,530.38,5.6577
1386,530.877,5.6577
1389,531.379,5.6577
1392,531.879,5.655
1395,532.381,5.655
1398,532.882,5.6537
1401,533.38,5.654
1404,533.881,5.6547
1407,534.384,5.6547
1410,534.885,5.6537
1413,535.385,5.6537
1416,535.886,5.6523
1419,536.384,5.651
1422,536.885,5.651
1425,537.387,5.651
1428,537.885,5.651
1431,538.384,5.651
1434,538.885,5.6496
1437,539.385,5.6483
1440,539.885,5.647
1443,540.389,5.647
1446,540.887,5.6456
1449,541.387,5.6424
1452,541.888,5.6405
1455,542.39,5.6396
1458,542.89,5.638
1461,543.389,5.6376
1464,543.892,5.6376
1467,544.388,5.6376
1470,544.887,5.6376
1473,545.388,5.6376
1476,545.885,5.6362
1479,546.382,5.6356
1482,546.883,5.6336
1485,547.383,5.6316
1488,547.883,5.6309
1491,548.38,5.6299
1494,548.882,5.6282
1497,549.38,5.6263
1500,549.877,5.6248
1503,550.38,5.6234
1506,550.88,5.6215
1509,551.376,5.6205
1512,551.875,5.6201
1515,552.376,5.6177
1518,552.872,5.6163
1521,553.375,5.615
1524,553.872,5.6137
1527,554.371,5.6123
1530,554.872,5.6108
1533,555.37,5.6073
1536,555.871,5.6057
1539,556.373,5.6034
1542,556.87,5.6006
1545,557.37,5.598
1548,557.871,5.597
1551,558.37,5.5957
1554,558.87,5.5939
1557,559.37,5.5921
1560,559.87,5.5894
1563,560.369,5.586
1566,560.868,5.5839
1569,561.371,5.5813
1572,561.87,5.5794
1575,562.368,5.5774
1578,562.868,5.5748
1581,563.369,5.5734
1584,563.868,5.5699
1587,564.37,5.5663
1590,564.871,5.5631
1593,565.37,5.5595
1596,565.872,5.5555
1599,566.373,5.5531
1602,566.872,5.5508
1605,567.372,5.5477
1608,567.872,5.5453
1611,568.372,5.5417
1614,568.871,5.5385
1617,569.375,5.5348
1620,569.873,5.5318
1623,570.374,5.5297
1626,570.872,5.527
1629,571.374,5.5222
1632,571.875,5.5197
1635,572.376,5.5159
1638,572.878,5.5124
1641,573.377,5.5087
1644,573.876,5.5059
1647,574.375,5.5045
1650,574.876,5.5005
1653,575.378,5.4956
1656,575.877,5.4931
1659,576.375,5.4888
1662,576.878,5.4843
1665,577.377,5.4799
1668,577.88,5.477
1671,578.377,5.4727
1674,578.877,5.4697
1677,579.377,5.4652
1680,579.876,5.4631
1683,580.377,5.4599
1686,580.877,5.4547
1689,581.377,5.4495
1692,581.878,5.4455
1695,582.377,5.4435
1698,582.875,5.4397
1701,583.375,5.4364
1704,583.873,5.4317
1707,584.374,5.4279
1710,584.87,5.4227
1713,585.371,5.4182
1716,585.871,5.4144
1719,586.367,5.4101
1722,586.866,5.4069
1725,587.366,5.4031
1728,587.867,5.3967
1731,588.366,5.3926
1734,588.863,5.3894
1737,589.364,5.3838
1740,589.863,5.3801
1743,590.364,5.3751
1746,590.863,5.3704
1749,591.362,5.364
1752,591.861,5.3578
1755,592.36,5.3526
1758,592.86,5.3467
1761,593.361,5.3405
1764,593.859,5.3336
1767,594.359,5.3275
1770,594.86,5.3214
1773,595.362,5.316
1776,595.862,5.309
1779,596.36,5.3042
1782,596.861,5.2977
1785,597.359,5.2909
1788,597.86,5.2849
1791,598.358,5.2768
1794,598.857,5.2684
1797,599.36,5.2611
1800,599.859,5.252
1803,600.358,5.245
1806,600.86,5.2368
1809,601.358,5.2276
1812,601.855,5.2189
1815,602.356,5.2093
1818,602.857,5.2023
1821,603.355,5.1921
1824,603.853,5.1829
1827,604.352,5.1724
1830,604.851,5.1635
1833,605.348,5.1532
1836,605.847,5.1422
1839,606.345,5.1296
1842,606.843,5.1175
1845,607.343,5.1039
1848,607.845,5.0913
1851,608.341,5.0788
1854,608.842,5.0679
1857,609.34,5.0553
1860,609.84,5.0411
1863,610.338,5.0278
1866,610.836,5.0132
1869,611.335,4.9978
1872,611.835,4.9805
1875,612.334,4.9676
1878,612.834,4.9508
1881,613.331,4.9335
1884,613.833,4.9147
1887,614.331,4.8997
1890,614.831,4.882
1893,615.331,4.8629
1896,615.831,4.8432
1899,616.33,4.8251
1902,616.827,4.8052
1905,617.33,4.7831
1908,617.83,4.7617
1911,618.331,4.7378
1914,618.831,4.7154
1917,619.331,4.6937
1920,619.832,4.6677
1923,620.334,4.6459
1926,620.836,4.6224
1929,621.332,4.5953
1932,621.834,4.5684
1935,622.335,4.5419
1938,622.832,4.516
1941,623.334,4.4865
1944,623.835,4.4554
1947,624.331,4.4274
1950,624.832,4.3976
1953,625.331,4.3652
1956,625.83,4.332
1959,626.331,4.3023
1962,626.828,4.2697
1965,627.329,4.2359
1968,627.825,4.2003
1971,628.326,4.1654
1974,628.825,4.1304
1977,629.32,4.0929
1980,629.822,4.0558
1983,630.319,4.0189
1986,630.819,3.981
1989,631.316,3.941
1992,631.815,3.9011
1995,632.311,3.8609
1998,632.809,3.8201
2001,633.306,3.7795
2004,633.804,3.7381
2007,634.3,3.697
2010,634.799,3.6555
2013,635.295,3.6118
2016,635.792,3.5679
2019,636.29,3.5257
2022,636.785,3.4821
2025,637.282,3.44
2028,637.78,3.3949
2031,638.28,3.3531
2034,638.777,3.3103
2037,639.275,3.2661
2040,639.769,3.2207
2043,640.266,3.1792
2046,640.767,3.1369
2049,641.264,3.0943
2052,641.765,3.0488
2055,642.263,3.0058
2058,642.768,2.964
2061,643.271,2.9173
2064,643.772,2.8717
2067,644.279,2.8295
2070,644.778,2.784
2073,645.282,2.738
2076,645.787,2.6911
2079,646.289,2.647
2082,646.788,2.6022
2085,647.295,2.5535
2088,647.795,2.5054
2091,648.293,2.461
2094,648.799,2.4154
2097,649.299,2.3704
2100,649.794,2.321
2103,650.29,2.2755
2106,650.798,2.2303
2109,651.291,2.1836
2112,651.788,2.1384
2115,652.299,2.0969
2118,652.801,2.0495
2121,653.297,2.0047
2124,653.799,1.9565
2127,654.301,1.9118
2130,654.803,1.865
2133,655.304,1.8212
2136,655.805,1.7777
2139,656.304,1.7361
2142,656.809,1.6949
2145,657.308,1.6532
2148,657.807,1.6124
2151,658.306,1.5744
2154,658.814,1.5344
2157,659.32,1.4941
2160,659.824,1.4542
2163,660.326,1.4175
2166,660.834,1.3801
2169,661.34,1.3423
2172,661.848,1.3065
2175,662.357,1.2737
2178,662.862,1.2403
2181,663.373,1.2076
2184,663.883,1.1759
2187,664.391,1.146
2190,664.897,1.1159
2193,665.413,1.086
2196,665.923,1.0571
2199,666.439,1.0317
2202,666.951,1.0052
2205,667.464,0.9796
2208,667.979,0.9539
2211,668.496,0.9302
2214,669.01,0.9078
2217,669.529,0.8838
2220,670.047,0.8606
2223,670.565,0.84
2226,671.083,0.8218
2229,671.606,0.8008
2232,672.122,0.7814
2235,672.642,0.7628
2238,673.162,0.7445
2241,673.678,0.7274
2244,674.203,0.7112
2247,674.718,0.6958
2250,675.235,0.6796
2253,675.756,0.6658
2256,676.274,0.6509
2259,676.794,0.637
2262,677.311,0.6228
2265,677.832,0.6107
2268,678.348,0.6001
2271,678.866,0.5888
2274,679.381,0.5767
2277,679.901,0.5665
2280,680.414,0.5564
2283,680.93,0.5477
2286,681.445,0.5388
2289,681.957,0.5314
2292,682.473,0.523
2295,682.985,0.5143
2298,683.497,0.5064
2301,684.008,0.5009
2304,684.521,0.4936
2307,685.031,0.4861
2310,685.54,0.48
2313,686.049,0.4755
2316,686.557,0.4701
2319,687.066,0.4655
2322,687.574,0.4614
2325,688.082,0.4558
2328,688.587,0.4515
2331,689.095,0.4461
2334,689.601,0.443
2337,690.104,0.4393
2340,690.609,0.4344
2343,691.114,0.4332
2346,691.618,0.4309
2349,692.119,0.4274
2352,692.625,0.4227
2355,693.129,0.4212
2358,693.633,0.4181
2361,694.135,0.4133
2364,694.641,0.4116
2367,695.144,0.4101
2370,695.645,0.4084
2373,696.15,0.4056
2376,696.651,0.4029
2379,697.157,0.3993
2382,697.658,0.398
2385,698.161,0.398
2388,698.663,0.3966
2391,699.164,0.3944
2394,699.665,0.3934
2397,700.168,0.3914
2400,700.67,0.3896
2403,701.174,0.3896
2406,701.678,0.3883
2409,702.178,0.3869
2412,702.677,0.3856
2415,703.179,0.3856
2418,703.68,0.3842
2421,704.181,0.3842
2424,704.683,0.3828
2427,705.184,0.3814
2430,705.685,0.3801
2433,706.188,0.3774
2436,706.686,0.3788
2439,707.188,0.3788
2442,707.688,0.3788
2445,708.192,0.3788
2448,708.69,0.3788
2451,709.192,0.3777
2454,709.694,0.3777
2457,710.195,0.3764
2460,710.694,0.3779
2463,711.198,0.3792
2466,711.701,0.3792
2469,712.201,0.3789
2472,712.702,0.3795
2475,713.203,0.3802
2478,713.704,0.3802
2481,714.203,0.3775
2484,714.703,0.3775
2487,715.203,0.3775
2490,715.702,0.3789
2493,716.202,0.3802
2496,716.701,0.3802
2499,717.2,0.3795
2502,717.699,0.3789
2505,718.199,0.3789
2508,718.695,0.3789
2511,719.193,0.3802
2514,719.693,0.3802
2517,720.189,0.3795
2520,720.686,0.3795
2523,721.182,0.3795
2526,721.68,0.3799
2529,722.175,0.3802
2532,722.672,0.3802
2535,723.17,0.3816
2538,723.665,0.3816
2541,724.161,0.3816
2544,724.657,0.3816
2547,725.151,0.3816
2550,725.647,0.3829
2553,726.141,0.3842
2556,726.634,0.3856
2559,727.129,0.3856
2562,727.623,0.3842
2565,728.113,0.3856
2568,728.609,0.3856
2571,729.099,0.3856
2574,729.591,0.3856
2577,730.084,0.3869
2580,730.574,0.3856
2583,731.067,0.3856
2586,731.559,0.3856
2589,732.05,0.3856
2592,732.541,0.3842
2595,733.032,0.3842
2598,733.523,0.3842
2601,734.01,0.3852
2604,734.502,0.3856
2607,734.992,0.3856
2610,735.482,0.3842
2613,735.97,0.3852
2616,736.459,0.3856
2619,736.949,0.3856
2622,737.439,0.3859
2625,737.929,0.3869
2628,738.418,0.3846
2631,738.907,0.3842
2634,739.394,0.3856
2637,739.885,0.3856
2640,740.375,0.3856
2643,740.867,0.3856
2646,741.355,0.3869
2649,741.845,0.3869
2652,742.332,0.3869
2655,742.823,0.3869
2658,743.314,0.3856
2661,743.801,0.3856
2664,744.293,0.3883
2667,744.783,0.3869
2670,745.272,0.3869
2673,745.764,0.3869
2676,746.252,0.3869
2679,746.746,0.3883
2682,747.236,0.3896
2685,747.727,0.3896
2688,748.216,0.3886
2691,748.71,0.3896
2694,749.202,0.3896
2697,749.694,0.3909
2700,750.188,0.3909
2703,750.679,0.3896
2706,751.17,0.3896
2709,751.665,0.3896
2712,752.158,0.3896
2715,752.654,0.3896
2718,753.147,0.3909
2721,753.642,0.3909
2724,754.136,0.3909
2727,754.628,0.3909
2730,755.128,0.3909
2733,755.621,0.3909
2736,756.117,0.3923
2739,756.615,0.3936
2742,757.108,0.3923
2745,757.606,0.3923
2748,758.102,0.3923
2751,758.598,0.3923
2754,759.095,0.3909
2757,759.589,0.3909
2760,760.089,0.3909
2763,760.582,0.3936
2766,761.081,0.3936
2769,761.578,0.3943
2772,762.072,0.395
2775,762.569,0.395
2778,763.065,0.3963
2781,763.562,0.3963
2784,764.057,0.3963
2787,764.553,0.3976
2790,765.05,0.3976
2793,765.545,0.3976
2796,766.041,0.3976
2799,766.541,0.399
2802,767.034,0.3987
2805,767.534,0.3976
2808,768.028,0.397
2811,768.525,0.397
2814,769.021,0.397
2817,769.519,0.398
2820,770.015,0.398
2823,770.512,0.398
2826,771.009,0.398
2829,771.508,0.398
2832,772.007,0.3993
2835,772.502,0.3993
2838,773.002,0.4007
2841,773.498,0.4007
2844,773.999,0.4007
2847,774.496,0.4007
2850,774.995,0.4017
2853,775.491,0.402
2856,775.99,0.4027
2859,776.489,0.4027
2862,776.987,0.4027
2865,777.484,0.4027
2868,777.983,0.404
2871,778.481,0.404
2874,778.978,0.404
2877,779.478,0.404
2880,779.977,0.4054
2883,780.475,0.4054
2886,780.972,0.4054
2889,781.47,0.4047
2892,781.971,0.4044
2895,782.472,0.4044
2898,782.969,0.4057
2901,783.468,0.407
2904,783.967,0.4057
2907,784.466,0.4044
2910,784.965,0.4044
2913,785.466,0.4057
2916,785.965,0.405
2919,786.466,0.406
2922,786.963,0.4057
2925,787.463,0.4057
2928,787.964,0.4057
2931,788.464,0.4047
2934,788.964,0.4044
2937,789.464,0.4057
2940,789.964,0.4067
2943,790.461,0.4067
2946,790.964,0.4057
2949,791.463,0.4053
2952,791.963,0.4053
2955,792.462,0.4066
2958,792.963,0.4066
2961,793.461,0.4066
2964,793.962,0.4079
2967,794.464,0.4066
2970,794.962,0.4066
2973,795.46,0.4093
2976,795.959,0.4106
2979,796.463,0.4106
2982,796.96,0.412
2985,797.46,0.412
2988,797.96,0.411
2991,798.459,0.411
2994,798.959,0.4123
2997,799.461,0.4123
3000,799.957,0.4123
3003,800.456,0.412
3006,800.954,0.412
3009,801.458,0.412
3012,801.956,0.412
3015,802.455,0.412
3018,802.954,0.4113
3021,803.456,0.411
3024,803.956,0.411
3027,804.454,0.4123
3030,804.954,0.413
3033,805.455,0.4136
3036,805.957,0.416
3039,806.453,0.4163
3042,806.955,0.416
3045,807.453,0.415
3048,807.95,0.415
3051,808.45,0.4156
3054,808.949,0.4163
3057,809.45,0.4163
3060,809.948,0.4163
3063,810.448,0.415
3066,810.946,0.415
3069,811.447,0.4163
3072,811.947,0.4163
3075,812.446,0.4177
3078,812.944,0.4163
3081,813.442,0.4163
3084,813.942,0.4163
3087,814.439,0.4177
3090,814.94,0.4177
3093,815.437,0.4177
3096,815.939,0.419
3099,816.438,0.419
3102,816.938,0.4177
3105,817.437,0.4177
3108,817.935,0.419
3111,818.435,0.418
3114,818.934,0.4193
3117,819.433,0.4193
3120,819.931,0.4203
3123,820.431,0.4203
3126,820.928,0.4203
3129,821.426,0.4203
3132,821.927,0.4197
3135,822.424,0.4203