File: PMMA/Calibration_Data/TIFP/TIFP_TGA_N2_10K_6.csv
Time,Temperature,Mass
[s],[K],[mg]
0,302.613,5.4602
3,302.607,5.4602
6,302.608,5.4602
9,302.608,5.4617
12,302.6,5.463
15,302.597,5.4607
18,302.597,5.4587
21,302.596,5.4565
24,302.592,5.452
27,302.586,5.4479
30,302.586,5.4426
33,302.581,5.4358
36,302.581,5.4278
39,302.579,5.4207
42,302.578,5.415
45,302.575,5.4061
48,302.569,5.3961
51,302.569,5.3861
54,302.565,5.3766
57,302.564,5.3668
60,302.56,5.3581
63,302.56,5.3477
66,302.563,5.337
69,302.573,5.3284
72,302.585,5.3195
75,302.609,5.3137
78,302.645,5.3095
81,302.693,5.3066
84,302.752,5.3047
87,302.828,5.3026
90,302.922,5.3008
93,303.034,5.2994
96,303.17,5.2996
99,303.33,5.3006
102,303.511,5.3026
105,303.719,5.303
108,303.956,5.3079
111,304.223,5.3132
114,304.514,5.3173
117,304.838,5.3231
120,305.194,5.3284
123,305.583,5.3344
126,306.003,5.3391
129,306.454,5.3479
132,306.936,5.3524
135,307.455,5.3605
138,308.006,5.3687
141,308.587,5.3776
144,309.2,5.3854
147,309.842,5.3925
150,310.513,5.4004
153,311.216,5.4093
156,311.941,5.4155
159,312.692,5.422
162,313.469,5.4301
165,314.262,5.4376
168,315.083,5.4456
171,315.92,5.4533
174,316.77,5.46
177,317.637,5.4655
180,318.521,5.4743
183,319.421,5.4797
186,320.319,5.484
189,321.228,5.4882
192,322.149,5.4925
195,323.073,5.4977
198,323.998,5.5021
201,324.927,5.5067
204,325.855,5.5099
207,326.782,5.5137
210,327.71,5.5158
213,328.63,5.5195
216,329.548,5.5238
219,330.46,5.5262
222,331.36,5.528
225,332.259,5.5293
228,333.145,5.5307
231,334.019,5.5307
234,334.884,5.532
237,335.74,5.5336
240,336.584,5.5349
243,337.415,5.5349
246,338.239,5.5363
249,339.04,5.5373
252,339.832,5.5351
255,340.616,5.5341
258,341.384,5.5348
261,342.139,5.5341
264,342.88,5.5335
267,343.607,5.5333
270,344.323,5.5333
273,345.024,5.5312
276,345.711,5.529
279,346.387,5.5289
282,347.053,5.5268
285,347.705,5.5244
288,348.342,5.524
291,348.972,5.5226
294,349.591,5.5215
297,350.194,5.5202
300,350.795,5.5173
303,351.376,5.5159
306,351.953,5.5143
309,352.52,5.5129
312,353.08,5.5109
315,353.634,5.5088
318,354.174,5.5074
321,354.714,5.5074
324,355.242,5.5061
327,355.766,5.5061
330,356.284,5.5047
333,356.796,5.5021
336,357.302,5.5007
339,357.802,5.4994
342,358.301,5.498
345,358.797,5.498
348,359.285,5.4967
351,359.772,5.4953
354,360.257,5.494
357,360.737,5.4937
360,361.215,5.4927
363,361.689,5.4906
366,362.168,5.4906
369,362.64,5.4906
372,363.11,5.49
375,363.581,5.4893
378,364.051,5.4906
381,364.519,5.4906
384,364.99,5.4906
387,365.456,5.4893
390,365.924,5.4893
393,366.392,5.4893
396,366.858,5.4893
399,367.327,5.4893
402,367.792,5.4883
405,368.263,5.4893
408,368.73,5.488
411,369.201,5.4893
414,369.671,5.4893
417,370.14,5.4886
420,370.612,5.4893
423,371.083,5.4896
426,371.557,5.4893
429,372.027,5.4906
432,372.502,5.4913
435,372.979,5.492
438,373.453,5.492
441,373.933,5.4893
444,374.407,5.4902
447,374.887,5.4915
450,375.365,5.4915
453,375.846,5.4929
456,376.326,5.4929
459,376.805,5.4929
462,377.292,5.4942
465,377.773,5.4942
468,378.257,5.4929
471,378.741,5.4929
474,379.226,5.4942
477,379.711,5.4942
480,380.198,5.4942
483,380.686,5.4956
486,381.174,5.4946
489,381.66,5.4956
492,382.149,5.4962
495,382.636,5.4966
498,383.128,5.4969
501,383.615,5.4969
504,384.107,5.4969
507,384.596,5.4982
510,385.089,5.5054
513,385.577,5.5023
516,386.072,5.5126
519,386.563,5.5007
522,387.056,5.5094
525,387.55,5.5129
528,388.042,5.511
531,388.54,5.506
534,389.033,5.506
537,389.524,5.5063
540,390.019,5.5056
543,390.513,5.5041
546,391.013,5.5009
549,391.503,5.5013
552,392.003,5.5023
555,392.502,5.5036
558,392.996,5.5012
561,393.491,5.5022
564,393.99,5.5035
567,394.491,5.5035
570,394.984,5.5035
573,395.485,5.5035
576,395.987,5.5035
579,396.485,5.5035
582,396.983,5.5022
585,397.481,5.5035
588,397.984,5.5035
591,398.485,5.5045
594,398.982,5.5048
597,399.485,5.5035
600,399.987,5.5048
603,400.487,5.5048
606,400.992,5.5035
609,401.49,5.5051
612,401.996,5.5074
615,402.5,5.5088
618,403.001,5.5077
621,403.508,5.5088
624,404.013,5.5077
627,404.516,5.5074
630,405.02,5.5061
633,405.527,5.5061
636,406.03,5.5047
639,406.537,5.5061
642,407.041,5.5061
645,407.549,5.5061
648,408.051,5.5061
651,408.557,5.5113
654,409.064,5.4946
657,409.572,5.4729
660,410.079,5.5159
663,410.587,5.5043
666,411.091,5.5017
669,411.598,5.502
672,412.105,5.5024
675,412.613,5.5031
678,413.12,5.5031
681,413.623,5.5017
684,414.134,5.5031
687,414.638,5.5031
690,415.146,5.5034
693,415.65,5.5044
696,416.159,5.5031
699,416.664,5.5031
702,417.17,5.5044
705,417.678,5.5028
708,418.184,5.5028
711,418.69,5.5038
714,419.192,5.5025
717,419.698,5.5025
720,420.206,5.5025
723,420.711,5.5025
726,421.217,5.5025
729,421.722,5.5012
732,422.225,5.5012
735,422.729,5.5012
738,423.235,5.5012
741,423.74,5.5015
744,424.244,5.5001
747,424.747,5.5001
750,425.253,5.5001
753,425.757,5.5012
756,426.261,5.5012
759,426.768,5.4988
762,427.272,5.4985
765,427.777,5.4985
768,428.275,5.4985
771,428.779,5.4985
774,429.284,5.4985
777,429.787,5.4975
780,430.292,5.4985
783,430.792,5.4967
786,431.295,5.4963
789,431.799,5.498
792,432.3,5.4967
795,432.804,5.496
798,433.306,5.4953
801,433.809,5.4953
804,434.309,5.4943
807,434.812,5.493
810,435.31,5.4927
813,435.814,5.4927
816,436.313,5.494
819,436.817,5.4927
822,437.317,5.4913
825,437.818,5.4913
828,438.316,5.49
831,438.819,5.49
834,439.315,5.49
837,439.815,5.4886
840,440.315,5.4886
843,440.816,5.4886
846,441.316,5.4873
849,441.816,5.4859
852,442.316,5.4846
855,442.817,5.4846
858,443.315,5.4846
861,443.814,5.4833
864,444.313,5.4819
867,444.812,5.4806
870,445.311,5.4802
873,445.807,5.4806
876,446.308,5.4796
879,446.805,5.4792
882,447.306,5.4766
885,447.803,5.4762
888,448.301,5.4739
891,448.799,5.4725
894,449.299,5.4709
897,449.794,5.4699
900,450.291,5.4699
903,450.791,5.4672
906,451.285,5.4662
909,451.785,5.4655
912,452.281,5.4635
915,452.78,5.4621
918,453.279,5.4608
921,453.775,5.4591
924,454.27,5.4578
927,454.769,5.4578
930,455.265,5.454
933,455.763,5.4523
936,456.261,5.4529
939,456.759,5.4361
942,457.254,5.45
945,457.751,5.4455
948,458.249,5.4441
951,458.743,5.4408
954,459.241,5.438
957,459.738,5.436
960,460.235,5.4343
963,460.73,5.433
966,461.227,5.4323
969,461.723,5.4308
972,462.22,5.4295
975,462.714,5.4282
978,463.212,5.4267
981,463.707,5.4254
984,464.203,5.424
987,464.701,5.4227
990,465.197,5.4207
993,465.694,5.4187
996,466.191,5.4173
999,466.69,5.416
1002,467.189,5.4133
1005,467.682,5.4119
1008,468.182,5.4116
1011,468.68,5.4106
1014,469.177,5.4088
1017,469.673,5.4062
1020,470.173,5.4056
1023,470.668,5.4046
1026,471.168,5.4032
1029,471.663,5.4032
1032,472.162,5.4006
1035,472.66,5.3995
1038,473.158,5.3979
1041,473.656,5.3965
1044,474.153,5.3944
1047,474.651,5.3912
1050,475.149,5.3908
1053,475.648,5.3908
1056,476.147,5.3895
1059,476.643,5.3881
1062,477.143,5.3863
1065,477.64,5.3853
1068,478.138,5.384
1071,478.635,5.3827
1074,479.134,5.3811
1077,479.633,5.3798
1080,480.129,5.3784
1083,480.628,5.3771
1086,481.128,5.3756
1089,481.627,5.3743
1092,482.122,5.3733
1095,482.62,5.3715
1098,483.122,5.3715
1101,483.618,5.3701
1104,484.117,5.3688
1107,484.616,5.3675
1110,485.114,5.3664
1113,485.612,5.3648
1116,486.112,5.3634
1119,486.609,5.3634
1122,487.106,5.3621
1125,487.605,5.3604
1128,488.104,5.3594
1131,488.603,5.3581
1134,489.097,5.3591
1137,489.598,5.3577
1140,490.096,5.3577
1143,490.595,5.362
1146,491.092,5.3623
1149,491.589,5.3594
1152,492.088,5.3584
1155,492.584,5.3561
1158,493.081,5.3561
1161,493.582,5.3574
1164,494.082,5.3584
1167,494.578,5.3587
1170,495.079,5.3587
1173,495.575,5.3587
1176,496.074,5.3574
1179,496.573,5.3561
1182,497.072,5.3561
1185,497.57,5.3561
1188,498.069,5.3534
1191,498.568,5.3523
1194,499.066,5.3523
1197,499.565,5.3523
1200,500.063,5.3523
1203,500.564,5.3509
1206,501.061,5.3509
1209,501.562,5.3509
1212,502.06,5.3496
1215,502.558,5.3496
1218,503.058,5.3496
1221,503.558,5.3514
1224,504.058,5.3527
1227,504.555,5.3527
1230,505.053,5.3527
1233,505.552,5.3514
1236,506.052,5.3514
1239,506.551,5.3514
1242,507.051,5.3514
1245,507.551,5.3514
1248,508.048,5.3527
1251,508.549,5.3499
1254,509.046,5.3499
1257,509.545,5.3499
1260,510.044,5.3499
1263,510.543,5.3513
1266,511.041,5.3519
1269,511.54,5.3519
1272,512.038,5.3509
1275,512.534,5.3506
1278,513.034,5.3506
1281,513.53,5.3506
1284,514.031,5.3506
1287,514.528,5.3506
1290,515.026,5.3506
1293,515.522,5.3502
1296,516.021,5.3479
1299,516.522,5.3479
1302,517.019,5.3492
1305,517.519,5.3492
1308,518.02,5.3492
1311,518.516,5.3492
1314,519.013,5.3492
1317,519.512,5.3486
1320,520.011,5.3479
1323,520.51,5.3479
1326,521.008,5.3479
1329,521.507,5.3479
1332,522.005,5.3466
1335,522.503,5.3466
1338,523.005,5.3466
1341,523.503,5.3466
1344,524.003,5.3466
1347,524.499,5.3452
1350,524.998,5.3452
1353,525.499,5.3439
1356,525.998,5.3439
1359,526.496,5.3442
1362,526.993,5.3432
1365,527.494,5.3429
1368,527.994,5.3435
1371,528.492,5.3442
1374,528.99,5.3423
1377,529.49,5.3436
1380,529.992,5.3436
1383,530.489,5.3423
1386,530.99,5.3423
1389,531.491,5.3423
1392,531.989,5.3396
1395,532.49,5.3396
1398,532.988,5.3383
1401,533.487,5.3386
1404,533.989,5.3393
1407,534.489,5.338
1410,534.987,5.3383
1413,535.489,5.3369
1416,535.99,5.3356
1419,536.49,5.3356
1422,536.988,5.3343
1425,537.489,5.3356
1428,537.99,5.3343
1431,538.486,5.3343
1434,538.993,5.3329
1437,539.491,5.3329
1440,539.991,5.3322
1443,540.489,5.3316
1446,540.99,5.3302
1449,541.493,5.3276
1452,541.991,5.3276
1455,542.493,5.3275
1458,542.992,5.3262
1461,543.491,5.3259
1464,543.99,5.3255
1467,544.493,5.3245
1470,544.99,5.3232
1473,545.491,5.3232
1476,545.991,5.3219
1479,546.489,5.3198
1482,546.991,5.3178
1485,547.49,5.3165
1488,547.988,5.3165
1491,548.488,5.3161
1494,548.988,5.3161
1497,549.488,5.3148
1500,549.987,5.3123
1503,550.484,5.3107
1506,550.984,5.3093
1509,551.485,5.3078
1512,551.983,5.3063
1515,552.482,5.304
1518,552.98,5.3022
1521,553.48,5.3007
1524,553.978,5.2994
1527,554.476,5.298
1530,554.973,5.2966
1533,555.474,5.2951
1536,555.973,5.2938
1539,556.471,5.2924
1542,556.966,5.29
1545,557.468,5.2881
1548,557.965,5.286
1551,558.461,5.2842
1554,558.961,5.2819
1557,559.459,5.2806
1560,559.959,5.278
1563,560.456,5.2761
1566,560.955,5.2731
1569,561.451,5.2704
1572,561.951,5.2686
1575,562.448,5.2673
1578,562.947,5.2658
1581,563.445,5.2625
1584,563.942,5.2589
1587,564.442,5.2572
1590,564.941,5.2544
1593,565.437,5.2513
1596,565.934,5.2472
1599,566.435,5.2456
1602,566.932,5.2426
1605,567.43,5.2397
1608,567.928,5.2372
1611,568.427,5.2342
1614,568.927,5.2311
1617,569.422,5.2272
1620,569.92,5.2229
1623,570.42,5.221
1626,570.918,5.2196
1629,571.418,5.2164
1632,571.916,5.2123
1635,572.417,5.2107
1638,572.915,5.2072
1641,573.415,5.2037
1644,573.915,5.2016
1647,574.412,5.1987
1650,574.911,5.1961
1653,575.411,5.1923
1656,575.912,5.1871
1659,576.408,5.1849
1662,576.907,5.1817
1665,577.408,5.1774
1668,577.906,5.1737
1671,578.406,5.1707
1674,578.906,5.1671
1677,579.406,5.163
1680,579.907,5.161
1683,580.406,5.158
1686,580.906,5.1546
1689,581.407,5.1509
1692,581.906,5.1457
1695,582.407,5.1407
1698,582.907,5.1372
1701,583.407,5.134
1704,583.908,5.1314
1707,584.409,5.1267
1710,584.908,5.1227
1713,585.408,5.1185
1716,585.906,5.1139
1719,586.406,5.1107
1722,586.908,5.1054
1725,587.408,5.1011
1728,587.909,5.0958
1731,588.409,5.0912
1734,588.911,5.0865
1737,589.407,5.083
1740,589.91,5.0784
1743,590.408,5.0722
1746,590.907,5.0671
1749,591.406,5.0615
1752,591.906,5.0558
1755,592.409,5.0501
1758,592.906,5.0445
1761,593.404,5.0389
1764,593.906,5.0321
1767,594.404,5.0249
1770,594.902,5.0205
1773,595.401,5.0154
1776,595.901,5.0084
1779,596.401,5.0008
1782,596.898,4.9933
1785,597.398,4.9858
1788,597.898,4.9775
1791,598.397,4.97
1794,598.897,4.9622
1797,599.397,4.9538
1800,599.896,4.9456
1803,600.395,4.9385
1806,600.896,4.9295
1809,601.393,4.9206
1812,601.892,4.9117
1815,602.394,4.9024
1818,602.89,4.8912
1821,603.389,4.8804
1824,603.89,4.8697
1827,604.391,4.8587
1830,604.886,4.849
1833,605.386,4.8364
1836,605.885,4.8245
1839,606.383,4.8117
1842,606.882,4.8007
1845,607.38,4.7838
1848,607.88,4.7713
1851,608.377,4.7576
1854,608.877,4.7443
1857,609.379,4.7311
1860,609.876,4.7169
1863,610.372,4.701
1866,610.874,4.6854
1869,611.375,4.6688
1872,611.871,4.6509
1875,612.37,4.635
1878,612.87,4.617
1881,613.37,4.5977
1884,613.866,4.578
1887,614.367,4.5595
1890,614.864,4.5403
1893,615.365,4.5178
1896,615.86,4.4983
1899,616.36,4.4778
1902,616.861,4.4556
1905,617.361,4.4308
1908,617.858,4.4101
1911,618.358,4.3851
1914,618.855,4.3597
1917,619.354,4.3357
1920,619.856,4.3101
1923,620.355,4.285
1926,620.855,4.2573
1929,621.353,4.2275
1932,621.855,4.2005
1935,622.354,4.1717
1938,622.854,4.1437
1941,623.353,4.1125
1944,623.854,4.0806
1947,624.354,4.0511
1950,624.853,4.0186
1953,625.351,3.9844
1956,625.85,3.9528
1959,626.35,3.9206
1962,626.85,3.885
1965,627.35,3.8476
1968,627.849,3.8123
1971,628.349,3.7778
1974,628.849,3.7412
1977,629.349,3.7015
1980,629.848,3.6661
1983,630.348,3.6292
1986,630.849,3.5892
1989,631.348,3.5482
1992,631.844,3.5086
1995,632.344,3.4671
1998,632.841,3.4253
2001,633.342,3.382
2004,633.839,3.3439
2007,634.337,3.3023
2010,634.836,3.2597
2013,635.334,3.2148
2016,635.832,3.1725
2019,636.329,3.1283
2022,636.825,3.0848
2025,637.325,3.0403
2028,637.822,2.9976
2031,638.323,2.9545
2034,638.823,2.9109
2037,639.319,2.8653
2040,639.818,2.8237
2043,640.318,2.7805
2046,640.815,2.7352
2049,641.318,2.6891
2052,641.818,2.6462
2055,642.315,2.6025
2058,642.819,2.5596
2061,643.319,2.5139
2064,643.815,2.4688
2067,644.313,2.4244
2070,644.814,2.3819
2073,645.318,2.3367
2076,645.82,2.294
2079,646.318,2.2506
2082,646.82,2.2068
2085,647.322,2.16
2088,647.823,2.1197
2091,648.323,2.0778
2094,648.822,2.0334
2097,649.324,1.9922
2100,649.823,1.9514
2103,650.328,1.9098
2106,650.826,1.8675
2109,651.329,1.826
2112,651.832,1.7863
2115,652.333,1.7449
2118,652.833,1.7039
2121,653.335,1.6641
2124,653.837,1.6243
2127,654.339,1.5867
2130,654.838,1.5478
2133,655.343,1.5067
2136,655.844,1.4692
2139,656.344,1.4327
2142,656.845,1.3968
2145,657.347,1.3596
2148,657.846,1.3272
2151,658.348,1.293
2154,658.851,1.2586
2157,659.352,1.2241
2160,659.856,1.1935
2163,660.355,1.1611
2166,660.858,1.1293
2169,661.36,1.0965
2172,661.862,1.0677
2175,662.361,1.0382
2178,662.862,1.0093
2181,663.362,0.9806
2184,663.864,0.9541
2187,664.364,0.9292
2190,664.863,0.9033
2193,665.362,0.8782
2196,665.865,0.8554
2199,666.366,0.8321
2202,666.866,0.8104
2205,667.367,0.7894
2208,667.866,0.77
2211,668.37,0.7505
2214,668.871,0.7306
2217,669.372,0.7101
2220,669.873,0.6931
2223,670.376,0.6752
2226,670.876,0.6587
2229,671.379,0.6415
2232,671.878,0.6254
2235,672.379,0.6104
2238,672.883,0.5963
2241,673.38,0.5817
2244,673.881,0.569
2247,674.383,0.5562
2250,674.883,0.5445
2253,675.386,0.5308
2256,675.886,0.5192
2259,676.384,0.5079
2262,676.885,0.4979
2265,677.388,0.4893
2268,677.886,0.4804
2271,678.383,0.4699
2274,678.884,0.462
2277,679.382,0.4533
2280,679.883,0.4445
2283,680.383,0.4367
2286,680.878,0.4302
2289,681.38,0.4245
2292,681.878,0.4184
2295,682.376,0.4125
2298,682.876,0.4056
2301,683.374,0.4008
2304,683.873,0.3942
2307,684.371,0.39
2310,684.87,0.3841
2313,685.368,0.3818
2316,685.866,0.3776
2319,686.365,0.3735
2322,686.863,0.3697
2325,687.36,0.3658
2328,687.858,0.362
2331,688.358,0.3584
2334,688.856,0.3562
2337,689.354,0.3536
2340,689.851,0.3517
2343,690.35,0.3492
2346,690.847,0.346
2349,691.344,0.3445
2352,691.845,0.3412
2355,692.341,0.3394
2358,692.84,0.3365
2361,693.34,0.3316
2364,693.836,0.3295
2367,694.333,0.3288
2370,694.829,0.3273
2373,695.329,0.326
2376,695.828,0.324
2379,696.327,0.3216
2382,696.823,0.3203
2385,697.32,0.3203
2388,697.82,0.3189
2391,698.316,0.3176
2394,698.815,0.3163
2397,699.313,0.3148
2400,699.813,0.3135
2403,700.309,0.3135
2406,700.811,0.3128
2409,701.306,0.3121
2412,701.805,0.3108
2415,702.304,0.3093
2418,702.8,0.308
2421,703.299,0.3093
2424,703.799,0.308
2427,704.297,0.308
2430,704.795,0.3066
2433,705.294,0.3053
2436,705.792,0.306
2439,706.293,0.3053
2442,706.789,0.3066
2445,707.289,0.3053
2448,707.788,0.3043
2451,708.288,0.3043
2454,708.786,0.3043
2457,709.286,0.303
2460,709.785,0.3044
2463,710.287,0.3071
2466,710.786,0.3071
2469,711.287,0.3058
2472,711.787,0.3064
2475,712.286,0.3061
2478,712.784,0.3061
2481,713.285,0.3047
2484,713.785,0.3047
2487,714.286,0.3047
2490,714.783,0.3058
2493,715.284,0.3071
2496,715.783,0.3071
2499,716.281,0.3071
2502,716.78,0.3071
2505,717.279,0.3071
2508,717.778,0.3071
2511,718.279,0.3071
2514,718.778,0.3071
2517,719.278,0.3078
2520,719.778,0.3078
2523,720.274,0.3078
2526,720.774,0.3081
2529,721.275,0.3071
2532,721.776,0.3084
2535,722.275,0.3098
2538,722.776,0.3098
2541,723.273,0.3098
2544,723.776,0.3098
2547,724.277,0.3098
2550,724.778,0.3111
2553,725.276,0.3111
2556,725.777,0.3111
2559,726.276,0.3111
2562,726.778,0.3098
2565,727.28,0.3111
2568,727.779,0.3111
2571,728.281,0.3111
2574,728.782,0.3111
2577,729.282,0.3125
2580,729.781,0.3125
2583,730.283,0.3125
2586,730.783,0.3114
2589,731.283,0.3111
2592,731.785,0.3111
2595,732.284,0.3125
2598,732.782,0.3125
2601,733.285,0.3135
2604,733.782,0.3131
2607,734.28,0.3131
2610,734.782,0.3118
2613,735.282,0.3128
2616,735.78,0.3131
2619,736.281,0.3131
2622,736.78,0.3138
2625,737.277,0.3155
2628,737.779,0.3145
2631,738.278,0.3141
2634,738.781,0.3155
2637,739.279,0.3155
2640,739.778,0.3155
2643,740.277,0.3155
2646,740.778,0.3168
2649,741.279,0.3155
2652,741.778,0.3155
2655,742.277,0.3155
2658,742.777,0.3155
2661,743.278,0.3168
2664,743.778,0.3182
2667,744.279,0.3182
2670,744.779,0.3182
2673,745.277,0.3182
2676,745.779,0.3182
2679,746.281,0.3168
2682,746.78,0.3192
2685,747.279,0.3195
2688,747.781,0.3198
2691,748.279,0.3208
2694,748.779,0.3208
2697,749.277,0.3208
2700,749.779,0.3208
2703,750.279,0.3218
2706,750.777,0.3218
2709,751.277,0.3218
2712,751.777,0.3218
2715,752.274,0.3218
2718,752.777,0.3232
2721,753.276,0.3232
2724,753.774,0.3222
2727,754.274,0.3222
2730,754.772,0.3222
2733,755.269,0.3222
2736,755.772,0.3222
2739,756.269,0.3245
2742,756.768,0.3245
2745,757.268,0.3232
2748,757.77,0.3232
2751,758.269,0.3229
2754,758.767,0.3225
2757,759.268,0.3225
2760,759.768,0.3225
2763,760.268,0.3239
2766,760.77,0.3239
2769,761.269,0.3245
2772,761.768,0.3252
2775,762.267,0.3252
2778,762.767,0.3265
2781,763.266,0.3279
2784,763.767,0.3279
2787,764.268,0.3292
2790,764.769,0.3279
2793,765.268,0.3279
2796,765.77,0.3279
2799,766.271,0.3279
2802,766.772,0.3279
2805,767.271,0.3275
2808,767.773,0.3275
2811,768.275,0.3275
2814,768.777,0.3275
2817,769.276,0.3286
2820,769.777,0.3286
2823,770.277,0.3286
2826,770.779,0.3286
2829,771.278,0.3286
2832,771.78,0.3282
2835,772.282,0.3282
2838,772.782,0.3296
2841,773.283,0.3296
2844,773.785,0.3309
2847,774.284,0.3309
2850,774.787,0.3319
2853,775.287,0.3322
2856,775.786,0.3336
2859,776.287,0.3336
2862,776.785,0.3336
2865,777.288,0.3326
2868,777.786,0.3326
2871,778.286,0.3326
2874,778.786,0.3326
2877,779.283,0.3339
2880,779.785,0.3353
2883,780.284,0.3353
2886,780.785,0.3353
2889,781.285,0.3336
2892,781.786,0.3332
2895,782.288,0.3332
2898,782.787,0.3346
2901,783.288,0.3359
2904,783.789,0.3359
2907,784.289,0.3356
2910,784.792,0.3356
2913,785.29,0.3369
2916,785.793,0.3373
2919,786.293,0.3369
2922,786.792,0.3369
2925,787.295,0.3369
2928,787.794,0.3369
2931,788.293,0.3363
2934,788.796,0.3363
2937,789.294,0.3376
2940,789.796,0.3376
2943,790.299,0.3376
2946,790.8,0.3376
2949,791.3,0.3393
2952,791.8,0.3396
2955,792.299,0.3396
2958,792.802,0.3403
2961,793.302,0.3403
2964,793.799,0.3403
2967,794.299,0.339
2970,794.799,0.339
2973,795.299,0.3393
2976,795.8,0.3393
2979,796.305,0.3393
2982,796.802,0.3406
2985,797.302,0.342
2988,797.803,0.342
2991,798.305,0.342
2994,798.806,0.3433
2997,799.308,0.3433
3000,799.807,0.3433
3003,800.31,0.3433
3006,800.81,0.3453
3009,801.311,0.3457
3012,801.814,0.3457
3015,802.313,0.3443
3018,802.814,0.343
3021,803.315,0.343
3024,803.816,0.343
3027,804.318,0.343
3030,804.816,0.3437
3033,805.318,0.3443
3036,805.82,0.3457
3039,806.321,0.3457
3042,806.822,0.347
3045,807.322,0.347
3048,807.822,0.3457
3051,808.323,0.3463
3054,808.825,0.347
3057,809.326,0.347
3060,809.828,0.347
3063,810.329,0.3443
3066,810.827,0.3443
3069,811.329,0.3457
3072,811.83,0.346
3075,812.331,0.3473
3078,812.829,0.3473
3081,813.332,0.3477
3084,813.831,0.3477
3087,814.329,0.349
3090,814.831,0.349
3093,815.328,0.3497
3096,815.832,0.351
3099,816.333,0.3497
3102,816.832,0.3483
3105,817.331,0.3483
3108,817.832,0.3497
3111,818.332,0.3497
3114,818.834,0.352
3117,819.335,0.352
3120,819.834,0.352
3123,820.335,0.352
3126,820.834,0.352
3129,821.336,0.3507
3132,821.837,0.3514
3135,822.335,0.3507