File: PMMA/Calibration_Data/TIFP/TIFP_DSC_N2_10K_4.csv
Time,Temperature,Heat Flow
[s],[K],[mW/mg]
0,300.339,0.00238
3,300.332,0.00219
6,300.327,0.00225
9,300.326,0.00206
12,300.323,0.00247
15,300.324,0.00247
18,300.333,0.00339
21,300.345,0.0039
24,300.365,0.00495
27,300.395,0.00634
30,300.44,0.00799
33,300.494,0.00995
36,300.562,0.0124
39,300.649,0.015
42,300.75,0.0178
45,300.867,0.0214
48,301.006,0.0245
51,301.165,0.0278
54,301.344,0.0314
57,301.543,0.035
60,301.77,0.0378
63,302.014,0.0407
66,302.284,0.0428
69,302.582,0.0447
72,302.903,0.0459
75,303.247,0.0468
78,303.617,0.0477
81,304.013,0.0485
84,304.434,0.0493
87,304.878,0.0504
90,305.349,0.0519
93,305.842,0.0539
96,306.356,0.0564
99,306.894,0.0588
102,307.455,0.0616
105,308.028,0.0653
108,308.631,0.0688
111,309.247,0.073
114,309.882,0.077
117,310.53,0.081
120,311.195,0.0858
123,311.871,0.0905
126,312.56,0.0956
129,313.258,0.10042
132,313.966,0.10521
135,314.688,0.10991
138,315.414,0.11484
141,316.145,0.11987
144,316.884,0.12483
147,317.627,0.1294
150,318.367,0.13356
153,319.114,0.13832
156,319.859,0.14218
159,320.605,0.14646
162,321.353,0.15057
165,322.096,0.15366
168,322.838,0.15742
171,323.576,0.16055
174,324.311,0.16325
177,325.048,0.1666
180,325.774,0.16915
183,326.494,0.17125
186,327.21,0.1737
189,327.917,0.17582
192,328.624,0.17803
195,329.319,0.17945
198,330.012,0.18145
201,330.695,0.18301
204,331.371,0.18431
207,332.036,0.18587
210,332.702,0.18743
213,333.354,0.18873
216,334.001,0.18989
219,334.639,0.19105
222,335.273,0.1923
225,335.898,0.19364
228,336.514,0.19454
231,337.129,0.19548
234,337.731,0.19673
237,338.33,0.19813
240,338.921,0.19933
243,339.511,0.20062
246,340.088,0.2018
249,340.662,0.20312
252,341.232,0.20409
255,341.795,0.20564
258,342.355,0.20705
261,342.908,0.2084
264,343.462,0.21007
267,344.005,0.21171
270,344.548,0.21352
273,345.085,0.21496
276,345.62,0.21686
279,346.15,0.21869
282,346.679,0.2205
285,347.202,0.22251
288,347.728,0.22475
291,348.245,0.22687
294,348.765,0.22904
297,349.28,0.23076
300,349.794,0.23291
303,350.303,0.23562
306,350.817,0.23762
309,351.324,0.23962
312,351.832,0.24236
315,352.335,0.24461
318,352.842,0.24646
321,353.347,0.24886
324,353.85,0.25102
327,354.353,0.25318
330,354.853,0.25554
333,355.356,0.25725
336,355.856,0.25899
339,356.356,0.26081
342,356.858,0.26199
345,357.356,0.26361
348,357.851,0.26507
351,358.352,0.26599
354,358.851,0.26714
357,359.348,0.26818
360,359.846,0.26896
363,360.343,0.26969
366,360.839,0.2709
369,361.34,0.27168
372,361.834,0.27233
375,362.334,0.27312
378,362.831,0.27405
381,363.33,0.27548
384,363.827,0.27563
387,364.323,0.27729
390,364.817,0.27827
393,365.317,0.27959
396,365.812,0.28039
399,366.308,0.28182
402,366.802,0.28303
405,367.301,0.28424
408,367.795,0.28582
411,368.29,0.28703
414,368.786,0.28846
417,369.283,0.29015
420,369.778,0.29142
423,370.272,0.29302
426,370.768,0.29478
429,371.262,0.29619
432,371.756,0.29771
435,372.249,0.29959
438,372.747,0.30139
441,373.24,0.30285
444,373.737,0.30432
447,374.229,0.30636
450,374.723,0.30808
453,375.219,0.30954
456,375.712,0.31137
459,376.206,0.31322
462,376.703,0.31463
465,377.197,0.31684
468,377.693,0.31859
471,378.186,0.3205
474,378.681,0.32246
477,379.177,0.32475
480,379.67,0.32639
483,380.165,0.32816
486,380.661,0.3304
489,381.158,0.33231
492,381.65,0.33453
495,382.146,0.33674
498,382.644,0.33841
501,383.14,0.34046
504,383.635,0.34245
507,384.134,0.34467
510,384.632,0.34814
513,385.13,0.35093
516,385.626,0.35334
519,386.12,0.35566
522,386.618,0.35826
525,387.119,0.36075
528,387.615,0.36297
531,388.116,0.36514
534,388.615,0.36719
537,389.113,0.36903
540,389.612,0.37082
543,390.114,0.37247
546,390.613,0.37442
549,391.114,0.3761
552,391.613,0.37822
555,392.114,0.38034
558,392.617,0.38221
561,393.118,0.38463
564,393.618,0.38667
567,394.124,0.3889
570,394.625,0.3907
573,395.126,0.39288
576,395.631,0.39466
579,396.131,0.39706
582,396.635,0.39837
585,397.139,0.40001
588,397.639,0.40158
591,398.144,0.4033
594,398.646,0.40449
597,399.149,0.40619
600,399.656,0.40743
603,400.16,0.40862
606,400.665,0.40927
609,401.169,0.41077
612,401.674,0.41153
615,402.178,0.41286
618,402.684,0.41363
621,403.188,0.41494
624,403.692,0.41582
627,404.197,0.41711
630,404.705,0.41775
633,405.208,0.41817
636,405.715,0.4196
639,406.222,0.42035
642,406.726,0.42103
645,407.234,0.42254
648,407.738,0.42322
651,408.244,0.4229
654,408.751,0.42223
657,409.256,0.42308
660,409.764,0.42406
663,410.268,0.42516
666,410.772,0.42609
669,411.28,0.42725
672,411.784,0.42789
675,412.29,0.42905
678,412.798,0.43005
681,413.302,0.43162
684,413.809,0.43286
687,414.314,0.434
690,414.819,0.43504
693,415.325,0.43662
696,415.829,0.43817
699,416.333,0.43954
702,416.84,0.44118
705,417.342,0.44276
708,417.848,0.44376
711,418.354,0.44511
714,418.859,0.44637
717,419.363,0.447
720,419.87,0.44835
723,420.373,0.44909
726,420.877,0.44996
729,421.379,0.45081
732,421.883,0.4516
735,422.385,0.45248
738,422.888,0.45296
741,423.393,0.45376
744,423.893,0.45464
747,424.399,0.45534
750,424.899,0.45661
753,425.403,0.45724
756,425.906,0.45821
759,426.405,0.45933
762,426.911,0.46512
765,427.411,0.46702
768,427.912,0.46893
771,428.413,0.47028
774,428.915,0.47192
777,429.416,0.47335
780,429.916,0.47459
783,430.417,0.47614
786,430.919,0.47671
789,431.42,0.47828
792,431.923,0.48002
795,432.423,0.48106
798,432.923,0.48235
801,433.421,0.48366
804,433.92,0.4852
807,434.419,0.48671
810,434.918,0.48798
813,435.418,0.48966
816,435.92,0.49088
819,436.419,0.49234
822,436.916,0.49376
825,437.417,0.49455
828,437.914,0.49594
831,438.415,0.49712
834,438.915,0.49841
837,439.411,0.49968
840,439.91,0.50087
843,440.41,0.50252
846,440.906,0.50374
849,441.405,0.50529
852,441.904,0.50676
855,442.397,0.50823
858,442.897,0.50987
861,443.396,0.51149
864,443.892,0.51292
867,444.391,0.51457
870,444.89,0.51666
873,445.387,0.51782
876,445.886,0.51959
879,446.382,0.52235
882,446.879,0.52599
885,447.375,0.53034
888,447.876,0.53363
891,448.373,0.53588
894,448.869,0.53795
897,449.368,0.53988
900,449.866,0.54192
903,450.364,0.54419
906,450.862,0.54622
909,451.361,0.54813
912,451.86,0.54953
915,452.357,0.55148
918,452.856,0.55325
921,453.35,0.55474
924,453.85,0.5564
927,454.348,0.55779
930,454.845,0.55907
933,455.344,0.56008
936,455.842,0.56126
939,456.34,0.56266
942,456.837,0.56343
945,457.334,0.56434
948,457.831,0.56519
951,458.329,0.56583
954,458.828,0.56642
957,459.324,0.56671
960,459.824,0.56719
963,460.321,0.56726
966,460.815,0.56733
969,461.316,0.56755
972,461.811,0.56754
975,462.31,0.56764
978,462.807,0.56778
981,463.304,0.56761
984,463.805,0.56731
987,464.303,0.56759
990,464.801,0.56776
993,465.301,0.5673
996,465.797,0.56739
999,466.291,0.56726
1002,466.793,0.56714
1005,467.293,0.56727
1008,467.789,0.56715
1011,468.285,0.5675
1014,468.787,0.56755
1017,469.284,0.5676
1020,469.786,0.568
1023,470.283,0.56822
1026,470.782,0.5687
1029,471.281,0.56929
1032,471.779,0.56997
1035,472.278,0.57087
1038,472.777,0.57206
1041,473.275,0.57322
1044,473.776,0.57416
1047,474.277,0.57581
1050,474.776,0.57715
1053,475.275,0.57855
1056,475.775,0.58021
1059,476.268,0.58206
1062,476.771,0.58367
1065,477.268,0.58573
1068,477.769,0.58748
1071,478.268,0.58882
1074,478.767,0.59056
1077,479.265,0.59266
1080,479.766,0.59432
1083,480.266,0.59519
1086,480.763,0.59691
1089,481.262,0.59776
1092,481.76,0.59932
1095,482.26,0.60074
1098,482.757,0.60216
1101,483.254,0.60342
1104,483.753,0.60383
1107,484.252,0.60484
1110,484.749,0.60529
1113,485.246,0.6063
1116,485.748,0.60627
1119,486.245,0.60613
1122,486.742,0.60658
1125,487.236,0.60627
1128,487.737,0.60616
1131,488.237,0.60622
1134,488.736,0.60606
1137,489.233,0.60729
1140,489.731,0.6081
1143,490.23,0.60874
1146,490.729,0.6095
1149,491.227,0.60906
1152,491.727,0.60934
1155,492.224,0.60913
1158,492.723,0.60969
1161,493.222,0.60966
1164,493.722,0.61038
1167,494.219,0.61092
1170,494.717,0.61121
1173,495.216,0.61159
1176,495.714,0.61217
1179,496.216,0.61321
1182,496.714,0.6142
1185,497.212,0.61517
1188,497.713,0.61642
1191,498.21,0.61834
1194,498.708,0.61952
1197,499.205,0.62124
1200,499.704,0.62323
1203,500.202,0.62511
1206,500.704,0.62723
1209,501.2,0.62935
1212,501.703,0.63133
1215,502.2,0.63398
1218,502.701,0.63568
1221,503.199,0.63799
1224,503.697,0.64034
1227,504.197,0.64205
1230,504.699,0.64432
1233,505.196,0.64689
1236,505.696,0.64905
1239,506.195,0.65174
1242,506.694,0.65406
1245,507.196,0.65633
1248,507.694,0.65968
1251,508.191,0.66236
1254,508.694,0.66502
1257,509.195,0.6676
1260,509.693,0.67066
1263,510.192,0.67354
1266,510.691,0.67675
1269,511.189,0.67941
1272,511.692,0.68243
1275,512.194,0.68543
1278,512.695,0.68855
1281,513.194,0.69197
1284,513.695,0.69519
1287,514.192,0.69866
1290,514.692,0.70171
1293,515.192,0.70566
1296,515.69,0.70882
1299,516.19,0.71267
1302,516.69,0.71628
1305,517.19,0.72086
1308,517.69,0.72505
1311,518.193,0.73001
1314,518.692,0.73487
1317,519.193,0.73954
1320,519.69,0.74454
1323,520.195,0.74956
1326,520.694,0.75402
1329,521.192,0.75959
1332,521.696,0.76452
1335,522.195,0.76948
1338,522.694,0.77406
1341,523.196,0.77908
1344,523.695,0.78389
1347,524.195,0.78838
1350,524.696,0.79312
1353,525.195,0.79817
1356,525.694,0.80296
1359,526.195,0.80755
1362,526.694,0.81256
1365,527.195,0.81741
1368,527.696,0.82103
1371,528.195,0.8262
1374,528.694,0.8315
1377,529.194,0.8369
1380,529.694,0.84182
1383,530.193,0.84712
1386,530.695,0.85268
1389,531.194,0.85824
1392,531.696,0.8636
1395,532.193,0.86903
1398,532.692,0.8738
1401,533.194,0.87966
1404,533.692,0.88509
1407,534.193,0.89017
1410,534.689,0.89595
1413,535.191,0.90133
1416,535.693,0.90678
1419,536.193,0.91257
1422,536.691,0.91792
1425,537.19,0.92349
1428,537.689,0.92907
1431,538.187,0.93497
1434,538.687,0.94066
1437,539.189,0.94656
1440,539.687,0.95305
1443,540.187,0.95921
1446,540.688,0.96564
1449,541.183,0.97225
1452,541.684,0.9788
1455,542.184,0.9851
1458,542.681,0.99136
1461,543.179,0.99762
1464,543.677,1.00381
1467,544.176,1.01038
1470,544.675,1.01678
1473,545.175,1.0232
1476,545.673,1.02981
1479,546.17,1.03646
1482,546.669,1.04282
1485,547.168,1.04932
1488,547.664,1.05513
1491,548.167,1.06294
1494,548.668,1.07105
1497,549.17,1.07974
1500,549.672,1.08892
1503,550.17,1.09788
1506,550.672,1.10744
1509,551.173,1.11652
1512,551.673,1.12611
1515,552.173,1.135
1518,552.673,1.14377
1521,553.174,1.15276
1524,553.674,1.16148
1527,554.175,1.17018
1530,554.673,1.1783
1533,555.174,1.18707
1536,555.675,1.19491
1539,556.174,1.20314
1542,556.674,1.21037
1545,557.172,1.21834
1548,557.669,1.22575
1551,558.169,1.23312
1554,558.666,1.24021
1557,559.168,1.24759
1560,559.664,1.25429
1563,560.164,1.26188
1566,560.659,1.26905
1569,561.161,1.27603
1572,561.662,1.28345
1575,562.161,1.29055
1578,562.656,1.29797
1581,563.157,1.30543
1584,563.657,1.31284
1587,564.156,1.32022
1590,564.655,1.32759
1593,565.15,1.33567
1596,565.651,1.34618
1599,566.15,1.35733
1602,566.65,1.36927
1605,567.15,1.38092
1608,567.649,1.39349
1611,568.144,1.40634
1614,568.643,1.41874
1617,569.143,1.43153
1620,569.642,1.44408
1623,570.139,1.45681
1626,570.64,1.46849
1629,571.14,1.48073
1632,571.639,1.49298
1635,572.139,1.50467
1638,572.636,1.51693
1641,573.135,1.52867
1644,573.634,1.54056
1647,574.134,1.55277
1650,574.631,1.5646
1653,575.131,1.57657
1656,575.632,1.58846
1659,576.13,1.6006
1662,576.63,1.61227
1665,577.129,1.6245
1668,577.626,1.63588
1671,578.124,1.64765
1674,578.622,1.65898
1677,579.122,1.67086
1680,579.619,1.68227
1683,580.118,1.69397
1686,580.62,1.7054
1689,581.119,1.71728
1692,581.617,1.72878
1695,582.119,1.74105
1698,582.616,1.75327
1701,583.116,1.76615
1704,583.616,1.77849
1707,584.118,1.79059
1710,584.614,1.80381
1713,585.116,1.81623
1716,585.617,1.82884
1719,586.112,1.8423
1722,586.612,1.85597
1725,587.112,1.86966
1728,587.609,1.88399
1731,588.111,1.89795
1734,588.609,1.9126
1737,589.109,1.92797
1740,589.605,1.94336
1743,590.105,1.95957
1746,590.605,1.97558
1749,591.104,1.99158
1752,591.602,2.0085
1755,592.099,2.02554
1758,592.599,2.04308
1761,593.097,2.06071
1764,593.595,2.07879
1767,594.094,2.09698
1770,594.592,2.11564
1773,595.092,2.13466
1776,595.588,2.15463
1779,596.087,2.17493
1782,596.586,2.19568
1785,597.086,2.21613
1788,597.587,2.23693
1791,598.087,2.25878
1794,598.585,2.28066
1797,599.086,2.30322
1800,599.587,2.32576
1803,600.087,2.34861
1806,600.588,2.37204
1809,601.088,2.3963
1812,601.589,2.42066
1815,602.088,2.44557
1818,602.588,2.47124
1821,603.085,2.49719
1824,603.587,2.52388
1827,604.086,2.55081
1830,604.587,2.57799
1833,605.087,2.60675
1836,605.584,2.63535
1839,606.085,2.66515
1842,606.585,2.69567
1845,607.085,2.72653
1848,607.585,2.75812
1851,608.086,2.79017
1854,608.586,2.82225
1857,609.085,2.85512
1860,609.588,2.88871
1863,610.087,2.92352
1866,610.588,2.95944
1869,611.088,2.99571
1872,611.59,3.03291
1875,612.089,3.07049
1878,612.59,3.10822
1881,613.089,3.14791
1884,613.588,3.18743
1887,614.087,3.22773
1890,614.588,3.26906
1893,615.087,3.31128
1896,615.584,3.35446
1899,616.086,3.39737
1902,616.584,3.44328
1905,617.084,3.4885
1908,617.583,3.53629
1911,618.083,3.58378
1914,618.583,3.63288
1917,619.08,3.6828
1920,619.583,3.73425
1923,620.079,3.78556
1926,620.579,3.83808
1929,621.079,3.89183
1932,621.581,3.94705
1935,622.083,4.0028
1938,622.589,4.06092
1941,623.09,4.12108
1944,623.592,4.18132
1947,624.093,4.24214
1950,624.593,4.30344
1953,625.095,4.36597
1956,625.594,4.42937
1959,626.096,4.49251
1962,626.595,4.55713
1965,627.097,4.62216
1968,627.594,4.68643
1971,628.095,4.75218
1974,628.594,4.8173
1977,629.091,4.88116
1980,629.592,4.9444
1983,630.09,5.00806
1986,630.59,5.07268
1989,631.085,5.136
1992,631.583,5.19606
1995,632.082,5.2565
1998,632.579,5.31439
2001,633.075,5.36848
2004,633.572,5.41673
2007,634.068,5.46307
2010,634.565,5.49789
2013,635.061,5.5304
2016,635.557,5.55957
2019,636.051,5.58077
2022,636.544,5.58799
2025,637.039,5.59565
2028,637.533,5.58775
2031,638.027,5.5907
2034,638.525,5.58971
2037,639.014,5.5483
2040,639.51,5.51621
2043,640.007,5.49931
2046,640.501,5.46469
2049,640.994,5.41699
2052,641.487,5.34969
2055,641.982,5.23569
2058,642.477,5.13522
2061,642.971,5.06561
2064,643.468,4.99843
2067,643.975,5.15933
2070,644.487,5.42259
2073,644.992,5.47546
2076,645.495,5.62033
2079,645.996,5.69619
2082,646.495,5.7049
2085,646.994,5.73526
2088,647.494,5.79034
2091,647.993,5.82427
2094,648.494,5.87933
2097,648.992,5.89861
2100,649.489,5.88117
2103,649.989,5.88358
2106,650.487,5.86804
2109,650.985,5.90453
2112,651.481,5.87117
2115,651.979,5.8396
2118,652.481,5.88917
2121,652.977,5.82259
2124,653.476,5.85311
2127,653.975,5.85279
2130,654.474,5.80801
2133,654.976,5.81253
2136,655.473,5.76708
2139,655.975,5.72892
2142,656.472,5.66036
2145,656.969,5.56815
2148,657.472,5.60315
2151,657.97,5.53721
2154,658.471,5.53097
2157,658.972,5.51118
2160,659.473,5.49337
2163,659.971,5.45247
2166,660.47,5.4111
2169,660.968,5.37076
2172,661.468,5.30672
2175,661.966,5.24288
2178,662.465,5.1851
2181,662.963,5.11856
2184,663.46,5.02576
2187,663.96,4.93434
2190,664.458,4.87221
2193,664.959,4.82257
2196,665.458,4.74645
2199,665.961,4.64922
2202,666.458,4.57577
2205,666.96,4.49622
2208,667.461,4.41388
2211,667.959,4.39595
2214,668.463,4.32363
2217,668.961,4.2448
2220,669.461,4.18172
2223,669.967,4.13339
2226,670.472,4.08854
2229,670.974,4.02137
2232,671.479,3.95174
2235,671.985,3.9041
2238,672.486,3.8486
2241,672.993,3.79692
2244,673.496,3.74936
2247,673.999,3.70275
2250,674.502,3.6554
2253,675.005,3.60973
2256,675.505,3.56539
2259,676.011,3.52323
2262,676.511,3.48134
2265,677.012,3.44342
2268,677.515,3.40623
2271,678.017,3.36848
2274,678.518,3.33349
2277,679.019,3.29903
2280,679.52,3.26559
2283,680.02,3.23399
2286,680.522,3.20291
2289,681.018,3.17352
2292,681.519,3.14604
2295,682.018,3.11948
2298,682.518,3.09413
2301,683.018,3.06996
2304,683.517,3.04821
2307,684.015,3.02634
2310,684.513,3.0067
2313,685.011,2.98768
2316,685.507,2.97041
2319,686.006,2.95349
2322,686.506,2.93797
2325,687.004,2.9231
2328,687.5,2.90983
2331,687.997,2.89744
2334,688.495,2.8861
2337,688.994,2.87555
2340,689.494,2.86536
2343,689.992,2.85641
2346,690.489,2.84767
2349,690.987,2.83958
2352,691.485,2.83258
2355,691.984,2.82524
2358,692.48,2.81906
2361,692.98,2.81346
2364,693.479,2.80772
2367,693.977,2.80319
2370,694.474,2.79881
2373,694.972,2.79509
2376,695.473,2.79149
2379,695.973,2.78882
2382,696.468,2.78649
2385,696.97,2.7846
2388,697.468,2.78314
2391,697.965,2.78049
2394,698.463,2.77896
2397,698.958,2.77766
2400,699.457,2.77674
2403,699.956,2.77619
2406,700.454,2.77541
2409,700.953,2.77504
2412,701.451,2.77428
2415,701.947,2.77355
2418,702.446,2.77315
2421,702.946,2.77296
2424,703.446,2.77208
2427,703.945,2.77135
2430,704.441,2.77057
2433,704.94,2.76999
2436,705.437,2.76969
2439,705.935,2.77052
2442,706.436,2.77073
2445,706.933,2.7712
2448,707.43,2.77251
2451,707.928,2.77437
2454,708.428,2.77589
2457,708.925,2.77781
2460,709.422,2.78037
2463,709.921,2.7853
2466,710.422,2.78973
2469,710.919,2.79337
2472,711.42,2.79749
2475,711.919,2.79908
2478,712.416,2.80002
2481,712.914,2.80262
2484,713.413,2.80709
2487,713.91,2.81219
2490,714.409,2.81721
2493,714.908,2.82347
2496,715.405,2.83031
2499,715.905,2.83751
2502,716.402,2.84585
2505,716.899,2.85504
2508,717.397,2.8645
2511,717.894,2.87319
2514,718.39,2.88255
2517,718.889,2.89241
2520,719.389,2.90192
2523,719.884,2.9115
2526,720.383,2.9208
2529,720.882,2.93091
2532,721.38,2.93986
2535,721.878,2.9492
2538,722.377,2.95919
2541,722.875,2.96862
2544,723.375,2.97762
2547,723.873,2.98842
2550,724.373,2.9979
2553,724.87,3.00858
2556,725.372,3.0188
2559,725.872,3.02909
2562,726.371,3.03891
2565,726.869,3.04968
2568,727.371,3.06017
2571,727.867,3.07084
2574,728.37,3.08194
2577,728.867,3.09223
2580,729.369,3.1031
2583,729.866,3.11405
2586,730.365,3.12469
2589,730.863,3.13486
2592,731.364,3.14533
2595,731.864,3.15594
2598,732.362,3.16584
2601,732.864,3.17741
2604,733.365,3.18788
2607,733.864,3.1987
2610,734.362,3.20873
2613,734.867,3.22092
2616,735.371,3.23114
2619,735.875,3.24188
2622,736.381,3.25263
2625,736.884,3.26323
2628,737.39,3.27419
2631,737.895,3.28541
2634,738.399,3.29747
2637,738.901,3.30758
2640,739.403,3.31944
2643,739.906,3.33131
2646,740.41,3.3427
2649,740.914,3.3547
2652,741.415,3.36594
2655,741.918,3.37807
2658,742.42,3.38895
2661,742.92,3.40093
2664,743.422,3.41257
2667,743.921,3.42511
2670,744.424,3.43639
2673,744.925,3.44801
2676,745.424,3.45945
2679,745.925,3.47133
2682,746.423,3.48289
2685,746.923,3.49499
2688,747.424,3.50686
2691,747.921,3.51806
2694,748.421,3.52992
2697,748.921,3.54209
2700,749.421,3.554
2703,749.917,3.56606
2706,750.418,3.57871
2709,750.918,3.59069
2712,751.415,3.60208
2715,751.914,3.6137
2718,752.413,3.62526
2721,752.914,3.63692
2724,753.411,3.64874
2727,753.91,3.65971
2730,754.41,3.67126
2733,754.909,3.68281
2736,755.408,3.69492
2739,755.907,3.7073
2742,756.406,3.71883
2745,756.904,3.73089
2748,757.405,3.74308
2751,757.903,3.75548
2754,758.401,3.7681
2757,758.899,3.78049
2760,759.399,3.7927
2763,759.895,3.80552
2766,760.393,3.81772
2769,760.892,3.83014
2772,761.39,3.84192
2775,761.887,3.85459
2778,762.384,3.86649
2781,762.883,3.87915
2784,763.38,3.89113
2787,763.879,3.90279
2790,764.378,3.91503
2793,764.872,3.92681
2796,765.367,3.93907
2799,765.87,3.95152
2802,766.366,3.96337
2805,766.866,3.97531
2808,767.365,3.98741
2811,767.863,3.99947
2814,768.362,4.01156
2817,768.864,4.02383
2820,769.363,4.0356
2823,769.862,4.04834
2826,770.364,4.06158
2829,770.864,4.07377
2832,771.365,4.08654
2835,771.865,4.09894
2838,772.365,4.11133
2841,772.866,4.1234
2844,773.368,4.13542
2847,773.87,4.14738
2850,774.373,4.15984
2853,774.871,4.17137
2856,775.372,4.18452
2859,775.873,4.19744
2862,776.376,4.20982
2865,776.878,4.22204
2868,777.381,4.23498
2871,777.881,4.24768
2874,778.384,4.25984
2877,778.885,4.27288
2880,779.387,4.28492
2883,779.89,4.29718
2886,780.391,4.30898
2889,780.889,4.30943
2892,781.395,4.32035
2895,781.901,4.33276
2898,782.408,4.34601
2901,782.915,4.35903
2904,783.421,4.37212
2907,783.929,4.38516
2910,784.433,4.39801
2913,784.938,4.41148
2916,785.442,4.42426
2919,785.947,4.43712
2922,786.452,4.45073
2925,786.954,4.46298
2928,787.457,4.47576
2931,787.96,4.48848
2934,788.463,4.50187
2937,788.965,4.51511
2940,789.467,4.52816
2943,789.967,4.54079
2946,790.471,4.55327
2949,790.973,4.56656
2952,791.477,4.57929
2955,791.977,4.5911
2958,792.48,4.60431
2961,792.979,4.61619
2964,793.482,4.62806
2967,793.979,4.64108
2970,794.48,4.65256
2973,794.983,4.66498
2976,795.485,4.67676
2979,795.983,4.68951
2982,796.487,4.70167
2985,796.99,4.71277
2988,797.486,4.72481
2991,797.987,4.73765
2994,798.487,4.74998
2997,798.985,4.76252
3000,799.485,4.77501
3003,799.986,4.78771
3006,800.48,4.79962
3009,800.981,4.81175
3012,801.479,4.824
3015,801.977,4.83638
3018,802.478,4.84906
3021,802.973,4.86086
3024,803.468,4.87306
3027,803.966,4.88542
3030,804.464,4.89773
3033,804.963,4.90921
3036,805.46,4.92095
3039,805.96,4.93194
3042,806.459,4.94343
3045,806.956,4.95476
3048,807.456,4.96644
3051,807.952,4.97802
3054,808.451,4.98885
3057,808.948,5.00077
3060,809.447,5.01153
3063,809.945,5.02287
3066,810.445,5.0341
3069,810.942,5.0451
3072,811.439,5.05658
3075,811.937,5.068
3078,812.435,5.0794
3081,812.937,5.09016
3084,813.431,5.10172
3087,813.934,5.11222
3090,814.431,5.12338
3093,814.929,5.13444
3096,815.426,5.1449
3099,815.925,5.15543
3102,816.426,5.16618
3105,816.926,5.17623
3108,817.428,5.18495
3111,817.931,5.19547
3114,818.431,5.20547
3117,818.933,5.21569
3120,819.438,5.22644
3123,819.938,5.23622
3126,820.44,5.24594
3129,820.94,5.25428
3132,821.443,5.2637
3135,821.949,5.27292