File: PMMA/Calibration_Data/TIFP/TIFP_Cone_65kW_1.csv
Time,Mass,HRR,Back Surface Temperature 1,Back Surface Temperature 2
[s],[g],[kW/m2],[K],[K]
0,69.9,0.595238,299.25,299.55
1,69.9215,0.285714,299.25,299.25
2,69.9043,-0.0714286,299.25,299.25
3,69.8244,-0.25,299.25,299.25
4,69.7088,-0.345238,299.25,299.25
5,69.684,0.392857,299.25,299.25
6,69.6822,0.857143,299.25,299.15
7,69.6107,1.47619,299.25,299.15
8,69.6274,1.5119,299.25,299.05
9,69.5392,1.67857,299.15,298.95
10,69.4814,0.416667,299.15,298.85
11,69.45,-1.39286,299.15,298.85
12,69.5695,-6,299.15,298.75
13,69.7126,-5.13095,299.15,298.75
14,69.7398,14.0238,299.25,298.85
15,69.6569,78.9405,299.45,298.85
16,69.6233,128.702,299.45,298.95
17,69.6707,215.762,299.75,299.15
18,69.6762,301.5,301.05,299.55
19,69.5747,367.571,301.65,299.55
20,69.4209,420.262,301.65,300.95
21,69.3362,478.464,302.35,301.55
22,69.1857,506.845,303.25,302.25
23,68.9764,516.381,304.15,302.25
24,68.7574,534.905,304.15,303.05
25,68.5702,557.048,305.15,303.85
26,68.3792,564.417,306.35,304.85
27,68.0991,594.119,307.65,305.85
28,67.8204,623.798,307.65,305.85
29,67.6244,700.798,309.05,306.95
30,67.3954,700.226,310.45,308.15
31,67.2147,695.583,311.95,309.45
32,67.0076,713.417,311.95,309.45
33,66.4728,708.798,313.55,310.65
34,66.0807,725.917,315.15,312.05
35,65.7936,717.69,316.95,313.45
36,65.5318,695.119,316.95,313.45
37,65.2341,719.238,318.75,315.15
38,65.0119,696.607,320.55,316.65
39,64.708,703.714,322.45,318.35
40,64.4353,712.464,324.55,318.35
41,64.1949,691.893,324.55,320.15
42,63.9218,710.238,326.45,321.75
43,63.6487,784.964,328.55,323.55
44,63.367,769.333,330.65,323.55
45,63.1205,756.94,330.65,325.55
46,62.8231,746.381,332.65,327.35
47,62.567,700.94,334.95,329.45
48,62.3639,731.012,336.95,329.45
49,62.0983,721.333,336.95,331.45
50,61.8187,765.798,339.25,333.25
51,61.5801,745.917,341.35,335.45
52,61.3142,767.583,343.55,337.55
53,61.0141,761.44,343.55,337.55
54,60.7156,731.571,345.85,339.55
55,60.4781,758.393,347.95,341.55
56,60.216,743.655,350.15,343.65
57,59.9263,755.881,350.15,343.65
58,59.6492,762.155,352.65,345.85
59,59.4069,766.726,354.85,348.05
60,59.1651,780.976,357.15,350.25
61,58.8732,799.119,357.15,350.25
62,58.5876,779.464,353.65,358.85
63,58.3388,770.56,360.45,355.95
64,58.0542,747.333,362.15,359.05
65,57.762,735.107,366.25,359.05
66,57.5176,738.464,366.25,360.25
67,57.2334,742.131,366.25,365.65
68,56.9629,746,369.95,363.05
69,56.7077,783.488,381.75,363.05
70,56.4303,757.131,381.75,365.35
71,56.1264,774.214,399.65,367.45
72,55.8604,783.167,396.05,369.45
73,55.6676,776.774,386.95,369.45
74,55.3297,775.702,402.75,371.85
75,55.093,782.048,402.75,374.05
76,54.8198,769.857,402.75,375.95
77,54.5431,782.595,408.45,377.95
78,54.2492,809.655,408.45,377.95
79,53.9766,837.262,408.45,380.05
80,53.7089,775.607,408.45,382.05
81,53.4188,749.976,406.75,384.25
82,53.1137,830.762,404.75,384.25
83,52.813,737.964,404.75,386.35
84,52.5066,815.155,396.55,388.25
85,52.1593,803.321,399.05,390.25
86,51.8309,807.286,401.25,392.15
87,51.5065,812.274,401.25,392.15
88,51.2027,799.476,403.45,393.95
89,50.8912,810.821,405.35,395.75
90,50.5969,810.631,407.55,395.75
91,50.3292,818.226,407.55,397.85
92,50.0552,794.19,409.45,399.95
93,49.7643,835.821,411.65,402.35
94,49.4577,842.631,413.55,402.35
95,49.1937,863.083,415.55,404.65
96,48.914,822.524,415.55,406.65
97,48.6134,825.488,417.45,408.65
98,48.3294,837.643,419.45,410.95
99,48.0357,801,421.55,410.95
100,47.7535,804.393,421.55,412.95
101,47.4456,812.952,423.85,415.15
102,47.1215,806.952,425.85,417.25
103,46.8757,816.393,425.85,417.25
104,46.5856,815.083,427.95,419.25
105,46.2904,809.488,429.85,421.45
106,46.0134,836.964,432.05,423.65
107,45.7006,868.81,434.65,423.65
108,45.4189,856.786,434.65,425.75
109,45.1244,854.095,437.35,427.95
110,44.8132,874.595,439.45,430.15
111,44.5161,877.714,442.05,430.15
112,44.2044,803.774,442.05,432.75
113,43.8751,821.964,447.75,434.95
114,43.5822,847.81,451.25,437.55
115,43.2622,848.69,453.75,439.85
116,42.954,852.595,453.75,439.85
117,42.654,901.75,456.65,442.55
118,42.3405,844.381,459.45,445.05
119,42.0485,883.988,462.25,447.35
120,41.7286,877.976,462.25,447.35
121,41.4204,888.286,465.55,450.45
122,41.082,926.238,468.35,452.75
123,40.7638,898.845,471.45,455.05
124,40.467,885.643,471.45,455.05
125,40.1345,885.262,474.15,457.85
126,39.8372,871.262,477.25,460.35
127,39.5125,910.821,480.25,463.75
128,39.1935,947.536,483.55,463.75
129,38.8856,918.107,483.55,467.05
130,38.5393,866.94,486.45,469.75
131,38.215,891.881,489.75,472.75
132,37.859,940.726,493.05,472.75
133,37.5436,913.107,493.05,476.25
134,37.2015,972.298,496.25,479.15
135,36.8565,1054.5,499.55,482.05
136,36.5303,942.821,503.15,485.15
137,36.1992,926.357,503.15,485.15
138,35.8657,905.393,506.85,487.85
139,35.7656,896.548,510.05,490.85
140,35.7078,972.714,513.65,494.25
141,35.406,1006.43,513.65,494.25
142,35.0474,1001.87,517.65,497.85
143,34.6736,1004.5,521.75,501.25
144,34.2842,1012.17,525.55,504.95
145,33.8404,978.19,529.35,504.95
146,33.4711,1036.19,529.35,508.25
147,33.1141,1060.3,533.25,511.65
148,32.6329,1059.69,537.65,515.45
149,32.3049,1038.4,541.55,518.95
150,31.9336,1055.76,541.55,518.95
151,31.5602,1051.05,545.65,521.95
152,31.1665,1060.48,550.15,525.45
153,30.8267,1079.2,554.55,525.45
154,30.4421,1061.67,554.55,529.05
155,30.0218,1026.44,558.85,532.65
156,29.6066,1092.42,563.85,536.15
157,29.212,1027.85,568.75,536.15
158,28.8394,1078.9,573.55,539.85
159,28.4424,1078.58,573.55,543.15
160,28.022,1050.75,577.55,546.65
161,27.6052,1129.4,,
162,27.1963,1137.07,,
163,26.7775,1117.17,,
164,26.4524,1107.48,,
165,26.0748,1093.62,,
166,25.5618,1102.54,,
167,25.0902,1154.83,,
168,24.679,1147.33,,
169,24.27,1146.51,,
170,23.8624,1128.5,,
171,23.4598,1141.08,,
172,23.0084,1139.43,,
173,22.6091,1100.06,,
174,22.2341,1167.18,,
175,21.821,1126.65,,
176,21.3913,1141.75,,
177,20.9861,1238.63,,
178,20.6605,1139.38,,
179,20.2838,1220.06,,
180,19.8445,1276.06,,
181,19.4085,1252.31,,
182,18.9641,1192.29,,
183,18.494,1243.65,,
184,18.0792,1051.58,,
185,17.6573,1147.11,,
186,17.2186,1099.5,,
187,16.8388,1128.76,,
188,16.3973,1120.98,,
189,16.0509,1093.24,,
190,15.6119,1070.06,,
191,15.1454,982.679,,
192,14.7462,945.56,,
193,14.2594,940.714,,
194,13.769,906.524,,
195,13.4139,868.786,,
196,13.0843,871.107,,
197,12.7968,838.619,,
198,12.5106,763.06,,
199,12.2751,755.036,,
200,12.0157,722.762,,
201,11.7499,676.726,,
202,11.5402,625.548,,
203,11.3578,605.214,,
204,11.1074,577.762,,
205,10.8986,548.381,,
206,10.7972,512.952,,
207,10.5827,495.25,,
208,10.3573,473.5,,
209,10.1577,461.833,,
210,10.0411,449.893,,
211,9.9513,419.214,,
212,9.7507,400.202,,
213,9.5549,392.464,,
214,9.4228,376.179,,
215,9.2909,370.238,,
216,9.1182,354.321,,
217,9.0501,345.702,,
218,8.9392,330.429,,
219,8.8016,326.798,,
220,8.7474,317.476,,
221,8.6258,315.298,,
222,8.4464,312.381,,
223,8.3466,293.5,,
224,8.321,290.857,,
225,8.2002,288.917,,
226,8.1428,279.512,,
227,8.0336,274.988,,
228,7.9057,265.381,,
229,7.7978,264.667,,
230,7.711,264.702,,
231,7.6354,258.81,,
232,7.5583,260.476,,
233,7.441,256.655,,
234,7.3369,252.738,,
235,7.2611,254.619,,
236,7.2067,255.31,,
237,7.1285,244.655,,
238,7.0773,247.94,,
239,6.932,243.762,,
240,6.8828,238.369,,
241,6.797,236.857,,
242,6.6667,235.595,,
243,6.6018,231.274,,
244,6.516,227.048,,
245,6.4687,224.369,,
246,6.4234,218.929,,
247,6.4275,214.917,,
248,6.2454,214.333,,
249,6.1611,209.036,,
250,6.0881,204.381,,
251,5.9718,204.917,,
252,5.8845,203.429,,
253,5.8508,194.762,,
254,5.7672,194.893,,
255,5.6638,194.024,,
256,5.612,190.405,,
257,5.5664,190.036,,
258,5.5334,191.798,,
259,5.4764,187.845,,
260,5.3514,184.369,,
261,5.243,183.512,,
262,5.1673,182.488,,
263,5.1056,191.155,,
264,5.0773,186.774,,
265,4.9972,186.5,,
266,4.9404,184.012,,
267,4.8788,185.405,,
268,4.83,184.274,,
269,4.7916,181.75,,
270,4.6752,185,,
271,4.6311,183.679,,
272,4.6132,187.5,,
273,4.6389,185.976,,
274,4.6172,187.833,,
275,4.5379,183.321,,
276,4.5011,181,,
277,4.4625,180.262,,
278,4.3462,182.869,,
279,4.2443,183.81,,
280,4.1438,181.381,,
281,4.1151,179.857,,
282,4.1045,176.893,,
283,4.0328,178.643,,
284,3.9077,186.024,,
285,3.9117,183.345,,
286,3.8736,176.429,,
287,3.729,177.798,,
288,3.7337,176.964,,
289,3.6028,173.167,,
290,3.6134,172.131,,
291,3.5626,174.94,,
292,3.4528,170.464,,
293,3.3443,169.762,,
294,3.2869,168.738,,
295,3.2335,168.94,,
296,3.2294,169.976,,
297,3.2022,166.75,,
298,3.0381,165.821,,
299,2.9461,164.345,,
300,2.9018,164.833,,
301,2.873,165.607,,
302,2.8707,162.94,,
303,2.7904,162.786,,
304,2.7684,164,,
305,2.704,159.333,,
306,2.5872,161.952,,
307,2.5234,160.81,,
308,2.4937,161.583,,
309,2.462,160.024,,
310,2.418,163.798,,
311,2.3726,160.595,,
312,2.2924,160.452,,
313,2.2363,160.393,,
314,2.2075,157.286,,
315,2.1971,156.524,,
316,2.0839,157,,
317,2.0058,153.393,,
318,1.9092,152.238,,
319,1.8861,151.155,,
320,1.8423,151.036,,
321,1.8514,147.321,,
322,1.8291,147.952,,
323,1.7435,145.536,,
324,1.6475,146.321,,
325,1.5525,142.214,,
326,1.5302,138.643,,
327,1.529,142.786,,
328,1.4407,142.107,,
329,1.4236,138.524,,
330,1.3847,138.917,,
331,1.3061,138.298,,
332,1.2632,137.929,,
333,1.2717,137.286,,
334,1.1734,132.738,,
335,1.0708,128.56,,
336,1.0003,130.583,,
337,0.9919,127.964,,
338,0.9115,127.452,,
339,0.8885,126.643,,
340,0.8863,122.464,,
341,0.8227,124.429,,
342,1.0942,122.31,,
343,1.2149,123.179,,
344,1.1788,121.298,,
345,1.1812,119.298,,
346,1.1831,121.548,,
347,1.1395,121.012,,
348,1.285,117.94,,
349,2.0183,119.75,,
350,2.2986,118.393,,
351,2.3346,113.31,,
352,2.2001,113.131,,
353,2.1075,110.357,,
354,2.0357,109.333,,
355,2.1096,108.738,,
356,2.0657,107.929,,
357,2.0315,104.607,,
358,1.9444,101.214,,
359,1.8719,98.7738,,
360,1.8433,97.7381,,
361,2.007,97.3571,,
362,1.874,95.9643,,
363,1.7561,93.9048,,
364,1.7374,94.9048,,
365,1.6533,92.4286,,
366,1.5753,87.25,,
367,1.641,88.1429,,
368,1.5319,89.3214,,
369,1.4407,87.1548,,
370,1.4478,86.5476,,
371,1.469,84.7976,,
372,1.5705,82.4048,,
373,1.4445,83.4762,,
374,1.3569,80.2143,,
375,1.3155,79.3333,,
376,1.3443,79.0595,,
377,1.3594,77.5833,,
378,1.3578,75.4048,,
379,1.2674,74.7738,,
380,1.1959,73.0714,,
381,1.295,72.381,,
382,1.2978,69.369,,
383,1.1891,70.7976,,
384,1.1334,69.1071,,
385,1.1201,65.6429,,
386,0.96,63.7738,,
387,0.9387,62.25,,
388,0.953,62.4643,,
389,0.9704,60.4524,,
390,1.0054,61.2381,,
391,1.0201,59.5714,,
392,0.9769,57.0714,,
393,1.0465,55.0119,,
394,0.3301,52.5714,,
395,-0.5302,51.2619,,
396,-0.7718,48.369,,
397,-0.7733,45.9524,,
398,-0.7874,42.9643,,
399,-0.7469,39.6667,,
400,-0.7251,38.0357,,
401,-0.8071,35.9167,,
402,-0.7823,34.7857,,
403,-0.8217,32.7619,,
404,-0.8576,30.8571,,
405,-0.9621,30.6071,,
406,-0.9378,29.2976,,
407,-0.9237,29.4881,,
408,-0.8718,29.25,,
409,-0.8716,29.0238,,
410,-0.891,27.4762,,
411,-0.8774,26.619,,
412,-0.8799,26.9524,,
413,-0.9186,26.25,,
414,-0.9135,25.7143,,
415,-0.9485,25.3571,,
416,-0.9396,24.2976,,
417,-0.9043,24.8452,,
418,-0.8928,24.8214,,
419,-0.9439,25.3333,,
420,-0.9642,24.4643,,
421,-0.922,24.4643,,
422,-0.9304,24.2143,,
423,-0.9104,24.8929,,
424,-0.9574,24.0238,,
425,-1.0402,23.381,,
426,-1.0657,22.5357,,
427,-1.0414,22.0119,,
428,-1.0164,21.0476,,
429,-1.0301,20.7024,,
430,-1.033,20.2024,,
431,-1.0425,19.7857,,
432,-1.069,18.9048,,
433,-1.0397,17.8214,,
434,-1.045,16.4762,,
435,-1.0367,15.8452,,
436,-1.038,15.3571,,
437,-1.0473,14.369,,
438,-1.1054,13.0238,,
439,-1.0533,12.381,,
440,-1.0644,11.0357,,
441,-1.0705,10.6071,,
442,-1.0748,10.1905,,
443,-1.0548,9.42857,,
444,-1.0757,8.69048,,
445,-1.0933,8.35714,,
446,-1.0852,7.52381,,
447,-1.1334,7.70238,,
448,-1.1625,7.28571,,
449,-1.1034,6.27381,,
450,-1.0876,5.78571,,
451,-1.1216,5.09524,,
452,-1.0905,4.2619,,
453,-1.0568,4.28571,,
454,-1.1549,4.5,,
455,-1.1498,4.57143,,
456,-1.1667,3.70238,,
457,-1.1381,3.63095,,
458,-1.0321,3.09524,,
459,-1.0852,2.39286,,
460,-1.098,2.54762,,
461,-1.0911,1.75,,
462,-1.0944,0.761905,,
463,-1.1023,-0.678571,,
464,-1.1867,-1.57143,,
465,-1.1877,-2.41667,,
466,-1.1606,-3.22619,,
467,-1.1401,-3.45238,,
468,-1.1202,-4.40476,,
469,-1.1806,-4.54762,,
470,-1.0117,-4.40476,,
471,-0.9838,-4.08333,,
472,-1.0475,-4.04762,,
473,-1.0919,-4.38095,,
474,-1.1291,-5.2381,,
475,-1.1643,-5.46429,,
476,-1.1307,-5.46429,,
477,-1.1592,-5.17857,,
478,-1.1773,-5.30952,,
479,-1.1318,-4.66667,,
480,-1.1025,-4.59524,,
481,-1.1429,-4.54762,,
482,-1.071,-4.34524,,
483,-1.11,-4.19048,,
484,-1.1649,-3.44048,,
485,-1.0517,-3.47619,,
486,-1.0823,-3.5119,,
487,-1.1214,-3.40476,,
488,-1.1343,-3.92857,,
489,-1.1524,-3.79762,,
490,-1.1942,-4.13095,,
491,-1.203,-4.47619,,
492,-1.1966,-4.46429,,
493,-1.1629,-4.33333,,
494,-1.0859,-4.04762,,
495,-1.0829,-3.97619,,
496,-1.1754,-4.15476,,
497,-1.1802,-4.22619,,
498,-1.1225,-4.28571,,
499,-1.0855,-4.09524,,
500,-1.1473,-4.55952,,