File: PMMA/Calibration_Data/TIFP/TIFP_Cone_25kW_3.csv
Time,Mass,HRR,HRR,Back Surface Temperature 1,Back Surface Temperature 2
[s],[g],[kW/m2],[K],[K]
0,69.88,-1.03571,299.15,299.45
1,69.8558,-0.666667,299.15,299.45
2,69.6826,-0.464286,299.05,299.35
3,70.0151,-0.72619,299.05,299.35
4,70.1129,-0.833333,299.05,299.35
5,70.0802,-0.904762,298.95,299.25
6,69.9902,-0.72619,298.95,299.25
7,69.9247,-0.428571,298.95,299.15
8,69.7776,-0.309524,298.85,299.05
9,69.627,-0.571429,298.85,299.05
10,69.626,-0.714286,298.85,299.05
11,69.6298,-0.72619,298.85,299.05
12,69.6676,-0.583333,298.85,299.05
13,69.6531,-0.369048,298.85,299.05
14,69.6337,0.380952,298.85,299.05
15,69.6018,0.333333,298.85,299.05
16,69.598,0.25,298.95,299.15
17,69.6256,0.25,299.05,299.25
18,69.6071,1.07143,299.05,299.25
19,69.575,1.75,299.15,299.45
20,69.6149,1.65476,299.35,299.55
21,69.5808,1.47619,299.65,299.85
22,69.5646,0.97619,299.65,299.85
23,69.5373,0.416667,299.95,300.15
24,69.5419,0.607143,300.35,300.45
25,69.5473,0.869048,300.75,300.85
26,69.5353,-0.0952381,300.75,300.85
27,69.526,-0.654762,302.35,302.35
28,69.5276,-0.77381,302.95,302.35
29,69.5254,-0.678571,303.65,303.55
30,69.5313,-0.404762,304.45,303.55
31,69.5221,-0.261905,304.45,304.15
32,69.5038,-0.690476,305.25,304.85
33,69.5101,-1.09524,306.15,305.65
34,69.5176,0.119048,307.05,305.65
35,69.5214,1.41667,307.05,306.55
36,69.4872,2.15476,307.95,307.25
37,69.5022,2.21429,308.95,308.15
38,69.5184,2.82143,309.95,308.15
39,69.5182,2.86905,309.95,309.05
40,69.5145,2.85714,310.95,309.95
41,69.5008,2.94048,312.05,310.95
42,69.5034,4.13095,313.15,311.95
43,69.4846,4.38095,313.15,311.95
44,69.4755,4.05952,314.25,312.95
45,69.4821,3.14286,315.35,313.95
46,69.462,2.97619,316.55,314.95
47,69.483,3.07143,316.55,314.95
48,69.5071,3.47619,317.85,316.05
49,69.5082,3.35714,319.05,317.05
50,69.4868,3.19048,320.25,318.15
51,69.4759,2.10714,321.55,318.15
52,69.4777,1.95238,321.55,319.25
53,69.4795,2.05952,322.75,320.35
54,69.4882,2.38095,324.15,321.45
55,69.4816,2.95238,325.35,321.45
56,69.4949,2.91667,325.35,322.55
57,69.4801,3.7381,326.65,323.75
58,69.4637,3.89286,328.05,324.85
59,69.4683,4.04762,329.25,324.85
60,69.4734,4.35714,329.25,326.05
61,69.4925,5.03571,330.65,327.15
62,69.4921,4.91667,331.95,328.35
63,69.4903,5,333.35,329.55
64,69.4874,5.09524,333.35,329.55
65,69.4739,5.35714,334.75,330.75
66,69.4782,5.61905,335.95,331.85
67,69.4878,5.29762,337.35,333.05
68,69.4988,5.2619,337.35,333.05
69,69.5074,4.27381,338.75,334.25
70,69.5374,4.22619,340.05,335.45
71,69.5559,4.53571,341.35,336.65
72,69.5689,3.64286,342.75,336.65
73,69.5744,3.2381,342.75,337.85
74,69.6002,3.02381,344.15,339.05
75,69.6116,3.02381,345.45,340.15
76,69.6217,3.02381,346.85,340.15
77,69.6444,3.33333,346.85,341.35
78,69.6312,3.2381,348.15,342.55
79,69.6176,1.96429,349.55,343.75
80,69.6214,2.05952,350.75,343.75
81,69.6538,2.94048,350.75,345.05
82,69.6602,4.64286,352.15,346.15
83,69.6559,6.11905,353.55,347.45
84,69.6705,7.09524,354.85,348.65
85,69.6836,7.53571,354.85,348.65
86,69.6903,7.47619,356.15,349.85
87,69.684,7.7381,357.45,351.05
88,69.7006,7.39286,358.75,352.35
89,69.7092,7.46429,358.75,352.35
90,69.7144,6.32143,360.05,353.55
91,69.7416,5.21429,361.35,354.75
92,69.7403,4.90476,362.55,355.95
93,69.7441,3.67857,362.55,355.95
94,69.7467,2.54762,363.85,357.15
95,69.7348,1.66667,365.05,358.35
96,69.7356,0.75,366.25,359.55
97,69.7281,2.75,367.65,359.55
98,69.7261,7.80952,367.65,360.75
99,69.7066,18.7976,368.75,361.95
100,69.6934,38.2857,369.95,363.05
101,69.6538,66.2143,371.05,363.05
102,69.6313,89.6429,371.05,364.25
103,69.6237,115.774,372.25,365.35
104,69.5941,132.738,373.35,366.55
105,69.5296,157.94,374.55,367.65
106,69.4632,173.429,374.55,367.65
107,69.4023,199.5,375.65,368.75
108,69.3114,226.667,376.85,369.85
109,69.2102,240.81,377.95,371.05
110,69.1187,258.036,377.95,371.05
111,69.0202,266.167,379.15,372.05
112,68.9108,286.476,380.15,373.15
113,68.7734,296.048,381.25,374.25
114,68.6412,304.524,381.25,374.25
115,68.5393,303.857,382.35,375.35
116,68.4161,313,383.45,376.35
117,68.3079,322.298,384.45,377.45
118,68.2035,324.702,385.55,377.45
119,68.1015,327.119,385.55,378.45
120,67.9969,321.75,386.55,379.45
121,67.8893,334.286,387.75,380.45
122,67.7835,334.274,388.75,380.45
123,67.6857,340.798,388.75,381.55
124,67.5863,343.048,389.85,382.45
125,67.4768,339.952,390.95,383.45
126,67.3685,349.583,392.15,383.45
127,67.2733,336.952,392.15,384.55
128,67.1819,346.036,393.35,385.55
129,67.0846,359.56,394.45,386.45
130,66.995,341.214,395.65,387.45
131,66.8967,346.726,395.65,387.45
132,66.7961,352.619,396.85,388.45
133,66.6783,346.143,398.05,389.35
134,66.5529,342.19,399.25,390.35
135,66.4177,357.298,399.25,390.35
136,66.286,362.643,400.55,391.25
137,66.1522,354.369,401.65,392.35
138,66.0338,348.798,402.95,393.35
139,65.9048,354.369,402.95,393.35
140,65.7509,367.786,404.15,394.45
141,65.6294,351.56,405.35,395.65
142,65.5067,353.81,406.55,396.85
143,65.3789,346.31,407.75,396.85
144,65.2641,366.774,407.75,397.95
145,65.1502,352.976,408.95,399.05
146,65.0359,355.798,410.05,400.25
147,64.8944,366.548,411.25,400.25
148,64.759,367.048,411.25,401.45
149,64.6388,362.25,412.45,402.55
150,64.5298,361.869,413.65,403.75
151,64.3889,369.464,414.75,404.95
152,64.2541,365.869,414.75,404.95
153,64.1266,367.298,415.95,406.15
154,64.0036,356.714,417.05,407.25
155,63.8636,361.774,418.25,408.35
156,63.7529,364.381,418.25,408.35
157,63.6176,354.643,419.65,409.55
158,63.4869,366.655,420.65,410.75
159,63.3666,370.56,421.65,411.85
160,63.2189,371.833,421.65,411.85
161,63.093,386.726,422.75,412.95
162,62.9748,374.357,423.85,414.15
163,62.844,381.619,424.95,415.35
164,62.7122,373.286,426.15,415.35
165,62.5926,368.786,426.15,416.35
166,62.4734,379.917,427.25,417.55
167,62.349,376.833,428.45,418.65
168,62.2273,387.643,429.55,418.65
169,62.0852,397.988,429.55,419.85
170,61.9133,379.179,430.65,421.05
171,61.7576,393.393,431.75,422.15
172,61.6293,384.893,432.95,423.35
173,61.5117,390.19,432.95,423.35
174,61.3919,394.786,434.15,424.45
175,61.2831,386.881,435.35,425.55
176,61.1663,386.25,436.55,426.55
177,61.0366,387.048,436.55,426.55
178,60.9073,395.714,437.75,427.65
179,60.7541,393.798,438.85,428.85
180,60.61,384.131,440.05,429.95
181,60.4822,404.512,440.05,429.95
182,60.3543,393.31,441.25,431.05
183,60.2138,383.821,442.35,432.25
184,60.0634,395.036,443.45,433.25
185,59.9198,388.929,444.75,433.25
186,59.793,381.083,444.75,434.35
187,59.6793,387.321,445.95,435.45
188,59.5292,398.321,447.05,436.65
189,59.3821,378.619,448.25,436.65
190,59.2481,378.583,448.25,437.95
191,59.1153,378.905,449.35,438.95
192,58.9893,379.095,450.55,440.05
193,58.8539,385.548,451.65,441.15
194,58.7274,404.274,451.65,441.15
195,58.6023,393.095,452.85,442.15
196,58.4656,391.786,453.95,443.15
197,58.3014,401.226,455.15,444.25
198,58.1667,394.667,455.15,444.25
199,58.0371,399.607,456.35,445.35
200,57.9078,397.238,457.35,446.35
201,57.7727,411.583,458.35,447.35
202,57.6394,398.357,459.65,447.35
203,57.5038,402.571,459.65,448.45
204,57.3625,398.048,460.75,449.55
205,57.222,396.44,461.85,450.55
206,57.095,398.75,462.85,450.55
207,56.9575,403.369,462.85,451.65
208,56.8098,402.667,463.85,452.65
209,56.6678,399.714,464.85,453.65
210,56.531,399.25,466.05,454.65
211,56.3963,401.786,466.05,454.65
212,56.2497,411.119,467.15,455.45
213,56.1145,400.619,467.95,455.45
214,55.9611,408.048,468.85,456.15
215,55.8203,403.071,468.85,456.15
216,55.6747,409.464,469.85,456.95
217,55.5283,417.714,470.65,456.35
218,55.3944,414.095,471.65,456.35
219,55.2723,420.512,472.55,456.35
220,55.1196,411.262,472.55,457.55
221,54.9675,400.226,473.65,458.55
222,54.8343,400.69,474.55,459.55
223,54.6881,413.536,475.55,459.55
224,54.5216,404.869,475.55,460.65
225,54.3754,405.774,476.35,461.65
226,54.2459,411.798,477.25,462.65
227,54.108,419.631,478.15,463.75
228,53.9589,406.464,478.15,463.75
229,53.7986,421.702,479.05,464.95
230,53.638,414.583,479.85,465.85
231,53.4992,415.762,480.75,467.05
232,53.3205,412.345,480.75,467.05
233,53.1567,431.929,481.55,468.15
234,53.0325,429.048,481.55,469.25
235,52.8928,417.321,482.85,470.35
236,52.7481,420.131,482.85,470.35
237,52.5624,420.119,483.85,471.35
238,52.4036,425.667,484.85,472.35
239,52.2528,430.095,485.75,474.25
240,52.0907,428.476,486.75,474.25
241,51.9198,420.714,486.75,476.65
242,51.7729,437.345,487.35,479.25
243,51.6205,433.512,488.15,481.15
244,51.4529,456.488,488.85,481.15
245,51.2816,460.643,488.85,482.65
246,51.1102,455.488,486.45,484.35
247,50.9379,463.56,485.25,485.85
248,50.7684,458.202,485.25,485.85
249,50.6038,440.667,485.25,487.15
250,50.4785,430.952,485.25,488.55
251,50.2936,428.488,485.25,489.75
252,50.1096,452.679,489.15,489.75
253,49.9132,468.452,489.15,491.25
254,49.7783,453.179,490.05,492.35
255,49.6237,457.119,491.05,492.35
256,49.4539,449.857,492.15,492.35
257,49.2685,462.631,492.75,493.25
258,49.0836,450.071,492.75,493.25
259,48.9243,450.857,493.95,493.25
260,48.7665,463.488,495.55,493.25
261,48.5925,452.655,495.55,493.25
262,48.5972,473.524,495.55,495.25
263,48.5317,476.381,495.55,496.55
264,48.3504,477.048,497.65,497.55
265,48.1996,488.107,497.65,497.55
266,48.0583,477.464,498.95,497.55
267,47.872,474.238,499.65,497.55
268,47.6962,474.155,499.65,498.75
269,47.5043,475.929,500.85,498.75
270,47.3129,475.595,500.85,499.85
271,47.0889,487.429,502.55,501.05
272,46.8847,467.762,503.95,501.05
273,46.6941,508.452,504.95,501.05
274,46.5083,490.69,504.95,502.25
275,46.3361,502.81,506.15,502.25
276,46.1904,489.75,508.45,503.25
277,46.0235,495.417,509.55,503.25
278,46.007,497.19,509.55,503.25
279,45.8696,506.262,511.55,504.95
280,45.6378,487.333,513.05,505.95
281,45.4345,495.619,514.45,507.15
282,45.2644,496.095,514.45,507.15
283,45.092,503.345,515.75,509.25
284,44.9464,498.762,517.65,511.05
285,44.8204,516.393,519.65,511.95
286,44.6761,514.036,520.95,511.95
287,44.5915,515.821,520.95,511.95
288,44.4694,492.845,522.25,513.15
289,44.2997,522.036,523.35,515.15
290,44.1274,517.607,524.15,515.15
291,43.9309,515.702,524.15,515.95
292,43.7628,518.452,525.65,515.95
293,43.5806,503.714,526.35,517.95
294,43.4241,505.202,527.25,519.45
295,43.2581,507,527.25,519.45
296,43.0669,513.298,529.85,519.45
297,42.8832,509.821,529.85,521.15
298,42.6943,503.405,531.15,521.15
299,42.4892,518.738,532.15,522.95
300,42.3088,513.714,532.15,523.85
301,42.1565,506.833,533.45,524.85
302,41.9749,522.321,534.35,526.55
303,41.7881,530.048,534.35,526.55
304,41.6152,508.476,535.65,527.75
305,41.4398,514.31,537.05,529.85
306,41.2686,503.44,538.65,532.35
307,41.1046,514.048,538.65,532.35
308,40.9077,506.619,540.15,535.05
309,40.7125,527.774,540.15,537.95
310,40.5463,523.429,542.75,540.15
311,40.3882,511.81,544.35,540.15
312,40.2049,510.619,544.35,542.65
313,40.0059,502.393,545.45,546.75
314,39.7974,513.298,546.65,549.65
315,39.6192,530.679,548.05,549.65
316,39.4467,507.869,548.05,552.55
317,39.2826,508.417,549.25,553.75
318,39.089,522.119,551.35,554.95
319,38.8812,515.083,552.25,556.15
320,38.7031,524.286,552.25,556.15
321,38.4975,510.905,554.35,557.25
322,38.3265,512.19,555.85,557.95
323,38.1456,517.655,558.65,559.45
324,37.9591,506.381,558.65,559.45
325,37.7552,520.964,559.55,560.35
326,37.5724,507.452,561.35,561.15
327,37.3803,514.536,563.85,562.05
328,37.1755,506.548,565.95,562.05
329,36.9882,513.583,565.95,563.15
330,36.7899,518.131,567.55,564.05
331,36.5903,510.512,569.75,564.95
332,36.4731,539.214,572.05,564.95
333,36.3544,534.679,572.05,564.95
334,36.1918,513.238,574.25,565.85
335,35.9633,526.095,577.35,566.65
336,35.7728,521.94,580.25,567.65
337,35.5661,526.667,580.25,567.65
338,35.379,519.81,583.65,568.25
339,35.2518,522.25,586.85,569.45
340,35.2322,524.56,588.15,570.35
341,35.116,528.488,588.15,570.35
342,34.9158,525.69,588.15,571.25
343,34.75,513.786,587.15,572.05
344,34.5677,518.286,586.45,572.95
345,34.3352,521.631,585.65,572.95
346,34.1323,506.298,585.65,573.75
347,33.9257,500.952,585.65,573.75
348,33.7311,528.905,584.35,574.85
349,33.5512,509.44,584.35,574.85
350,33.4279,498.036,584.35,574.85
351,33.3172,515.036,586.95,575.55
352,33.1338,528.702,589.35,575.55
353,32.9474,508.583,590.65,575.55
354,32.7334,511.714,590.65,576.15
355,32.5402,521.238,592.05,576.15
356,32.3365,522.155,593.05,575.35
357,32.1274,530.071,594.65,575.35
358,31.9583,524.905,594.65,576.25
359,31.7724,527.333,595.75,577.15
360,31.571,547.952,597.05,578.25
361,31.3913,537.476,598.35,579.15
362,31.1895,529.774,598.35,579.15
363,31.0098,534.94,599.25,580.25
364,30.8354,535.726,600.35,581.25
365,30.6617,555.429,601.95,581.95
366,30.4959,516.214,601.95,581.95
367,30.2822,531.44,604.75,583.15
368,30.1168,535.131,607.35,584.25
369,29.9427,518.357,610.15,585.35
370,29.7469,532.19,611.35,585.35
371,29.5477,530.929,611.35,586.35
372,29.3465,537.726,613.25,587.55
373,29.1594,535.369,615.05,588.55
374,28.9651,537.548,616.15,588.55
375,28.7786,545.667,616.15,589.65
376,28.5991,534.75,618.05,590.65
377,28.4223,533.036,619.95,591.95
378,28.2298,541.071,621.15,593.05
379,28.0188,531.607,621.15,593.05
380,27.8232,542.143,623.15,594.05
381,27.6444,535.929,624.15,595.15
382,27.4548,543.798,624.95,596.55
383,27.3231,563.405,624.95,596.55
384,27.2034,556.595,626.75,597.85
385,26.9396,531.107,627.95,598.95
386,26.6964,538.917,629.55,600.35
387,26.5039,525.095,631.05,600.35
388,26.3056,541.298,631.05,601.45
389,26.104,528.869,632.75,602.85
390,25.9255,522.19,634.45,603.95
391,25.7668,503.036,636.45,603.95
392,25.5933,521.857,636.45,605.35
393,25.4356,528.893,638.95,606.55
394,25.2149,527.56,641.15,607.65
395,25.145,529.06,643.35,608.85
396,25.2001,545.429,643.35,608.85
397,25.0559,532.405,646.35,610.05
398,24.8632,534.726,649.25,611.75
399,24.6699,535.893,652.85,611.75
400,24.4717,534.988,652.85,613.55
401,24.2846,524.643,,
402,24.097,549.821,,
403,23.9246,533.821,,
404,23.6878,550.774,,
405,23.46,539.107,,
406,23.2848,551.964,,
407,23.0804,549.976,,
408,22.9166,528.452,,
409,22.6762,521.845,,
410,22.4868,542.083,,
411,22.2992,539.429,,
412,22.1257,550.69,,
413,21.9535,544.488,,
414,21.7782,550.012,,
415,21.5684,543.702,,
416,21.3839,543.155,,
417,21.2179,538.643,,
418,21.0299,540.167,,
419,20.8578,520.405,,
420,20.656,529.107,,
421,20.4641,531.595,,
422,20.2782,542.429,,
423,20.1126,549.381,,
424,19.9333,533.619,,
425,19.732,550.583,,
426,19.5308,548.369,,
427,19.3371,545.964,,
428,19.1373,537.321,,
429,18.9464,541.321,,
430,18.7342,544.452,,
431,18.5737,555.06,,
432,18.3877,544.619,,
433,18.21,527.262,,
434,18.0274,512.619,,
435,17.8546,508.083,,
436,17.6914,498.405,,
437,17.5236,497.655,,
438,17.3709,487.988,,
439,17.1991,457.821,,
440,17.0264,462.31,,
441,16.8671,442.881,,
442,16.7011,433.714,,
443,16.5504,429.452,,
444,16.3865,422.5,,
445,16.2392,416.476,,
446,16.1048,407.762,,
447,15.968,397.107,,
448,15.8562,383.381,,
449,15.7004,364.036,,
450,15.5735,360.893,,
451,15.4437,347.595,,
452,15.3205,331.274,,
453,15.2122,324.202,,
454,15.1008,322.786,,
455,14.9852,305.929,,
456,14.8625,308.56,,
457,14.7656,303.036,,
458,14.6673,292.429,,
459,14.5552,288.19,,
460,14.4571,268.619,,
461,14.385,262.333,,
462,14.2816,251.476,,
463,14.1755,247.929,,
464,14.0887,243.81,,
465,13.9879,234.155,,
466,13.8884,224.429,,
467,13.8105,227.75,,
468,13.7407,225.488,,
469,13.6798,217.845,,
470,13.6199,214.405,,
471,13.5525,208.357,,
472,13.4678,209.095,,
473,13.3961,204.536,,
474,13.3164,198.155,,
475,13.2491,194.595,,
476,13.1817,193,,
477,13.1084,189.595,,
478,13.0561,187.833,,
479,12.9918,183.738,,
480,12.9366,186.417,,
481,12.8671,185.774,,
482,12.7923,182.81,,
483,12.7344,177.071,,
484,12.6709,178.798,,
485,12.6078,176.417,,
486,12.5366,174.429,,
487,12.4798,170.619,,
488,12.4287,175.798,,
489,12.3645,174.345,,
490,12.2932,170.536,,
491,12.2307,173.012,,
492,12.1617,172.44,,
493,12.1077,168.75,,
494,12.0544,165.881,,
495,12.0051,168.81,,
496,11.9513,169.298,,
497,11.8888,165.44,,
498,11.8329,167.012,,
499,11.7715,168.833,,
500,11.7166,166.155,,
501,11.6649,169.905,,
502,11.6025,167.369,,
503,11.5553,169.048,,
504,11.5025,165.607,,
505,11.4511,163.786,,
506,11.3964,162.345,,
507,11.3231,160.214,,
508,11.2637,160.75,,
509,11.209,159.726,,
510,11.1548,160.262,,
511,11.1078,159.202,,
512,11.0596,161.024,,
513,11.0055,159.821,,
514,10.9406,156.607,,
515,10.893,155.786,,
516,10.8694,150.536,,
517,10.8182,156.429,,
518,10.754,155.94,,
519,10.6945,155.702,,
520,10.6395,154.071,,
521,10.5895,157.607,,
522,10.5226,155.452,,
523,10.465,160.548,,
524,10.4137,155.905,,
525,10.357,154.69,,
526,10.3118,150.393,,
527,10.2485,155.5,,
528,10.1861,154.119,,
529,10.1435,152.881,,
530,10.0861,153.881,,
531,10.0345,150.881,,
532,9.9846,152.905,,
533,9.9393,150.131,,
534,9.8881,149.369,,
535,9.8284,145.476,,
536,9.7811,148.548,,
537,9.7298,148.679,,
538,9.6791,149.952,,
539,9.6272,149.667,,
540,9.5743,147.071,,
541,9.5357,148.131,,
542,9.478,147.321,,
543,9.4339,143.667,,
544,9.3707,142.107,,
545,9.3157,143.857,,
546,9.2769,137.75,,
547,9.2311,131.405,,
548,9.1746,133.405,,
549,9.1253,127.667,,
550,9.0749,125.179,,
551,9.0354,124.655,,
552,9.0071,123.488,,
553,8.9582,122.583,,
554,8.9128,124.774,,
555,8.8661,122.833,,
556,8.8318,121.393,,
557,8.7911,118.643,,
558,8.7527,116.774,,
559,8.7128,118.667,,
560,8.6673,116.857,,
561,8.6347,113.179,,
562,8.5982,113.714,,
563,8.5569,111.369,,
564,8.5278,111.548,,
565,8.4871,110.298,,
566,8.4529,108.976,,
567,8.4102,108.345,,
568,8.3899,108.75,,
569,8.358,107.75,,
570,8.3034,107.345,,
571,8.2718,107.131,,
572,8.25,104.929,,
573,8.2192,103.869,,
574,8.1691,107.012,,
575,8.1199,107.476,,
576,8.0941,106.071,,
577,8.0476,104.952,,
578,8.0041,105.548,,
579,7.9686,105.821,,
580,7.93,104.94,,
581,7.9057,104.405,,
582,7.8711,105.417,,
583,7.8227,105.048,,
584,7.7822,101.333,,
585,7.7352,103.071,,
586,7.704,103.738,,
587,7.6704,104.619,,
588,7.6478,100.81,,
589,7.6214,101.679,,
590,7.5756,102.071,,
591,7.5417,104.881,,
592,7.5022,104.048,,
593,7.4685,102.905,,
594,7.434,101.036,,
595,7.3972,102.345,,
596,7.3721,102.964,,
597,7.3349,104.286,,
598,7.2956,101.631,,
599,7.2598,101.464,,
600,7.2188,101.869,,
601,7.1866,103.774,,
602,7.1542,101.155,,
603,7.1179,100.274,,
604,7.0909,100.214,,
605,7.0616,99.7619,,
606,7.0302,99.9643,,
607,6.9829,101.44,,
608,6.9416,102.012,,
609,6.9061,99.3095,,
610,6.8635,98.4405,,
611,6.8271,100.667,,
612,6.7957,102.226,,
613,6.7607,100.107,,
614,6.7271,101.452,,
615,6.6803,97.7024,,
616,6.6482,100.512,,
617,6.6163,101.726,,
618,6.5862,97.8333,,
619,6.5599,97.4286,,
620,6.5194,100.286,,
621,6.4924,96.7857,,
622,6.464,96.881,,
623,6.4385,97.8452,,
624,6.4079,99.9167,,
625,6.369,98.131,,
626,6.3251,99.2143,,
627,6.2968,96.7262,,
628,6.2622,96.0476,,
629,6.2421,97.7143,,
630,6.2026,97.1786,,
631,6.1623,96.5119,,
632,6.1374,97.0357,,
633,6.1078,97.9762,,
634,6.0688,100.214,,
635,6.0305,98.369,,
636,5.9965,99.7738,,
637,5.9562,102.286,,
638,5.9238,100.774,,
639,5.9123,99.0238,,
640,5.8794,99.7381,,
641,5.8377,99.0119,,
642,5.7966,99.6786,,
643,5.754,99.5595,,
644,5.715,98.0952,,
645,5.6712,100.667,,
646,5.6463,100.298,,
647,5.5971,100.452,,
648,5.5408,101.25,,
649,5.5276,100.06,,
650,5.5039,100.774,,
651,5.4551,100,,
652,5.4247,99.2857,,
653,5.4007,102.464,,
654,5.3578,99.7976,,
655,5.3071,97.9048,,
656,5.2986,95.6548,,
657,5.2684,96.131,,
658,5.2236,94.5833,,
659,5.1946,94.7738,,
660,5.1692,94.2619,,
661,5.1389,90.7619,,
662,5.1214,88.8571,,
663,5.0912,87.4643,,
664,5.0512,89.2857,,
665,5.0128,87.631,,
666,4.9785,87.131,,
667,4.9545,85.2024,,
668,4.9138,85.1667,,
669,4.8715,87.3929,,
670,4.8412,85.131,,
671,4.8195,86.5833,,
672,4.7858,87.9643,,
673,4.7537,88.0952,,
674,4.7186,86.6429,,
675,4.6964,85.8929,,
676,4.6752,86.2857,,
677,4.646,85.2024,,
678,4.6129,83.7262,,
679,4.5842,83.7738,,
680,4.5587,83.1429,,
681,4.5564,82.7024,,
682,4.5187,82.119,,
683,4.4746,80.631,,
684,4.4244,80.2381,,
685,4.4037,80.1667,,
686,4.3905,81.1548,,
687,4.3848,79.7024,,
688,4.367,79.6071,,
689,4.3407,78.5714,,
690,4.3047,79.7262,,
691,4.254,79.75,,
692,4.2255,77.0595,,
693,4.2243,77.1071,,
694,4.2176,78.4048,,
695,4.1595,76.1786,,
696,4.1073,77.6548,,
697,4.0956,75.0119,,
698,4.0902,74.6548,,
699,4.076,76.2857,,
700,4.0567,76.9048,,
701,4.0354,73.2857,,
702,3.9993,75.881,,
703,3.9773,75.5119,,
704,3.9482,73.9167,,
705,3.9146,74.4643,,
706,3.8953,73.5476,,
707,3.8944,72.2619,,
708,3.8723,72.869,,
709,3.8459,71.7976,,
710,3.8142,70.381,,
711,3.7864,69.6071,,
712,3.7696,68.25,,
713,3.7372,66.3095,,
714,3.7251,65.9524,,
715,3.7121,67.0476,,
716,3.6796,65.0119,,
717,3.6722,65.8929,,
718,3.6648,64.1071,,
719,3.6177,62.4643,,
720,3.571,60.7024,,
721,3.5807,60.9167,,
722,3.5649,60.4286,,
723,3.5013,59.7976,,
724,3.5122,57.3095,,
725,3.5283,56.4167,,
726,3.5028,56.2619,,
727,3.4426,56.4048,,
728,3.4233,56.6905,,
729,3.448,56.4881,,
730,3.4198,57.9524,,
731,3.3695,57.7262,,
732,3.3686,57.0357,,
733,3.371,56.4524,,
734,3.3384,55.5476,,
735,3.2859,53.7262,,
736,3.2877,51.131,,
737,3.316,50.7381,,
738,3.2839,48.6071,,
739,3.2286,47.6667,,
740,3.2356,48,,
741,3.2569,46.0714,,
742,3.217,45.4286,,
743,3.1667,45.3929,,
744,3.1763,44.75,,
745,3.1889,43.0119,,
746,3.168,44.25,,
747,3.1152,42.6667,,
748,3.1248,42.4643,,
749,3.1462,41.2857,,
750,3.1131,42.4286,,
751,3.0625,40.7619,,
752,3.0873,40.2619,,
753,3.1192,37.9048,,
754,3.0791,37.2024,,
755,3.0211,37,,
756,3.0195,38.2024,,
757,3.0308,38.7143,,
758,3.0087,38.0714,,
759,2.9672,37.8214,,
760,2.9702,37.119,,
761,2.9982,37.5833,,
762,2.9702,37.881,,
763,2.9242,37.8333,,
764,2.934,38.7738,,
765,2.9535,37.9048,,
766,2.9315,37.7738,,
767,2.9012,37.3929,,
768,2.9282,37.5833,,
769,2.9248,37.8452,,
770,2.8862,37.8333,,
771,2.8506,37.8214,,
772,2.8367,37.119,,
773,2.8597,36.9881,,
774,2.8415,37.5714,,
775,2.7898,37.381,,
776,2.8045,37.2262,,
777,2.8336,37.3214,,
778,2.8054,38.0714,,
779,2.7394,36.8571,,
780,2.7148,35.8929,,
781,2.7609,36.0952,,
782,2.7491,36.2024,,
783,2.697,34.5119,,
784,2.6979,33.7738,,
785,2.7217,33.2619,,
786,2.7173,32.5119,,
787,2.6712,32.25,,
788,2.6504,32.0476,,
789,2.6913,31.4286,,
790,2.6852,30.7024,,
791,2.6231,30.0714,,
792,2.6027,30.25,,
793,2.6244,30.5,,
794,2.6149,30.5833,,
795,2.5555,30.5833,,
796,2.5386,30.0595,,
797,2.5747,29.9524,,
798,2.5808,29.7262,,
799,2.527,29.2976,,
800,2.5018,29.3214,,
801,2.5393,28.369,,
802,2.5603,27.5833,,
803,2.5194,28.131,,
804,2.4716,27.2857,,
805,2.5007,26.5238,,
806,2.5164,26.0595,,
807,2.48,25.3214,,
808,2.4462,24.9881,,
809,2.4717,24.9881,,
810,2.4978,25.619,,
811,2.4472,24.75,,
812,2.4083,24.9167,,
813,2.4401,23.7143,,
814,2.4701,23.619,,
815,2.4407,24.119,,
816,2.3973,23.4524,,
817,2.4106,22.8571,,
818,2.4376,21.6429,,
819,2.3991,21.0595,,
820,2.3455,20.6786,,
821,2.3611,20.3929,,
822,2.4052,20.6429,,
823,2.3861,20.3333,,
824,2.3368,19.8571,,
825,2.3387,20.0595,,
826,2.3794,19.4643,,
827,2.3715,19.5476,,
828,2.3207,19.5,,
829,2.3196,20.4048,,
830,2.3573,20.631,,
831,2.3322,21.3095,,
832,2.2804,21.4643,,
833,2.2843,21.5357,,
834,2.3095,21.9762,,
835,2.3055,22.3214,,
836,2.2696,21.4524,,
837,2.2594,20.6548,,
838,2.3015,20.7857,,
839,2.2998,20.4881,,
840,2.2422,19.4286,,
841,2.2227,18.3571,,
842,2.2611,18.25,,
843,2.2837,18.3929,,
844,2.2395,18.7619,,
845,2.1993,19.3214,,
846,2.2342,18.2262,,
847,2.2594,17.2619,,
848,2.2126,17.1667,,
849,2.1631,17.5238,,
850,2.1885,16.4643,,
851,2.2308,16.7381,,
852,2.2025,16.7619,,
853,2.1502,16.3333,,
854,2.1596,16.5357,,
855,2.1857,16.2857,,
856,2.1732,16.6667,,
857,2.1169,17.9881,,
858,2.1154,17.8571,,
859,2.159,17.5357,,
860,2.1584,17.2024,,
861,2.1164,18.131,,
862,2.1134,18.9286,,
863,2.1523,18.7976,,
864,2.1485,17.9405,,
865,2.0916,18.3929,,
866,2.0918,18.3571,,
867,2.1332,18.7619,,
868,2.142,19.369,,
869,2.0883,19.3452,,
870,2.0549,18.4167,,
871,2.0904,17.6667,,
872,2.1123,17.5,,
873,2.0728,16.9762,,
874,2.0362,17.6071,,
875,2.062,16.2857,,
876,2.0931,15.7976,,
877,2.0574,15.5238,,
878,2.0134,15.0833,,
879,2.0425,15.2738,,
880,2.0701,14.5476,,
881,2.0358,14.1429,,
882,1.9879,14.119,,
883,2.0145,14.0357,,
884,2.0571,14.4881,,
885,2.0322,14.6429,,
886,1.9823,13.8452,,
887,2.006,13.5476,,
888,2.05,13.1905,,
889,2.0371,13.369,,
890,1.9718,13,,
891,1.9829,12.6667,,
892,2.0296,13.0714,,
893,2.019,11.7024,,
894,1.9485,11.3095,,
895,1.9447,11.1786,,
896,1.9696,11.2976,,
897,1.9798,11.5952,,
898,1.9417,11.6429,,
899,1.9264,11.2143,,
900,1.9615,11.2024,,
901,1.971,11.2738,,
902,1.9404,12.2143,,
903,1.9147,12.5476,,
904,1.9371,13.1667,,
905,1.9703,13.2143,,
906,1.9275,12.9643,,
907,1.8874,12.9405,,
908,1.9212,13.5952,,
909,1.9433,14.3929,,
910,1.9285,14.3571,,
911,1.8876,14.0238,,
912,1.9057,14.4881,,
913,1.9511,14.7619,,
914,1.9324,15.4286,,
915,1.8708,15.7381,,
916,1.8521,15.0238,,
917,1.9169,14.2976,,
918,1.9426,13.7381,,
919,1.8793,13.7857,,
920,1.8249,13.2262,,
921,1.8552,12.9524,,
922,1.8913,11.7738,,
923,1.8765,11.5595,,
924,1.8224,11.5952,,
925,1.8355,10.7738,,
926,1.8676,10.9643,,
927,1.862,10.25,,
928,1.8181,9.66667,,
929,1.7937,9.07143,,
930,1.8398,8.79762,,
931,1.8568,8.22619,,
932,1.8104,8.2619,,
933,1.7527,8.47619,,
934,1.78,7.36905,,
935,1.8116,6.86905,,
936,1.7946,6.96429,,
937,1.7529,7.10714,,
938,1.781,7.5,,
939,1.8117,7.34524,,
940,1.7916,6.95238,,
941,1.7628,6.90476,,
942,1.7713,6.92857,,
943,1.8514,6.46429,,
944,1.8014,6.41667,,
945,1.7128,6.29762,,
946,1.7214,6.07143,,
947,1.7665,5.17857,,
948,1.784,5.21429,,
949,1.7337,5.28571,,
950,1.629,5.40476,,
951,1.6803,5.22619,,
952,1.7421,5.80952,,
953,1.7331,6.02381,,
954,1.7144,6.32143,,
955,1.7441,6.60714,,
956,1.7836,6.60714,,
957,1.7488,6.45238,,
958,1.6978,6.2381,,
959,1.7197,6.20238,,
960,1.7517,6.39286,,
961,1.7175,5.91667,,
962,1.6847,5.67857,,
963,1.7005,4.79762,,
964,1.7714,4.35714,,
965,1.7944,4.17857,,
966,1.7102,4.29762,,
967,1.7293,4.5119,,
968,1.7321,5.03571,,
969,1.6903,4.38095,,
970,1.6648,4.2619,,
971,1.6753,4.36905,,
972,1.7164,4.4881,,
973,1.7228,4.7619,,
974,1.6669,4.59524,,
975,1.6618,4.29762,,
976,1.7034,4.25,,
977,1.7148,4.25,,
978,1.6611,4.88095,,
979,1.6423,5.55952,,
980,1.6886,5.32143,,
981,1.7249,5.27381,,
982,1.6936,5.21429,,
983,1.6633,5.32143,,
984,1.69,5.54762,,
985,1.6796,5.5119,,
986,1.6485,4.65476,,
987,1.6499,4.27381,,
988,1.6916,4.19048,,
989,1.7006,4.33333,,
990,1.6547,4.75,,
991,1.6291,4.16667,,
992,1.6638,3.52381,,
993,1.6881,4.05952,,
994,1.6482,4.38095,,
995,1.6266,4.59524,,
996,1.6561,4.94048,,
997,1.6901,4.75,,
998,1.6646,4.57143,,
999,1.6188,4.5119,,
1000,1.655,4.35714,,