File: PMMA/Calibration_Data/TIFP/TIFP_DSC_N2_10K_6.csv
Time,Temperature,Heat Flow
[s],[K],[mW/mg]
0,302.613,0.0106
3,302.607,0.0109
6,302.608,0.0105
9,302.608,0.0104
12,302.6,0.0105
15,302.597,0.0102
18,302.597,0.0104
21,302.596,0.00965
24,302.592,0.00847
27,302.586,0.00727
30,302.586,0.0055
33,302.581,0.00332
36,302.581,0.000677
39,302.579,-0.00271
42,302.578,-0.00674
45,302.575,-0.0112
48,302.569,-0.0167
51,302.569,-0.0225
54,302.565,-0.0297
57,302.564,-0.0376
60,302.56,-0.0465
63,302.56,-0.057
66,302.563,-0.068
69,302.573,-0.0808
72,302.585,-0.094
75,302.609,-0.1091
78,302.645,-0.12424
81,302.693,-0.13995
84,302.752,-0.15657
87,302.828,-0.1725
90,302.922,-0.18841
93,303.034,-0.20374
96,303.17,-0.2181
99,303.33,-0.232
102,303.511,-0.24504
105,303.719,-0.25647
108,303.956,-0.26654
111,304.223,-0.27476
114,304.514,-0.28131
117,304.838,-0.28598
120,305.194,-0.28784
123,305.583,-0.28745
126,306.003,-0.28425
129,306.454,-0.27861
132,306.936,-0.26946
135,307.455,-0.2576
138,308.006,-0.24235
141,308.587,-0.22353
144,309.2,-0.20214
147,309.842,-0.17831
150,310.513,-0.15247
153,311.216,-0.12458
156,311.941,-0.0952
159,312.692,-0.065
162,313.469,-0.0335
165,314.262,-0.00231
168,315.083,0.0298
171,315.92,0.0618
174,316.77,0.0933
177,317.637,0.12443
180,318.521,0.1551
183,319.421,0.18483
186,320.319,0.21333
189,321.228,0.24076
192,322.149,0.26662
195,323.073,0.29151
198,323.998,0.31563
201,324.927,0.33785
204,325.855,0.35849
207,326.782,0.37792
210,327.71,0.39596
213,328.63,0.41251
216,329.548,0.42739
219,330.46,0.44069
222,331.36,0.45292
225,332.259,0.46409
228,333.145,0.4734
231,334.019,0.48116
234,334.884,0.48817
237,335.74,0.49379
240,336.584,0.49879
243,337.415,0.50229
246,338.239,0.50447
249,339.04,0.50615
252,339.832,0.50651
255,340.616,0.50618
258,341.384,0.50528
261,342.139,0.50366
264,342.88,0.50096
267,343.607,0.49825
270,344.323,0.49456
273,345.024,0.49065
276,345.711,0.4864
279,346.387,0.48164
282,347.053,0.47634
285,347.705,0.47129
288,348.342,0.46594
291,348.972,0.46039
294,349.591,0.45472
297,350.194,0.44904
300,350.795,0.44325
303,351.376,0.43764
306,351.953,0.43181
309,352.52,0.42615
312,353.08,0.42094
315,353.634,0.41556
318,354.174,0.41035
321,354.714,0.40513
324,355.242,0.40026
327,355.766,0.39536
330,356.284,0.3906
333,356.796,0.38596
336,357.302,0.38143
339,357.802,0.37731
342,358.301,0.37288
345,358.797,0.36896
348,359.285,0.36542
351,359.772,0.36196
354,360.257,0.35882
357,360.737,0.35631
360,361.215,0.35373
363,361.689,0.35166
366,362.168,0.35008
369,362.64,0.34908
372,363.11,0.34803
375,363.581,0.34797
378,364.051,0.34779
381,364.519,0.34875
384,364.99,0.34896
387,365.456,0.35044
390,365.924,0.35187
393,366.392,0.35421
396,366.858,0.35613
399,367.327,0.35883
402,367.792,0.36174
405,368.263,0.36477
408,368.73,0.36835
411,369.201,0.3719
414,369.671,0.37589
417,370.14,0.37985
420,370.612,0.38424
423,371.083,0.38853
426,371.557,0.39357
429,372.027,0.39829
432,372.502,0.40302
435,372.979,0.40838
438,373.453,0.41372
441,373.933,0.41879
444,374.407,0.4241
447,374.887,0.42981
450,375.365,0.43498
453,375.846,0.44069
456,376.326,0.44637
459,376.805,0.45215
462,377.292,0.45736
465,377.773,0.46342
468,378.257,0.46907
471,378.741,0.47502
474,379.226,0.48071
477,379.711,0.48646
480,380.198,0.49207
483,380.686,0.49796
486,381.174,0.50365
489,381.66,0.50944
492,382.149,0.51543
495,382.636,0.52106
498,383.128,0.52672
501,383.615,0.53235
504,384.107,0.53795
507,384.596,0.54371
510,385.089,0.55089
513,385.577,0.55703
516,386.072,0.56327
519,386.563,0.56918
522,387.056,0.57524
525,387.55,0.58127
528,388.042,0.5869
531,388.54,0.59267
534,389.033,0.5983
537,389.524,0.60375
540,390.019,0.60894
543,390.513,0.61419
546,391.013,0.61971
549,391.503,0.62481
552,392.003,0.63066
555,392.502,0.63622
558,392.996,0.64172
561,393.491,0.64763
564,393.99,0.65339
567,394.491,0.65943
570,394.984,0.66481
573,395.485,0.67037
576,395.987,0.67611
579,396.485,0.68228
582,396.983,0.68762
585,397.481,0.69309
588,397.984,0.69832
591,398.485,0.70361
594,398.982,0.70853
597,399.485,0.71385
600,399.987,0.71899
603,400.487,0.72402
606,400.992,0.72863
609,401.49,0.73356
612,401.996,0.73828
615,402.5,0.74339
618,403.001,0.74835
621,403.508,0.75344
624,404.013,0.75825
627,404.516,0.76324
630,405.02,0.76816
633,405.527,0.77336
636,406.03,0.77847
639,406.537,0.78317
642,407.041,0.78828
645,407.549,0.79377
648,408.051,0.79889
651,408.557,0.80259
654,409.064,0.80615
657,409.572,0.81102
660,410.079,0.816
663,410.587,0.82132
666,411.091,0.82628
669,411.598,0.83168
672,412.105,0.8366
675,412.613,0.84198
678,413.12,0.84693
681,413.623,0.85245
684,414.134,0.85794
687,414.638,0.86288
690,415.146,0.86808
693,415.65,0.87402
696,416.159,0.87961
699,416.664,0.88505
702,417.17,0.89083
705,417.678,0.89646
708,418.184,0.90166
711,418.69,0.9071
714,419.192,0.91261
717,419.698,0.91753
720,420.206,0.92308
723,420.711,0.92808
726,421.217,0.93321
729,421.722,0.9384
732,422.225,0.94337
735,422.729,0.94839
738,423.235,0.95342
741,423.74,0.9584
744,424.244,0.9638
747,424.747,0.96912
750,425.253,0.97407
753,425.757,0.97951
756,426.261,0.98475
759,426.768,0.99015
762,427.272,1.00019
765,427.777,1.00619
768,428.275,1.01229
771,428.779,1.01781
774,429.284,1.02388
777,429.787,1.02942
780,430.292,1.03484
783,430.792,1.04079
786,431.295,1.04615
789,431.799,1.05164
792,432.3,1.05736
795,432.804,1.06299
798,433.306,1.06822
801,433.809,1.07394
804,434.309,1.07949
807,434.812,1.08537
810,435.31,1.09081
813,435.814,1.09683
816,436.313,1.10236
819,436.817,1.10805
822,437.317,1.11356
825,437.818,1.11885
828,438.316,1.12426
831,438.819,1.12967
834,439.315,1.13518
837,439.815,1.14081
840,440.315,1.1464
843,440.816,1.15204
846,441.316,1.15762
849,441.816,1.16313
852,442.316,1.16844
855,442.817,1.17465
858,443.315,1.18003
861,443.814,1.18556
864,444.313,1.19129
867,444.812,1.19695
870,445.311,1.20269
873,445.807,1.20805
876,446.308,1.21371
879,446.805,1.2203
882,447.306,1.22733
885,447.803,1.23529
888,448.301,1.24223
891,448.799,1.24814
894,449.299,1.25423
897,449.794,1.25979
900,450.291,1.26519
903,450.791,1.27082
906,451.285,1.27636
909,451.785,1.28191
912,452.281,1.28685
915,452.78,1.29216
918,453.279,1.29722
921,453.775,1.30214
924,454.27,1.30701
927,454.769,1.31176
930,455.265,1.31642
933,455.763,1.32101
936,456.261,1.3252
939,456.759,1.3297
942,457.254,1.33375
945,457.751,1.3377
948,458.249,1.34159
951,458.743,1.34564
954,459.241,1.34925
957,459.738,1.35275
960,460.235,1.356
963,460.73,1.35925
966,461.227,1.36236
969,461.723,1.36555
972,462.22,1.36869
975,462.714,1.37167
978,463.212,1.37486
981,463.707,1.37738
984,464.203,1.38019
987,464.701,1.3833
990,465.197,1.38621
993,465.694,1.38894
996,466.191,1.39202
999,466.69,1.39483
1002,467.189,1.39767
1005,467.682,1.40048
1008,468.182,1.40344
1011,468.68,1.40645
1014,469.177,1.40955
1017,469.673,1.41232
1020,470.173,1.41547
1023,470.668,1.41859
1026,471.168,1.42178
1029,471.663,1.42539
1032,472.162,1.42867
1035,472.66,1.43222
1038,473.158,1.43598
1041,473.656,1.43997
1044,474.153,1.44378
1047,474.651,1.44773
1050,475.149,1.45145
1053,475.648,1.45577
1056,476.147,1.45998
1059,476.643,1.46449
1062,477.143,1.46831
1065,477.64,1.47294
1068,478.138,1.47688
1071,478.635,1.48085
1074,479.134,1.48509
1077,479.633,1.48908
1080,480.129,1.49281
1083,480.628,1.49603
1086,481.128,1.50008
1089,481.627,1.50308
1092,482.122,1.50674
1095,482.62,1.5101
1098,483.122,1.51358
1101,483.618,1.51668
1104,484.117,1.51935
1107,484.616,1.52238
1110,485.114,1.52466
1113,485.612,1.52762
1116,486.112,1.52945
1119,486.609,1.53173
1122,487.106,1.53389
1125,487.605,1.53549
1128,488.104,1.53759
1131,488.603,1.53934
1134,489.097,1.54131
1137,489.598,1.5439
1140,490.096,1.54701
1143,490.595,1.54935
1146,491.092,1.55167
1149,491.589,1.55336
1152,492.088,1.55535
1155,492.584,1.55742
1158,493.081,1.55955
1161,493.582,1.56165
1164,494.082,1.56378
1167,494.578,1.56577
1170,495.079,1.5677
1173,495.575,1.57005
1176,496.074,1.57231
1179,496.573,1.57447
1182,497.072,1.57694
1185,497.57,1.57927
1188,498.069,1.58199
1191,498.568,1.58488
1194,499.066,1.58751
1197,499.565,1.59047
1200,500.063,1.59355
1203,500.564,1.59626
1206,501.061,1.59932
1209,501.562,1.60224
1212,502.06,1.60494
1215,502.558,1.60816
1218,503.058,1.61104
1221,503.558,1.61394
1224,504.058,1.61665
1227,504.555,1.61936
1230,505.053,1.62241
1233,505.552,1.62552
1236,506.052,1.62851
1239,506.551,1.63136
1242,507.051,1.63453
1245,507.551,1.63768
1248,508.048,1.64097
1251,508.549,1.64416
1254,509.046,1.64738
1257,509.545,1.65051
1260,510.044,1.65364
1263,510.543,1.65681
1266,511.041,1.66013
1269,511.54,1.66328
1272,512.038,1.6667
1275,512.534,1.66978
1278,513.034,1.67311
1281,513.53,1.6766
1284,514.031,1.67978
1287,514.528,1.68326
1290,515.026,1.68678
1293,515.522,1.69002
1296,516.021,1.69345
1299,516.522,1.69692
1302,517.019,1.70037
1305,517.519,1.7038
1308,518.02,1.70685
1311,518.516,1.71057
1314,519.013,1.71402
1317,519.512,1.71717
1320,520.011,1.72112
1323,520.51,1.72449
1326,521.008,1.72773
1329,521.507,1.73142
1332,522.005,1.73512
1335,522.503,1.73833
1338,523.005,1.7418
1341,523.503,1.7452
1344,524.003,1.74897
1347,524.499,1.75212
1350,524.998,1.75593
1353,525.499,1.75959
1356,525.998,1.76328
1359,526.496,1.76687
1362,526.993,1.77057
1365,527.494,1.77407
1368,527.994,1.77616
1371,528.492,1.77992
1374,528.99,1.78361
1377,529.49,1.78728
1380,529.992,1.79063
1383,530.489,1.79442
1386,530.99,1.79835
1389,531.491,1.80243
1392,531.989,1.80643
1395,532.49,1.81058
1398,532.988,1.81394
1401,533.487,1.81854
1404,533.989,1.82316
1407,534.489,1.82732
1410,534.987,1.83183
1413,535.489,1.8362
1416,535.99,1.84039
1419,536.49,1.84497
1422,536.988,1.84881
1425,537.489,1.853
1428,537.99,1.85687
1431,538.486,1.86113
1434,538.993,1.86486
1437,539.491,1.86894
1440,539.991,1.87316
1443,540.489,1.87677
1446,540.99,1.88101
1449,541.493,1.88448
1452,541.991,1.88838
1455,542.493,1.89187
1458,542.992,1.89513
1461,543.491,1.89879
1464,543.99,1.90186
1467,544.493,1.90536
1470,544.99,1.9087
1473,545.491,1.91226
1476,545.991,1.91566
1479,546.489,1.91902
1482,546.991,1.92229
1485,547.49,1.92539
1488,547.988,1.92852
1491,548.488,1.93186
1494,548.988,1.93501
1497,549.488,1.93814
1500,549.987,1.94118
1503,550.484,1.94426
1506,550.984,1.94729
1509,551.485,1.95036
1512,551.983,1.95387
1515,552.482,1.9569
1518,552.98,1.95977
1521,553.48,1.96284
1524,553.978,1.96571
1527,554.476,1.96854
1530,554.973,1.97174
1533,555.474,1.97487
1536,555.973,1.97777
1539,556.471,1.98052
1542,556.966,1.98275
1545,557.468,1.98589
1548,557.965,1.98829
1551,558.461,1.99109
1554,558.961,1.99343
1557,559.459,1.9955
1560,559.959,1.99776
1563,560.456,1.99995
1566,560.955,2.00234
1569,561.451,2.00469
1572,561.951,2.00715
1575,562.448,2.00916
1578,562.947,2.01181
1581,563.445,2.01419
1584,563.942,2.01633
1587,564.442,2.01882
1590,564.941,2.02071
1593,565.437,2.02392
1596,565.934,2.02877
1599,566.435,2.03432
1602,566.932,2.04077
1605,567.43,2.04691
1608,567.928,2.05375
1611,568.427,2.06089
1614,568.927,2.06729
1617,569.422,2.07404
1620,569.92,2.0807
1623,570.42,2.08744
1626,570.918,2.09333
1629,571.418,2.09964
1632,571.916,2.10595
1635,572.417,2.11177
1638,572.915,2.11755
1641,573.415,2.12327
1644,573.915,2.12874
1647,574.412,2.13481
1650,574.911,2.1404
1653,575.411,2.14609
1656,575.912,2.15171
1659,576.408,2.15717
1662,576.907,2.16253
1665,577.408,2.16833
1668,577.906,2.17287
1671,578.406,2.17866
1674,578.906,2.18354
1677,579.406,2.18858
1680,579.907,2.19348
1683,580.406,2.19772
1686,580.906,2.20288
1689,581.407,2.20756
1692,581.906,2.21261
1695,582.407,2.21799
1698,582.907,2.22319
1701,583.407,2.22894
1704,583.908,2.23419
1707,584.409,2.23971
1710,584.908,2.24564
1713,585.408,2.25102
1716,585.906,2.25706
1719,586.406,2.26302
1722,586.908,2.2691
1725,587.408,2.27566
1728,587.909,2.28258
1731,588.409,2.28938
1734,588.911,2.29637
1737,589.407,2.30397
1740,589.91,2.31165
1743,590.408,2.32009
1746,590.907,2.32877
1749,591.406,2.33686
1752,591.906,2.34602
1755,592.409,2.35474
1758,592.906,2.36459
1761,593.404,2.3737
1764,593.906,2.38384
1767,594.404,2.39376
1770,594.902,2.40443
1773,595.401,2.41506
1776,595.901,2.42652
1779,596.401,2.43832
1782,596.898,2.45013
1785,597.398,2.46176
1788,597.898,2.47408
1791,598.397,2.48687
1794,598.897,2.49969
1797,599.397,2.51296
1800,599.896,2.52661
1803,600.395,2.53986
1806,600.896,2.55382
1809,601.393,2.56838
1812,601.892,2.58366
1815,602.394,2.59892
1818,602.89,2.61486
1821,603.389,2.63097
1824,603.89,2.64749
1827,604.391,2.66443
1830,604.886,2.68144
1833,605.386,2.69916
1836,605.885,2.7178
1839,606.383,2.73689
1842,606.882,2.75599
1845,607.38,2.77618
1848,607.88,2.79622
1851,608.377,2.81681
1854,608.877,2.83771
1857,609.379,2.85937
1860,609.876,2.88097
1863,610.372,2.90402
1866,610.874,2.92716
1869,611.375,2.9507
1872,611.871,2.97512
1875,612.37,3.00011
1878,612.87,3.02521
1881,613.37,3.05203
1884,613.866,3.07844
1887,614.367,3.10546
1890,614.864,3.13322
1893,615.365,3.16172
1896,615.86,3.19033
1899,616.36,3.21914
1902,616.861,3.24999
1905,617.361,3.28011
1908,617.858,3.31189
1911,618.358,3.34378
1914,618.855,3.37645
1917,619.354,3.4095
1920,619.856,3.44382
1923,620.355,3.47774
1926,620.855,3.51272
1929,621.353,3.54863
1932,621.855,3.585
1935,622.354,3.62116
1938,622.854,3.65793
1941,623.353,3.69588
1944,623.854,3.73386
1947,624.354,3.77251
1950,624.853,3.81126
1953,625.351,3.85035
1956,625.85,3.88893
1959,626.35,3.92805
1962,626.85,3.96747
1965,627.35,4.00614
1968,627.849,4.04499
1971,628.349,4.08497
1974,628.849,4.12365
1977,629.349,4.16017
1980,629.848,4.19688
1983,630.348,4.23225
1986,630.849,4.26683
1989,631.348,4.29828
1992,631.844,4.32684
1995,632.344,4.35182
1998,632.841,4.36943
2001,633.342,4.39029
2004,633.839,4.41226
2007,634.337,4.42878
2010,634.836,4.43767
2013,635.334,4.45207
2016,635.832,4.43785
2019,636.329,4.41097
2022,636.825,4.40761
2025,637.325,4.41331
2028,637.822,4.41985
2031,638.323,4.41855
2034,638.823,4.40877
2037,639.319,4.3966
2040,639.818,4.40964
2043,640.318,4.39169
2046,640.815,4.37191
2049,641.318,4.41884
2052,641.818,4.43453
2055,642.315,4.40156
2058,642.819,4.49816
2061,643.319,4.48583
2064,643.815,4.43721
2067,644.313,4.40263
2070,644.814,4.39004
2073,645.318,4.47415
2076,645.82,4.48871
2079,646.318,4.42647
2082,646.82,4.47558
2085,647.322,4.48501
2088,647.823,4.44965
2091,648.323,4.42611
2094,648.822,4.42921
2097,649.324,4.42462
2100,649.823,4.32905
2103,650.328,4.35824
2106,650.826,4.30601
2109,651.329,4.31862
2112,651.832,4.31904
2115,652.333,4.31047
2118,652.833,4.29843
2121,653.335,4.26734
2124,653.837,4.28545
2127,654.339,4.24114
2130,654.838,4.21007
2133,655.343,4.20214
2136,655.844,4.19433
2139,656.344,4.13104
2142,656.845,4.12393
2145,657.347,4.06227
2148,657.846,4.02583
2151,658.348,4.00061
2154,658.851,3.98015
2157,659.352,3.97613
2160,659.856,3.96542
2163,660.355,3.94656
2166,660.858,3.92879
2169,661.36,3.91433
2172,661.862,3.87904
2175,662.361,3.8402
2178,662.862,3.79614
2181,663.362,3.74566
2184,663.864,3.70366
2187,664.364,3.64495
2190,664.863,3.58113
2193,665.362,3.51829
2196,665.865,3.45679
2199,666.366,3.41425
2202,666.866,3.35732
2205,667.367,3.30128
2208,667.866,3.25607
2211,668.37,3.20868
2214,668.871,3.16559
2217,669.372,3.12402
2220,669.873,3.08158
2223,670.376,3.03837
2226,670.876,2.99348
2229,671.379,2.95247
2232,671.878,2.91354
2235,672.379,2.87348
2238,672.883,2.83681
2241,673.38,2.801
2244,673.881,2.76442
2247,674.383,2.7306
2250,674.883,2.69628
2253,675.386,2.66499
2256,675.886,2.63299
2259,676.384,2.60359
2262,676.885,2.57361
2265,677.388,2.54833
2268,677.886,2.52276
2271,678.383,2.49721
2274,678.884,2.47218
2277,679.382,2.44789
2280,679.883,2.42444
2283,680.383,2.40222
2286,680.878,2.37967
2289,681.38,2.35976
2292,681.878,2.34246
2295,682.376,2.32432
2298,682.876,2.30684
2301,683.374,2.28977
2304,683.873,2.27389
2307,684.371,2.25819
2310,684.87,2.24324
2313,685.368,2.22821
2316,685.866,2.21487
2319,686.365,2.20131
2322,686.863,2.18861
2325,687.36,2.17629
2328,687.858,2.16483
2331,688.358,2.15358
2334,688.856,2.14334
2337,689.354,2.13316
2340,689.851,2.12387
2343,690.35,2.11418
2346,690.847,2.10612
2349,691.344,2.09765
2352,691.845,2.09007
2355,692.341,2.08214
2358,692.84,2.07497
2361,693.34,2.0681
2364,693.836,2.06182
2367,694.333,2.0558
2370,694.829,2.0503
2373,695.329,2.04503
2376,695.828,2.03982
2379,696.327,2.0358
2382,696.823,2.03079
2385,697.32,2.02674
2388,697.82,2.02276
2391,698.316,2.0179
2394,698.815,2.01405
2397,699.313,2.00983
2400,699.813,2.00525
2403,700.309,2.00108
2406,700.811,1.9964
2409,701.306,1.9913
2412,701.805,1.98651
2415,702.304,1.98112
2418,702.8,1.97613
2421,703.299,1.97087
2424,703.799,1.96582
2427,704.297,1.9608
2430,704.795,1.95604
2433,705.294,1.95131
2436,705.792,1.94672
2439,706.293,1.94339
2442,706.789,1.93975
2445,707.289,1.93556
2448,707.788,1.9331
2451,708.288,1.93071
2454,708.786,1.92861
2457,709.286,1.92711
2460,709.785,1.9252
2463,710.287,1.92464
2466,710.786,1.92605
2469,711.287,1.92463
2472,711.787,1.92249
2475,712.286,1.91891
2478,712.784,1.91276
2481,713.285,1.90979
2484,713.785,1.90713
2487,714.286,1.90474
2490,714.783,1.90261
2493,715.284,1.90084
2496,715.783,1.89957
2499,716.281,1.89789
2502,716.78,1.89673
2505,717.279,1.89584
2508,717.778,1.89542
2511,718.279,1.89448
2514,718.778,1.89408
2517,719.278,1.89416
2520,719.778,1.89392
2523,720.274,1.89349
2526,720.774,1.89315
2529,721.275,1.89305
2532,721.776,1.89193
2535,722.275,1.8914
2538,722.776,1.8912
2541,723.273,1.89041
2544,723.776,1.88946
2547,724.277,1.89004
2550,724.778,1.8894
2553,725.276,1.88875
2556,725.777,1.88902
2559,726.276,1.88884
2562,726.778,1.88805
2565,727.28,1.88858
2568,727.779,1.8887
2571,728.281,1.88834
2574,728.782,1.88853
2577,729.282,1.88843
2580,729.781,1.88872
2583,730.283,1.88857
2586,730.783,1.88898
2589,731.283,1.88848
2592,731.785,1.88872
2595,732.284,1.88869
2598,732.782,1.88833
2601,733.285,1.88916
2604,733.782,1.88927
2607,734.28,1.8891
2610,734.782,1.88884
2613,735.282,1.88914
2616,735.78,1.88915
2619,736.281,1.88859
2622,736.78,1.88928
2625,737.277,1.88832
2628,737.779,1.8883
2631,738.278,1.88832
2634,738.781,1.88858
2637,739.279,1.88817
2640,739.778,1.88857
2643,740.277,1.88856
2646,740.778,1.88879
2649,741.279,1.88905
2652,741.778,1.88869
2655,742.277,1.88955
2658,742.777,1.88951
2661,743.278,1.88962
2664,743.778,1.89001
2667,744.279,1.89032
2670,744.779,1.89041
2673,745.277,1.8904
2676,745.779,1.89119
2679,746.281,1.89097
2682,746.78,1.89144
2685,747.279,1.89113
2688,747.781,1.89209
2691,748.279,1.89196
2694,748.779,1.89278
2697,749.277,1.89335
2700,749.779,1.89383
2703,750.279,1.89471
2706,750.777,1.8953
2709,751.277,1.89613
2712,751.777,1.89642
2715,752.274,1.89652
2718,752.777,1.89734
2721,753.276,1.89789
2724,753.774,1.89877
2727,754.274,1.89832
2730,754.772,1.89848
2733,755.269,1.89913
2736,755.772,1.89928
2739,756.269,1.90004
2742,756.768,1.90097
2745,757.268,1.9013
2748,757.77,1.90197
2751,758.269,1.90313
2754,758.767,1.90348
2757,759.268,1.90438
2760,759.768,1.90589
2763,760.268,1.90669
2766,760.77,1.9074
2769,761.269,1.9086
2772,761.768,1.90934
2775,762.267,1.91044
2778,762.767,1.91117
2781,763.266,1.91205
2784,763.767,1.91293
2787,764.268,1.91351
2790,764.769,1.9145
2793,765.268,1.91503
2796,765.77,1.91614
2799,766.271,1.91744
2802,766.772,1.91854
2805,767.271,1.91925
2808,767.773,1.92062
2811,768.275,1.92237
2814,768.777,1.92339
2817,769.276,1.925
2820,769.777,1.92639
2823,770.277,1.92765
2826,770.779,1.93016
2829,771.278,1.93137
2832,771.78,1.93324
2835,772.282,1.93435
2838,772.782,1.93629
2841,773.283,1.93769
2844,773.785,1.93953
2847,774.284,1.94091
2850,774.787,1.94271
2853,775.287,1.94399
2856,775.786,1.94632
2859,776.287,1.94826
2862,776.785,1.9499
2865,777.288,1.9515
2868,777.786,1.95397
2871,778.286,1.955
2874,778.786,1.95704
2877,779.283,1.95912
2880,779.785,1.96026
2883,780.284,1.96254
2886,780.785,1.96367
2889,781.285,1.96551
2892,781.786,1.96777
2895,782.288,1.96931
2898,782.787,1.97142
2901,783.288,1.9732
2904,783.789,1.97544
2907,784.289,1.97737
2910,784.792,1.97909
2913,785.29,1.98138
2916,785.793,1.98351
2919,786.293,1.98487
2922,786.792,1.98745
2925,787.295,1.98888
2928,787.794,1.99035
2931,788.293,1.99274
2934,788.796,1.99378
2937,789.294,1.99586
2940,789.796,1.99866
2943,790.299,1.99997
2946,790.8,2.00178
2949,791.3,2.00406
2952,791.8,2.00569
2955,792.299,2.00744
2958,792.802,2.00923
2961,793.302,2.01101
2964,793.799,2.01249
2967,794.299,2.01464
2970,794.799,2.0159
2973,795.299,2.01766
2976,795.8,2.0192
2979,796.305,2.02065
2982,796.802,2.02277
2985,797.302,2.02344
2988,797.803,2.02534
2991,798.305,2.02787
2994,798.806,2.02925
2997,799.308,2.03134
3000,799.807,2.03381
3003,800.31,2.03559
3006,800.81,2.03732
3009,801.311,2.03854
3012,801.814,2.04056
3015,802.313,2.04215
3018,802.814,2.04433
3021,803.315,2.04676
3024,803.816,2.04884
3027,804.318,2.05125
3030,804.816,2.05306
3033,805.318,2.05504
3036,805.82,2.05701
3039,806.321,2.05839
3042,806.822,2.06064
3045,807.322,2.06217
3048,807.822,2.06459
3051,808.323,2.06644
3054,808.825,2.06834
3057,809.326,2.0701
3060,809.828,2.07113
3063,810.329,2.07331
3066,810.827,2.0748
3069,811.329,2.07624
3072,811.83,2.07869
3075,812.331,2.08012
3078,812.829,2.08188
3081,813.332,2.083
3084,813.831,2.08555
3087,814.329,2.08726
3090,814.831,2.08878
3093,815.328,2.09086
3096,815.832,2.09191
3099,816.333,2.09392
3102,816.832,2.09555
3105,817.331,2.09705
3108,817.832,2.09774
3111,818.332,2.09982
3114,818.834,2.10113
3117,819.335,2.10248
3120,819.834,2.10505
3123,820.335,2.10639
3126,820.834,2.10793
3129,821.336,2.10841
3132,821.837,2.10914
3135,822.335,2.10981