File: PMMA/Calibration_Data/TIFP/TIFP_DSC_N2_10K_2.csv
Time,Temperature,Heat Flow
[s],[K],[mW/mg]
0,300.631,6.16E-03
4.8,300.626,5.76E-03
9.6,300.616,4.73E-03
14.4,300.61,4.68E-03
19.2,300.603,4.28E-03
24,300.59,4.07E-03
28.8,300.581,3.94E-03
33.6,300.566,3.65E-03
38.4,300.556,3.12E-03
43.2,300.541,2.91E-03
48,300.526,2.62E-03
52.8,300.514,2.14E-03
57.6,300.495,2.35E-03
62.4,300.481,2.22E-03
67.2,300.462,1.96E-03
72,300.448,1.98E-03
76.8,300.432,1.96E-03
81.6,300.414,1.98E-03
86.4,300.397,1.90E-03
91.2,300.376,1.77E-03
96,300.36,2.11E-03
100.8,300.341,1.93E-03
105.6,300.323,2.03E-03
110.4,300.305,2.19E-03
115.2,300.285,2.27E-03
120,300.264,2.27E-03
124.8,300.244,1.96E-03
129.6,300.223,2.27E-03
134.4,300.206,2.35E-03
139.2,300.188,2.51E-03
144,300.165,2.51E-03
148.8,300.148,2.38E-03
153.6,300.134,2.56E-03
158.4,300.116,2.93E-03
163.2,300.099,3.09E-03
168,300.085,3.20E-03
172.8,300.07,3.62E-03
177.6,300.057,3.75E-03
182.4,300.045,3.80E-03
187.2,300.034,4.57E-03
192,300.027,4.86E-03
196.8,300.013,5.07E-03
201.6,300.009,5.50E-03
206.4,299.999,5.87E-03
211.2,299.996,6.10E-03
216,299.992,6.74E-03
220.8,299.985,6.92E-03
225.6,299.985,6.92E-03
230.4,299.981,7.77E-03
235.2,299.984,8.06E-03
240,299.984,8.38E-03
244.8,299.988,8.56E-03
249.6,299.988,8.69E-03
254.4,299.99,8.90E-03
259.2,299.996,9.20E-03
264,299.996,9.59E-03
268.8,300,9.54E-03
273.6,300.007,9.80E-03
278.4,300.011,9.70E-03
283.2,300.016,1.00E-02
288,300.021,1.00E-02
292.8,300.033,9.75E-03
297.6,300.032,9.78E-03
300.6,300.036,1.00E-02
303,300.042,9.83E-03
305.4,300.042,1.01E-02
307.8,300.046,1.03E-02
310.2,300.051,1.04E-02
312.6,300.053,1.03E-02
315,300.066,1.04E-02
317.4,300.08,1.09E-02
319.8,300.095,1.07E-02
322.2,300.116,1.09E-02
324.6,300.144,1.16E-02
327,300.177,1.19E-02
329.4,300.22,1.25E-02
331.8,300.27,1.33E-02
334.2,300.327,1.42E-02
336.6,300.396,1.51E-02
339,300.473,1.64E-02
341.4,300.561,1.76E-02
343.8,300.664,1.91E-02
346.2,300.772,2.10E-02
348.6,300.896,2.31E-02
351,301.031,2.54E-02
353.4,301.181,2.77E-02
355.8,301.345,3.02E-02
358.2,301.522,3.31E-02
360.6,301.714,3.62E-02
363,301.922,3.94E-02
365.4,302.144,4.25E-02
367.8,302.382,4.60E-02
370.2,302.64,4.98E-02
372.6,302.909,5.36E-02
375,303.197,5.79E-02
377.4,303.5,6.23E-02
379.8,303.812,6.66E-02
382.2,304.149,7.10E-02
384.6,304.5,7.60E-02
387,304.863,8.09E-02
389.4,305.243,8.58E-02
391.8,305.638,9.07E-02
394.2,306.046,9.60E-02
396.6,306.471,0.10129
399,306.909,0.10623
401.4,307.361,0.11117
403.8,307.823,0.1159
406.2,308.297,0.12071
408.6,308.787,0.12565
411,309.284,0.13069
413.4,309.793,0.13497
415.8,310.309,0.13941
418.2,310.842,0.14366
420.6,311.379,0.14771
423,311.924,0.15167
425.4,312.475,0.15537
427.8,313.037,0.15867
430.2,313.601,0.16231
432.6,314.173,0.16509
435,314.749,0.16805
437.4,315.332,0.17061
439.8,315.913,0.17299
442.2,316.503,0.17471
444.6,317.096,0.17687
447,317.689,0.1787
449.4,318.284,0.17999
451.8,318.883,0.18171
454.2,319.479,0.18266
456.6,320.077,0.1833
459,320.673,0.18396
461.4,321.269,0.18436
463.8,321.867,0.18418
466.2,322.464,0.18455
468.6,323.06,0.18442
471,323.648,0.18445
473.4,324.236,0.1836
475.8,324.821,0.18345
478.2,325.404,0.18276
480.6,325.985,0.18205
483,326.564,0.18124
485.4,327.134,0.18047
487.8,327.706,0.17921
490.2,328.27,0.17813
492.6,328.834,0.17715
495,329.384,0.17578
497.4,329.942,0.17454
499.8,330.49,0.17277
502.2,331.033,0.17191
504.6,331.568,0.17035
507,332.102,0.16906
509.4,332.632,0.1674
511.8,333.158,0.16616
514.2,333.679,0.16447
516.6,334.19,0.16286
519,334.705,0.16181
521.4,335.211,0.16049
523.8,335.713,0.15901
526.2,336.212,0.15743
528.6,336.707,0.15622
531,337.193,0.15472
533.4,337.678,0.15353
535.8,338.159,0.1525
538.2,338.633,0.15113
540.6,339.104,0.14992
543,339.577,0.14913
545.4,340.035,0.14797
547.8,340.497,0.14686
550.2,340.957,0.1461
552.6,341.41,0.14528
555,341.855,0.14449
557.4,342.305,0.14373
559.8,342.751,0.14292
562.2,343.191,0.14226
564.6,343.63,0.14157
567,344.067,0.14118
569.4,344.494,0.14047
571.8,344.929,0.14024
574.2,345.358,0.13969
576.6,345.784,0.13961
579,346.207,0.13903
581.4,346.629,0.13882
583.8,347.051,0.13883
586.2,347.466,0.13873
588.6,347.885,0.1387
591,348.296,0.1385
593.4,348.71,0.13879
595.8,349.12,0.13864
598.2,349.534,0.13896
600.6,349.942,0.1388
603,350.349,0.13915
605.4,350.756,0.13924
607.8,351.164,0.13911
610.2,351.57,0.13967
612.6,351.975,0.13962
615,352.378,0.14015
617.4,352.78,0.14032
619.8,353.183,0.14077
622.2,353.585,0.14062
624.6,353.988,0.14078
627,354.389,0.14113
629.4,354.791,0.14111
631.8,355.191,0.14114
634.2,355.592,0.14082
636.6,355.989,0.14075
639,356.386,0.14044
641.4,356.788,0.14015
643.8,357.185,0.13994
646.2,357.585,0.13974
648.6,357.982,0.13926
651,358.379,0.13879
653.4,358.78,0.13848
655.8,359.177,0.13804
658.2,359.575,0.13756
660.6,359.974,0.1372
663,360.371,0.13636
665.4,360.766,0.13581
667.8,361.164,0.13541
670.2,361.56,0.13494
672.6,361.958,0.13495
675,362.355,0.13424
677.4,362.753,0.1339
679.8,363.149,0.13348
682.2,363.547,0.13309
684.6,363.944,0.13293
687,364.339,0.13259
689.4,364.739,0.13234
691.8,365.137,0.1321
694.2,365.532,0.13192
696.6,365.93,0.13177
699,366.324,0.13124
701.4,366.723,0.13138
703.8,367.119,0.13118
706.2,367.517,0.1311
708.6,367.917,0.13121
711,368.311,0.13122
713.4,368.706,0.13112
715.8,369.102,0.13131
718.2,369.498,0.13137
720.6,369.894,0.13145
723,370.289,0.13114
725.4,370.689,0.13136
727.8,371.082,0.13134
730.2,371.479,0.13137
732.6,371.875,0.13141
735,372.273,0.13152
737.4,372.666,0.13187
739.8,373.062,0.13161
742.2,373.46,0.13177
744.6,373.855,0.13194
747,374.25,0.13224
749.4,374.646,0.13235
751.8,375.043,0.13241
754.2,375.438,0.13258
756.6,375.833,0.13295
759,376.23,0.13307
761.4,376.623,0.13294
763.8,377.021,0.13311
766.2,377.421,0.13378
768.6,377.815,0.13357
771,378.209,0.13397
773.4,378.608,0.13433
775.8,379.001,0.13447
778.2,379.397,0.13482
780.6,379.793,0.13522
783,380.189,0.1356
785.4,380.585,0.13579
787.8,380.983,0.13623
790.2,381.375,0.13626
792.6,381.775,0.1368
795,382.169,0.13718
797.4,382.564,0.13721
799.8,382.963,0.13741
802.2,383.364,0.13792
804.6,383.758,0.13806
807,384.158,0.13865
809.4,384.552,0.14022
811.8,384.951,0.1409
814.2,385.349,0.1417
816.6,385.744,0.14253
819,386.145,0.14265
821.4,386.543,0.14348
823.8,386.941,0.14402
826.2,387.338,0.14469
828.6,387.737,0.14518
831,388.134,0.14537
833.4,388.533,0.1458
835.8,388.935,0.14621
838.2,389.334,0.14588
840.6,389.73,0.14588
843,390.133,0.14576
845.4,390.533,0.14558
847.8,390.933,0.1457
850.2,391.332,0.14565
852.6,391.734,0.14566
855,392.134,0.14562
857.4,392.534,0.14574
859.8,392.936,0.14556
862.2,393.337,0.14621
864.6,393.736,0.14603
867,394.141,0.14633
869.4,394.539,0.14626
871.8,394.943,0.14624
874.2,395.343,0.14623
876.6,395.745,0.1457
879,396.146,0.14603
881.4,396.55,0.1454
883.8,396.95,0.14496
886.2,397.352,0.14471
888.6,397.756,0.14408
891,398.158,0.14353
893.4,398.559,0.14279
895.8,398.959,0.14243
898.2,399.363,0.1418
900.6,399.767,0.14109
903,400.171,0.14014
905.4,400.573,0.13922
907.8,400.977,0.13838
910.2,401.38,0.13727
912.6,401.783,0.13614
915,402.186,0.13503
917.4,402.588,0.13416
919.8,402.99,0.13377
922.2,403.397,0.13298
924.6,403.799,0.13238
927,404.201,0.13151
929.4,404.608,0.13072
931.8,405.012,0.13009
934.2,405.414,0.12996
936.6,405.816,0.12971
939,406.221,0.12921
941.4,406.625,0.12874
943.8,407.028,0.12867
946.2,407.432,0.12868
948.6,407.836,0.12866
951,408.24,0.12689
953.4,408.644,0.12556
955.8,409.045,0.12571
958.2,409.452,0.12604
960.6,409.854,0.12573
963,410.257,0.12624
965.4,410.661,0.12652
967.8,411.066,0.1265
970.2,411.467,0.12718
972.6,411.869,0.12764
975,412.271,0.12779
977.4,412.677,0.12814
979.8,413.078,0.12919
982.2,413.484,0.12971
984.6,413.881,0.13012
987,414.284,0.13027
989.4,414.689,0.13081
991.8,415.091,0.13181
994.2,415.496,0.13246
996.6,415.897,0.13306
999,416.301,0.13411
1001.4,416.703,0.13508
1003.8,417.105,0.13552
1006.2,417.508,0.13607
1008.6,417.908,0.13699
1011,418.31,0.13702
1013.4,418.713,0.13781
1015.8,419.113,0.13796
1018.2,419.517,0.1381
1020.6,419.918,0.13851
1023,420.322,0.13855
1025.4,420.719,0.13886
1027.8,421.122,0.13914
1030.2,421.522,0.13918
1032.6,421.925,0.13948
1035,422.324,0.13963
1037.4,422.728,0.13969
1039.8,423.13,0.13987
1042.2,423.53,0.14015
1044.6,423.929,0.14013
1047,424.332,0.13998
1049.4,424.736,0.14053
1051.8,425.134,0.14038
1054.2,425.539,0.14098
1056.6,425.94,0.14134
1059,426.34,0.14152
1061.4,426.74,0.14651
1063.8,427.14,0.14837
1066.2,427.544,0.14843
1068.6,427.944,0.14949
1071,428.345,0.14972
1073.4,428.747,0.15059
1075.8,429.145,0.15098
1078.2,429.547,0.15164
1080.6,429.946,0.15235
1083,430.347,0.15236
1085.4,430.746,0.1527
1087.8,431.148,0.15349
1090.2,431.549,0.15388
1092.6,431.949,0.15502
1095,432.35,0.15527
1097.4,432.752,0.15556
1099.8,433.15,0.156
1102.2,433.551,0.15692
1104.6,433.951,0.15732
1107,434.351,0.15813
1109.4,434.756,0.15853
1111.8,435.151,0.15929
1114.2,435.55,0.16006
1116.6,435.953,0.16048
1119,436.355,0.16084
1121.4,436.754,0.1615
1123.8,437.154,0.16138
1126.2,437.554,0.16199
1128.6,437.953,0.16227
1131,438.351,0.16272
1133.4,438.755,0.16292
1135.8,439.152,0.16296
1138.2,439.55,0.1636
1140.6,439.951,0.16407
1143,440.354,0.16495
1145.4,440.75,0.16518
1147.8,441.15,0.16536
1150.2,441.549,0.16612
1152.6,441.949,0.16671
1155,442.348,0.16713
1157.4,442.748,0.16795
1159.8,443.147,0.16845
1162.2,443.546,0.16906
1164.6,443.946,0.16961
1167,444.346,0.16995
1169.4,444.743,0.17091
1171.8,445.143,0.17125
1174.2,445.543,0.17186
1176.6,445.94,0.17261
1179,446.341,0.17467
1181.4,446.743,0.17638
1183.8,447.138,0.17828
1186.2,447.539,0.18193
1188.6,447.937,0.1833
1191,448.337,0.18388
1193.4,448.736,0.18557
1195.8,449.136,0.18699
1198.2,449.532,0.18795
1200.6,449.934,0.18894
1203,450.332,0.19025
1205.4,450.73,0.19121
1207.8,451.131,0.19264
1210.2,451.529,0.19422
1212.6,451.923,0.19728
1215,452.325,0.19887
1217.4,452.726,0.20002
1219.8,453.124,0.20072
1222.2,453.522,0.20195
1224.6,453.92,0.20297
1227,454.319,0.20402
1229.4,454.719,0.20533
1231.8,455.12,0.20643
1234.2,455.512,0.20719
1236.6,455.915,0.20829
1239,456.313,0.20963
1241.4,456.71,0.21073
1243.8,457.112,0.21165
1246.2,457.508,0.21302
1248.6,457.909,0.21418
1251,458.303,0.21558
1253.4,458.704,0.21666
1255.8,459.104,0.21792
1258.2,459.503,0.21905
1260.6,459.904,0.22027
1263,460.301,0.22162
1265.4,460.698,0.22296
1267.8,461.1,0.22448
1270.2,461.497,0.22585
1272.6,461.899,0.22688
1275,462.294,0.22834
1277.4,462.692,0.22934
1279.8,463.092,0.23069
1282.2,463.492,0.23182
1284.6,463.89,0.23301
1287,464.289,0.23426
1289.4,464.687,0.23604
1291.8,465.086,0.23683
1294.2,465.486,0.23837
1296.6,465.884,0.23972
1299,466.282,0.24094
1301.4,466.682,0.24205
1303.8,467.081,0.24371
1306.2,467.481,0.24509
1308.6,467.88,0.24704
1311,468.276,0.24829
1313.4,468.676,0.24994
1315.8,469.078,0.25154
1318.2,469.476,0.25309
1320.6,469.876,0.25469
1323,470.272,0.25591
1325.4,470.671,0.25765
1327.8,471.076,0.25925
1330.2,471.475,0.26107
1332.6,471.872,0.26287
1335,472.274,0.26464
1337.4,472.675,0.26657
1339.8,473.076,0.26877
1342.2,473.474,0.27054
1344.6,473.87,0.27231
1347,474.272,0.27467
1349.4,474.677,0.27669
1351.8,475.074,0.27862
1354.2,475.476,0.28091
1356.6,475.874,0.2826
1359,476.277,0.28464
1361.4,476.677,0.28688
1363.8,477.078,0.28909
1366.2,477.477,0.29072
1368.6,477.878,0.29285
1371,478.28,0.29447
1373.4,478.681,0.29662
1375.8,479.08,0.29859
1378.2,479.483,0.30061
1380.6,479.883,0.30233
1383,480.281,0.30425
1385.4,480.684,0.30608
1387.8,481.083,0.30802
1390.2,481.487,0.31005
1392.6,481.886,0.31213
1395,482.289,0.31418
1397.4,482.689,0.31648
1399.8,483.089,0.31878
1402.2,483.49,0.32065
1404.6,483.89,0.32319
1407,484.292,0.32552
1409.4,484.697,0.32766
1411.8,485.096,0.32988
1414.2,485.497,0.33194
1416.6,485.9,0.33367
1419,486.299,0.3359
1421.4,486.7,0.33744
1423.8,487.099,0.33937
1426.2,487.501,0.34099
1428.6,487.9,0.34306
1431,488.298,0.34482
1433.4,488.7,0.3471
1435.8,489.101,0.34957
1438.2,489.501,0.35227
1440.6,489.901,0.35493
1443,490.301,0.35694
1445.4,490.7,0.35885
1447.8,491.099,0.36051
1450.2,491.499,0.36236
1452.6,491.896,0.36394
1455,492.294,0.36579
1457.4,492.693,0.36734
1459.8,493.094,0.36917
1462.2,493.49,0.37086
1464.6,493.889,0.3726
1467,494.289,0.37429
1469.4,494.686,0.37585
1471.8,495.086,0.37749
1474.2,495.48,0.37915
1476.6,495.879,0.3809
1479,496.276,0.38276
1481.4,496.678,0.38486
1483.8,497.076,0.38637
1486.2,497.475,0.3882
1488.6,497.874,0.39014
1491,498.275,0.39239
1493.4,498.672,0.39444
1495.8,499.074,0.39647
1498.2,499.468,0.39869
1500.6,499.87,0.4008
1503,500.266,0.40272
1505.4,500.666,0.40475
1507.8,501.067,0.40708
1510.2,501.464,0.4105
1512.6,501.864,0.41254
1515,502.263,0.41397
1517.4,502.662,0.41603
1519.8,503.059,0.41768
1522.2,503.458,0.41949
1524.6,503.857,0.42126
1527,504.254,0.42288
1529.4,504.652,0.42456
1531.8,505.05,0.42624
1534.2,505.449,0.42782
1536.6,505.847,0.42931
1539,506.246,0.43129
1541.4,506.643,0.43344
1543.8,507.042,0.43524
1546.2,507.443,0.43703
1548.6,507.842,0.43935
1551,508.239,0.44125
1553.4,508.639,0.44313
1555.8,509.04,0.44501
1558.2,509.44,0.44684
1560.6,509.838,0.44919
1563,510.233,0.45135
1565.4,510.634,0.45312
1567.8,511.033,0.4547
1570.2,511.434,0.45763
1572.6,511.833,0.46141
1575,512.231,0.46363
1577.4,512.632,0.4659
1579.8,513.03,0.46845
1582.2,513.432,0.47108
1584.6,513.832,0.47338
1587,514.232,0.47558
1589.4,514.632,0.47802
1591.8,515.033,0.48013
1594.2,515.429,0.48238
1596.6,515.83,0.48488
1599,516.228,0.48735
1601.4,516.63,0.4895
1603.8,517.031,0.49197
1606.2,517.427,0.49412
1608.6,517.827,0.49651
1611,518.228,0.49863
1613.4,518.629,0.50103
1615.8,519.025,0.50337
1618.2,519.427,0.50579
1620.6,519.825,0.50869
1623,520.228,0.51142
1625.4,520.628,0.5139
1627.8,521.027,0.51658
1630.2,521.428,0.5192
1632.6,521.828,0.52172
1635,522.23,0.52382
1637.4,522.629,0.52633
1639.8,523.031,0.52916
1642.2,523.43,0.53181
1644.6,523.829,0.53392
1647,524.23,0.53668
1649.4,524.63,0.53921
1651.8,525.031,0.54206
1654.2,525.433,0.54497
1656.6,525.834,0.54788
1659,526.23,0.55074
1661.4,526.634,0.55362
1663.8,527.031,0.55632
1666.2,527.436,0.55818
1668.6,527.833,0.56029
1671,528.234,0.56321
1673.4,528.632,0.5661
1675.8,529.031,0.56861
1678.2,529.432,0.57156
1680.6,529.833,0.57434
1683,530.237,0.57718
1685.4,530.631,0.58035
1687.8,531.03,0.58364
1690.2,531.431,0.58618
1692.6,531.83,0.58969
1695,532.23,0.59278
1697.4,532.628,0.59533
1699.8,533.028,0.59867
1702.2,533.428,0.60213
1704.6,533.825,0.60551
1707,534.225,0.60861
1709.4,534.624,0.61208
1711.8,535.023,0.61551
1714.2,535.424,0.61895
1716.6,535.823,0.62239
1719,536.223,0.62586
1721.4,536.621,0.62919
1723.8,537.023,0.633
1726.2,537.42,0.63644
1728.6,537.819,0.64036
1731,538.22,0.64395
1733.4,538.617,0.64793
1735.8,539.016,0.65224
1738.2,539.419,0.65595
1740.6,539.818,0.66051
1743,540.216,0.66469
1745.4,540.615,0.66909
1747.8,541.014,0.67333
1750.2,541.416,0.67791
1752.6,541.815,0.68234
1755,542.215,0.68645
1757.4,542.614,0.69094
1759.8,543.016,0.69528
1762.2,543.413,0.70039
1764.6,543.813,0.70564
1767,544.213,0.71084
1769.4,544.612,0.71593
1771.8,545.01,0.7213
1774.2,545.41,0.72643
1776.6,545.809,0.73205
1779,546.211,0.73796
1781.4,546.611,0.74398
1783.8,547.008,0.7499
1786.2,547.407,0.75598
1788.6,547.808,0.76198
1791,548.206,0.76851
1793.4,548.606,0.77499
1795.8,549.009,0.78193
1798.2,549.405,0.78872
1800.6,549.806,0.79563
1803,550.207,0.80326
1805.4,550.607,0.81091
1807.8,551.005,0.81891
1810.2,551.406,0.82729
1812.6,551.804,0.83549
1815,552.206,0.84432
1817.4,552.605,0.85285
1819.8,553.007,0.86216
1822.2,553.406,0.87074
1824.6,553.805,0.88017
1827,554.208,0.88955
1829.4,554.606,0.89997
1831.8,555.008,0.90986
1834.2,555.407,0.92017
1836.6,555.809,0.93128
1839,556.209,0.94174
1841.4,556.61,0.95294
1843.8,557.012,0.96459
1846.2,557.41,0.97621
1848.6,557.812,0.9879
1851,558.213,0.99956
1853.4,558.616,1.01205
1855.8,559.017,1.02445
1858.2,559.416,1.03714
1860.6,559.816,1.05005
1863,560.216,1.06315
1865.4,560.619,1.07588
1867.8,561.019,1.08935
1870.2,561.421,1.10279
1872.6,561.82,1.11675
1875,562.22,1.13105
1877.4,562.621,1.1455
1879.8,563.022,1.16088
1882.2,563.423,1.17615
1884.6,563.821,1.19228
1887,564.224,1.20863
1889.4,564.624,1.22511
1891.8,565.025,1.24232
1894.2,565.429,1.26127
1896.6,565.827,1.28114
1899,566.226,1.3015
1901.4,566.628,1.32244
1903.8,567.031,1.34372
1906.2,567.429,1.36613
1908.6,567.832,1.3889
1911,568.23,1.41179
1913.4,568.63,1.43513
1915.8,569.03,1.45889
1918.2,569.431,1.48234
1920.6,569.831,1.50659
1923,570.233,1.53083
1925.4,570.634,1.5553
1927.8,571.033,1.58017
1930.2,571.433,1.60512
1932.6,571.835,1.63067
1935,572.234,1.65617
1937.4,572.635,1.68145
1939.8,573.034,1.7061
1942.2,573.436,1.73025
1944.6,573.836,1.75401
1947,574.235,1.7781
1949.4,574.637,1.80206
1951.8,575.037,1.82644
1954.2,575.435,1.85081
1956.6,575.837,1.87548
1959,576.235,1.9001
1961.4,576.635,1.92431
1963.8,577.036,1.94932
1966.2,577.434,1.9738
1968.6,577.834,1.99829
1971,578.235,2.02277
1973.4,578.635,2.04788
1975.8,579.036,2.0728
1978.2,579.433,2.09804
1980.6,579.833,2.12443
1983,580.231,2.14961
1985.4,580.631,2.1747
1987.8,581.031,2.19973
1990.2,581.431,2.22478
1992.6,581.831,2.25032
1995,582.231,2.27638
1997.4,582.63,2.30169
1999.8,583.033,2.32588
2002.2,583.432,2.34967
2004.6,583.832,2.37363
2007,584.232,2.39673
2009.4,584.631,2.42002
2011.8,585.033,2.44122
2014.2,585.433,2.46294
2016.6,585.833,2.48487
2019,586.234,2.50683
2021.4,586.632,2.52773
2023.8,587.034,2.54809
2026.2,587.435,2.56778
2028.6,587.838,2.5868
2031,588.237,2.60626
2033.4,588.636,2.62506
2035.8,589.039,2.64294
2038.2,589.439,2.659
2040.6,589.84,2.67464
2043,590.241,2.6906
2045.4,590.64,2.7064
2047.8,591.043,2.72118
2050.2,591.446,2.7362
2052.6,591.848,2.74994
2055,592.247,2.76322
2057.4,592.648,2.77672
2059.8,593.054,2.78914
2062.2,593.453,2.80004
2064.6,593.857,2.80993
2067,594.26,2.82086
2069.4,594.664,2.83116
2071.8,595.068,2.84109
2074.2,595.476,2.85035
2076.6,595.878,2.85904
2079,596.286,2.86627
2081.4,596.69,2.8746
2083.8,597.098,2.88076
2086.2,597.504,2.88488
2088.6,597.913,2.88893
2091,598.32,2.89696
2093.4,598.728,2.9058
2095.8,599.139,2.9137
2098.2,599.55,2.91983
2100.6,599.96,2.92599
2103,600.37,2.93032
2105.4,600.777,2.93307
2107.8,601.189,2.93695
2110.2,601.601,2.94218
2112.6,602.011,2.9491
2115,602.423,2.95198
2117.4,602.832,2.95049
2119.8,603.248,2.95163
2122.2,603.659,2.95584
2124.6,604.073,2.95784
2127,604.484,2.95616
2129.4,604.897,2.95569
2131.8,605.308,2.95168
2134.2,605.723,2.95381
2136.6,606.135,2.9496
2139,606.548,2.94421
2141.4,606.962,2.9463
2143.8,607.372,2.94355
2146.2,607.784,2.94487
2148.6,608.197,2.94316
2151,608.607,2.93405
2153.4,609.018,2.92963
2155.8,609.43,2.93031
2158.2,609.84,2.92877
2160.6,610.252,2.93404
2163,610.665,2.95005
2165.4,611.074,2.95717
2167.8,611.485,2.96124
2170.2,611.892,2.95853
2172.6,612.301,2.95093
2175,612.709,2.94734
2177.4,613.115,2.94182
2179.8,613.521,2.94594
2182.2,613.927,2.95336
2184.6,614.334,2.96423
2187,614.737,2.96053
2189.4,615.142,2.94265
2191.8,615.544,2.9497
2194.2,615.947,2.9597
2196.6,616.35,2.96401
2199,616.754,2.95301
2201.4,617.155,2.95523
2203.8,617.556,2.95502
2206.2,617.958,2.98165
2208.6,618.36,3.00855
2211,618.759,3.00798
2213.4,619.16,3.00532
2215.8,619.558,3.00533
2218.2,619.956,2.99434
2220.6,620.355,3.01495
2223,620.755,3.04471
2225.4,621.15,3.02312
2227.8,621.55,3.02764
2230.2,621.953,3.06203
2232.6,622.349,3.06923
2235,622.747,3.03967
2237.4,623.143,3.0334
2239.8,623.545,3.05265
2242.2,623.942,3.05698
2244.6,624.34,3.07577
2247,624.735,3.08406
2249.4,625.132,3.07012
2251.8,625.529,3.04407
2254.2,625.926,3.06486
2256.6,626.329,3.14148
2259,626.724,3.11556
2261.4,627.119,3.06935
2263.8,627.519,3.08543
2266.2,627.912,3.07222
2268.6,628.311,3.04601
2271,628.709,3.116
2273.4,629.107,3.1316
2275.8,629.503,3.15544
2278.2,629.901,3.16709
2280.6,630.301,3.14947
2283,630.696,3.13518
2285.4,631.095,3.13881
2287.8,631.49,3.11303
2290.2,631.889,3.16635
2292.6,632.285,3.1294
2295,632.679,3.0669
2297.4,633.073,3.04593
2299.8,633.474,3.16624
2302.2,633.868,3.12117
2304.6,634.267,3.11544
2307,634.666,3.13594
2309.4,635.061,3.1346
2311.8,635.457,3.11378
2314.2,635.854,3.05505
2316.6,636.254,3.11443
2319,636.65,3.08131
2321.4,637.046,3.02922
2323.8,637.444,3.12739
2326.2,637.841,3.04427
2328.6,638.236,3.03669
2331,638.634,3.04043
2333.4,639.028,3.02042
2335.8,639.423,2.95955
2338.2,639.814,2.92654
2340.6,640.215,2.9678
2343,640.614,2.96781
2345.4,641.011,2.95347
2347.8,641.408,3.00052
2350.2,641.806,2.97115
2352.6,642.204,3.01289
2355,642.597,2.94344
2357.4,642.996,2.99661
2359.8,643.394,2.93777
2362.2,643.792,2.97777
2364.6,644.188,2.92793
2367,644.582,2.92498
2369.4,644.978,2.95033
2371.8,645.369,2.88976
2374.2,645.762,2.87462
2376.6,646.151,2.84653
2379,646.54,2.80519
2381.4,646.929,2.80122
2383.8,647.32,2.82247
2386.2,647.712,2.81458
2388.6,648.103,2.79768
2391,648.497,2.78122
2393.4,648.884,2.74145
2395.8,649.27,2.69897
2398.2,649.656,2.6522
2400.6,650.038,2.6257
2403,650.428,2.5963
2405.4,650.813,2.55918
2407.8,651.192,2.51416
2410.2,651.571,2.46879
2412.6,651.947,2.41803
2415,652.324,2.38123
2417.4,652.697,2.32651
2419.8,653.07,2.26882
2422.2,653.442,2.23759
2424.6,653.82,2.20839
2427,654.195,2.17143
2429.4,654.572,2.174
2431.8,654.949,2.16447
2434.2,655.321,2.13706
2436.6,655.695,2.1289
2439,656.073,2.12972
2441.4,656.449,2.10291
2443.8,656.823,2.07025
2446.2,657.195,2.03443
2448.6,657.564,1.99844
2451,657.941,2.0821
2453.4,658.322,2.12248
2455.8,658.7,2.12306
2458.2,659.076,2.11664
2460.6,659.451,2.1143
2463,659.827,2.10205
2465.4,660.201,2.09926
2467.8,660.574,2.10042
2470.2,660.944,2.09065
2472.6,661.317,2.07501
2475,661.684,2.05672
2477.4,662.055,2.03769
2479.8,662.428,2.01761
2482.2,662.798,1.99679
2484.6,663.166,1.97364
2487,663.537,1.96615
2489.4,663.908,1.94871
2491.8,664.277,1.92965
2494.2,664.65,1.91372
2496.6,665.022,1.89799
2499,665.396,1.88068
2501.4,665.766,1.8634
2503.8,666.141,1.84706
2506.2,666.515,1.83022
2508.6,666.892,1.81392
2511,667.272,1.79815
2513.4,667.648,1.78231
2515.8,668.027,1.76737
2518.2,668.406,1.75278
2520.6,668.788,1.73851
2523,669.17,1.72435
2525.4,669.557,1.71083
2527.8,669.943,1.69783
2530.2,670.328,1.68516
2532.6,670.718,1.67248
2535,671.106,1.66016
2537.4,671.497,1.64783
2539.8,671.888,1.63631
2542.2,672.281,1.62482
2544.6,672.678,1.61386
2547,673.073,1.60305
2549.4,673.47,1.5925
2551.8,673.872,1.5825
2554.2,674.27,1.5723
2556.6,674.673,1.56244
2559,675.075,1.5529
2561.4,675.479,1.54323
2563.8,675.888,1.53399
2566.2,676.295,1.52531
2568.6,676.703,1.51694
2571,677.115,1.50898
2573.4,677.527,1.50048
2575.8,677.937,1.49239
2578.2,678.354,1.48457
2580.6,678.769,1.4766
2583,679.182,1.46874
2585.4,679.601,1.46062
2587.8,680.015,1.45275
2590.2,680.432,1.44492
2592.6,680.849,1.4368
2595,681.269,1.42939
2597.4,681.689,1.42178
2599.8,682.111,1.41463
2602.2,682.529,1.40771
2604.6,682.952,1.40055
2607,683.377,1.394
2609.4,683.797,1.38746
2611.8,684.222,1.3805
2614.2,684.642,1.3739
2616.6,685.066,1.36715
2619,685.488,1.36036
2621.4,685.912,1.35353
2623.8,686.335,1.34652
2626.2,686.76,1.34027
2628.6,687.186,1.33368
2631,687.608,1.32678
2633.4,688.033,1.31973
2635.8,688.455,1.31239
2638.2,688.875,1.30517
2640.6,689.298,1.29747
2643,689.721,1.28963
2645.4,690.143,1.2814
2647.8,690.568,1.27274
2650.2,690.987,1.26315
2652.6,691.406,1.2534
2655,691.828,1.24289
2657.4,692.25,1.23231
2659.8,692.669,1.22097
2662.2,693.088,1.20937
2664.6,693.507,1.19733
2667,693.922,1.18522
2669.4,694.341,1.17247
2671.8,694.754,1.15998
2674.2,695.171,1.14715
2676.6,695.588,1.13462
2679,696.003,1.12144
2681.4,696.416,1.10873
2683.8,696.831,1.09673
2686.2,697.24,1.08456
2688.6,697.653,1.07315
2691,698.063,1.06243
2693.4,698.473,1.05296
2695.8,698.885,1.04481
2698.2,699.294,1.03846
2700.6,699.7,1.03345
2703,700.11,1.03034
2705.4,700.52,1.02784
2707.8,700.926,1.02623
2710.2,701.329,1.02548
2712.6,701.735,1.02497
2715,702.14,1.02536
2717.4,702.543,1.02617
2719.8,702.944,1.02747
2722.2,703.351,1.02863
2724.6,703.75,1.03036
2727,704.156,1.03204
2729.4,704.554,1.03405
2731.8,704.956,1.03561
2734.2,705.356,1.038
2736.6,705.757,1.03968
2739,706.155,1.04176
2741.4,706.555,1.04353
2743.8,706.954,1.04534
2746.2,707.355,1.04724
2748.6,707.747,1.04877
2751,708.148,1.05052
2753.4,708.541,1.0526
2755.8,708.937,1.05426
2758.2,709.336,1.05586
2760.6,709.73,1.05736
2763,710.126,1.05921
2765.4,710.52,1.06065
2767.8,710.916,1.06182
2770.2,711.312,1.06373
2772.6,711.705,1.06536
2775,712.103,1.06728
2777.4,712.496,1.06836
2779.8,712.89,1.06978
2782.2,713.287,1.07117
2784.6,713.681,1.07219
2787,714.078,1.07327
2789.4,714.47,1.07444
2791.8,714.867,1.07541
2794.2,715.261,1.0764
2796.6,715.66,1.07767
2799,716.057,1.07839
2801.4,716.453,1.07914
2803.8,716.849,1.07998
2806.2,717.249,1.08126
2808.6,717.648,1.08245
2811,718.048,1.0837
2813.4,718.449,1.08445
2815.8,718.846,1.08536
2818.2,719.248,1.08652
2820.6,719.651,1.0871
2823,720.051,1.08826
2825.4,720.456,1.08977
2827.8,720.857,1.09075
2830.2,721.265,1.09114
2832.6,721.668,1.09181
2835,722.072,1.0928
2837.4,722.477,1.09347
2839.8,722.881,1.09396
2842.2,723.288,1.09457
2844.6,723.694,1.09493
2847,724.098,1.09539
2849.4,724.505,1.09632
2851.8,724.91,1.09687
2854.2,725.317,1.0973
2856.6,725.722,1.09776
2859,726.127,1.09834
2861.4,726.528,1.09808
2863.8,726.935,1.09867
2866.2,727.342,1.09885
2868.6,727.745,1.09906
2871,728.146,1.09923
2873.4,728.552,1.09935
2875.8,728.958,1.09932
2878.2,729.36,1.09931
2880.6,729.764,1.09886
2883,730.167,1.09847
2885.4,730.568,1.09824
2887.8,730.969,1.09741
2890.2,731.371,1.09627
2892.6,731.772,1.09529
2895,732.174,1.09414
2897.4,732.574,1.09272
2899.8,732.975,1.09176
2902.2,733.376,1.09017
2904.6,733.777,1.08887
2907,734.176,1.08656
2909.4,734.585,1.18083
2911.8,734.983,1.24065
2914.2,735.381,1.23043
2916.6,735.778,1.22043
2919,736.176,1.21064
2921.4,736.576,1.2029
2923.8,736.972,1.19496
2926.2,737.369,1.18834
2928.6,737.766,1.18185
2931,738.164,1.17573
2933.4,738.562,1.1705
2935.8,738.962,1.16463
2938.2,739.359,1.15952
2940.6,739.758,1.15481
2943,740.152,1.14943
2945.4,740.548,1.14367
2947.8,740.947,1.13855
2950.2,741.344,1.13291
2952.6,741.743,1.12749
2955,742.141,1.122
2957.4,742.54,1.11572
2959.8,742.936,1.10997
2962.2,743.332,1.10351
2964.6,743.729,1.09677
2967,744.126,1.0899
2969.4,744.523,1.08318
2971.8,744.919,1.07607
2974.2,745.319,1.0689
2976.6,745.713,1.06109
2979,746.111,1.05295
2981.4,746.508,1.04439
2983.8,746.904,1.03557
2986.2,747.299,1.02671
2988.6,747.698,1.01728
2991,748.096,1.0079
2993.4,748.49,0.99797
2995.8,748.887,0.98826
2998.2,749.284,0.97759
3000.6,749.683,0.96723
3003,750.076,0.95641
3005.4,750.476,0.94562
3007.8,750.872,0.93405
3010.2,751.272,0.92229
3012.6,751.67,0.91071
3015,752.068,0.89844
3017.4,752.467,0.88573
3019.8,752.864,0.87261
3022.2,753.26,0.85946
3024.6,753.661,0.84621
3027,754.059,0.833
3029.4,754.456,0.81944
3031.8,754.855,0.80619
3034.2,755.252,0.79228
3036.6,755.653,0.77892
3039,756.052,0.76589
3041.4,756.447,0.75295
3043.8,756.847,0.74011
3046.2,757.249,0.72719
3048.6,757.645,0.71454
3051,758.046,0.7017
3053.4,758.445,0.68994
3055.8,758.845,0.67808
3058.2,759.244,0.6666
3060.6,759.647,0.65559
3063,760.045,0.6448
3065.4,760.445,0.63429
3067.8,760.844,0.62429
3070.2,761.245,0.61426
3072.6,761.649,0.60479
3075,762.05,0.59603
3077.4,762.453,0.58746
3079.8,762.853,0.57898
3082.2,763.254,0.57075
3084.6,763.656,0.56339
3087,764.06,0.55622
3089.4,764.461,0.54956
3091.8,764.862,0.5429
3094.2,765.265,0.53723
3096.6,765.665,0.53176
3099,766.068,0.52612
3101.4,766.47,0.52073
3103.8,766.872,0.51563
3106.2,767.275,0.51135
3108.6,767.674,0.50669
3111,768.075,0.50256
3113.4,768.475,0.49878
3115.8,768.882,0.49539
3118.2,769.281,0.49177
3120.6,769.685,0.48886
3123,770.088,0.48562
3125.4,770.489,0.48265
3127.8,770.891,0.47996
3130.2,771.293,0.47795
3132.6,771.695,0.47549
3135,772.096,0.47312
3137.4,772.498,0.47102
3139.8,772.901,0.46858
3142.2,773.301,0.46689
3144.6,773.703,0.46485
3147,774.105,0.46283
3149.4,774.507,0.46153
3151.8,774.906,0.45958
3154.2,775.306,0.45864
3156.6,775.704,0.45701
3159,776.107,0.4561
3161.4,776.508,0.45486
3163.8,776.906,0.45395
3166.2,777.307,0.45261
3168.6,777.71,0.45127
3171,778.108,0.45134
3173.4,778.511,0.44997
3175.8,778.911,0.44961
3178.2,779.313,0.44883
3180.6,779.716,0.44788
3183,780.115,0.44713
3185.4,780.515,0.4466
3187.8,780.914,0.44641
3190.2,781.317,0.44628
3192.6,781.718,0.44592
3195,782.12,0.44553
3197.4,782.52,0.4452
3199.8,782.922,0.44544
3202.2,783.323,0.44524
3204.6,783.724,0.44505
3207,784.123,0.44472
3209.4,784.527,0.44443
3211.8,784.926,0.44427
3214.2,785.327,0.44414
3216.6,785.729,0.44421
3219,786.129,0.44421
3221.4,786.53,0.44448
3223.8,786.931,0.44398
3226.2,787.332,0.44402
3228.6,787.732,0.44362
3231,788.136,0.44373
3233.4,788.535,0.4435
3235.8,788.931,0.4436
3238.2,789.335,0.44367
3240.6,789.736,0.44391
3243,790.136,0.44381
3245.4,790.536,0.44395
3247.8,790.938,0.44428
3250.2,791.337,0.44428
3252.6,791.737,0.44435
3255,792.137,0.44449
3257.4,792.535,0.44489
3259.8,792.936,0.4448
3262.2,793.337,0.44457
3264.6,793.739,0.44474
3267,794.136,0.44538
3269.4,794.535,0.44465
3271.8,794.939,0.44502
3274.2,795.339,0.44526
3276.6,795.736,0.44513
3279,796.138,0.44537
3281.4,796.54,0.44584
3283.8,796.938,0.44565
3286.2,797.337,0.44575
3288.6,797.739,0.44542
3291,798.138,0.44606
3293.4,798.539,0.44607
3295.8,798.94,0.44644
3298.2,799.345,0.44702
3300.6,799.748,0.4477
3303,800.148,0.4478
3305.4,800.556,0.44795
3307.8,800.956,0.44809
3310.2,801.362,0.44826
3312.6,801.763,0.44864
3315,802.162,0.44861
3317.4,802.563,0.44923
3319.8,802.964,0.44913
3322.2,803.364,0.44964
3324.6,803.768,0.45043
3327,804.167,0.45057
3329.4,804.567,0.45145
3331.8,804.969,0.45143
3334.2,805.371,0.45167
3336.6,805.773,0.45249
3339,806.172,0.45257
3341.4,806.574,0.45214
3343.8,806.975,0.45286
3346.2,807.373,0.45267
3348.6,807.773,0.45338
3351,808.174,0.4537
3353.4,808.574,0.45391
3355.8,808.973,0.45426
3358.2,809.372,0.45407
3360.6,809.772,0.45435
3363,810.17,0.45419
3365.4,810.57,0.45427
3367.8,810.972,0.45455
3370.2,811.371,0.4548
3372.6,811.772,0.45525
3375,812.168,0.4557
3377.4,812.568,0.45595
3379.8,812.968,0.45617
3382.2,813.366,0.45621
3384.6,813.767,0.4567
3387,814.165,0.45681
3389.4,814.565,0.45717
3391.8,814.964,0.45762
3394.2,815.361,0.45767
3396.6,815.763,0.45816
3399,816.163,0.45906
3401.4,816.56,0.45863
3403.8,816.955,0.45888
3406.2,817.356,0.45869
3408.6,817.75,0.45921
3411,818.15,0.45933
3413.4,818.547,0.45965
3415.8,818.946,0.4597
3418.2,819.342,0.46025
3420.6,819.743,0.46024
3423,820.138,0.46028
3425.4,820.535,0.46064
3427.8,820.933,0.45966
3430.2,821.33,0.45968
3432.6,821.727,0.45904
3435,822.124,0.45882
3436.8,822.421,0.45858