File: PMMA/Calibration_Data/TIFP/TIFP_Gasification_65kW_1.csv
Time,Mass
[s],[g]
0,74.1
1,74.2717
2,74.2336
3,73.9907
4,73.9473
5,73.9101
6,73.9014
7,73.89669
8,73.8745
9,73.8641
10,73.869
11,73.8688
12,73.8742
13,73.875
14,73.8364
15,73.7983
16,73.7581
17,73.7409
18,73.7851
19,73.763
20,73.74591
21,73.7629
22,73.7501
23,73.6907
24,73.6279
25,73.531
26,73.4297
27,73.3325
28,73.2087
29,73.0882
30,72.9578
31,72.8334
32,72.6886
33,72.5592
34,72.3624
35,72.23698
36,72.13808
37,71.96636
38,71.8031
39,71.6689
40,71.4857
41,71.3065
42,71.1879
43,70.9965
44,70.8262
45,70.6829
46,70.5068
47,70.2898
48,70.14512
49,70.0233
50,69.8522
51,69.6472
52,69.4847
53,69.2936
54,69.1305
55,68.9828
56,68.7875
57,68.6177
58,68.4361
59,68.255
60,68.0543
61,67.80491
62,67.6675
63,67.51129
64,67.3406
65,67.1254
66,67.0084
67,66.8621
68,66.5957
69,66.4028
70,66.2612
71,66.07944
72,65.9559
73,65.8244
74,65.5022
75,65.2742
76,65.0868
77,64.9707
78,64.6675
79,64.4696
80,64.201
81,64.043
82,63.9254
83,63.7319
84,63.5734
85,63.33379
86,63.126
87,63.0048
88,62.8013
89,62.418
90,62.3237
91,62.2536
92,62.1031
93,61.8566
94,61.6731
95,61.5302
96,61.2587
97,61.0725
98,61.0127
99,60.7396
100,60.4511
101,60.258
102,60.1609
103,59.91832
104,59.6808
105,59.321
106,59.1638
107,59.0492
108,58.8203
109,58.6442
110,58.3619
111,58.26941
112,58.1573
113,57.849
114,57.6344
115,57.2811
116,57.17871
117,56.9679
118,56.7078
119,56.4452
120,56.3118
121,55.91866
122,55.6832
123,55.633
124,55.5068
125,55.2217
126,55.1434
127,54.9122
128,54.7038
129,54.7262
130,54.3645
131,53.9267
132,53.8313
133,53.8439
134,53.4851
135,53.0854
136,52.9255
137,52.713
138,52.3718
139,52.3203
140,52.2864
141,51.9907
142,52.07824
143,51.9052
144,51.2892
145,50.9441
146,50.4739
147,50.579
148,50.9801
149,50.4656
150,49.8926
151,49.4142
152,49.2458
153,49.3209
154,48.9564
155,48.754
156,48.3932
157,48.2922
158,48.1393
159,47.7184
160,47.5899
161,47.1225
162,46.9998
163,46.8629
164,46.4615
165,46.258
166,46.11768
167,46.0078
168,45.8525
169,45.1933
170,44.6379
171,45.1823
172,45.1862
173,44.56376
174,44.08598
175,44.2029
176,44.0165
177,43.655
178,43.4962
179,43.5698
180,42.9768
181,42.8666
182,42.792
183,42.22625
184,41.9619
185,41.8217
186,41.3714
187,41.2185
188,41.006
189,40.9032
190,41.0023
191,40.3943
192,40.0293
193,39.8542
194,39.7082
195,38.9773
196,38.7281
197,39.00374
198,38.7249
199,38.2319
200,38.1079
201,37.8269
202,37.508
203,37.25395
204,37.2682
205,37.732
206,36.9638
207,36.2683
208,36.386
209,35.8105
210,35.3033
211,34.9812
212,34.8547
213,34.6669
214,34.4657
215,34.0462
216,33.6007
217,32.99825
218,33.2167
219,33.0883
220,32.5877
221,32.3013
222,32.8905
223,32.2509
224,31.835
225,31.55149
226,31.1987
227,30.8274
228,30.6385
229,30.4932
230,30.066
231,29.7439
232,29.9407
233,29.4171
234,28.7509
235,28.512
236,28.3693
237,28.0194
238,27.584
239,27.3555
240,26.8967
241,26.8329
242,26.65473
243,26.4159
244,26.08
245,25.9054
246,25.4852
247,25.062
248,24.77111
249,24.578
250,24.503
251,24.2825
252,23.9102
253,23.5804
254,23.0772
255,22.6709
256,22.3555
257,22.0339
258,21.7706
259,21.472
260,21.1163
261,20.8139
262,20.49811
263,20.18
264,19.87777
265,19.54616
266,19.2907
267,19.0182
268,18.6811
269,18.42
270,18.1364
271,17.8522
272,17.5923
273,17.3303
274,17.0597
275,16.8001
276,16.574
277,16.3645
278,16.1271
279,15.9395
280,15.7233
281,15.5508
282,15.3921
283,15.1828
284,14.9935
285,14.8396
286,14.6779
287,14.52
288,14.3592
289,14.198
290,14.0495
291,13.893
292,13.7781
293,13.6319
294,13.4668
295,13.3571
296,13.2387
297,13.1209
298,12.9672
299,12.8426
300,12.7128
301,12.5858
302,12.49861
303,12.3835
304,12.2313
305,12.1452
306,12.0493
307,11.9315
308,11.8308
309,11.738
310,11.5924
311,11.4897
312,11.4073
313,11.3132
314,11.1918
315,11.0921
316,11.0153
317,10.9121
318,10.8269
319,10.717
320,10.6333
321,10.5552
322,10.4525
323,10.35428
324,10.26066
325,10.1629
326,10.0812
327,9.97471
328,9.91517
329,9.821168
330,9.724986
331,9.653168
332,9.54956
333,9.433079
334,9.373183
335,9.301069
336,9.23029
337,9.132102
338,9.044101
339,8.967827
340,8.880846
341,8.814536
342,8.735002
343,8.629611
344,8.554631
345,8.475231
346,8.402906
347,8.327798
348,8.24988
349,8.159258
350,8.06125
351,8.004391
352,7.947635
353,7.841762
354,7.752788
355,7.665713
356,7.595038
357,7.54609
358,7.455076
359,7.393966
360,7.306721
361,7.236488
362,7.196677
363,7.102781
364,7.023063
365,6.946403
366,6.880737
367,6.821781
368,6.746838
369,6.67742
370,6.583018
371,6.522561
372,6.475121
373,6.400982
374,6.32023
375,6.260144
376,6.197872
377,6.134051
378,6.069156
379,6.009623
380,5.909637
381,5.835626
382,5.797642
383,5.728311
384,5.661112
385,5.574971
386,5.536045
387,5.458684
388,5.401629
389,5.357416
390,5.279572
391,5.205828
392,5.149237
393,5.099974
394,5.029735
395,4.972784
396,4.919501
397,4.845108
398,4.790957
399,4.743991
400,4.723619
401,4.632416
402,4.567315
403,4.517102
404,4.486264
405,4.493101
406,4.408929
407,4.31736
408,4.235254
409,4.186693
410,4.14446
411,4.074122
412,4.034026
413,3.957256
414,3.909667
415,3.865099
416,3.790463
417,3.695952
418,3.675188
419,3.645695
420,3.618621
421,3.554781
422,3.500355
423,3.449629
424,3.418858
425,3.383753
426,3.3278
427,3.281377
428,3.218632
429,3.170049
430,3.126283
431,3.082293
432,3.028886
433,2.988996
434,2.937409
435,2.89046
436,2.862805
437,2.822326
438,2.747371
439,2.700231
440,2.659183
441,2.62642
442,2.588678
443,2.54427
444,2.505611
445,2.449469
446,2.427834
447,2.391262
448,2.341387
449,2.291503
450,2.246337
451,2.220149
452,2.195023
453,2.132108
454,2.119877
455,2.065571
456,2.027682
457,2.003033
458,1.955579
459,1.90402
460,1.844901
461,1.829592
462,1.810718
463,1.778427
464,1.72603
465,1.684891
466,1.645095
467,1.614178
468,1.586004
469,1.580788
470,1.523283
471,1.470321
472,1.447487
473,1.413352
474,1.394018
475,1.365095
476,1.342344
477,1.300935
478,1.250885
479,1.248663
480,1.214475
481,1.164739
482,1.143479
483,1.099435
484,1.093851
485,1.065716
486,1.050691
487,0.999882
488,0.955338
489,0.95796
490,0.935627
491,0.905086
492,0.881398
493,0.839598
494,0.823634
495,0.788501
496,0.7792
497,0.772688
498,0.736617
499,0.708021
500,0.678508
501,0.696939
502,0.669899
503,0.633468
504,0.610949
505,0.578704
506,0.571
507,0.55601
508,0.530735
509,0.487927
510,0.481184
511,0.47345
512,0.444538
513,0.45158
514,0.434283
515,0.406206
516,0.4
517,0.393033
518,0.402577
519,0.391063
520,0.346817
521,0.358946
522,0.353385
523,0.363992
524,0.350962
525,0.323073
526,0.318576
527,0.319
528,0.319791
529,0.299939
530,0.282282
531,0.279
532,0.262476
533,0.281093
534,0.294772
535,0.287556
536,0.27086
537,0.237102
538,0.240642
539,0.255796
540,0.24396
541,0.236826
542,0.204208
543,0.202373
544,0.210623
545,0.215735
546,0.181591
547,0.175052
548,0.198259
549,0.196855
550,0.179398
551,0.191599
552,0.178497
553,0.177925
554,0.182914
555,0.198122
556,0.220859
557,0.175574
558,0.160658
559,0.156063
560,0.149452
561,0.174195
562,0.166905
563,0.148775
564,0.125262
565,0.131109
566,0.167823
567,0.14285
568,0.114127
569,0.118349
570,0.113106
571,0.118038
572,0.109698
573,0.116571
574,0.083853
575,0.100215
576,0.118799
577,0.111748
578,0.11058
579,0.097543
580,0.094
581,0.089251
582,0.084814
583,0.102349
584,0.097405
585,0.065809
586,0.069802
587,0.073
588,0.097011
589,0.092962
590,0.081271
591,0.075026
592,0.07319
593,0.077806
594,0.074278
595,0.083998
596,0.064948
597,0.06444
598,0.08382
599,0.079681
600,0.084114
601,0.069556
602,0.068126
603,0.062537
604,0.056254
605,0.091146
606,0.073435
607,0.066777
608,0.070102
609,0.056001
610,0.064701
611,0.062519
612,0.051769
613,0.036519
614,0.027588
615,0.056831
616,0.054412
617,0.048679
618,0.048
619,0.033067
620,0.03142
621,0.040787
622,0.06184
623,0.053679
624,0.027241
625,0.034372
626,0.038
627,0.048267
628,0.041501
629,0.020254
630,0.02054
631,0.010051
632,0.027743
633,0.032213
634,0.042998
635,0.031272
636,0.010508