File: PMMA/Calibration_Data/TIFP/TIFP_DSC_N2_10K_7.csv
Time,Temperature,Heat Flow
[s],[K],[mW/mg]
0,300.13,0.00143
3,300.131,0.00149
6,300.129,0.00129
9,300.132,0.00166
12,300.136,0.00163
15,300.143,0.00169
18,300.157,0.00212
21,300.177,0.00206
24,300.205,0.00297
27,300.243,0.00355
30,300.289,0.004
33,300.354,0.00466
36,300.428,0.00557
39,300.52,0.00683
42,300.63,0.00768
45,300.754,0.00931
48,300.899,0.00999
51,301.062,0.0118
54,301.248,0.0134
57,301.453,0.0153
60,301.687,0.0171
63,301.937,0.0189
66,302.218,0.0208
69,302.514,0.0236
72,302.842,0.0259
75,303.195,0.0282
78,303.568,0.0309
81,303.972,0.0335
84,304.396,0.0363
87,304.846,0.0391
90,305.32,0.0418
93,305.818,0.0445
96,306.339,0.0476
99,306.883,0.0499
102,307.446,0.0528
105,308.029,0.055
108,308.628,0.0574
111,309.25,0.0597
114,309.887,0.0617
117,310.543,0.064
120,311.207,0.0658
123,311.886,0.0679
126,312.579,0.0694
129,313.284,0.0711
132,313.997,0.0723
135,314.72,0.0736
138,315.446,0.0743
141,316.183,0.0755
144,316.925,0.0762
147,317.669,0.0775
150,318.415,0.0782
153,319.165,0.0789
156,319.912,0.0794
159,320.665,0.0799
162,321.41,0.0803
165,322.158,0.0807
168,322.906,0.081
171,323.645,0.0814
174,324.385,0.0817
177,325.12,0.0817
180,325.846,0.0822
183,326.572,0.0823
186,327.285,0.0822
189,327.995,0.0824
192,328.706,0.0823
195,329.4,0.0826
198,330.092,0.0826
201,330.777,0.0829
204,331.452,0.0829
207,332.12,0.0831
210,332.781,0.0835
213,333.435,0.0834
216,334.082,0.0836
219,334.719,0.0838
222,335.352,0.0842
225,335.98,0.0845
228,336.595,0.0846
231,337.207,0.085
234,337.813,0.0853
237,338.405,0.0855
240,338.999,0.0859
243,339.579,0.0866
246,340.161,0.0866
249,340.73,0.0871
252,341.296,0.0877
255,341.86,0.0885
258,342.415,0.0891
261,342.968,0.0894
264,343.516,0.0902
267,344.057,0.0909
270,344.6,0.0919
273,345.131,0.0921
276,345.665,0.0931
279,346.191,0.094
282,346.718,0.095
285,347.238,0.0957
288,347.757,0.0965
291,348.276,0.0977
294,348.79,0.0989
297,349.299,0.0995
300,349.812,0.10048
303,350.32,0.10155
306,350.828,0.1027
309,351.335,0.10415
312,351.837,0.1053
315,352.341,0.10645
318,352.844,0.10744
321,353.347,0.10833
324,353.847,0.10942
327,354.346,0.11049
330,354.847,0.11135
333,355.346,0.11221
336,355.841,0.11295
339,356.341,0.11386
342,356.841,0.11427
345,357.336,0.11427
348,357.831,0.11442
351,358.332,0.11427
354,358.825,0.11453
357,359.325,0.11398
360,359.823,0.11381
363,360.316,0.11366
366,360.816,0.11347
369,361.311,0.11333
372,361.807,0.11258
375,362.307,0.11244
378,362.804,0.1124
381,363.297,0.11198
384,363.796,0.11172
387,364.293,0.11163
390,364.792,0.11167
393,365.286,0.11168
396,365.787,0.11185
399,366.281,0.11181
402,366.777,0.11173
405,367.273,0.1118
408,367.772,0.11154
411,368.269,0.11198
414,368.765,0.11223
417,369.259,0.11244
420,369.759,0.11251
423,370.252,0.11266
426,370.75,0.11305
429,371.245,0.1135
432,371.737,0.11335
435,372.235,0.11399
438,372.731,0.11401
441,373.224,0.11409
444,373.721,0.11468
447,374.217,0.11468
450,374.713,0.11516
453,375.207,0.11563
456,375.704,0.11568
459,376.199,0.1165
462,376.696,0.11675
465,377.187,0.1172
468,377.687,0.11777
471,378.182,0.11825
474,378.678,0.1186
477,379.172,0.11922
480,379.673,0.11982
483,380.165,0.12032
486,380.661,0.12084
489,381.156,0.12137
492,381.654,0.12187
495,382.148,0.12259
498,382.646,0.123
501,383.144,0.12357
504,383.642,0.12412
507,384.138,0.12473
510,384.637,0.12545
513,385.134,0.12593
516,385.63,0.12651
519,386.128,0.12713
522,386.625,0.1282
525,387.127,0.12824
528,387.625,0.12907
531,388.125,0.12957
534,388.623,0.13027
537,389.122,0.13105
540,389.622,0.13156
543,390.12,0.13204
546,390.62,0.13287
549,391.12,0.1335
552,391.62,0.13408
555,392.12,0.13474
558,392.621,0.13527
561,393.121,0.13625
564,393.624,0.137
567,394.123,0.13786
570,394.626,0.13928
573,395.127,0.14038
576,395.629,0.1416
579,396.13,0.14277
582,396.637,0.14346
585,397.138,0.14517
588,397.64,0.14649
591,398.144,0.14804
594,398.645,0.14907
597,399.152,0.15029
600,399.654,0.15188
603,400.158,0.15321
606,400.661,0.15419
609,401.164,0.15554
612,401.669,0.15696
615,402.175,0.15763
618,402.678,0.158
621,403.185,0.15852
624,403.688,0.15887
627,404.195,0.15878
630,404.695,0.15852
633,405.203,0.15839
636,405.707,0.15833
639,406.213,0.15785
642,406.717,0.15776
645,407.224,0.1578
648,407.732,0.15814
651,408.236,0.1582
654,408.742,0.15824
657,409.247,0.15875
660,409.752,0.15898
663,410.257,0.1591
666,410.763,0.15956
669,411.27,0.15978
672,411.775,0.16002
675,412.282,0.16038
678,412.787,0.16106
681,413.288,0.16121
684,413.797,0.16172
687,414.304,0.16216
690,414.808,0.16241
693,415.315,0.16322
696,415.819,0.16376
699,416.326,0.16398
702,416.833,0.16469
705,417.336,0.16509
708,417.843,0.16534
711,418.343,0.16594
714,418.853,0.16646
717,419.357,0.16703
720,419.863,0.16767
723,420.366,0.16847
726,420.872,0.16909
729,421.375,0.16947
732,421.877,0.16963
735,422.383,0.17021
738,422.886,0.17103
741,423.389,0.17173
744,423.893,0.17228
747,424.395,0.17296
750,424.9,0.17357
753,425.401,0.1744
756,425.904,0.17532
759,426.408,0.17608
762,426.91,0.17698
765,427.412,0.17771
768,427.913,0.17869
771,428.416,0.17987
774,428.916,0.18048
777,429.414,0.18171
780,429.918,0.18286
783,430.419,0.18392
786,430.921,0.18496
789,431.419,0.18626
792,431.923,0.18737
795,432.422,0.18841
798,432.92,0.18984
801,433.421,0.19118
804,433.921,0.19286
807,434.423,0.19415
810,434.92,0.19551
813,435.419,0.19688
816,435.919,0.19866
819,436.416,0.20013
822,436.916,0.20157
825,437.414,0.20333
828,437.914,0.20493
831,438.411,0.2067
834,438.91,0.20856
837,439.407,0.21051
840,439.907,0.21218
843,440.405,0.21391
846,440.902,0.2162
849,441.402,0.21808
852,441.902,0.22023
855,442.397,0.22248
858,442.896,0.22488
861,443.397,0.22684
864,443.894,0.22936
867,444.39,0.23145
870,444.889,0.23418
873,445.389,0.23622
876,445.886,0.23888
879,446.386,0.24174
882,446.886,0.24438
885,447.386,0.2467
888,447.883,0.2491
891,448.377,0.25158
894,448.88,0.25401
897,449.378,0.25637
900,449.876,0.25878
903,450.373,0.26092
906,450.874,0.26316
909,451.374,0.26553
912,451.874,0.2681
915,452.371,0.27037
918,452.868,0.27245
921,453.367,0.27455
924,453.867,0.27676
927,454.364,0.27905
930,454.865,0.28094
933,455.366,0.28286
936,455.862,0.28411
939,456.361,0.28573
942,456.861,0.28738
945,457.36,0.28892
948,457.854,0.29017
951,458.352,0.29084
954,458.854,0.29195
957,459.348,0.29307
960,459.847,0.29411
963,460.346,0.29538
966,460.843,0.29595
969,461.341,0.2963
972,461.839,0.29683
975,462.337,0.29735
978,462.833,0.29801
981,463.33,0.29821
984,463.829,0.29862
987,464.327,0.2985
990,464.824,0.29891
993,465.321,0.299
996,465.818,0.29931
999,466.316,0.29925
1002,466.814,0.29974
1005,467.313,0.29998
1008,467.813,0.30027
1011,468.309,0.30064
1014,468.807,0.30059
1017,469.305,0.30088
1020,469.803,0.30085
1023,470.298,0.3011
1026,470.797,0.30178
1029,471.296,0.30213
1032,471.794,0.30234
1035,472.29,0.30302
1038,472.786,0.30357
1041,473.284,0.30401
1044,473.784,0.3053
1047,474.283,0.30635
1050,474.78,0.30734
1053,475.281,0.30917
1056,475.778,0.31058
1059,476.279,0.31204
1062,476.777,0.31334
1065,477.274,0.31496
1068,477.775,0.31637
1071,478.271,0.31832
1074,478.771,0.31954
1077,479.27,0.3215
1080,479.769,0.32274
1083,480.265,0.32414
1086,480.764,0.32552
1089,481.264,0.32681
1092,481.765,0.32801
1095,482.262,0.32917
1098,482.758,0.33051
1101,483.26,0.33116
1104,483.758,0.33212
1107,484.256,0.33303
1110,484.752,0.33374
1113,485.253,0.33433
1116,485.75,0.33455
1119,486.249,0.33481
1122,486.747,0.33537
1125,487.244,0.33527
1128,487.745,0.3353
1131,488.242,0.33573
1134,488.743,0.33607
1137,489.241,0.33597
1140,489.739,0.33624
1143,490.237,0.33647
1146,490.739,0.33617
1149,491.237,0.33634
1152,491.736,0.3363
1155,492.234,0.33636
1158,492.734,0.33647
1161,493.235,0.33669
1164,493.731,0.33707
1167,494.232,0.33765
1170,494.732,0.33845
1173,495.232,0.33922
1176,495.731,0.34006
1179,496.232,0.34117
1182,496.731,0.34234
1185,497.232,0.34348
1188,497.732,0.34475
1191,498.228,0.34561
1194,498.729,0.34694
1197,499.231,0.34804
1200,499.729,0.34938
1203,500.23,0.35069
1206,500.73,0.35219
1209,501.226,0.35385
1212,501.728,0.35535
1215,502.226,0.35717
1218,502.724,0.35821
1221,503.225,0.36033
1224,503.723,0.36205
1227,504.223,0.36404
1230,504.722,0.36575
1233,505.22,0.36798
1236,505.717,0.3698
1239,506.218,0.37173
1242,506.717,0.37374
1245,507.216,0.37599
1248,507.713,0.37803
1251,508.211,0.38019
1254,508.711,0.38248
1257,509.21,0.38472
1260,509.705,0.38712
1263,510.206,0.3894
1266,510.705,0.3916
1269,511.203,0.39401
1272,511.7,0.39627
1275,512.2,0.39841
1278,512.698,0.40134
1281,513.196,0.40396
1284,513.693,0.4064
1287,514.191,0.40914
1290,514.69,0.41175
1293,515.19,0.41458
1296,515.691,0.41733
1299,516.189,0.41964
1302,516.687,0.42267
1305,517.188,0.42533
1308,517.687,0.42816
1311,518.186,0.43059
1314,518.687,0.43359
1317,519.188,0.43678
1320,519.687,0.43963
1323,520.186,0.44305
1326,520.687,0.44585
1329,521.184,0.44856
1332,521.684,0.45175
1335,522.184,0.45447
1338,522.685,0.45789
1341,523.184,0.46113
1344,523.682,0.46445
1347,524.182,0.46725
1350,524.681,0.47072
1353,525.184,0.4742
1356,525.682,0.47785
1359,526.181,0.48127
1362,526.684,0.48466
1365,527.182,0.48847
1368,527.68,0.49203
1371,528.184,0.49553
1374,528.684,0.49958
1377,529.181,0.50317
1380,529.683,0.50676
1383,530.183,0.51067
1386,530.68,0.51422
1389,531.181,0.51801
1392,531.68,0.52193
1395,532.179,0.52598
1398,532.681,0.53006
1401,533.181,0.53392
1404,533.681,0.53802
1407,534.177,0.5422
1410,534.676,0.54603
1413,535.176,0.54999
1416,535.679,0.55403
1419,536.175,0.55789
1422,536.675,0.56211
1425,537.176,0.56654
1428,537.677,0.57092
1431,538.173,0.57539
1434,538.676,0.57979
1437,539.175,0.58517
1440,539.673,0.59002
1443,540.175,0.59478
1446,540.677,0.59947
1449,541.177,0.60411
1452,541.676,0.60892
1455,542.178,0.61363
1458,542.677,0.61891
1461,543.178,0.62384
1464,543.679,0.62861
1467,544.178,0.63355
1470,544.679,0.63882
1473,545.178,0.64392
1476,545.68,0.64817
1479,546.178,0.65259
1482,546.677,0.6571
1485,547.176,0.6618
1488,547.677,0.66653
1491,548.176,0.67135
1494,548.675,0.67602
1497,549.173,0.68026
1500,549.675,0.68512
1503,550.172,0.68955
1506,550.672,0.69426
1509,551.171,0.69894
1512,551.668,0.7034
1515,552.168,0.70858
1518,552.664,0.71303
1521,553.163,0.71801
1524,553.66,0.72291
1527,554.159,0.72813
1530,554.659,0.73354
1533,555.157,0.73921
1536,555.66,0.74484
1539,556.158,0.75022
1542,556.657,0.75624
1545,557.154,0.76147
1548,557.653,0.76732
1551,558.152,0.77306
1554,558.653,0.77879
1557,559.151,0.78441
1560,559.649,0.79113
1563,560.148,0.79727
1566,560.645,0.80382
1569,561.147,0.81015
1572,561.648,0.81624
1575,562.144,0.82248
1578,562.642,0.82821
1581,563.142,0.83375
1584,563.639,0.83954
1587,564.137,0.84614
1590,564.635,0.85239
1593,565.136,0.85824
1596,565.635,0.86495
1599,566.135,0.87118
1602,566.633,0.87706
1605,567.129,0.88293
1608,567.63,0.88899
1611,568.13,0.89523
1614,568.628,0.90125
1617,569.127,0.90811
1620,569.629,0.9146
1623,570.124,0.91974
1626,570.627,0.92523
1629,571.125,0.93105
1632,571.622,0.93684
1635,572.123,0.94346
1638,572.622,0.94952
1641,573.119,0.95517
1644,573.62,0.96126
1647,574.119,0.96715
1650,574.618,0.97219
1653,575.117,0.97807
1656,575.614,0.98378
1659,576.115,0.98984
1662,576.614,0.99555
1665,577.111,1.00186
1668,577.609,1.00822
1671,578.112,1.01394
1674,578.61,1.02056
1677,579.11,1.02681
1680,579.609,1.03379
1683,580.108,1.04063
1686,580.607,1.04812
1689,581.105,1.0561
1692,581.606,1.06399
1695,582.105,1.07164
1698,582.605,1.07929
1701,583.104,1.08758
1704,583.601,1.09551
1707,584.1,1.10408
1710,584.602,1.11224
1713,585.1,1.12111
1716,585.599,1.12912
1719,586.096,1.13741
1722,586.598,1.14586
1725,587.098,1.15471
1728,587.598,1.16342
1731,588.099,1.17295
1734,588.595,1.18267
1737,589.098,1.19222
1740,589.599,1.20272
1743,590.097,1.21275
1746,590.599,1.22376
1749,591.097,1.23466
1752,591.598,1.2462
1755,592.097,1.25814
1758,592.6,1.26979
1761,593.097,1.28213
1764,593.597,1.29402
1767,594.097,1.30694
1770,594.596,1.32017
1773,595.094,1.33332
1776,595.595,1.34717
1779,596.097,1.36113
1782,596.595,1.3758
1785,597.094,1.39059
1788,597.595,1.40629
1791,598.092,1.42179
1794,598.592,1.43754
1797,599.092,1.45436
1800,599.592,1.47156
1803,600.093,1.48936
1806,600.592,1.50668
1809,601.09,1.52517
1812,601.591,1.54424
1815,602.091,1.56309
1818,602.591,1.58292
1821,603.09,1.60244
1824,603.589,1.62322
1827,604.088,1.64427
1830,604.589,1.66559
1833,605.088,1.68761
1836,605.587,1.71056
1839,606.088,1.73385
1842,606.588,1.75769
1845,607.086,1.78207
1848,607.587,1.80734
1851,608.085,1.83304
1854,608.586,1.8599
1857,609.086,1.88692
1860,609.587,1.91488
1863,610.087,1.94351
1866,610.588,1.97251
1869,611.088,2.00195
1872,611.584,2.0324
1875,612.083,2.06407
1878,612.582,2.09536
1881,613.08,2.12863
1884,613.581,2.16201
1887,614.077,2.19631
1890,614.575,2.23184
1893,615.075,2.26807
1896,615.576,2.30463
1899,616.073,2.34234
1902,616.573,2.38105
1905,617.073,2.42094
1908,617.573,2.46165
1911,618.071,2.50292
1914,618.571,2.54486
1917,619.071,2.58728
1920,619.571,2.63069
1923,620.068,2.67509
1926,620.568,2.72056
1929,621.067,2.76635
1932,621.566,2.81334
1935,622.069,2.86137
1938,622.565,2.91056
1941,623.067,2.95968
1944,623.567,3.00948
1947,624.066,3.06088
1950,624.563,3.11313
1953,625.064,3.16563
1956,625.562,3.21885
1959,626.063,3.27373
1962,626.561,3.32722
1965,627.061,3.38297
1968,627.56,3.43956
1971,628.058,3.4974
1974,628.556,3.55502
1977,629.058,3.61408
1980,629.556,3.67229
1983,630.056,3.72856
1986,630.555,3.7848
1989,631.053,3.84214
1992,631.55,3.897
1995,632.049,3.94928
1998,632.547,4.00202
2001,633.045,4.0509
2004,633.547,4.10021
2007,634.044,4.14578
2010,634.541,4.18326
2013,635.04,4.21051
2016,635.536,4.24172
2019,636.029,4.25719
2022,636.528,4.26815
2025,637.024,4.27852
2028,637.52,4.26837
2031,638.015,4.2739
2034,638.515,4.28076
2037,639.009,4.25952
2040,639.506,4.22668
2043,640.003,4.18141
2046,640.498,4.13804
2049,640.997,4.15866
2052,641.493,4.10835
2055,641.99,4.09111
2058,642.485,4.04471
2061,642.981,3.96427
2064,643.482,3.99826
2067,643.991,4.16542
2070,644.492,4.19239
2073,644.99,4.13459
2076,645.485,4.06144
2079,645.996,4.3222
2082,646.505,4.46852
2085,646.997,4.37652
2088,647.5,4.45467
2091,647.994,4.30602
2094,648.499,4.39371
2097,648.999,4.49586
2100,649.497,4.43443
2103,649.997,4.40714
2106,650.496,4.46377
2109,650.998,4.49993
2112,651.497,4.40694
2115,651.994,4.39279
2118,652.492,4.42756
2121,652.989,4.31591
2124,653.489,4.27537
2127,653.996,4.40057
2130,654.497,4.37776
2133,654.991,4.29741
2136,655.494,4.29125
2139,655.993,4.29926
2142,656.493,4.25179
2145,656.995,4.23914
2148,657.492,4.25623
2151,657.99,4.11686
2154,658.493,4.1992
2157,658.994,4.19028
2160,659.493,4.12286
2163,659.995,4.16228
2166,660.494,4.16042
2169,660.994,4.16368
2172,661.493,4.10238
2175,661.994,4.09268
2178,662.494,4.05055
2181,662.995,4.00815
2184,663.49,3.95043
2187,663.989,3.88031
2190,664.489,3.82341
2193,664.988,3.75289
2196,665.487,3.6617
2199,665.984,3.55252
2202,666.483,3.50824
2205,666.982,3.44739
2208,667.479,3.33608
2211,667.981,3.23849
2214,668.476,3.1784
2217,668.979,3.13219
2220,669.479,3.05806
2223,669.98,2.99808
2226,670.478,2.96067
2229,670.982,2.91836
2232,671.483,2.88445
2235,671.981,2.8356
2238,672.483,2.77187
2241,672.986,2.71786
2244,673.482,2.65908
2247,673.983,2.60409
2250,674.484,2.55714
2253,674.986,2.50699
2256,675.487,2.45808
2259,675.987,2.41616
2262,676.486,2.37074
2265,676.988,2.32873
2268,677.487,2.28409
2271,677.987,2.24111
2274,678.487,2.19882
2277,678.988,2.15868
2280,679.489,2.12439
2283,679.99,2.09076
2286,680.486,2.05719
2289,680.988,2.02556
2292,681.487,1.9954
2295,681.985,1.96669
2298,682.484,1.93899
2301,682.98,1.91229
2304,683.481,1.88633
2307,683.978,1.86175
2310,684.477,1.83874
2313,684.978,1.81754
2316,685.478,1.7973
2319,685.977,1.77789
2322,686.474,1.76004
2325,686.974,1.74293
2328,687.472,1.72697
2331,687.971,1.71213
2334,688.47,1.69834
2337,688.973,1.68486
2340,689.47,1.67275
2343,689.969,1.66274
2346,690.467,1.65289
2349,690.967,1.64373
2352,691.466,1.63452
2355,691.962,1.6268
2358,692.461,1.61993
2361,692.959,1.61323
2364,693.459,1.60772
2367,693.957,1.60248
2370,694.454,1.59753
2373,694.951,1.5929
2376,695.449,1.58864
2379,695.948,1.58534
2382,696.446,1.58248
2385,696.943,1.57995
2388,697.445,1.57836
2391,697.944,1.57672
2394,698.442,1.57529
2397,698.943,1.5748
2400,699.443,1.57359
2403,699.94,1.57241
2406,700.441,1.57179
2409,700.942,1.57063
2412,701.441,1.56943
2415,701.94,1.56856
2418,702.436,1.56729
2421,702.935,1.56664
2424,703.436,1.56621
2427,703.936,1.56584
2430,704.436,1.5665
2433,704.933,1.56676
2436,705.431,1.56767
2439,705.932,1.56915
2442,706.431,1.57043
2445,706.929,1.57209
2448,707.427,1.57393
2451,707.925,1.57635
2454,708.422,1.57887
2457,708.919,1.58281
2460,709.419,1.58702
2463,709.918,1.59176
2466,710.42,1.59694
2469,710.917,1.60309
2472,711.42,1.60996
2475,711.919,1.61628
2478,712.418,1.62272
2481,712.914,1.62447
2484,713.415,1.62661
2487,713.913,1.63116
2490,714.41,1.63645
2493,714.91,1.64262
2496,715.405,1.64906
2499,715.902,1.65616
2502,716.401,1.66369
2505,716.895,1.67237
2508,717.393,1.68076
2511,717.891,1.68958
2514,718.388,1.69824
2517,718.887,1.70672
2520,719.382,1.71594
2523,719.882,1.7245
2526,720.379,1.73373
2529,720.877,1.74246
2532,721.377,1.75139
2535,721.873,1.76097
2538,722.37,1.77006
2541,722.867,1.77951
2544,723.369,1.789
2547,723.868,1.79858
2550,724.366,1.8078
2553,724.865,1.81765
2556,725.363,1.82747
2559,725.864,1.83703
2562,726.365,1.84651
2565,726.863,1.85673
2568,727.363,1.86657
2571,727.863,1.87661
2574,728.362,1.88606
2577,728.865,1.89604
2580,729.366,1.90649
2583,729.866,1.91713
2586,730.366,1.9275
2589,730.868,1.93765
2592,731.368,1.94826
2595,731.869,1.95857
2598,732.37,1.96908
2601,732.871,1.98003
2604,733.374,1.99023
2607,733.874,2.00016
2610,734.376,2.01119
2613,734.877,2.02231
2616,735.381,2.03253
2619,735.885,2.04303
2622,736.387,2.0544
2625,736.885,2.06529
2628,737.387,2.0765
2631,737.889,2.08685
2634,738.39,2.09759
2637,738.891,2.10838
2640,739.391,2.12
2643,739.894,2.13127
2646,740.397,2.14191
2649,740.898,2.15346
2652,741.398,2.16477
2655,741.9,2.17581
2658,742.402,2.18769
2661,742.901,2.19837
2664,743.401,2.20997
2667,743.902,2.2215
2670,744.402,2.23266
2673,744.901,2.24379
2676,745.403,2.25528
2679,745.902,2.26673
2682,746.401,2.2783
2685,746.902,2.28967
2688,747.404,2.30101
2691,747.904,2.31278
2694,748.402,2.32383
2697,748.904,2.33545
2700,749.406,2.34675
2703,749.902,2.3586
2706,750.403,2.37034
2709,750.904,2.38241
2712,751.403,2.39366
2715,751.903,2.40548
2718,752.403,2.41706
2721,752.902,2.42848
2724,753.401,2.44102
2727,753.899,2.45219
2730,754.4,2.4635
2733,754.902,2.47572
2736,755.396,2.48705
2739,755.896,2.49915
2742,756.397,2.51085
2745,756.895,2.52202
2748,757.397,2.53416
2751,757.893,2.54609
2754,758.394,2.55702
2757,758.893,2.56903
2760,759.394,2.58064
2763,759.893,2.59273
2766,760.393,2.60116
2769,760.893,2.61276
2772,761.394,2.62461
2775,761.895,2.63694
2778,762.394,2.64829
2781,762.897,2.66038
2784,763.398,2.67161
2787,763.899,2.68393
2790,764.401,2.69564
2793,764.901,2.70743
2796,765.402,2.7195
2799,765.903,2.73112
2802,766.409,2.7434
2805,766.903,2.7546
2808,767.404,2.76706
2811,767.905,2.77871
2814,768.405,2.79109
2817,768.905,2.80257
2820,769.407,2.81437
2823,769.906,2.82657
2826,770.408,2.83841
2829,770.908,2.85097
2832,771.408,2.86283
2835,771.911,2.87539
2838,772.412,2.88713
2841,772.913,2.8987
2844,773.412,2.91144
2847,773.913,2.92393
2850,774.414,2.93582
2853,774.915,2.94733
2856,775.416,2.95953
2859,775.914,2.97131
2862,776.414,2.98285
2865,776.917,2.99524
2868,777.42,3.00758
2871,777.919,3.01955
2874,778.422,3.03107
2877,778.921,3.04384
2880,779.422,3.05729
2883,779.92,3.06924
2886,780.425,3.08151
2889,780.926,3.09418
2892,781.423,3.1059
2895,781.923,3.11766
2898,782.425,3.13043
2901,782.927,3.14259
2904,783.425,3.15429
2907,783.927,3.167
2910,784.425,3.17848
2913,784.924,3.1902
2916,785.425,3.20168
2919,785.926,3.21334
2922,786.43,3.22509
2925,786.929,3.23698
2928,787.428,3.24895
2931,787.93,3.26084
2934,788.43,3.27255
2937,788.93,3.28487
2940,789.433,3.2962
2943,789.932,3.30818
2946,790.432,3.3199
2949,790.937,3.33154
2952,791.434,3.34336
2955,791.936,3.35617
2958,792.439,3.36778
2961,792.938,3.37913
2964,793.441,3.39101
2967,793.941,3.40484
2970,794.444,3.41593
2973,794.94,3.42795
2976,795.441,3.43906
2979,795.941,3.45089
2982,796.444,3.46227
2985,796.945,3.4743
2988,797.447,3.48586
2991,797.945,3.49693
2994,798.448,3.5086
2997,798.95,3.52034
3000,799.448,3.53212
3003,799.948,3.54347
3006,800.449,3.55527
3009,800.948,3.56681
3012,801.447,3.57814
3015,801.947,3.59052
3018,802.446,3.60166
3021,802.947,3.61308
3024,803.445,3.62454
3027,803.946,3.63614
3030,804.445,3.64749
3033,804.942,3.65904
3036,805.445,3.67021
3039,805.942,3.68157
3042,806.443,3.69325
3045,806.941,3.70422
3048,807.442,3.71547
3051,807.943,3.72606
3054,808.444,3.73659
3057,808.943,3.74797
3060,809.446,3.75918
3063,809.945,3.77063
3066,810.446,3.78144
3069,810.946,3.79217
3072,811.449,3.80244
3075,811.952,3.81335
3078,812.451,3.82384
3081,812.955,3.83435
3084,813.456,3.84585
3087,813.959,3.85782
3090,814.46,3.86871
3093,814.961,3.87943
3096,815.461,3.89084
3099,815.964,3.90149
3102,816.467,3.91206
3105,816.968,3.92298
3108,817.469,3.93356
3111,817.972,3.94479
3114,818.473,3.95584
3117,818.975,3.96676
3120,819.476,3.97709
3123,819.978,3.98823
3126,820.477,3.9987
3129,820.977,4.00941
3132,821.477,4.01945
3135,821.98,4.03022