File: PMMA/Calibration_Data/TIFP/TIFP_DSC_N2_10K_5.csv
Time,Temperature,Heat Flow
[s],[K],[mW/mg]
0,300.513,-0.00141
3,300.508,-0.00146
6,300.503,-0.00157
9,300.497,-0.00197
12,300.492,-0.00174
15,300.493,-0.00166
18,300.493,-0.000815
21,300.508,-0.000197
24,300.528,0.000675
27,300.554,0.0027
30,300.593,0.00455
33,300.645,0.00711
36,300.705,0.0101
39,300.788,0.0136
42,300.883,0.0178
45,300.994,0.0223
48,301.122,0.0273
51,301.273,0.0326
54,301.446,0.0385
57,301.635,0.0443
60,301.852,0.0505
63,302.088,0.0565
66,302.349,0.0626
69,302.634,0.0679
72,302.945,0.0735
75,303.277,0.0786
78,303.639,0.0841
81,304.019,0.0894
84,304.427,0.0946
87,304.862,0.10056
90,305.318,0.10685
93,305.799,0.11339
96,306.305,0.1208
99,306.833,0.12776
102,307.381,0.13507
105,307.948,0.14299
108,308.534,0.15105
111,309.146,0.15961
114,309.765,0.16795
117,310.406,0.17623
120,311.062,0.18502
123,311.733,0.19347
126,312.418,0.20216
129,313.109,0.21027
132,313.818,0.21862
135,314.532,0.2265
138,315.253,0.23436
141,315.981,0.24196
144,316.714,0.24917
147,317.454,0.25602
150,318.2,0.26245
153,318.944,0.26862
156,319.692,0.27413
159,320.438,0.27944
162,321.188,0.28439
165,321.934,0.28855
168,322.682,0.29273
171,323.423,0.29633
174,324.164,0.29952
177,324.898,0.30224
180,325.632,0.30479
183,326.358,0.30682
186,327.079,0.30861
189,327.792,0.30999
192,328.503,0.31106
195,329.206,0.3113
198,329.901,0.31215
201,330.59,0.31235
204,331.271,0.31207
207,331.947,0.31229
210,332.617,0.31171
213,333.274,0.3113
216,333.929,0.31087
219,334.575,0.30986
222,335.211,0.30899
225,335.843,0.30836
228,336.469,0.30725
231,337.085,0.30594
234,337.693,0.30534
237,338.299,0.30397
240,338.895,0.3031
243,339.484,0.30232
246,340.066,0.30111
249,340.647,0.30031
252,341.22,0.2994
255,341.789,0.2987
258,342.35,0.29823
261,342.909,0.29759
264,343.457,0.29691
267,344.008,0.29638
270,344.549,0.29599
273,345.092,0.29582
276,345.628,0.29574
279,346.159,0.29539
282,346.69,0.29534
285,347.216,0.2956
288,347.737,0.29604
291,348.256,0.29625
294,348.773,0.29677
297,349.292,0.29739
300,349.805,0.29776
303,350.316,0.29872
306,350.825,0.29949
309,351.334,0.30037
312,351.84,0.30171
315,352.345,0.30246
318,352.853,0.30329
321,353.354,0.30463
324,353.856,0.30564
327,354.358,0.30715
330,354.857,0.30814
333,355.36,0.30903
336,355.861,0.31019
339,356.359,0.31135
342,356.857,0.31182
345,357.355,0.31259
348,357.855,0.31338
351,358.354,0.31358
354,358.853,0.3142
357,359.35,0.3148
360,359.849,0.31475
363,360.345,0.31503
366,360.844,0.31526
369,361.338,0.31586
372,361.834,0.31588
375,362.333,0.31616
378,362.827,0.31655
381,363.327,0.31691
384,363.822,0.3169
387,364.322,0.31771
390,364.815,0.31801
393,365.312,0.31919
396,365.81,0.31941
399,366.302,0.32052
402,366.803,0.32136
405,367.296,0.32232
408,367.795,0.32351
411,368.289,0.32428
414,368.786,0.32525
417,369.285,0.32634
420,369.778,0.3274
423,370.275,0.32869
426,370.772,0.32981
429,371.266,0.33095
432,371.762,0.33227
435,372.26,0.33375
438,372.753,0.33485
441,373.251,0.33587
444,373.745,0.33705
447,374.239,0.33866
450,374.735,0.33995
453,375.231,0.34132
456,375.724,0.34292
459,376.22,0.34436
462,376.711,0.34515
465,377.208,0.34684
468,377.704,0.34794
471,378.199,0.34956
474,378.694,0.35104
477,379.187,0.35273
480,379.685,0.35374
483,380.18,0.35539
486,380.674,0.35686
489,381.167,0.35859
492,381.665,0.36006
495,382.159,0.36174
498,382.653,0.36322
501,383.146,0.36473
504,383.644,0.36635
507,384.138,0.36789
510,384.637,0.37073
513,385.129,0.37292
516,385.627,0.37511
519,386.123,0.37708
522,386.621,0.37905
525,387.117,0.38112
528,387.615,0.38312
531,388.113,0.3849
534,388.61,0.38666
537,389.107,0.38833
540,389.605,0.38977
543,390.104,0.39127
546,390.606,0.39289
549,391.106,0.39427
552,391.605,0.39623
555,392.105,0.39785
558,392.607,0.39976
561,393.106,0.40168
564,393.609,0.40355
567,394.113,0.40559
570,394.614,0.40724
573,395.117,0.40892
576,395.618,0.41108
579,396.124,0.41305
582,396.628,0.4145
585,397.132,0.41606
588,397.636,0.41763
591,398.14,0.41898
594,398.646,0.42036
597,399.151,0.42177
600,399.66,0.4225
603,400.162,0.4241
606,400.664,0.42459
609,401.174,0.42598
612,401.68,0.42653
615,402.185,0.42768
618,402.693,0.42862
621,403.201,0.42951
624,403.71,0.43035
627,404.216,0.43134
630,404.726,0.43207
633,405.233,0.43232
636,405.741,0.43351
639,406.246,0.43394
642,406.754,0.43475
645,407.262,0.43556
648,407.768,0.43618
651,408.276,0.43546
654,408.785,0.43471
657,409.293,0.43527
660,409.799,0.43564
663,410.305,0.43651
666,410.811,0.437
669,411.317,0.43774
672,411.825,0.43838
675,412.331,0.43938
678,412.838,0.43993
681,413.346,0.44113
684,413.852,0.44226
687,414.358,0.44296
690,414.861,0.44371
693,415.37,0.44506
696,415.878,0.44622
699,416.382,0.44703
702,416.887,0.4488
705,417.392,0.45006
708,417.898,0.45099
711,418.405,0.45195
714,418.911,0.45315
717,419.417,0.45407
720,419.919,0.4553
723,420.427,0.45593
726,420.929,0.45651
729,421.434,0.45732
732,421.936,0.45846
735,422.44,0.45913
738,422.945,0.45979
741,423.447,0.46051
744,423.949,0.46142
747,424.453,0.46227
750,424.957,0.46316
753,425.458,0.46393
756,425.962,0.4649
759,426.463,0.46609
762,426.965,0.47171
765,427.468,0.47351
768,427.966,0.47533
771,428.47,0.47716
774,428.972,0.47875
777,429.469,0.48017
780,429.969,0.48164
783,430.474,0.48331
786,430.972,0.48469
789,431.472,0.48643
792,431.974,0.48804
795,432.474,0.48965
798,432.977,0.49123
801,433.476,0.4927
804,433.977,0.49439
807,434.475,0.49653
810,434.975,0.49837
813,435.475,0.50043
816,435.975,0.50232
819,436.48,0.50446
822,436.978,0.50641
825,437.479,0.50792
828,437.978,0.51002
831,438.479,0.51166
834,438.979,0.51362
837,439.477,0.51539
840,439.979,0.51738
843,440.48,0.51974
846,440.977,0.52205
849,441.476,0.52412
852,441.977,0.52627
855,442.478,0.52898
858,442.978,0.53118
861,443.477,0.53358
864,443.975,0.53538
867,444.474,0.53798
870,444.974,0.54037
873,445.475,0.54262
876,445.973,0.54528
879,446.473,0.54887
882,446.97,0.55258
885,447.469,0.55773
888,447.97,0.56177
891,448.466,0.56467
894,448.967,0.56765
897,449.465,0.57044
900,449.966,0.57311
903,450.462,0.57584
906,450.964,0.57876
909,451.461,0.58142
912,451.963,0.58391
915,452.459,0.58614
918,452.958,0.58862
921,453.459,0.59061
924,453.951,0.59297
927,454.45,0.59502
930,454.952,0.59708
933,455.449,0.59874
936,455.948,0.60058
939,456.444,0.60267
942,456.944,0.60428
945,457.441,0.60586
948,457.943,0.60742
951,458.44,0.60911
954,458.939,0.61041
957,459.438,0.61154
960,459.935,0.61255
963,460.434,0.61357
966,460.933,0.61432
969,461.429,0.61522
972,461.928,0.6158
975,462.428,0.61658
978,462.925,0.61749
981,463.425,0.61796
984,463.921,0.61853
987,464.421,0.6195
990,464.921,0.62044
993,465.421,0.62075
996,465.918,0.62202
999,466.418,0.62302
1002,466.917,0.62339
1005,467.414,0.62408
1008,467.912,0.62484
1011,468.412,0.62601
1014,468.913,0.62713
1017,469.411,0.62802
1020,469.911,0.62952
1023,470.411,0.63075
1026,470.909,0.63195
1029,471.407,0.6338
1032,471.908,0.63539
1035,472.406,0.63725
1038,472.906,0.63914
1041,473.404,0.64133
1044,473.903,0.64345
1047,474.405,0.64603
1050,474.905,0.64803
1053,475.401,0.65014
1056,475.901,0.65295
1059,476.399,0.6557
1062,476.901,0.65837
1065,477.396,0.66149
1068,477.899,0.66438
1071,478.395,0.66704
1074,478.896,0.67011
1077,479.395,0.67306
1080,479.896,0.67596
1083,480.396,0.67839
1086,480.896,0.68113
1089,481.396,0.68338
1092,481.896,0.6861
1095,482.395,0.68823
1098,482.893,0.69064
1101,483.393,0.69263
1104,483.894,0.69419
1107,484.393,0.69626
1110,484.893,0.69766
1113,485.389,0.69961
1116,485.891,0.70052
1119,486.39,0.70149
1122,486.888,0.70238
1125,487.385,0.70351
1128,487.89,0.70456
1131,488.385,0.7055
1134,488.885,0.70659
1137,489.386,0.70856
1140,489.885,0.71047
1143,490.383,0.71221
1146,490.882,0.71352
1149,491.385,0.71431
1152,491.883,0.71543
1155,492.381,0.71633
1158,492.88,0.71738
1161,493.381,0.71861
1164,493.879,0.71994
1167,494.378,0.72159
1170,494.878,0.72296
1173,495.376,0.72446
1176,495.878,0.72637
1179,496.378,0.72809
1182,496.876,0.73019
1185,497.378,0.73212
1188,497.876,0.7344
1191,498.376,0.7369
1194,498.876,0.73933
1197,499.379,0.74218
1200,499.877,0.74484
1203,500.378,0.74752
1206,500.876,0.75056
1209,501.377,0.75325
1212,501.877,0.7564
1215,502.379,0.75982
1218,502.88,0.7625
1221,503.381,0.76581
1224,503.88,0.76914
1227,504.379,0.77212
1230,504.885,0.7755
1233,505.38,0.77939
1236,505.883,0.78279
1239,506.385,0.78636
1242,506.883,0.79013
1245,507.383,0.79353
1248,507.884,0.79747
1251,508.383,0.8012
1254,508.885,0.80477
1257,509.383,0.80867
1260,509.883,0.81292
1263,510.386,0.81734
1266,510.886,0.82169
1269,511.387,0.8263
1272,511.891,0.83083
1275,512.389,0.83541
1278,512.888,0.83939
1281,513.388,0.84363
1284,513.888,0.84773
1287,514.388,0.85172
1290,514.888,0.85564
1293,515.383,0.86008
1296,515.886,0.86438
1299,516.384,0.86898
1302,516.885,0.87348
1305,517.384,0.87812
1308,517.883,0.88261
1311,518.385,0.88751
1314,518.884,0.8922
1317,519.382,0.89677
1320,519.883,0.90186
1323,520.381,0.90647
1326,520.881,0.91107
1329,521.378,0.91605
1332,521.879,0.9212
1335,522.38,0.92636
1338,522.879,0.93169
1341,523.38,0.9374
1344,523.881,0.94291
1347,524.378,0.94837
1350,524.881,0.95399
1353,525.382,0.95964
1356,525.882,0.96487
1359,526.381,0.96969
1362,526.879,0.97515
1365,527.38,0.9805
1368,527.878,0.98411
1371,528.375,0.98906
1374,528.875,0.99471
1377,529.377,1.00031
1380,529.877,1.00616
1383,530.38,1.01201
1386,530.877,1.01801
1389,531.379,1.02428
1392,531.879,1.02988
1395,532.381,1.0361
1398,532.882,1.04189
1401,533.38,1.04828
1404,533.881,1.05471
1407,534.384,1.06092
1410,534.885,1.06747
1413,535.385,1.07397
1416,535.886,1.08037
1419,536.384,1.08659
1422,536.885,1.09267
1425,537.387,1.09866
1428,537.885,1.10464
1431,538.384,1.11103
1434,538.885,1.11721
1437,539.385,1.1237
1440,539.885,1.13015
1443,540.389,1.13684
1446,540.887,1.14329
1449,541.387,1.14984
1452,541.888,1.15667
1455,542.39,1.16294
1458,542.89,1.16964
1461,543.389,1.17618
1464,543.892,1.18203
1467,544.388,1.18798
1470,544.887,1.1939
1473,545.388,1.19978
1476,545.885,1.20569
1479,546.382,1.21166
1482,546.883,1.21774
1485,547.383,1.22381
1488,547.883,1.23005
1491,548.38,1.23608
1494,548.882,1.24254
1497,549.38,1.24879
1500,549.877,1.25524
1503,550.38,1.26184
1506,550.88,1.26824
1509,551.376,1.27428
1512,551.875,1.28066
1515,552.376,1.28699
1518,552.872,1.29318
1521,553.375,1.29966
1524,553.872,1.30622
1527,554.371,1.31245
1530,554.872,1.31953
1533,555.37,1.32624
1536,555.871,1.33286
1539,556.373,1.33984
1542,556.87,1.34594
1545,557.37,1.3528
1548,557.871,1.35956
1551,558.37,1.36616
1554,558.87,1.37224
1557,559.37,1.3783
1560,559.87,1.38421
1563,560.369,1.39077
1566,560.868,1.3973
1569,561.371,1.40407
1572,561.87,1.41022
1575,562.368,1.41607
1578,562.868,1.42279
1581,563.369,1.42933
1584,563.868,1.43582
1587,564.37,1.44253
1590,564.871,1.44925
1593,565.37,1.45644
1596,565.872,1.46592
1599,566.373,1.47651
1602,566.872,1.48683
1605,567.372,1.49746
1608,567.872,1.5084
1611,568.372,1.52002
1614,568.871,1.53088
1617,569.375,1.5421
1620,569.873,1.55333
1623,570.374,1.56403
1626,570.872,1.57487
1629,571.374,1.58565
1632,571.875,1.59659
1635,572.376,1.60738
1638,572.878,1.61785
1641,573.377,1.62853
1644,573.876,1.63848
1647,574.375,1.64894
1650,574.876,1.65955
1653,575.378,1.66995
1656,575.877,1.68015
1659,576.375,1.6904
1662,576.878,1.70066
1665,577.377,1.71092
1668,577.88,1.72095
1671,578.377,1.73075
1674,578.877,1.74064
1677,579.377,1.75084
1680,579.876,1.76053
1683,580.377,1.77042
1686,580.877,1.78044
1689,581.377,1.79037
1692,581.878,1.80002
1695,582.377,1.80998
1698,582.875,1.81984
1701,583.375,1.82996
1704,583.873,1.83998
1707,584.374,1.85018
1710,584.87,1.86088
1713,585.371,1.87166
1716,585.871,1.88194
1719,586.367,1.89301
1722,586.866,1.9042
1725,587.366,1.91548
1728,587.867,1.92723
1731,588.366,1.93891
1734,588.863,1.95093
1737,589.364,1.96378
1740,589.863,1.97658
1743,590.364,1.99008
1746,590.863,2.00345
1749,591.362,2.01703
1752,591.861,2.03127
1755,592.36,2.04547
1758,592.86,2.06077
1761,593.361,2.07525
1764,593.859,2.0907
1767,594.359,2.10605
1770,594.86,2.12212
1773,595.362,2.1388
1776,595.862,2.15574
1779,596.36,2.17253
1782,596.861,2.18973
1785,597.359,2.20695
1788,597.86,2.22449
1791,598.358,2.24218
1794,598.857,2.26086
1797,599.36,2.27993
1800,599.859,2.29887
1803,600.358,2.31809
1806,600.86,2.33801
1809,601.358,2.35835
1812,601.855,2.37904
1815,602.356,2.40021
1818,602.857,2.42187
1821,603.355,2.44345
1824,603.853,2.46607
1827,604.352,2.48878
1830,604.851,2.51134
1833,605.348,2.53558
1836,605.847,2.55969
1839,606.345,2.5845
1842,606.843,2.61023
1845,607.343,2.63671
1848,607.845,2.66307
1851,608.341,2.68995
1854,608.842,2.71759
1857,609.34,2.74562
1860,609.84,2.77368
1863,610.338,2.80342
1866,610.836,2.8335
1869,611.335,2.86402
1872,611.835,2.89559
1875,612.334,2.92768
1878,612.834,2.96057
1881,613.331,2.99487
1884,613.833,3.02863
1887,614.331,3.06341
1890,614.831,3.09882
1893,615.331,3.13565
1896,615.831,3.17263
1899,616.33,3.21059
1902,616.827,3.25008
1905,617.33,3.2893
1908,617.83,3.33081
1911,618.331,3.3727
1914,618.831,3.41542
1917,619.331,3.45923
1920,619.832,3.50358
1923,620.334,3.54853
1926,620.836,3.59405
1929,621.332,3.64125
1932,621.834,3.68914
1935,622.335,3.7365
1938,622.832,3.78521
1941,623.334,3.8358
1944,623.835,3.88641
1947,624.331,3.93779
1950,624.832,3.99022
1953,625.331,4.04246
1956,625.83,4.09605
1959,626.331,4.15007
1962,626.828,4.20401
1965,627.329,4.25726
1968,627.825,4.31145
1971,628.326,4.36537
1974,628.825,4.41851
1977,629.32,4.46878
1980,629.822,4.52035
1983,630.319,4.56985
1986,630.819,4.61716
1989,631.316,4.65873
1992,631.815,4.69818
1995,632.311,4.73393
1998,632.809,4.76732
2001,633.306,4.79131
2004,633.804,4.81574
2007,634.3,4.83242
2010,634.799,4.84602
2013,635.295,4.85673
2016,635.792,4.85448
2019,636.29,4.85951
2022,636.785,4.82463
2025,637.282,4.79284
2028,637.78,4.78464
2031,638.28,4.7883
2034,638.777,4.74529
2037,639.275,4.7096
2040,639.769,4.64768
2043,640.266,4.5881
2046,640.767,4.57519
2049,641.264,4.52525
2052,641.765,4.48729
2055,642.263,4.42128
2058,642.768,4.55178
2061,643.271,4.58628
2064,643.772,4.58251
2067,644.279,4.67711
2070,644.778,4.68562
2073,645.282,4.69132
2076,645.787,4.75112
2079,646.289,4.83128
2082,646.788,4.82187
2085,647.295,4.91407
2088,647.795,4.8734
2091,648.293,4.88989
2094,648.799,5.05282
2097,649.299,5.00873
2100,649.794,4.94171
2103,650.29,4.84437
2106,650.798,4.9933
2109,651.291,4.84834
2112,651.788,4.7587
2115,652.299,4.98986
2118,652.801,4.89942
2121,653.297,4.88836
2124,653.799,4.91273
2127,654.301,4.94939
2130,654.803,4.97635
2133,655.304,4.88312
2136,655.805,4.88981
2139,656.304,4.84809
2142,656.809,4.87927
2145,657.308,4.83588
2148,657.807,4.73581
2151,658.306,4.65789
2154,658.814,4.70699
2157,659.32,4.71105
2160,659.824,4.68182
2163,660.326,4.63649
2166,660.834,4.60981
2169,661.34,4.58247
2172,661.848,4.55399
2175,662.357,4.51584
2178,662.862,4.46326
2181,663.373,4.40765
2184,663.883,4.34668
2187,664.391,4.27817
2190,664.897,4.20643
2193,665.413,4.13602
2196,665.923,4.10648
2199,666.439,4.03705
2202,666.951,3.95476
2205,667.464,3.8783
2208,667.979,3.81913
2211,668.496,3.76669
2214,669.01,3.70413
2217,669.529,3.65519
2220,670.047,3.60695
2223,670.565,3.56335
2226,671.083,3.51757
2229,671.606,3.4618
2232,672.122,3.4107
2235,672.642,3.37095
2238,673.162,3.32166
2241,673.678,3.27653
2244,674.203,3.23448
2247,674.718,3.18997
2250,675.235,3.14549
2253,675.756,3.10466
2256,676.274,3.06365
2259,676.794,3.02486
2262,677.311,2.98662
2265,677.832,2.94987
2268,678.348,2.91527
2271,678.866,2.88086
2274,679.381,2.84788
2277,679.901,2.81636
2280,680.414,2.78583
2283,680.93,2.75673
2286,681.445,2.72741
2289,681.957,2.69983
2292,682.473,2.67347
2295,682.985,2.64791
2298,683.497,2.62309
2301,684.008,2.59913
2304,684.521,2.57686
2307,685.031,2.55482
2310,685.54,2.53462
2313,686.049,2.51442
2316,686.557,2.49551
2319,687.066,2.47744
2322,687.574,2.46017
2325,688.082,2.44366
2328,688.587,2.42838
2331,689.095,2.41337
2334,689.601,2.39986
2337,690.104,2.38601
2340,690.609,2.37357
2343,691.114,2.3614
2346,691.618,2.34996
2349,692.119,2.33874
2352,692.625,2.32869
2355,693.129,2.31809
2358,693.633,2.30886
2361,694.135,2.30013
2364,694.641,2.29131
2367,695.144,2.28396
2370,695.645,2.27627
2373,696.15,2.269
2376,696.651,2.26285
2379,697.157,2.25726
2382,697.658,2.25141
2385,698.161,2.24655
2388,698.663,2.24145
2391,699.164,2.23562
2394,699.665,2.23052
2397,700.168,2.22564
2400,700.67,2.21977
2403,701.174,2.21496
2406,701.678,2.2094
2409,702.178,2.20374
2412,702.677,2.19772
2415,703.179,2.19177
2418,703.68,2.18588
2421,704.181,2.18026
2424,704.683,2.17467
2427,705.184,2.16911
2430,705.685,2.16374
2433,706.188,2.15901
2436,706.686,2.15399
2439,707.188,2.15023
2442,707.688,2.14616
2445,708.192,2.14243
2448,708.69,2.13949
2451,709.192,2.13764
2454,709.694,2.13601
2457,710.195,2.13489
2460,710.694,2.13349
2463,711.198,2.13391
2466,711.701,2.13575
2469,712.201,2.13543
2472,712.702,2.1323
2475,713.203,2.1278
2478,713.704,2.12495
2481,714.203,2.12288
2484,714.703,2.12228
2487,715.203,2.12149
2490,715.702,2.12106
2493,716.202,2.12195
2496,716.701,2.12241
2499,717.2,2.12299
2502,717.699,2.125
2505,718.199,2.12628
2508,718.695,2.12835
2511,719.193,2.12965
2514,719.693,2.13111
2517,720.189,2.13297
2520,720.686,2.13494
2523,721.182,2.13668
2526,721.68,2.1391
2529,722.175,2.14075
2532,722.672,2.14319
2535,723.17,2.14529
2538,723.665,2.14708
2541,724.161,2.14904
2544,724.657,2.15093
2547,725.151,2.15361
2550,725.647,2.15603
2553,726.141,2.15809
2556,726.634,2.16064
2559,727.129,2.16307
2562,727.623,2.16488
2565,728.113,2.16726
2568,728.609,2.16968
2571,729.099,2.17212
2574,729.591,2.17432
2577,730.084,2.17591
2580,730.574,2.1783
2583,731.067,2.18053
2586,731.559,2.18229
2589,732.05,2.18327
2592,732.541,2.18529
2595,733.032,2.18641
2598,733.523,2.18768
2601,734.01,2.18982
2604,734.502,2.19089
2607,734.992,2.19171
2610,735.482,2.19245
2613,735.97,2.1936
2616,736.459,2.19424
2619,736.949,2.19496
2622,737.439,2.19547
2625,737.929,2.19586
2628,738.418,2.19597
2631,738.907,2.19653
2634,739.394,2.19658
2637,739.885,2.19624
2640,740.375,2.1964
2643,740.867,2.19671
2646,741.355,2.19654
2649,741.845,2.19675
2652,742.332,2.19616
2655,742.823,2.19636
2658,743.314,2.19538
2661,743.801,2.19505
2664,744.293,2.19421
2667,744.783,2.19429
2670,745.272,2.19347
2673,745.764,2.19244
2676,746.252,2.19203
2679,746.746,2.19111
2682,747.236,2.18975
2685,747.727,2.18881
2688,748.216,2.18797
2691,748.71,2.18647
2694,749.202,2.18519
2697,749.694,2.18406
2700,750.188,2.1828
2703,750.679,2.18196
2706,751.17,2.18069
2709,751.665,2.17964
2712,752.158,2.1776
2715,752.654,2.17611
2718,753.147,2.175
2721,753.642,2.17364
2724,754.136,2.1724
2727,754.628,2.17011
2730,755.128,2.16835
2733,755.621,2.16703
2736,756.117,2.16555
2739,756.615,2.16427
2742,757.108,2.16325
2745,757.606,2.16183
2748,758.102,2.16087
2751,758.598,2.16006
2754,759.095,2.15932
2757,759.589,2.1585
2760,760.089,2.15735
2763,760.582,2.15694
2766,761.081,2.15578
2769,761.578,2.15513
2772,762.072,2.15366
2775,762.569,2.15295
2778,763.065,2.15226
2781,763.562,2.15149
2784,764.057,2.15091
2787,764.553,2.14949
2790,765.05,2.14886
2793,765.545,2.14853
2796,766.041,2.14752
2799,766.541,2.14722
2802,767.034,2.14627
2805,767.534,2.1456
2808,768.028,2.14483
2811,768.525,2.1447
2814,769.021,2.1438
2817,769.519,2.1431
2820,770.015,2.14234
2823,770.512,2.14178
2826,771.009,2.14149
2829,771.508,2.14067
2832,772.007,2.14065
2835,772.502,2.14037
2838,773.002,2.13981
2841,773.498,2.13884
2844,773.999,2.13871
2847,774.496,2.13784
2850,774.995,2.1373
2853,775.491,2.13642
2856,775.99,2.13641
2859,776.489,2.13576
2862,776.987,2.13506
2865,777.484,2.13435
2868,777.983,2.13423
2871,778.481,2.13347
2874,778.978,2.13281
2877,779.478,2.1328
2880,779.977,2.13165
2883,780.475,2.13154
2886,780.972,2.13054
2889,781.47,2.13101
2892,781.971,2.13048
2895,782.472,2.13026
2898,782.969,2.13079
2901,783.468,2.13063
2904,783.967,2.12995
2907,784.466,2.1299
2910,784.965,2.12904
2913,785.466,2.12918
2916,785.965,2.12867
2919,786.466,2.12811
2922,786.963,2.12818
2925,787.463,2.12705
2928,787.964,2.12683
2931,788.464,2.12588
2934,788.964,2.12533
2937,789.464,2.12492
2940,789.964,2.12512
2943,790.461,2.12446
2946,790.964,2.124
2949,791.463,2.12389
2952,791.963,2.12402
2955,792.462,2.12394
2958,792.963,2.12393
2961,793.461,2.12347
2964,793.962,2.12309
2967,794.464,2.12347
2970,794.962,2.12231
2973,795.46,2.12239
2976,795.959,2.12177
2979,796.463,2.12204
2982,796.96,2.12162
2985,797.46,2.12131
2988,797.96,2.12067
2991,798.459,2.12099
2994,798.959,2.12087
2997,799.461,2.12073
3000,799.957,2.12043
3003,800.456,2.12012
3006,800.954,2.11989
3009,801.458,2.11924
3012,801.956,2.11936
3015,802.455,2.11907
3018,802.954,2.11901
3021,803.456,2.1189
3024,803.956,2.11871
3027,804.454,2.11903
3030,804.954,2.11915
3033,805.455,2.11914
3036,805.957,2.11836
3039,806.453,2.11806
3042,806.955,2.11771
3045,807.453,2.11787
3048,807.95,2.11803
3051,808.45,2.11827
3054,808.949,2.11769
3057,809.45,2.11747
3060,809.948,2.11709
3063,810.448,2.1171
3066,810.946,2.11678
3069,811.447,2.11641
3072,811.947,2.11645
3075,812.446,2.11643
3078,812.944,2.11641
3081,813.442,2.11614
3084,813.942,2.11611
3087,814.439,2.11563
3090,814.94,2.11547
3093,815.437,2.11566
3096,815.939,2.11536
3099,816.438,2.11534
3102,816.938,2.11536
3105,817.437,2.11464
3108,817.935,2.11392
3111,818.435,2.11392
3114,818.934,2.11367
3117,819.433,2.11398
3120,819.931,2.11368
3123,820.431,2.11377
3126,820.928,2.11346
3129,821.426,2.1119
3132,821.927,2.11125
3135,822.424,2.11016