File: PMMA/Calibration_Data/TIFP/TIFP_DSC_N2_10K_8.csv
Time,Temperature,Heat Flow
[s],[K],[mW/mg]
0,300.149,0.00399
3,300.147,0.00368
6,300.148,0.00358
9,300.148,0.00355
12,300.149,0.00364
15,300.163,0.00364
18,300.17,0.00377
21,300.192,0.0039
24,300.221,0.00482
27,300.256,0.00504
30,300.306,0.00599
33,300.368,0.00671
36,300.444,0.00747
39,300.534,0.00861
42,300.643,0.00984
45,300.765,0.0112
48,300.91,0.0121
51,301.075,0.0137
54,301.259,0.0155
57,301.465,0.0169
60,301.695,0.0185
63,301.948,0.0199
66,302.223,0.0218
69,302.523,0.0239
72,302.851,0.0257
75,303.199,0.0278
78,303.575,0.0298
81,303.975,0.032
84,304.399,0.0343
87,304.849,0.0363
90,305.326,0.0387
93,305.819,0.0412
96,306.341,0.0436
99,306.88,0.0456
102,307.442,0.048
105,308.028,0.0498
108,308.627,0.052
111,309.246,0.0544
114,309.882,0.0562
117,310.537,0.0583
120,311.205,0.06
123,311.883,0.0621
126,312.576,0.0635
129,313.28,0.065
132,313.992,0.0663
135,314.716,0.0675
138,315.446,0.068
141,316.181,0.0689
144,316.921,0.0697
147,317.666,0.0706
150,318.413,0.0714
153,319.161,0.0721
156,319.912,0.073
159,320.666,0.0734
162,321.413,0.0742
165,322.161,0.0741
168,322.909,0.0751
171,323.651,0.0757
174,324.389,0.0761
177,325.124,0.0765
180,325.852,0.0768
183,326.575,0.0771
186,327.294,0.0775
189,328.005,0.0781
192,328.709,0.0784
195,329.409,0.0789
198,330.098,0.0791
201,330.783,0.0797
204,331.461,0.0803
207,332.128,0.081
210,332.791,0.0817
213,333.443,0.0821
216,334.091,0.0826
219,334.734,0.0833
222,335.364,0.0841
225,335.988,0.0848
228,336.605,0.0852
231,337.215,0.0861
234,337.818,0.087
237,338.417,0.0875
240,339.006,0.0885
243,339.592,0.0894
246,340.17,0.09
249,340.741,0.091
252,341.308,0.092
255,341.866,0.0933
258,342.424,0.0941
261,342.981,0.0954
264,343.523,0.0965
267,344.068,0.0979
270,344.606,0.0993
273,345.14,0.1005
276,345.672,0.10178
279,346.202,0.10332
282,346.726,0.10494
285,347.25,0.10645
288,347.769,0.10778
291,348.287,0.10931
294,348.803,0.11109
297,349.315,0.11276
300,349.825,0.11389
303,350.336,0.11587
306,350.845,0.11742
309,351.351,0.119
312,351.856,0.12075
315,352.362,0.12219
318,352.866,0.1237
321,353.362,0.12517
324,353.866,0.12643
327,354.369,0.12803
330,354.867,0.12957
333,355.366,0.13064
336,355.864,0.13184
339,356.363,0.13268
342,356.862,0.13349
345,357.358,0.13399
348,357.856,0.13466
351,358.352,0.13496
354,358.851,0.13552
357,359.344,0.13549
360,359.844,0.13577
363,360.338,0.13591
366,360.836,0.13592
369,361.332,0.13572
372,361.828,0.13595
375,362.323,0.13621
378,362.821,0.1364
381,363.317,0.1366
384,363.812,0.13619
387,364.311,0.13653
390,364.806,0.13665
393,365.3,0.13722
396,365.798,0.13767
399,366.293,0.1379
402,366.79,0.13836
405,367.284,0.13851
408,367.776,0.13899
411,368.275,0.13961
414,368.772,0.14004
417,369.265,0.14085
420,369.76,0.14117
423,370.254,0.14182
426,370.752,0.14244
429,371.246,0.1432
432,371.742,0.14361
435,372.238,0.14445
438,372.73,0.14477
441,373.225,0.14542
444,373.718,0.14629
447,374.211,0.14678
450,374.708,0.14729
453,375.202,0.14803
456,375.698,0.14857
459,376.192,0.14975
462,376.685,0.15062
465,377.18,0.15133
468,377.674,0.1519
471,378.169,0.15275
474,378.664,0.15365
477,379.162,0.15458
480,379.654,0.15562
483,380.15,0.15633
486,380.644,0.15706
489,381.141,0.15802
492,381.636,0.1589
495,382.132,0.15983
498,382.627,0.16059
501,383.125,0.16161
504,383.621,0.16295
507,384.117,0.1636
510,384.614,0.16467
513,385.109,0.16563
516,385.607,0.16695
519,386.106,0.16769
522,386.603,0.16908
525,387.102,0.16996
528,387.599,0.17111
531,388.101,0.17259
534,388.595,0.17331
537,389.099,0.17471
540,389.595,0.17548
543,390.096,0.1769
546,390.597,0.17803
549,391.095,0.17945
552,391.597,0.18058
555,392.099,0.18187
558,392.6,0.18333
561,393.099,0.18473
564,393.604,0.18607
567,394.107,0.18753
570,394.612,0.18961
573,395.114,0.19155
576,395.615,0.19325
579,396.119,0.19482
582,396.622,0.19663
585,397.126,0.19877
588,397.63,0.20066
591,398.135,0.20285
594,398.637,0.20493
597,399.144,0.20658
600,399.649,0.20853
603,400.155,0.21045
606,400.659,0.21265
609,401.165,0.21435
612,401.669,0.21657
615,402.174,0.21793
618,402.681,0.21882
621,403.187,0.21961
624,403.692,0.2204
627,404.199,0.22084
630,404.704,0.22123
633,405.21,0.22134
636,405.714,0.22216
639,406.223,0.22215
642,406.726,0.22283
645,407.233,0.22341
648,407.74,0.22397
651,408.245,0.22412
654,408.756,0.22511
657,409.255,0.22556
660,409.763,0.2266
663,410.27,0.22711
666,410.776,0.22805
669,411.281,0.22888
672,411.785,0.2291
675,412.292,0.23026
678,412.798,0.23139
681,413.304,0.23239
684,413.81,0.23318
687,414.319,0.23431
690,414.821,0.23491
693,415.327,0.23611
696,415.832,0.23717
699,416.334,0.23806
702,416.842,0.23894
705,417.347,0.24
708,417.849,0.24096
711,418.358,0.242
714,418.862,0.24307
717,419.368,0.24435
720,419.871,0.24504
723,420.372,0.2462
726,420.882,0.24705
729,421.384,0.24802
732,421.886,0.24874
735,422.391,0.24966
738,422.892,0.25079
741,423.397,0.25225
744,423.9,0.25271
747,424.401,0.25409
750,424.906,0.25523
753,425.408,0.25634
756,425.91,0.25778
759,426.412,0.25884
762,426.917,0.26004
765,427.416,0.26116
768,427.918,0.26269
771,428.418,0.26427
774,428.921,0.2655
777,429.424,0.2672
780,429.924,0.2689
783,430.423,0.27051
786,430.927,0.272
789,431.426,0.27373
792,431.928,0.27529
795,432.428,0.27665
798,432.927,0.27838
801,433.426,0.28036
804,433.926,0.28221
807,434.423,0.28406
810,434.925,0.28577
813,435.424,0.28787
816,435.923,0.28986
819,436.421,0.29161
822,436.921,0.29361
825,437.416,0.29604
828,437.916,0.29793
831,438.415,0.30029
834,438.914,0.30251
837,439.412,0.30503
840,439.91,0.30718
843,440.41,0.30957
846,440.909,0.31232
849,441.406,0.31464
852,441.907,0.31742
855,442.405,0.32026
858,442.902,0.32305
861,443.398,0.32548
864,443.899,0.32833
867,444.394,0.33102
870,444.896,0.3345
873,445.393,0.33706
876,445.891,0.34003
879,446.388,0.34281
882,446.886,0.34554
885,447.386,0.34836
888,447.885,0.35145
891,448.38,0.3543
894,448.878,0.35707
897,449.373,0.35951
900,449.874,0.36242
903,450.372,0.36534
906,450.869,0.36777
909,451.367,0.37072
912,451.865,0.3734
915,452.361,0.37562
918,452.86,0.3785
921,453.358,0.38105
924,453.859,0.38374
927,454.358,0.38666
930,454.853,0.38939
933,455.351,0.39171
936,455.85,0.39395
939,456.349,0.39636
942,456.848,0.39841
945,457.343,0.40006
948,457.844,0.40223
951,458.341,0.40374
954,458.838,0.40539
957,459.336,0.40713
960,459.835,0.40859
963,460.334,0.4102
966,460.832,0.41137
969,461.331,0.41232
972,461.828,0.41343
975,462.327,0.41477
978,462.823,0.41584
981,463.322,0.41669
984,463.818,0.41792
987,464.32,0.41833
990,464.816,0.41966
993,465.314,0.42037
996,465.817,0.4214
999,466.313,0.42226
1002,466.808,0.42293
1005,467.309,0.42413
1008,467.804,0.42477
1011,468.305,0.42565
1014,468.8,0.42627
1017,469.298,0.4272
1020,469.799,0.42816
1023,470.3,0.42932
1026,470.794,0.43065
1029,471.29,0.43153
1032,471.79,0.43225
1035,472.29,0.43339
1038,472.787,0.43504
1041,473.286,0.43604
1044,473.784,0.43798
1047,474.279,0.43918
1050,474.78,0.44045
1053,475.276,0.44253
1056,475.775,0.44487
1059,476.275,0.44651
1062,476.775,0.4486
1065,477.271,0.4505
1068,477.77,0.45255
1071,478.27,0.45502
1074,478.766,0.45651
1077,479.265,0.45904
1080,479.765,0.46118
1083,480.264,0.46336
1086,480.763,0.46548
1089,481.264,0.46722
1092,481.762,0.4687
1095,482.262,0.47044
1098,482.761,0.47238
1101,483.26,0.47396
1104,483.758,0.47528
1107,484.257,0.47709
1110,484.756,0.47845
1113,485.256,0.4797
1116,485.755,0.48013
1119,486.253,0.48113
1122,486.751,0.48134
1125,487.251,0.48178
1128,487.748,0.48216
1131,488.248,0.48283
1134,488.747,0.4837
1137,489.248,0.48412
1140,489.743,0.48485
1143,490.241,0.48547
1146,490.742,0.48617
1149,491.24,0.48728
1152,491.74,0.48791
1155,492.238,0.48851
1158,492.738,0.48963
1161,493.237,0.49118
1164,493.737,0.49199
1167,494.235,0.4934
1170,494.734,0.49445
1173,495.231,0.49601
1176,495.73,0.49717
1179,496.232,0.49917
1182,496.728,0.50066
1185,497.231,0.50241
1188,497.729,0.50471
1191,498.229,0.50644
1194,498.727,0.50854
1197,499.226,0.51022
1200,499.725,0.51233
1203,500.226,0.51448
1206,500.725,0.51675
1209,501.223,0.51896
1212,501.723,0.5211
1215,502.22,0.5234
1218,502.718,0.52552
1221,503.219,0.52888
1224,503.72,0.53141
1227,504.218,0.5342
1230,504.717,0.53688
1233,505.216,0.53957
1236,505.714,0.54189
1239,506.213,0.54476
1242,506.713,0.54776
1245,507.212,0.55073
1248,507.71,0.55388
1251,508.209,0.55672
1254,508.71,0.55976
1257,509.207,0.56273
1260,509.706,0.56593
1263,510.207,0.56885
1266,510.705,0.57189
1269,511.203,0.57514
1272,511.703,0.5782
1275,512.202,0.5812
1278,512.701,0.5842
1281,513.2,0.58763
1284,513.701,0.59053
1287,514.199,0.5937
1290,514.699,0.59712
1293,515.198,0.60015
1296,515.697,0.60349
1299,516.197,0.60657
1302,516.695,0.61024
1305,517.195,0.61366
1308,517.697,0.61709
1311,518.194,0.62114
1314,518.695,0.62496
1317,519.195,0.62885
1320,519.695,0.63278
1323,520.197,0.63645
1326,520.695,0.64024
1329,521.194,0.64396
1332,521.696,0.64762
1335,522.193,0.65128
1338,522.692,0.65501
1341,523.195,0.65894
1344,523.693,0.66274
1347,524.192,0.66647
1350,524.691,0.6702
1353,525.192,0.67439
1356,525.69,0.67877
1359,526.191,0.68334
1362,526.692,0.68768
1365,527.193,0.69211
1368,527.69,0.6964
1371,528.19,0.70043
1374,528.692,0.70493
1377,529.189,0.70906
1380,529.689,0.71348
1383,530.186,0.71781
1386,530.688,0.72218
1389,531.186,0.72647
1392,531.686,0.73096
1395,532.186,0.7352
1398,532.683,0.74028
1401,533.185,0.74522
1404,533.686,0.75074
1407,534.183,0.756
1410,534.686,0.7609
1413,535.184,0.76615
1416,535.686,0.7712
1419,536.184,0.77631
1422,536.68,0.78156
1425,537.184,0.78756
1428,537.685,0.79302
1431,538.184,0.7986
1434,538.683,0.80386
1437,539.183,0.80994
1440,539.683,0.8147
1443,540.178,0.82014
1446,540.682,0.82538
1449,541.179,0.83075
1452,541.679,0.83583
1455,542.179,0.8416
1458,542.68,0.84679
1461,543.177,0.85215
1464,543.677,0.85764
1467,544.177,0.86308
1470,544.674,0.86877
1473,545.172,0.87451
1476,545.67,0.87936
1479,546.166,0.88459
1482,546.665,0.88986
1485,547.164,0.89512
1488,547.663,0.90113
1491,548.165,0.90726
1494,548.664,0.91245
1497,549.161,0.91844
1500,549.661,0.92466
1503,550.158,0.93044
1506,550.659,0.93572
1509,551.156,0.94147
1512,551.652,0.94738
1515,552.15,0.95293
1518,552.649,0.95872
1521,553.147,0.96565
1524,553.644,0.97222
1527,554.145,0.97906
1530,554.643,0.98571
1533,555.143,0.99223
1536,555.642,0.9992
1539,556.14,1.00561
1542,556.64,1.0128
1545,557.138,1.01946
1548,557.638,1.027
1551,558.14,1.03382
1554,558.637,1.04116
1557,559.136,1.04788
1560,559.636,1.05503
1563,560.133,1.06273
1566,560.634,1.06949
1569,561.135,1.07617
1572,561.631,1.08254
1575,562.131,1.0894
1578,562.629,1.09667
1581,563.131,1.10385
1584,563.626,1.11098
1587,564.129,1.11839
1590,564.624,1.12583
1593,565.124,1.13278
1596,565.623,1.13975
1599,566.121,1.14676
1602,566.621,1.1532
1605,567.119,1.15997
1608,567.617,1.16654
1611,568.117,1.17393
1614,568.614,1.18071
1617,569.115,1.1882
1620,569.614,1.19599
1623,570.112,1.20233
1626,570.613,1.20964
1629,571.113,1.21764
1632,571.611,1.22428
1635,572.112,1.23212
1638,572.611,1.23892
1641,573.108,1.24577
1644,573.609,1.25283
1647,574.108,1.25994
1650,574.606,1.26686
1653,575.106,1.27416
1656,575.604,1.28147
1659,576.105,1.28943
1662,576.606,1.29685
1665,577.104,1.30417
1668,577.607,1.31113
1671,578.105,1.31868
1674,578.604,1.32608
1677,579.103,1.33356
1680,579.604,1.342
1683,580.102,1.34978
1686,580.601,1.35894
1689,581.105,1.3682
1692,581.602,1.37763
1695,582.102,1.38711
1698,582.603,1.39669
1701,583.102,1.40601
1704,583.604,1.41576
1707,584.103,1.42559
1710,584.602,1.43514
1713,585.102,1.44538
1716,585.602,1.45503
1719,586.103,1.46494
1722,586.604,1.47585
1725,587.103,1.48651
1728,587.602,1.49685
1731,588.103,1.50826
1734,588.604,1.51923
1737,589.101,1.53098
1740,589.603,1.54335
1743,590.105,1.55526
1746,590.605,1.56784
1749,591.107,1.58022
1752,591.609,1.59323
1755,592.109,1.60715
1758,592.609,1.62065
1761,593.109,1.63472
1764,593.609,1.6493
1767,594.11,1.6635
1770,594.611,1.67849
1773,595.109,1.69301
1776,595.608,1.70829
1779,596.107,1.72346
1782,596.606,1.73976
1785,597.106,1.75596
1788,597.606,1.7734
1791,598.104,1.79001
1794,598.606,1.80721
1797,599.101,1.82556
1800,599.603,1.84425
1803,600.1,1.86349
1806,600.604,1.88275
1809,601.101,1.90233
1812,601.598,1.92202
1815,602.099,1.94282
1818,602.602,1.96446
1821,603.096,1.98513
1824,603.593,2.0069
1827,604.094,2.02937
1830,604.596,2.05219
1833,605.096,2.07631
1836,605.595,2.1008
1839,606.093,2.12525
1842,606.593,2.15036
1845,607.094,2.17672
1848,607.595,2.20299
1851,608.092,2.22982
1854,608.593,2.25754
1857,609.093,2.28548
1860,609.593,2.31387
1863,610.091,2.34351
1866,610.59,2.37324
1869,611.087,2.40388
1872,611.587,2.43572
1875,612.088,2.46838
1878,612.589,2.50125
1881,613.088,2.53513
1884,613.586,2.56968
1887,614.086,2.60416
1890,614.584,2.64042
1893,615.081,2.67689
1896,615.583,2.71445
1899,616.08,2.7535
1902,616.579,2.79248
1905,617.078,2.83209
1908,617.576,2.87266
1911,618.072,2.91334
1914,618.569,2.95518
1917,619.067,2.99693
1920,619.566,3.03985
1923,620.062,3.08348
1926,620.562,3.12864
1929,621.057,3.17395
1932,621.558,3.21954
1935,622.056,3.26553
1938,622.556,3.31285
1941,623.054,3.35992
1944,623.555,3.40852
1947,624.053,3.45792
1950,624.55,3.50807
1953,625.048,3.55897
1956,625.548,3.61109
1959,626.045,3.66463
1962,626.546,3.7186
1965,627.044,3.77321
1968,627.542,3.83143
1971,628.043,3.89556
1974,628.538,3.95201
1977,629.04,4.0074
1980,629.54,4.06226
1983,630.038,4.11514
1986,630.535,4.16825
1989,631.034,4.22293
1992,631.535,4.27602
1995,632.034,4.32635
1998,632.534,4.38118
2001,633.03,4.43386
2004,633.533,4.4887
2007,634.032,4.53699
2010,634.532,4.58441
2013,635.028,4.63154
2016,635.528,4.67701
2019,636.025,4.71521
2022,636.524,4.75286
2025,637.021,4.77224
2028,637.517,4.77786
2031,638.014,4.77394
2034,638.509,4.75303
2037,639.004,4.72024
2040,639.498,4.68899
2043,639.994,4.67713
2046,640.49,4.63492
2049,640.988,4.55642
2052,641.486,4.51284
2055,641.983,4.4627
2058,642.481,4.41549
2061,642.981,4.41363
2064,643.491,4.68281
2067,643.992,4.7792
2070,644.491,4.77606
2073,644.989,4.7169
2076,645.49,4.79925
2079,645.989,4.82078
2082,646.491,4.78661
2085,646.994,4.91821
2088,647.497,5.02155
2091,647.995,5.03729
2094,648.496,5.10808
2097,648.995,5.12535
2100,649.493,5.11035
2103,649.994,5.1309
2106,650.491,5.09857
2109,650.991,5.16781
2112,651.489,5.10066
2115,651.987,5.10811
2118,652.486,5.06577
2121,652.984,5.06531
2124,653.481,5.02593
2127,653.98,4.98235
2130,654.48,4.97966
2133,654.98,4.97552
2136,655.479,4.93704
2139,655.978,4.89998
2142,656.477,4.83869
2145,656.978,4.80905
2148,657.476,4.75904
2151,657.975,4.71669
2154,658.476,4.7118
2157,658.979,4.68263
2160,659.479,4.64197
2163,659.978,4.60817
2166,660.478,4.56687
2169,660.98,4.51621
2172,661.482,4.46408
2175,661.98,4.40497
2178,662.482,4.34134
2181,662.98,4.27472
2184,663.482,4.20847
2187,663.982,4.1434
2190,664.48,4.07075
2193,664.978,3.98938
2196,665.479,3.90437
2199,665.979,3.8295
2202,666.481,3.75983
2205,666.982,3.68044
2208,667.484,3.63019
2211,667.984,3.55614
2214,668.489,3.50001
2217,668.988,3.43773
2220,669.49,3.37375
2223,669.991,3.30204
2226,670.493,3.25788
2229,670.991,3.20102
2232,671.492,3.15779
2235,671.994,3.11848
2238,672.495,3.07788
2241,672.999,3.03946
2244,673.5,3.00147
2247,673.999,2.96135
2250,674.501,2.92517
2253,675.002,2.88904
2256,675.502,2.85312
2259,676.001,2.81667
2262,676.501,2.77904
2265,677.001,2.74527
2268,677.501,2.70983
2271,678,2.67573
2274,678.501,2.64294
2277,679,2.61218
2280,679.503,2.58321
2283,679.997,2.55405
2286,680.497,2.526
2289,680.996,2.49947
2292,681.497,2.47387
2295,681.994,2.4495
2298,682.495,2.42543
2301,682.996,2.40372
2304,683.494,2.38219
2307,683.995,2.36193
2310,684.494,2.34265
2313,684.992,2.3243
2316,685.489,2.30808
2319,685.99,2.29168
2322,686.49,2.27785
2325,686.99,2.26486
2328,687.487,2.25232
2331,687.987,2.24047
2334,688.482,2.22955
2337,688.982,2.21953
2340,689.478,2.21014
2343,689.974,2.20208
2346,690.474,2.19422
2349,690.973,2.18691
2352,691.471,2.17995
2355,691.968,2.1745
2358,692.466,2.169
2361,692.966,2.16398
2364,693.463,2.15968
2367,693.962,2.156
2370,694.461,2.15243
2373,694.961,2.1498
2376,695.46,2.14733
2379,695.959,2.146
2382,696.457,2.14438
2385,696.955,2.14278
2388,697.455,2.14256
2391,697.954,2.14211
2394,698.453,2.14191
2397,698.95,2.14308
2400,699.449,2.14328
2403,699.948,2.14381
2406,700.447,2.14412
2409,700.946,2.14439
2412,701.445,2.14456
2415,701.946,2.14545
2418,702.443,2.14586
2421,702.942,2.14672
2424,703.44,2.14834
2427,703.94,2.14945
2430,704.438,2.15147
2433,704.937,2.15337
2436,705.439,2.15598
2439,705.937,2.15858
2442,706.438,2.16174
2445,706.935,2.165
2448,707.434,2.16857
2451,707.934,2.17353
2454,708.431,2.17822
2457,708.931,2.18373
2460,709.432,2.18966
2463,709.929,2.19524
2466,710.429,2.20207
2469,710.925,2.20832
2472,711.426,2.21541
2475,711.923,2.22452
2478,712.421,2.23232
2481,712.919,2.24084
2484,713.418,2.24746
2487,713.919,2.25093
2490,714.414,2.25638
2493,714.912,2.26299
2496,715.411,2.27097
2499,715.91,2.27942
2502,716.409,2.28809
2505,716.908,2.29732
2508,717.404,2.30675
2511,717.902,2.31658
2514,718.4,2.32616
2517,718.897,2.33552
2520,719.395,2.34618
2523,719.893,2.35684
2526,720.389,2.36797
2529,720.886,2.3789
2532,721.385,2.38979
2535,721.882,2.40154
2538,722.379,2.41231
2541,722.88,2.42339
2544,723.377,2.43446
2547,723.874,2.44598
2550,724.372,2.45685
2553,724.871,2.46833
2556,725.369,2.47999
2559,725.867,2.49143
2562,726.366,2.50284
2565,726.867,2.51464
2568,727.365,2.52627
2571,727.866,2.5383
2574,728.364,2.54994
2577,728.865,2.56176
2580,729.367,2.57424
2583,729.864,2.58636
2586,730.364,2.59906
2589,730.864,2.61111
2592,731.365,2.62334
2595,731.866,2.63562
2598,732.366,2.6482
2601,732.865,2.66087
2604,733.363,2.67319
2607,733.863,2.68557
2610,734.362,2.6982
2613,734.861,2.7111
2616,735.362,2.72401
2619,735.86,2.7367
2622,736.363,2.74984
2625,736.864,2.76354
2628,737.364,2.77685
2631,737.862,2.79003
2634,738.364,2.80292
2637,738.862,2.81605
2640,739.361,2.82986
2643,739.862,2.84327
2646,740.359,2.85659
2649,740.858,2.86982
2652,741.358,2.88381
2655,741.857,2.89697
2658,742.359,2.91105
2661,742.856,2.9246
2664,743.357,2.93842
2667,743.857,2.95286
2670,744.355,2.9661
2673,744.856,2.98019
2676,745.358,2.99354
2679,745.858,3.00803
2682,746.357,3.02198
2685,746.857,3.03608
2688,747.361,3.05005
2691,747.86,3.06529
2694,748.361,3.07903
2697,748.863,3.09309
2700,749.362,3.10744
2703,749.864,3.12181
2706,750.366,3.13617
2709,750.871,3.15059
2712,751.371,3.16486
2715,751.872,3.17922
2718,752.376,3.19337
2721,752.879,3.20778
2724,753.381,3.22285
2727,753.883,3.23784
2730,754.384,3.25153
2733,754.888,3.26647
2736,755.389,3.28127
2739,755.895,3.29581
2742,756.397,3.31084
2745,756.898,3.3251
2748,757.402,3.34061
2751,757.905,3.35567
2754,758.405,3.37046
2757,758.909,3.38552
2760,759.409,3.40026
2763,759.911,3.4159
2766,760.413,3.43104
2769,760.915,3.44662
2772,761.414,3.46117
2775,761.917,3.47639
2778,762.416,3.49138
2781,762.918,3.50682
2784,763.419,3.52145
2787,763.918,3.5366
2790,764.418,3.55167
2793,764.918,3.5666
2796,765.422,3.58176
2799,765.92,3.59681
2802,766.42,3.61213
2805,766.92,3.62722
2808,767.418,3.64194
2811,767.92,3.65775
2814,768.421,3.67283
2817,768.921,3.68767
2820,769.42,3.70332
2823,769.92,3.7187
2826,770.416,3.73357
2829,770.913,3.74947
2832,771.414,3.76371
2835,771.914,3.7792
2838,772.413,3.79433
2841,772.911,3.80922
2844,773.411,3.82469
2847,773.907,3.84011
2850,774.408,3.85548
2853,774.907,3.8695
2856,775.406,3.88526
2859,775.906,3.90052
2862,776.408,3.91519
2865,776.906,3.93075
2868,777.405,3.94613
2871,777.904,3.96078
2874,778.406,3.97574
2877,778.905,3.99136
2880,779.404,4.00661
2883,779.904,4.02146
2886,780.402,4.03629
2889,780.904,4.05135
2892,781.402,4.06589
2895,781.903,4.08021
2898,782.405,4.09556
2901,782.906,4.11063
2904,783.407,4.12555
2907,783.908,4.14019
2910,784.41,4.15519
2913,784.912,4.16981
2916,785.415,4.18466
2919,785.918,4.19918
2922,786.417,4.21368
2925,786.919,4.22904
2928,787.421,4.24362
2931,787.918,4.25891
2934,788.421,4.27365
2937,788.923,4.28869
2940,789.424,4.30283
2943,789.926,4.31776
2946,790.426,4.33201
2949,790.928,4.34738
2952,791.431,4.3621
2955,791.931,4.37722
2958,792.434,4.39197
2961,792.935,4.40661
2964,793.435,4.42147
2967,793.937,4.4366
2970,794.438,4.4508
2973,794.937,4.46626
2976,795.439,4.48085
2979,795.939,4.49602
2982,796.439,4.51068
2985,796.94,4.52542
2988,797.441,4.53946
2991,797.943,4.55463
2994,798.443,4.56929
2997,798.944,4.58139
3000,799.446,4.59612
3003,799.948,4.61092
3006,800.448,4.6263
3009,800.95,4.64144
3012,801.451,4.65593
3015,801.951,4.67055
3018,802.452,4.68483
3021,802.951,4.69938
3024,803.452,4.71382
3027,803.953,4.72838
3030,804.455,4.74298
3033,804.956,4.7582
3036,805.456,4.77155
3039,805.954,4.78185
3042,806.456,4.7963
3045,806.958,4.81047
3048,807.458,4.82467
3051,807.958,4.83782
3054,808.458,4.85208
3057,808.959,4.86661
3060,809.463,4.88048
3063,809.962,4.89507
3066,810.464,4.90891
3069,810.966,4.92243
3072,811.469,4.93625
3075,811.974,4.94978
3078,812.475,4.96394
3081,812.976,4.97717
3084,813.477,4.99116
3087,813.978,5.00464
3090,814.482,5.01851
3093,814.981,5.03218
3096,815.483,5.04652
3099,815.986,5.06085
3102,816.486,5.07421
3105,816.99,5.08846
3108,817.49,5.10143
3111,817.994,5.11542
3114,818.494,5.12922
3117,818.993,5.14215
3120,819.496,5.15542
3123,819.998,5.16885
3126,820.5,5.18255
3129,821,5.19569
3132,821.5,5.20835
3135,821.998,5.2211