File: PMMA/Calibration_Data/TIFP/TIFP_Cone_25kW_2.csv
Time,Mass,HRR,Back Surface Temperature 1,Back Surface Temperature 2
[s],[g],[kW/m2],[K],[K]
0,71.72,2.91282,298.15,299.25
1,71.7173,2.73479,298.15,299.25
2,71.66126,2.09727,298.15,299.25
3,71.6407,1.76827,298.15,299.25
4,71.6008,1.69116,298.15,299.25
5,71.58721,1.81142,298.15,299.25
6,71.34995,2.0481,298.15,299.25
7,71.2946,2.3598,298.15,299.25
8,71.22134,2.17758,298.15,299.25
9,71.2201,1.84882,298.25,299.25
10,71.238,1.74915,298.25,299.25
11,71.2184,1.83669,298.25,299.25
12,71.1708,2.00149,298.25,299.35
13,71.0692,2.20852,298.35,299.35
14,71.0179,1.88543,298.35,299.35
15,71.0854,1.922,298.45,299.35
16,71.002,2.49806,298.45,299.45
17,70.9416,2.5435,298.55,299.55
18,70.9413,3.72389,298.65,299.65
19,70.9332,3.98811,298.75,299.65
20,70.9114,3.6664,298.75,299.75
21,70.8697,3.50892,298.95,299.85
22,70.8784,3.35342,299.15,300.05
23,70.9176,4.06427,299.45,300.05
24,70.91769,4.58993,299.45,300.25
25,70.8604,5.42048,299.75,300.55
26,70.8628,5.1531,300.15,300.85
27,70.872,5.6239,301.55,301.15
28,70.86942,6.59469,301.55,301.15
29,70.8573,7.09047,301.55,301.45
30,70.8259,6.60351,302.65,301.85
31,70.8123,6.28761,303.35,303.35
32,70.81423,6.16915,303.35,303.35
33,70.8248,5.98893,304.05,303.35
34,70.8362,6.02769,304.75,304.45
35,70.8153,6.15145,305.55,305.05
36,70.8041,6.47773,305.55,305.05
37,70.8197,6.39931,306.25,305.65
38,70.8114,5.33034,307.15,306.25
39,70.8012,5.21885,307.95,306.95
40,70.7947,5.41251,308.95,306.95
41,70.7666,4.61683,308.95,307.65
42,70.7852,4.58392,309.85,308.35
43,70.7782,4.22216,310.85,309.25
44,70.7865,3.89915,311.85,309.25
45,70.8004,4.7991,311.85,310.05
46,70.7493,5.77458,312.85,310.75
47,70.8123,6.37922,313.95,311.65
48,70.8309,6.82055,314.95,312.55
49,70.84816,6.58286,314.95,312.55
50,70.8437,6.00619,316.05,313.35
51,70.82758,5.22996,317.15,314.25
52,70.8001,6.1382,318.25,315.15
53,70.7958,6.69811,318.25,315.15
54,70.8051,6.68421,319.35,316.05
55,70.8158,6.3599,320.55,316.95
56,70.8241,6.21945,321.65,317.95
57,70.8313,6.12951,322.85,317.95
58,70.8267,6.19653,322.85,318.95
59,70.8278,6.56708,324.05,319.85
60,70.8377,6.43961,325.25,320.85
61,70.8514,7.04946,326.45,320.85
62,70.8548,6.78074,326.45,321.75
63,70.8415,7.53845,327.65,322.85
64,70.8444,7.93399,328.95,323.85
65,70.8584,8.20885,330.05,323.85
66,70.8591,9.2318,330.05,324.85
67,70.8546,8.89933,331.35,325.75
68,70.8844,8.70918,332.55,326.85
69,70.9508,8.8019,333.85,327.85
70,70.905,9.6223,333.85,327.85
71,70.9084,9.82799,335.15,328.85
72,70.9097,10.3472,336.35,329.85
73,70.9082,10.7586,337.55,330.85
74,70.9098,11.5794,337.55,330.85
75,70.9403,11.636,338.85,331.85
76,70.9528,12.8319,340.15,332.95
77,70.9272,13.18885,341.35,333.95
78,70.9231,11.9463,341.35,333.95
79,70.9504,12.0299,342.55,335.05
80,70.8717,11.5571,343.85,336.05
81,70.9358,11.6608,345.05,336.85
82,70.97218,12.7354,346.35,336.85
83,70.9741,13.2057,346.35,337.85
84,70.9776,13.3196,347.65,338.75
85,70.978,12.9238,348.85,339.65
86,70.9923,12.8341,350.15,339.65
87,70.9913,11.9267,350.15,340.65
88,71.0113,10.633,351.35,341.55
89,71.0328,9.40961,352.55,342.45
90,71.0487,11.7526,353.85,342.45
91,71.0585,16.6285,353.85,343.55
92,71.0676,23.6883,355.15,344.45
93,71.103,33.0995,356.35,345.45
94,71.0839,42.0888,357.55,346.25
95,71.0669,53.1799,357.55,346.25
96,71.1034,64.3128,358.85,347.25
97,71.1159,84.7347,360.15,348.25
98,71.0896,108.788,361.35,349.35
99,71.068,131.844,361.35,349.35
100,71.0633,158.176,362.55,350.35
101,70.9947,176.494,363.75,351.35
102,70.9172,202.601,364.95,352.35
103,70.851,224.684,366.15,352.35
104,70.77286,233.463,366.15,353.25
105,70.6943,248.618,367.35,354.25
106,70.6072,257.112,368.55,355.25
107,70.5316,268.211,369.65,355.25
108,70.4395,275.503,369.65,356.15
109,70.34704,287.943,370.85,357.15
110,70.2302,301.483,371.95,358.05
111,70.1272,309.229,373.05,358.05
112,70.0323,310.671,373.05,359.05
113,69.9311,326.541,374.35,360.05
114,69.7986,315.31,375.45,360.95
115,69.6845,320.092,376.55,361.95
116,69.6138,330.522,376.55,361.95
117,69.487,327.419,377.75,362.85
118,69.3509,340.855,378.85,363.85
119,69.2297,324.058,380.05,364.85
120,69.1248,330.73,380.05,364.85
121,69.0056,334.679,381.25,365.75
122,68.887,337.675,382.35,366.75
123,68.7634,337.803,383.55,367.75
124,68.648,347.468,383.55,367.75
125,68.554,345.736,384.75,368.75
126,68.43907,351.059,385.95,369.75
127,68.32182,352.314,387.05,370.85
128,68.1878,348.909,388.35,370.85
129,68.0525,366.592,388.35,371.75
130,67.9058,360.969,389.65,372.75
131,67.773,349.077,390.85,373.85
132,67.6403,357.279,392.05,373.85
133,67.4869,346.83,392.05,374.95
134,67.3779,354.556,393.25,375.95
135,67.2274,356.305,394.55,377.05
136,67.08743,355.159,395.65,377.05
137,66.9492,368.252,396.85,378.05
138,66.7938,359.051,396.85,379.05
139,66.64652,352.38,398.05,380.05
140,66.5121,359.938,399.35,381.05
141,66.3841,360.268,400.55,381.05
142,66.2528,354.229,400.55,382.05
143,66.12388,358.72,401.75,383.05
144,66.0099,355.139,403.05,384.05
145,66.0893,370.914,404.15,384.05
146,66.0523,380.284,404.15,385.05
147,65.9159,377.631,405.45,386.05
148,65.7779,370.46,406.65,386.95
149,65.6301,373.434,407.95,386.95
150,65.49761,370.694,407.95,387.95
151,65.3635,369.707,409.15,388.85
152,65.2251,372.981,410.45,390.05
153,65.0791,398.222,411.55,390.05
154,64.9353,386.273,411.55,391.15
155,64.8203,375.792,412.75,392.25
156,64.6915,386.225,414.05,393.25
157,64.5542,402.853,415.25,393.25
158,64.4124,388.071,416.45,394.35
159,64.2707,388.888,416.45,395.45
160,64.1311,384.094,417.65,396.55
161,63.9966,382.884,418.95,397.65
162,63.8749,383.403,420.15,397.65
163,63.7293,372.902,420.15,398.75
164,63.5851,390.562,421.35,399.95
165,63.4579,387.766,422.65,401.05
166,63.3169,402.776,423.85,401.05
167,63.1595,418.829,423.85,402.15
168,63.0366,396.413,425.05,403.25
169,62.872,400.62,426.25,404.45
170,62.7173,401.841,427.45,405.35
171,62.5892,402.09,427.45,405.35
172,62.4604,388.637,428.65,406.45
173,62.3123,386.819,429.85,407.55
174,62.1595,385.462,430.95,407.55
175,61.9842,395.952,430.95,408.65
176,61.865,392.306,432.15,409.65
177,61.7521,392.992,433.35,410.95
178,61.63705,401.511,434.55,412.05
179,61.4875,385.973,434.55,412.05
180,61.37302,380.075,435.75,413.25
181,61.2514,389.211,436.95,414.25
182,61.1141,388.652,438.15,415.25
183,60.9626,386.129,438.15,415.25
184,60.8112,399.287,439.35,416.15
185,60.70315,398.083,440.45,417.25
186,60.52413,416.493,441.65,418.35
187,60.3827,412.86,442.75,418.35
188,60.2469,415.629,442.75,419.35
189,60.1183,414.298,443.95,420.35
190,59.9826,396.443,445.15,421.45
191,59.8495,404.482,446.35,421.45
192,59.6997,411.362,446.35,422.55
193,59.5695,400.375,447.55,423.55
194,59.4379,407.1,448.75,424.65
195,59.3074,418.774,449.95,424.65
196,59.164,425.539,449.95,425.75
197,59.0238,408.239,451.15,427.05
198,58.8393,412.021,452.45,428.55
199,58.7012,410.767,453.65,429.75
200,58.5554,399.952,453.65,429.75
201,58.4089,414.366,454.95,430.95
202,58.27,419.757,456.15,432.25
203,58.1748,410.917,457.35,433.45
204,58.0213,418.372,457.35,433.45
205,57.845,413.621,458.45,434.75
206,57.68083,418.957,459.55,435.95
207,57.5288,419.35,460.75,436.75
208,57.4237,416.051,462.05,436.75
209,57.2836,413.326,462.05,437.95
210,57.1354,413.936,463.15,439.05
211,56.99645,410.57,464.15,440.45
212,56.8481,410.372,465.15,440.45
213,56.7201,432.974,465.15,441.65
214,56.5645,433.207,466.15,442.85
215,56.41,431.592,467.15,443.95
216,56.2559,421.197,468.15,443.95
217,56.08765,423.673,468.15,445.05
218,55.928,414.467,469.25,446.25
219,55.7786,422.024,470.25,447.75
220,55.6372,428.609,471.25,448.95
221,55.4731,411.501,471.25,448.95
222,55.3318,418.156,472.15,450.45
223,55.2069,434.281,472.95,451.45
224,55.0351,428.188,473.75,452.85
225,54.8551,438.261,473.75,452.85
226,54.6985,435.809,474.45,454.25
227,54.5657,439.963,475.15,455.55
228,54.4113,436.202,475.85,456.75
229,54.2343,437.242,476.55,456.75
230,54.04953,445.741,476.55,458.05
231,53.8787,433.676,477.25,459.45
232,53.7455,442.334,478.05,460.75
233,53.5778,425.886,478.75,460.75
234,53.4388,436.982,478.75,462.05
235,53.2985,430.719,478.75,463.25
236,53.1465,438.582,479.45,464.55
237,52.9881,444.422,479.45,464.55
238,52.8213,432.834,479.45,465.95
239,52.6601,434.577,480.65,467.05
240,52.5228,435.116,481.45,467.95
241,52.3732,436.337,482.35,469.25
242,52.1768,434.037,482.35,469.25
243,52.0102,447.618,483.35,470.45
244,51.8384,444.261,484.25,471.65
245,51.6766,440.002,485.25,472.85
246,51.522,445.812,485.25,472.85
247,51.38364,435.087,486.35,474.05
248,51.214,432.598,487.35,475.35
249,51.0349,414.964,488.45,476.55
250,50.8843,424.204,488.45,476.55
251,50.8397,440.714,489.45,477.85
252,50.691,447.893,490.55,479.15
253,50.54329,443.569,491.65,480.35
254,50.3892,448.163,492.75,480.35
255,50.1916,469.009,492.75,481.65
256,49.9874,460.967,493.85,482.75
257,49.80342,451.386,495.05,483.85
258,49.6348,450.272,496.15,483.85
259,49.4538,464.338,496.15,485.05
260,49.281,454.507,497.35,486.35
261,49.1152,461.439,498.35,487.55
262,48.909,463.566,499.45,488.75
263,48.7622,461.225,499.45,488.75
264,48.603,467.223,500.55,490.05
265,48.5048,455.431,501.65,491.35
266,48.3818,464.02,502.75,492.45
267,48.2081,470.218,502.75,492.45
268,48.0338,475.354,503.85,493.45
269,47.84387,469.567,504.95,494.35
270,47.677,466.789,506.05,495.35
271,47.4962,480.911,507.25,495.35
272,47.3308,468.055,507.25,496.25
273,47.1406,471.088,508.35,497.15
274,46.9864,456.854,509.45,498.25
275,46.8383,479.744,510.65,498.25
276,46.6027,488.788,510.65,499.25
277,46.3839,493.75,511.85,500.35
278,46.2023,496.721,513.05,501.45
279,46.0286,487.616,514.25,502.45
280,45.8659,486.488,514.25,502.45
281,46.0411,478.814,515.45,503.55
282,46.2944,496.537,516.65,504.85
283,46.2703,491.506,517.85,504.85
284,45.9422,481.178,517.85,505.95
285,45.7503,505.581,518.95,507.15
286,45.5584,492.311,520.25,508.25
287,45.3663,504.171,521.35,508.25
288,45.1594,518.697,522.65,509.35
289,44.9991,515.222,522.65,510.45
290,44.8123,517.603,523.85,511.45
291,44.6413,487.521,525.15,512.55
292,44.4836,520.615,525.15,512.55
293,44.3026,494.394,526.35,513.45
294,44.1217,510.448,527.55,514.45
295,43.9519,501.062,528.75,515.45
296,43.76114,511.7675,528.75,515.45
297,43.5659,495.164,529.75,516.45
298,43.393,508.271,531.05,517.55
299,43.2527,511.924,532.25,518.55
300,43.10344,495.061,533.45,518.55
301,42.946,489.053,533.45,519.65
302,42.7799,493.838,534.55,520.75
303,42.5808,485.776,535.85,521.85
304,42.4069,498.638,536.95,521.85
305,42.23857,497.19,536.95,522.85
306,42.0665,500.21,538.25,523.95
307,41.9013,506.175,539.45,525.05
308,41.7186,478.688,540.75,526.25
309,41.5569,491.39,540.75,526.25
310,41.3815,495.78,541.95,527.35
311,41.21218,501.75,543.25,528.45
312,41.0541,504.868,544.45,529.55
313,40.85223,508.457,545.75,529.55
314,40.6746,485.716,545.75,530.85
315,40.5089,488.083,547.05,531.95
316,40.3644,507.45,548.35,533.25
317,40.2366,510.979,549.75,533.25
318,40.0828,511.504,549.75,534.65
319,39.9306,496.281,551.15,535.95
320,39.7661,504.282,552.45,537.35
321,39.6139,512.185,553.95,538.65
322,39.4472,515.163,553.95,538.65
323,39.2528,524.425,555.35,540.15
324,39.0878,518.739,556.55,541.65
325,38.9084,510.889,557.95,541.65
326,38.7415,508.643,557.95,543.15
327,38.56679,506.88,559.35,544.15
328,38.3907,522.38,560.75,545.35
329,38.2251,506.704,562.15,545.35
330,38.0639,499.803,563.65,547.35
331,37.8917,522.821,563.65,548.25
332,37.7085,501.119,565.05,549.75
333,37.5244,508.102,566.45,552.35
334,37.3346,509.254,566.45,552.35
335,37.16,524.187,567.95,553.75
336,36.989,520.71,569.35,555.05
337,36.8352,491.029,570.75,558.25
338,36.6635,507.253,570.75,558.25
339,36.5024,502.695,572.15,560.05
340,36.3123,514.694,573.45,561.75
341,36.1285,523.866,574.85,563.65
342,35.9475,521.71,576.05,563.65
343,35.7654,525.971,576.05,565.35
344,35.5724,530.368,577.35,567.15
345,35.3895,523.529,578.65,568.85
346,35.2181,516.082,579.95,570.75
347,35.0332,530.977,579.95,570.75
348,34.8491,518.138,581.25,572.55
349,34.6788,505.248,582.55,574.35
350,34.5102,529.218,583.85,576.15
351,34.3334,525.384,583.85,576.15
352,34.1258,544.571,585.25,578.05
353,33.9874,549.286,586.55,579.95
354,33.8306,552.837,587.85,581.85
355,33.631,517.686,589.15,581.85
356,33.4305,520.727,589.15,583.55
357,33.2311,535.257,590.45,585.25
358,33.0728,524.436,591.85,586.75
359,32.8949,514.768,593.05,586.75
360,32.718,530.17,593.05,588.15
361,32.5383,530.416,594.55,589.55
362,32.3525,534.813,595.95,590.85
363,32.17412,538.957,597.15,592.45
364,31.9929,543.089,597.15,592.45
365,31.814,523.824,598.55,593.85
366,31.6249,511.708,599.95,595.35
367,31.4305,546.028,601.35,595.35
368,31.2437,542.537,601.35,596.65
369,31.0371,554.386,602.75,597.85
370,30.8502,542.838,604.05,599.25
371,30.6997,519.405,605.55,599.25
372,30.5036,545.742,607.05,600.55
373,30.33323,513.753,607.05,601.95
374,30.153,524.671,608.45,603.25
375,29.9615,561.858,609.95,604.55
376,29.7789,531.792,609.95,604.55
377,29.60289,542.486,611.35,605.95
378,29.4113,545.64,612.85,607.25
379,29.2129,571.55,614.35,608.45
380,29.0313,538.97,614.35,608.45
381,28.8529,542.598,615.75,609.65
382,28.6792,522.067,617.15,610.95
383,28.49,538.195,618.45,612.55
384,28.3412,527.386,619.65,612.55
385,28.2145,543.855,619.65,614.25
386,28.0454,532.488,620.95,615.55
387,27.85554,527.519,622.45,617.15
388,27.6571,522.374,623.95,617.15
389,27.4526,551.097,623.95,618.45
390,27.2323,548.773,625.45,619.95
391,27.0461,537.817,626.95,621.15
392,26.8462,548.083,628.55,622.35
393,26.6453,551.827,628.55,622.35
394,26.4491,548.163,630.45,623.45
395,26.2481,553.439,632.35,624.25
396,26.0516,561.808,634.75,625.45
397,25.8454,560.321,637.55,625.45
398,25.63467,552.544,637.55,626.25
399,25.419,554.435,640.65,627.25
400,25.22755,547.925,645.05,628.25
401,25.0257,568.868,,
402,24.8362,551.761,,
403,24.62735,543.812,,
404,24.4061,548.189,,
405,24.1817,558.097,,
406,24.02282,563.802,,
407,23.83929,557.767,,
408,23.6024,560.357,,
409,23.378,540.036,,
410,23.1763,551.427,,
411,22.9619,536.418,,
412,22.6801,539.278,,
413,22.6881,547.93,,
414,22.97963,526.661,,
415,22.8849,540.283,,
416,22.6258,527.007,,
417,22.4891,546.777,,
418,22.3351,536.299,,
419,22.1749,533.543,,
420,22.086,518.973,,
421,21.9141,528.94,,
422,21.684,541.729,,
423,21.449,553.358,,
424,21.2336,520.462,,
425,21.0339,531.722,,
426,20.8517,524.377,,
427,20.6806,551.58,,
428,20.5024,528.051,,
429,20.3219,516.993,,
430,20.136,538.459,,
431,19.9549,524.99,,
432,19.7453,509.198,,
433,19.5567,505.395,,
434,19.3417,495.836,,
435,19.1423,498.553,,
436,18.9768,475.636,,
437,18.8217,479.635,,
438,18.6242,465.947,,
439,18.3966,454.729,,
440,18.21806,439.267,,
441,18.07983,437.916,,
442,17.9241,420.639,,
443,17.7829,412.545,,
444,17.6415,410.521,,
445,17.4985,402.765,,
446,17.3714,396.603,,
447,17.2682,382.149,,
448,17.1732,369.391,,
449,17.0592,370.209,,
450,16.9139,361.067,,
451,16.6657,354.946,,
452,16.5215,335.443,,
453,16.4068,331.07,,
454,16.4868,326.272,,
455,16.4769,314.705,,
456,16.39248,295.808,,
457,16.2986,290.585,,
458,16.1799,295.308,,
459,16.0617,285.295,,
460,15.9576,274.104,,
461,15.8443,264.279,,
462,15.7566,251.844,,
463,15.6677,250.735,,
464,15.5434,246.309,,
465,15.4153,238.962,,
466,15.3062,229.896,,
467,15.2048,224.09,,
468,15.0561,225.409,,
469,14.9552,225.209,,
470,14.9101,224.355,,
471,14.7839,220.142,,
472,14.58811,218.086,,
473,14.4143,216.987,,
474,14.33098,212.011,,
475,14.362,204.487,,
476,14.2952,204.651,,
477,14.2039,198.203,,
478,14.1046,191.196,,
479,14.0182,190.243,,
480,14.0585,184.928,,
481,13.9097,181.76,,
482,13.805,176.013,,
483,13.7419,170.183,,
484,13.6643,168.236,,
485,13.6196,160.879,,
486,13.5703,160.227,,
487,13.52022,156.651,,
488,13.4536,153.902,,
489,13.4122,155.889,,
490,13.3598,152.851,,
491,13.3046,149.266,,
492,13.2519,151.273,,
493,13.2034,151.435,,
494,13.1585,150.203,,
495,13.107,147.53,,
496,13.0587,146.297,,
497,13.007,143.911,,
498,12.943,140.501,,
499,12.8909,141.308,,
500,12.8334,138.046,,
501,12.797,135.182,,
502,12.7605,134.011,,
503,12.7126,132.84,,
504,12.6487,132.741,,
505,12.5977,127.511,,
506,12.5676,130.632,,
507,12.5121,128.124,,
508,12.45012,127.873,,
509,12.3962,127.111,,
510,12.3491,125.121,,
511,12.2987,124.08,,
512,12.2549,125.015,,
513,12.2049,125.287,,
514,12.1519,122.073,,
515,12.0906,122.407,,
516,12.0447,119.918,,
517,12.0054,117.908,,
518,11.95683,121.297,,
519,11.9335,124.004,,
520,11.88947,119.352,,
521,11.8372,120.785,,
522,11.7987,118.295,,
523,11.7667,116.003,,
524,11.7248,116.581,,
525,11.6622,118.153,,
526,11.6214,120.625,,
527,11.57454,118.305,,
528,11.5351,116.663,,
529,11.5065,116.905,,
530,11.4476,115.428,,
531,11.3955,116.588,,
532,11.3608,114.462,,
533,11.3327,113.609,,
534,11.28155,110.994,,
535,11.2399,113.623,,
536,11.1966,115.376,,
537,11.1516,114.044,,
538,11.1193,112.736,,
539,11.0827,112.214,,
540,11.0289,111.313,,
541,10.9758,111.21,,
542,10.9335,111.794,,
543,10.9007,110.92,,
544,10.8547,112.719,,
545,10.8257,110.141,,
546,10.7994,106.289,,
547,10.7769,106.366,,
548,10.743,106.508,,
549,10.6859,105.44,,
550,10.6344,105.1526,,
551,10.5871,105.878,,
552,10.5496,104.133,,
553,10.5132,105.54,,
554,10.4812,105.995,,
555,10.4429,103.942,,
556,10.4023,103.89,,
557,10.3714,101.884,,
558,10.3331,100.969,,
559,10.3138,103.359,,
560,10.3044,103.511,,
561,10.2973,101.576,,
562,10.2828,99.8311,,
563,10.5081,103.156,,
564,10.6154,98.0891,,
565,10.5958,98.2563,,
566,10.5546,98.4024,,
567,10.5314,98.3947,,
568,10.4834,98.6044,,
569,10.4504,97.481,,
570,10.4129,95.8558,,
571,10.3654,95.8091,,
572,10.3252,96.6748,,
573,10.2911,93.2068,,
574,10.2609,95.0761,,
575,10.2437,95.5811,,
576,10.2065,97.5973,,
577,10.1572,95.4686,,
578,10.1204,95.5526,,
579,10.1,95.913,,
580,10.06771,95.2799,,
581,10.0146,93.592,,
582,9.972258,93.3539,,
583,9.916052,92.9225,,
584,9.885487,93.003,,
585,9.856868,93.1023,,
586,9.819885,92.3828,,
587,9.774136,94.6876,,
588,9.732983,93.2912,,
589,9.699183,91.367,,
590,9.682449,93.5422,,
591,9.664557,94.3326,,
592,9.615465,94.5466,,
593,9.561746,95.9419,,
594,9.550364,95.1545,,
595,9.525868,95.3476,,
596,9.485591,94.6151,,
597,9.464236,91.8155,,
598,9.422376,90.7512,,
599,9.38471,90.0388,,
600,9.355269,88.1375,,
601,9.313387,89.2378,,
602,9.271373,89.4439,,
603,9.233483,89.6204,,
604,9.21138,88.5038,,
605,9.195703,90.7829,,
606,9.154628,91.549,,
607,9.120568,89.4334,,
608,9.09144,90.0695,,
609,9.07529,88.3562,,
610,9.03059,89.5649,,
611,8.987028,91.1607,,
612,8.956507,91.147,,
613,8.950201,87.9165,,
614,8.982038,90.2929,,
615,8.969004,90.9962,,
616,8.858645,91.0751,,
617,8.829515,89.2353,,
618,8.80695,91.5371,,
619,8.777676,88.6459,,
620,8.715116,88.2275,,
621,8.671859,87.2614,,
622,8.665816,88.2893,,
623,8.660277,88.8558,,
624,8.625428,90.3342,,
625,8.58881,89.463,,
626,8.563497,88.652,,
627,8.533124,86.7059,,
628,8.503956,85.2611,,
629,8.434647,85.5326,,
630,8.410914,83.8696,,
631,8.407365,81.5777,,
632,8.372558,80.0941,,
633,8.347946,81.8025,,
634,8.319852,83.7142,,
635,8.300178,81.3815,,
636,8.267042,81.1601,,
637,8.236168,80.5436,,
638,8.23995,79.8871,,
639,8.232258,80.1944,,
640,8.168164,81.0424,,
641,8.125017,79.0323,,
642,8.091136,80.8906,,
643,8.071702,79.9796,,
644,8.041858,79.8011,,
645,8.015459,80.6793,,
646,7.986315,80.2418,,
647,7.961521,79.9701,,
648,7.943219,81.3644,,
649,7.905057,82.1127,,
650,7.867578,81.4349,,
651,7.829125,79.9201,,
652,7.810381,80.995,,
653,7.780985,84.1062,,
654,7.738071,82.8318,,
655,7.723523,81.1855,,
656,7.696958,81.1803,,
657,7.673998,79.4838,,
658,7.643243,80.9997,,
659,7.606443,81.0518,,
660,7.602453,81.5014,,
661,7.579341,80.474,,
662,7.539659,81.6389,,
663,7.50416,81.509,,
664,7.46464,81.9889,,
665,7.449874,82.5893,,
666,7.432636,82.195,,
667,7.374683,82.3398,,
668,7.342635,80.0619,,
669,7.33231,82.3428,,
670,7.328556,83.5687,,
671,7.298601,81.8037,,
672,7.224939,83.3552,,
673,7.215737,82.8166,,
674,7.213717,82.0064,,
675,7.157943,82.8108,,
676,7.120741,83.2405,,
677,7.102841,83.4761,,
678,7.047232,80.644,,
679,6.99676,82.1784,,
680,6.977235,82.3618,,
681,7.000405,80.943,,
682,6.978166,82.0857,,
683,6.950514,81.7965,,
684,6.918022,82.1951,,
685,6.892562,81.9142,,
686,6.851604,82.5127,,
687,6.792741,83.2005,,
688,6.771248,82.0075,,
689,6.749757,82.3199,,
690,6.730968,80.2137,,
691,6.721444,80.2383,,
692,6.700353,83.764,,
693,6.681228,82.4168,,
694,6.639136,80.3847,,
695,6.592841,80.6534,,
696,6.573475,79.8614,,
697,6.54216,79.9214,,
698,6.509901,80.2411,,
699,6.46792,80.6723,,
700,6.443556,81.5682,,
701,6.425058,79.0285,,
702,6.394069,80.619,,
703,6.370767,80.5825,,
704,6.323278,80.717,,
705,6.28955,79.58,,
706,6.257672,78.578,,
707,6.246148,77.4923,,
708,6.236872,75.7905,,
709,6.203229,75.8738,,
710,6.161701,75.1153,,
711,6.1258,75.9327,,
712,6.065902,75.8146,,
713,6.045658,79.5466,,
714,6.017996,79.3394,,
715,6.019278,81.4252,,
716,5.999924,83.5156,,
717,5.956845,84.0648,,
718,5.940566,82.9886,,
719,5.926915,82.2941,,
720,5.872749,81.5497,,
721,5.827896,79.0512,,
722,5.824901,80.1721,,
723,5.81614,77.4008,,
724,5.779142,76.7046,,
725,5.758868,73.6869,,
726,5.760053,75.6227,,
727,5.727999,72.9639,,
728,5.675272,73.7713,,
729,5.654564,71.9876,,
730,5.669091,73.2299,,
731,5.603416,70.787,,
732,5.57487,69.9236,,
733,5.566332,69.6447,,
734,5.548287,68.6123,,
735,5.525446,68.1511,,
736,5.516946,67.7478,,
737,5.50056,65.1397,,
738,5.426127,66.4177,,
739,5.394499,66.306,,
740,5.440058,64.4502,,
741,5.44616,63.9456,,
742,5.369753,63.6157,,
743,5.331139,63.823,,
744,5.334086,64.1258,,
745,5.310086,63.4004,,
746,5.282898,61.6032,,
747,5.269872,62.4238,,
748,5.238196,60.7806,,
749,5.21479,61.5615,,
750,5.197303,59.2811,,
751,5.171944,61.1139,,
752,5.155321,60.215,,
753,5.144061,59.3832,,
754,5.121785,57.9503,,
755,5.085885,57.6559,,
756,5.094984,57.7747,,
757,5.096522,57.5578,,
758,5.051852,56.8234,,
759,5.02271,55.184,,
760,5.028604,56.4209,,
761,5.017063,56.9279,,
762,4.970331,55.3977,,
763,4.949501,55.7858,,
764,4.966124,53.9788,,
765,4.944345,54.1171,,
766,4.887673,54.6756,,
767,4.861485,55.3544,,
768,4.886547,55.3988,,
769,4.872882,54.9678,,
770,4.823846,53.9602,,
771,4.810586,52.1511,,
772,4.830165,50.5577,,
773,4.810766,52.2881,,
774,4.760471,53.4932,,
775,4.752432,52.6647,,
776,4.767396,51.47652,,
777,4.740159,51.0037,,
778,4.683168,50.467,,
779,4.677519,50.5493,,
780,4.692314,51.1523,,
781,4.659591,50.6798,,
782,4.615804,48.8023,,
783,4.610397,48.5308,,
784,4.639605,48.5544,,
785,4.613033,47.9469,,
786,4.557044,46.946,,
787,4.550811,47.0396,,
788,4.566646,47.7795,,
789,4.547101,46.5889,,
790,4.491182,46.8392,,
791,4.4997,46.3767,,
792,4.519159,46.1678,,
793,4.47627,45.3574,,
794,4.427711,45.0251,,
795,4.437672,45.2409,,
796,4.466824,44.7466,,
797,4.444214,45.7192,,
798,4.408516,45.4656,,
799,4.395554,43.8773,,
800,4.415239,43.9183,,
801,4.40787,43.36577,,
802,4.353313,43.458,,
803,4.335338,42.6042,,
804,4.359531,43.1716,,
805,4.332808,42.0431,,
806,4.282506,41.7067,,
807,4.276064,41.513,,
808,4.289876,40.391,,
809,4.268524,40.9587,,
810,4.213762,40.3446,,
811,4.20219,40.1853,,
812,4.227042,40.5424,,
813,4.211485,40.0878,,
814,4.159152,40.6888,,
815,4.1496,39.9991,,
816,4.178406,39.6447,,
817,4.172763,38.9911,,
818,4.116854,38.5815,,
819,4.104181,38.3505,,
820,4.126615,39.0166,,
821,4.120707,38.3968,,
822,4.068657,38.6197,,
823,4.036639,37.9112,,
824,4.067148,37.9335,,
825,4.059805,36.4082,,
826,4.011195,36.9707,,
827,3.993766,36.5922,,
828,4.01726,36.011,,
829,4.011706,36.9136,,
830,3.946839,36.8817,,
831,3.924903,36.1836,,
832,3.956962,36.0649,,
833,3.956894,36.9269,,
834,3.899014,35.9483,,
835,3.867163,35.9529,,
836,3.905546,36.2068,,
837,3.917628,36.2158,,
838,3.86397,36.8378,,
839,3.833144,36.0474,,
840,3.858579,36.2029,,
841,3.870586,35.4884,,
842,3.822852,36.1374,,
843,3.7743,36.4191,,
844,3.799002,36.1106,,
845,3.813414,36.0546,,
846,3.773546,36.3234,,
847,3.729694,34.6068,,
848,3.755035,35.8716,,
849,3.789167,34.9022,,
850,3.744783,34.4887,,
851,3.690961,34.623,,
852,3.697734,35.0269,,
853,3.727459,34.5751,,
854,3.699738,34.353,,
855,3.646279,34.5188,,
856,3.669138,35.4993,,
857,3.697118,34.731,,
858,3.666102,34.564,,
859,3.615192,34.2498,,
860,3.613066,34.8555,,
861,3.64411,34.9603,,
862,3.619885,34.4182,,
863,3.56024,34.5945,,
864,3.564016,33.9603,,
865,3.598037,33.7851,,
866,3.586514,33.0344,,
867,3.529035,32.4619,,
868,3.517,32.7326,,
869,3.561167,31.8438,,
870,3.560474,30.6145,,
871,3.513432,30.6299,,
872,3.487464,30.2588,,
873,3.513593,30.1942,,
874,3.512892,30.1189,,
875,3.439296,30.4534,,
876,3.410944,30.2103,,
877,3.44813,30.2587,,
878,3.459609,30.7188,,
879,3.417416,30.8843,,
880,3.393635,30.1523,,
881,3.429479,29.5305,,
882,3.430224,28.7771,,
883,3.376997,28.0358,,
884,3.336517,28.1702,,
885,3.363716,27.606,,
886,3.400484,27.4844,,
887,3.360268,25.728,,
888,3.321643,25.5101,,
889,3.331132,25.6307,,
890,3.339039,26.092,,
891,3.314501,26.07392,,
892,3.272994,25.6441,,
893,3.327162,25.0264,,
894,3.353225,24.8229,,
895,3.315359,25.3589,,
896,3.263483,25.4851,,
897,3.27447,25.6069,,
898,3.317769,24.5757,,
899,3.275397,23.9509,,
900,3.22092,23.4292,,
901,3.242913,24.1864,,
902,3.285776,24.2034,,
903,3.257164,23.8235,,
904,3.191174,24.108,,
905,3.202499,22.6593,,
906,3.249092,22.488,,
907,3.237297,21.4879,,
908,3.17319,22.1348,,
909,3.168682,22.2916,,
910,3.2179,21.7416,,
911,3.217651,20.8389,,
912,3.165412,20.9236,,
913,3.148213,20.9057,,
914,3.192461,21.2985,,
915,3.189336,20.8241,,
916,3.137059,21.1531,,
917,3.105808,21.7195,,
918,3.148497,21.404,,
919,3.164675,21.854,,
920,3.111815,22.2914,,
921,3.084488,21.9195,,
922,3.123219,21.7817,,
923,3.149405,21.0013,,
924,3.101623,21.1225,,
925,3.060516,20.6867,,
926,3.096703,20.3121,,
927,3.115046,19.7308,,
928,3.070216,19.5227,,
929,3.034328,18.986,,
930,3.068483,18.6194,,
931,3.091729,18.835,,
932,3.055321,18.6592,,
933,3.013127,17.9843,,
934,3.022613,16.998,,
935,3.046556,16.5721,,
936,3.038899,16.8022,,
937,2.986907,18.426,,
938,2.967855,18.5354,,
939,3.026412,18.4472,,
940,3.068924,17.6312,,
941,3.214468,16.8867,,
942,3.056982,16.47,,
943,3.00161,16.1755,,
944,3.02685,15.9624,,
945,3.022526,15.8465,,
946,2.966902,15.7596,,
947,2.955809,15.8037,,
948,2.990431,15.37041,,
949,3,14.2859,,
950,2.963449,14.2247,,
951,2.965322,13.0838,,
952,2.992824,12.6956,,
953,2.992506,12.8958,,
954,2.9267,12.8393,,
955,2.902171,13.5317,,
956,2.869425,12.4043,,
957,2.915989,11.726,,
958,2.907194,11.3162,,
959,2.880485,10.6823,,
960,2.922656,11.0404,,
961,2.947597,11.4134,,
962,2.912082,10.3077,,
963,2.849215,9.83684,,
964,2.862453,10.0412,,
965,2.906732,10.3704,,
966,2.891057,10.7556,,
967,2.832604,9.8603,,
968,2.838022,9.16976,,
969,2.900277,8.88464,,
970,2.918793,8.92679,,
971,2.846695,9.15692,,
972,2.810145,9.63814,,
973,2.848599,9.30092,,
974,2.874234,8.49709,,
975,2.833802,8.18614,,
976,2.78783,8.02461,,
977,2.813478,8.27691,,
978,2.832304,9.52012,,
979,2.807189,9.55746,,
980,2.771351,9.35105,,
981,2.790722,9.45574,,
982,2.825864,9.41705,,
983,2.778486,9.46429,,
984,2.749886,10.2412,,
985,2.794228,10.9528,,
986,2.843864,10.5702,,
987,2.810872,10.2974,,
988,2.756396,9.59709,,
989,2.771221,9.97084,,
990,2.799836,9.96187,,
991,2.777773,8.8154,,
992,2.737417,8.53142,,
993,2.729,8.55174,,
994,2.759617,8.6215,,
995,2.772632,8.88633,,
996,2.736127,8.93279,,
997,2.746077,8.90269,,
998,2.77264,8.72274,,
999,2.795953,8.47316,,
1000,2.748599,8.72793,,