File: PMMA/Calibration_Data/TIFP/TIFP_DSC_O2-21_10K_1.csv
Time,Temperature,Heat flow
s,K,W g-1
0,297.6031,-0.19889
3,297.69,-0.20015
6,297.8684,-0.19714
9,298.1558,-0.19386
12,298.5239,-0.19553
15,298.9183,-0.18551
18,299.3325,-0.17758
21,299.7456,-0.16549
24,300.1735,-0.15684
27,300.5929,-0.14312
30,301.0276,-0.13283
33,301.4497,-0.12471
36,301.8983,-0.11538
39,302.3317,-0.10578
42,302.7687,-0.09827
45,303.1958,-0.09267
48,303.6379,-0.08762
51,304.0724,-0.08129
54,304.5283,-0.07686
57,304.9727,-0.07072
60,305.4102,-0.06535
63,305.8751,-0.06114
66,306.322,-0.059
69,306.7546,-0.057
72,307.2109,-0.0536
75,307.6714,-0.04973
78,308.1193,-0.04608
81,308.5662,-0.0438
84,309.025,-0.04095
87,309.5026,-0.03896
90,309.95,-0.03649
93,310.4093,-0.03502
96,310.8682,-0.03182
99,311.3146,-0.02769
102,311.7989,-0.02355
105,312.2576,-0.0199
108,312.7038,-0.01718
111,313.1836,-0.0169
114,313.6289,-0.01589
117,314.0906,-0.01394
120,314.5601,-0.01217
123,315.0233,-0.01197
126,315.4895,-0.01075
129,315.9602,-0.01012
132,316.4219,-0.01101
135,316.875,-0.00853
138,317.3554,-0.00724
141,317.8102,-0.00636
144,318.2897,-0.00494
147,318.751,-0.00511
150,319.2268,-0.00508
153,319.6993,-0.00472
156,320.1621,-0.00459
159,320.6377,-0.00361
162,321.0991,-0.00312
165,321.5738,-0.00126
168,322.0421,0.0015
171,322.5202,0.00203
174,322.9993,0.00212
177,323.4774,0.00206
180,323.9411,0.00113
183,324.4218,0.00031
186,324.8839,0.00016
189,325.3574,-0.00284
192,325.8356,-0.00433
195,326.3165,-0.00393
198,326.7933,-0.00319
201,327.2677,0
204,327.732,0.00131
207,328.2132,0.00264
210,328.6843,0.00408
213,329.1827,0.00485
216,329.6494,0.0057
219,330.1259,0.00761
222,330.5997,0.00816
225,331.0868,0.00902
228,331.5559,0.01084
231,332.0421,0.01116
234,332.5199,0.01221
237,332.9991,0.01142
240,333.4718,0.00945
243,333.9553,0.01102
246,334.4452,0.01007
249,334.9172,0.01352
252,335.3996,0.0151
255,335.8798,0.0143
258,336.3629,0.01479
261,336.8378,0.0135
264,337.3287,0.01462
267,337.798,0.01593
270,338.2917,0.01678
273,338.7691,0.01786
276,339.2655,0.01884
279,339.7427,0.0205
282,340.2348,0.02142
285,340.7218,0.02377
288,341.2021,0.02463
291,341.6831,0.02468
294,342.1758,0.02806
297,342.6513,0.02946
300,343.1384,0.03036
303,343.6218,0.02994
306,344.1093,0.03026
309,344.5964,0.02985
312,345.0738,0.03189
315,345.5557,0.03357
318,346.0567,0.03446
321,346.5409,0.03508
324,347.0117,0.03455
327,347.5059,0.03464
330,348.0068,0.03474
333,348.4952,0.03556
336,348.9741,0.03592
339,349.4611,0.03543
342,349.9543,0.03473
345,350.4402,0.0334
348,350.9391,0.03272
351,351.4197,0.0315
354,351.9171,0.0331
357,352.409,0.03344
360,352.8951,0.03338
363,353.389,0.03402
366,353.8673,0.03329
369,354.3723,0.03287
372,354.8577,0.03392
375,355.3437,0.03372
378,355.8313,0.03412
381,356.3233,0.03325
384,356.8214,0.03274
387,357.3236,0.03245
390,357.803,0.0319
393,358.2967,0.03255
396,358.7894,0.03109
399,359.2825,0.03141
402,359.7727,0.03098
405,360.2714,0.02891
408,360.7739,0.02827
411,361.2571,0.02707
414,361.7537,0.02705
417,362.2472,0.0276
420,362.7423,0.0283
423,363.2343,0.03031
426,363.7253,0.03027
429,364.2305,0.02953
432,364.7194,0.02962
435,365.2177,0.02746
438,365.7116,0.02569
441,366.2151,0.025
444,366.7079,0.02457
447,367.2107,0.02469
450,367.7069,0.0264
453,368.2052,0.0281
456,368.7101,0.02993
459,369.1961,0.03132
462,369.6865,0.03193
465,370.1871,0.03093
468,370.684,0.03117
471,371.1894,0.03213
474,371.698,0.03222
477,372.1947,0.0329
480,372.6759,0.03318
483,373.163,0.03245
486,373.673,0.03241
489,374.173,0.03193
492,374.689,0.03019
495,375.179,0.03075
498,375.665,0.03083
501,376.174,0.03153
504,376.666,0.03326
507,377.165,0.03457
510,377.663,0.0354
513,378.179,0.03586
516,378.667,0.03649
519,379.165,0.0377
522,379.657,0.03818
525,380.163,0.03975
528,380.676,0.0413
531,381.167,0.04254
534,381.67,0.04424
537,382.171,0.04349
540,382.681,0.0448
543,383.18,0.04532
546,383.674,0.04615
549,384.185,0.04692
552,384.685,0.04818
555,385.184,0.05017
558,385.692,0.05124
561,386.19,0.05309
564,386.696,0.05288
567,387.189,0.05504
570,387.685,0.05688
573,388.192,0.06006
576,388.697,0.06433
579,389.186,0.06665
582,389.695,0.06693
585,390.216,0.06691
588,390.709,0.06712
591,391.222,0.06779
594,391.702,0.06984
597,392.232,0.07259
600,392.731,0.07509
603,393.23,0.07825
606,393.733,0.08124
609,394.233,0.083
612,394.747,0.0843
615,395.249,0.08604
618,395.759,0.08753
621,396.265,0.08796
624,396.769,0.0893
627,397.266,0.09028
630,397.771,0.09149
633,398.288,0.09378
636,398.788,0.0945
639,399.3,0.09751
642,399.803,0.09905
645,400.318,0.1014
648,400.816,0.10353
651,401.32,0.10505
654,401.829,0.1056
657,402.323,0.10736
660,402.834,0.10912
663,403.341,0.10989
666,403.853,0.11024
669,404.357,0.11087
672,404.865,0.11093
675,405.376,0.1112
678,405.877,0.11077
681,406.375,0.11009
684,406.891,0.10985
687,407.401,0.11032
690,407.899,0.11044
693,408.409,0.10942
696,408.924,0.10831
699,409.426,0.10692
702,409.939,0.10602
705,410.446,0.105
708,410.946,0.10484
711,411.465,0.1045
714,411.972,0.1041
717,412.488,0.10548
720,412.985,0.10594
723,413.487,0.10585
726,414.001,0.10527
729,414.506,0.10374
732,415.011,0.10357
735,415.52,0.10426
738,416.025,0.10392
741,416.541,0.10319
744,417.054,0.10282
747,417.556,0.10087
750,418.076,0.10017
753,418.569,0.09892
756,419.088,0.09795
759,419.599,0.09823
762,420.102,0.09943
765,420.607,0.09976
768,421.121,0.10051
771,421.636,0.10158
774,422.132,0.10277
777,422.646,0.10294
780,423.163,0.10465
783,423.672,0.10531
786,424.177,0.10521
789,424.681,0.10458
792,425.183,0.10294
795,425.716,0.1024
798,426.215,0.10194
801,426.723,0.10274
804,427.223,0.10403
807,427.75,0.10467
810,428.263,0.10527
813,428.764,0.10532
816,429.274,0.10596
819,429.788,0.1058
822,430.296,0.10593
825,430.814,0.10654
828,431.321,0.10688
831,431.825,0.10619
834,432.336,0.10642
837,432.844,0.1065
840,433.365,0.10677
843,433.875,0.10762
846,434.382,0.10818
849,434.896,0.10947
852,435.403,0.11169
855,435.921,0.11219
858,436.414,0.11244
861,436.924,0.11225
864,437.445,0.11038
867,437.959,0.10919
870,438.463,0.10906
873,438.965,0.10943
876,439.486,0.11056
879,439.999,0.11169
882,440.509,0.11338
885,441.02,0.11511
888,441.533,0.11802
891,442.039,0.1203
894,442.561,0.12061
897,443.068,0.12109
900,443.578,0.11832
903,444.084,0.1176
906,444.605,0.11633
909,445.108,0.11491
912,445.616,0.11394
915,446.13,0.11361
918,446.648,0.11318
921,447.166,0.11221
924,447.67,0.11328
927,448.188,0.11326
930,448.703,0.11294
933,449.212,0.11269
936,449.727,0.11259
939,450.239,0.11303
942,450.746,0.11418
945,451.252,0.11483
948,451.764,0.11554
951,452.281,0.11623
954,452.796,0.11671
957,453.304,0.11727
960,453.824,0.11798
963,454.34,0.11849
966,454.843,0.11928
969,455.357,0.11788
972,455.869,0.1182
975,456.388,0.11704
978,456.905,0.1154
981,457.42,0.11628
984,457.922,0.11728
987,458.445,0.1187
990,458.955,0.12022
993,459.466,0.12006
996,459.985,0.12007
999,460.488,0.12217
1002,461.009,0.12267
1005,461.536,0.12307
1008,462.037,0.12347
1011,462.549,0.1219
1014,463.065,0.11959
1017,463.571,0.11716
1020,464.078,0.11507
1023,464.595,0.1146
1026,465.116,0.11654
1029,465.627,0.11934
1032,466.14,0.12049
1035,466.65,0.12226
1038,467.155,0.12466
1041,467.672,0.12656
1044,468.192,0.12693
1047,468.706,0.12656
1050,469.214,0.12503
1053,469.729,0.1244
1056,470.247,0.12335
1059,470.76,0.1227
1062,471.272,0.12268
1065,471.783,0.12234
1068,472.304,0.12257
1071,472.812,0.12291
1074,473.323,0.12206
1077,473.835,0.12189
1080,474.353,0.12248
1083,474.853,0.12201
1086,475.376,0.12212
1089,475.884,0.1221
1092,476.392,0.1228
1095,476.912,0.12268
1098,477.424,0.12414
1101,477.943,0.12503
1104,478.46,0.12491
1107,478.968,0.12652
1110,479.477,0.12555
1113,479.989,0.12589
1116,480.506,0.12682
1119,481.008,0.12675
1122,481.533,0.12846
1125,482.045,0.1292
1128,482.557,0.12898
1131,483.072,0.12954
1134,483.58,0.12826
1137,484.103,0.1271
1140,484.617,0.12838
1143,485.135,0.12764
1146,485.652,0.12711
1149,486.154,0.12668
1152,486.672,0.12458
1155,487.183,0.12483
1158,487.699,0.1234
1161,488.202,0.12248
1164,488.727,0.12208
1167,489.247,0.12228
1170,489.761,0.12212
1173,490.269,0.12446
1176,490.782,0.12545
1179,491.289,0.12643
1182,491.798,0.12687
1185,492.311,0.12689
1188,492.835,0.12508
1191,493.352,0.12273
1194,493.872,0.12113
1197,494.369,0.11987
1200,494.886,0.12022
1203,495.398,0.12008
1206,495.91,0.12046
1209,496.423,0.12011
1212,496.933,0.11944
1215,497.446,0.11965
1218,497.961,0.12068
1221,498.482,0.122
1224,498.989,0.12425
1227,499.5,0.12583
1230,500.022,0.12599
1233,500.53,0.12489
1236,501.042,0.12421
1239,501.547,0.12333
1242,502.067,0.12307
1245,502.585,0.12475
1248,503.097,0.12663
1251,503.618,0.12809
1254,504.119,0.12902
1257,504.641,0.12859
1260,505.142,0.12923
1263,505.66,0.12913
1266,506.168,0.12997
1269,506.69,0.13116
1272,507.199,0.13147
1275,507.709,0.13208
1278,508.23,0.13189
1281,508.746,0.13177
1284,509.258,0.13308
1287,509.769,0.1339
1290,510.279,0.13525
1293,510.796,0.13686
1296,511.303,0.13675
1299,511.824,0.13572
1302,512.337,0.13607
1305,512.846,0.13656
1308,513.366,0.13758
1311,513.879,0.13963
1314,514.392,0.13905
1317,514.909,0.14058
1320,515.413,0.14032
1323,515.925,0.1406
1326,516.432,0.14157
1329,516.952,0.14254
1332,517.472,0.1446
1335,517.975,0.14658
1338,518.486,0.14618
1341,518.997,0.14552
1344,519.511,0.14504
1347,520.023,0.14316
1350,520.539,0.14417
1353,521.053,0.1457
1356,521.557,0.14661
1359,522.069,0.1467
1362,522.594,0.14778
1365,523.105,0.14884
1368,523.611,0.15065
1371,524.126,0.15332
1374,524.646,0.15549
1377,525.151,0.1566
1380,525.659,0.15853
1383,526.167,0.15939
1386,526.689,0.1616
1389,527.202,0.16355
1392,527.705,0.16428
1395,528.23,0.16629
1398,528.73,0.16718
1401,529.251,0.16834
1404,529.761,0.17016
1407,530.273,0.17145
1410,530.786,0.17312
1413,531.298,0.17462
1416,531.818,0.17731
1419,532.323,0.17868
1422,532.833,0.18196
1425,533.351,0.18353
1428,533.856,0.18634
1431,534.372,0.18991
1434,534.882,0.19354
1437,535.397,0.19825
1440,535.918,0.2042
1443,536.429,0.20992
1446,536.943,0.21609
1449,537.455,0.22358
1452,537.969,0.23092
1455,538.476,0.23849
1458,538.999,0.2464
1461,539.51,0.25403
1464,540.022,0.26181
1467,540.536,0.26936
1470,541.052,0.2766
1473,541.569,0.28649
1476,542.083,0.29645
1479,542.594,0.30761
1482,543.106,0.32011
1485,543.62,0.3324
1488,544.136,0.34459
1491,544.654,0.35806
1494,545.162,0.3721
1497,545.668,0.38673
1500,546.191,0.40239
1503,546.709,0.41669
1506,547.22,0.43249
1509,547.733,0.44772
1512,548.242,0.46255
1515,548.763,0.47858
1518,549.278,0.49351
1521,549.797,0.50891
1524,550.309,0.52567
1527,550.826,0.54117
1530,551.345,0.55501
1533,551.856,0.56927
1536,552.372,0.5819
1539,552.886,0.59421
1542,553.401,0.60756
1545,553.915,0.62113
1548,554.434,0.63449
1551,554.954,0.64763
1554,555.458,0.65664
1557,555.98,0.66548
1560,556.497,0.67323
1563,557.015,0.68019
1566,557.526,0.68708
1569,558.038,0.69303
1572,558.551,0.69985
1575,559.068,0.70496
1578,559.581,0.70972
1581,560.098,0.71366
1584,560.605,0.71676
1587,561.121,0.71993
1590,561.651,0.72383
1593,562.163,0.72571
1596,562.675,0.7286
1599,563.197,0.73116
1602,563.71,0.73398
1605,564.222,0.73764
1608,564.74,0.74116
1611,565.25,0.74523
1614,565.774,0.74907
1617,566.28,0.75471
1620,566.809,0.7615
1623,567.319,0.77068
1626,567.837,0.78177
1629,568.342,0.79276
1632,568.868,0.80617
1635,569.376,0.82016
1638,569.895,0.83456
1641,570.413,0.85181
1644,570.921,0.87105
1647,571.441,0.89329
1650,571.959,0.9178
1653,572.479,0.94391
1656,572.992,0.96836
1659,573.511,0.99529
1662,574.025,1.02566
1665,574.536,1.05837
1668,575.052,1.09268
1671,575.566,1.13091
1674,576.088,1.17042
1677,576.608,1.21228
1680,577.129,1.25904
1683,577.651,1.31218
1686,578.169,1.36975
1689,578.687,1.43029
1692,579.199,1.50123
1695,579.719,1.57685
1698,580.24,1.65931
1701,580.757,1.74766
1704,581.279,1.84556
1707,581.799,1.9478
1710,582.323,2.05264
1713,582.842,2.1583
1716,583.368,2.26404
1719,583.881,2.36803
1722,584.401,2.4639
1725,584.926,2.56283
1728,585.451,2.65217
1731,585.974,2.7028
1734,586.505,2.76068
1737,587.029,2.8271
1740,587.555,2.8498
1743,588.087,2.88837
1746,588.613,2.92554
1749,589.135,2.9602
1752,589.666,3.00097
1755,590.195,3.03583
1758,590.71,3.06976
1761,591.237,3.1017
1764,591.765,3.12844
1767,592.278,3.16107
1770,592.808,3.19368
1773,593.333,3.23304
1776,593.86,3.27769
1779,594.388,3.32698
1782,594.904,3.37328
1785,595.426,3.42287
1788,595.953,3.47469
1791,596.476,3.52818
1794,596.996,3.58313
1797,597.521,3.67864
1800,598.038,3.80066
1803,598.548,3.90186
1806,599.065,4.00441
1809,599.587,4.10273
1812,600.109,4.20237
1815,600.625,4.30212
1818,601.15,4.40125
1821,601.659,4.50301
1824,602.188,4.59841
1827,602.704,4.69488
1830,603.222,4.78639
1833,603.759,4.86883
1836,604.28,4.94786
1839,604.803,5.02404
1842,605.337,5.09532
1845,605.861,5.16195
1848,606.39,5.22627
1851,606.91,5.29049
1854,607.441,5.34673
1857,607.973,5.39846
1860,608.497,5.44374
1863,609.032,5.48399
1866,609.557,5.51783
1869,610.085,5.54762
1872,610.614,5.57304
1875,611.138,5.59408
1878,611.672,5.60887
1881,612.199,5.6228
1884,612.734,5.6044
1887,613.267,5.55321
1890,613.804,5.47668
1893,614.333,5.40108
1896,614.866,5.32755
1899,615.401,5.25013
1902,615.924,5.21185
1905,616.448,5.19007
1908,616.979,5.17021
1911,617.503,5.1584
1914,618.028,5.15042
1917,618.548,5.14131
1920,619.074,5.1324
1923,619.598,5.12264
1926,620.12,5.11249
1929,620.643,5.09818
1932,621.166,5.07959
1935,621.68,5.06052
1938,622.208,5.0064
1941,622.731,4.95771
1944,623.253,4.90861
1947,623.774,4.85407
1950,624.291,4.79709
1953,624.81,4.73609
1956,625.32,4.67029
1959,625.834,4.60509
1962,626.353,4.53574
1965,626.88,4.41014
1968,627.403,4.24718
1971,627.915,4.09882
1974,628.441,3.95368
1977,628.963,3.81942
1980,629.478,3.69405
1983,630,3.59475
1986,630.512,3.49388
1989,631.026,3.40042
1992,631.534,3.31903
1995,632.041,3.2612
1998,632.565,3.19239
2001,633.083,3.12596
2004,633.584,3.05611
2007,634.089,2.98841
2010,634.591,2.91864
2013,635.103,2.8489
2016,635.608,2.78123
2019,636.12,2.71129
2022,636.627,2.64109
2025,637.127,2.56883
2028,637.635,2.4924
2031,638.135,2.41492
2034,638.647,2.3352
2037,639.152,2.25562
2040,639.649,2.17206
2043,640.152,2.08443
2046,640.656,1.99439
2049,641.147,1.90264
2052,641.66,1.81277
2055,642.163,1.72414
2058,642.653,1.63373
2061,643.156,1.53821
2064,643.656,1.43415
2067,644.159,1.32463
2070,644.655,1.21476
2073,645.154,1.10218
2076,645.654,0.98869
2079,646.145,0.87584
2082,646.643,0.75638
2085,647.135,0.6331
2088,647.635,0.50663
2091,648.129,0.38036
2094,648.632,0.25432
2097,649.127,0.1278
2100,649.619,0.00526
2103,650.117,-0.11348
2106,650.607,-0.23039
2109,651.103,-0.33293
2112,651.597,-0.42774
2115,652.085,-0.50827
2118,652.576,-0.58494
2121,653.066,-0.65398
2124,653.55,-0.71929
2127,654.045,-0.77977
2130,654.535,-0.83393
2133,655.015,-0.88035
2136,655.509,-0.91599
2139,655.989,-0.94133
2142,656.472,-0.96363
2145,656.96,-0.97622
2148,657.442,-0.98334
2151,657.923,-0.98499
2154,658.4,-0.98241
2157,658.882,-0.9742
2160,659.369,-0.96448
2163,659.854,-0.95339
2166,660.33,-0.93556
2169,660.819,-0.91825
2172,661.306,-0.89849
2175,661.785,-0.8809
2178,662.263,-0.86127
2181,662.751,-0.84035
2184,663.232,-0.81983
2187,663.716,-0.79924
2190,664.198,-0.77634
2193,664.676,-0.75652
2196,665.17,-0.73511
2199,665.651,-0.71413
2202,666.141,-0.69245
2205,666.624,-0.67255
2208,667.102,-0.64945
2211,667.591,-0.62731
2214,668.079,-0.60717
2217,668.555,-0.58612
2220,669.048,-0.56604
2223,669.533,-0.54633
2226,670.019,-0.52548
2229,670.511,-0.50689
2232,670.996,-0.48717
2235,671.486,-0.46715
2238,671.97,-0.44791
2241,672.457,-0.4289
2244,672.943,-0.41236
2247,673.428,-0.39334
2250,673.915,-0.37596
2253,674.403,-0.35648
2256,674.886,-0.3368
2259,675.378,-0.31545
2262,675.864,-0.29268
2265,676.354,-0.26855
2268,676.839,-0.24352
2271,677.328,-0.21682
2274,677.815,-0.19021
2277,678.302,-0.16545
2280,678.787,-0.14172
2283,679.279,-0.119
2286,679.768,-0.09527
2289,680.261,-0.07188
2292,680.753,-0.0496
2295,681.247,-0.02766
2298,681.74,-0.00906
2301,682.228,0.00776
2304,682.723,0.02346
2307,683.214,0.03831
2310,683.712,0.05335
2313,684.209,0.06797
2316,684.694,0.08129
2319,685.192,0.09045
2322,685.685,0.09937
2325,686.181,0.10606
2328,686.678,0.11233
2331,687.18,0.12089
2334,687.674,0.12909
2337,688.169,0.13538
2340,688.67,0.1398
2343,689.168,0.14362
2346,689.667,0.14753
2349,690.162,0.15241
2352,690.658,0.15577
2355,691.164,0.15958
2358,691.659,0.16298
2361,692.155,0.16685
2364,692.651,0.1694
2367,693.159,0.17335
2370,693.665,0.17586
2373,694.164,0.17746
2376,694.663,0.18231
2379,695.16,0.18351
2382,695.66,0.1866
2385,696.157,0.18912
2388,696.659,0.1897
2391,697.153,0.19087
2394,697.653,0.19109
2397,698.157,0.19235
2400,698.665,0.19234
2403,699.161,0.19359
2406,699.665,0.19389
2409,700.169,0.19407
2412,700.663,0.1934
2415,701.173,0.19319
2418,701.672,0.19272
2421,702.17,0.19283
2424,702.674,0.19329
2427,703.178,0.19196
2430,703.674,0.19152
2433,704.173,0.19211
2436,704.686,0.19119
2439,705.184,0.19169
2442,705.689,0.19055
2445,706.19,0.18855
2448,706.687,0.18759
2451,707.189,0.18486
2454,707.693,0.18317
2457,708.198,0.18187
2460,708.697,0.17968
2463,709.199,0.17716
2466,709.703,0.17513
2469,710.203,0.17346
2472,710.706,0.17423
2475,711.204,0.17297
2478,711.709,0.17351
2481,712.213,0.17289
2484,712.714,0.17185
2487,713.222,0.17189
2490,713.723,0.17096
2493,714.225,0.16882
2496,714.724,0.16827
2499,715.227,0.16697
2502,715.736,0.16596
2505,716.227,0.16553
2508,716.739,0.16358
2511,717.239,0.16235
2514,717.741,0.1599
2517,718.24,0.15821
2520,718.745,0.15704
2523,719.246,0.15675
2526,719.754,0.1551
2529,720.25,0.15492
2532,720.752,0.15432
2535,721.254,0.15418
2538,721.757,0.15338
2541,722.259,0.15179
2544,722.76,0.15004
2547,723.267,0.14705
2550,723.77,0.14294
2553,724.269,0.1404
2556,724.772,0.13841
2559,725.273,0.13584
2562,725.781,0.13373
2565,726.284,0.13
2568,726.786,0.12694
2571,727.29,0.12482
2574,727.79,0.12505
2577,728.292,0.12477
2580,728.801,0.12316
2583,729.302,0.12271
2586,729.803,0.11947
2589,730.303,0.11756
2592,730.806,0.11544
2595,731.306,0.11462
2598,731.812,0.11365
2601,732.309,0.11324
2604,732.813,0.11303
2607,733.323,0.11277
2610,733.821,0.11155
2613,734.33,0.11015
2616,734.83,0.10822
2619,735.336,0.10635
2622,735.836,0.10417
2625,736.343,0.10269
2628,736.841,0.10087
2631,737.352,0.10109
2634,737.849,0.10086
2637,738.35,0.09971
2640,738.852,0.09964
2643,739.353,0.09723
2646,739.859,0.09379
2649,740.361,0.09237
2652,740.867,0.09115
2655,741.363,0.09057
2658,741.859,0.09128
2661,742.362,0.09357
2664,742.865,0.0948
2667,743.372,0.09616
2670,743.869,0.09569
2673,744.374,0.09546
2676,744.871,0.09463
2679,745.373,0.09389
2682,745.883,0.09263
2685,746.38,0.09119
2688,746.888,0.09184
2691,747.392,0.0903
2694,747.892,0.09175
2697,748.393,0.09112
2700,748.893,0.09034
2703,749.399,0.09044
2706,749.904,0.09023
2709,750.402,0.09104
2712,750.909,0.09161
2715,751.411,0.09337
2718,751.91,0.09343
2721,752.412,0.09179
2724,752.918,0.09337
2727,753.42,0.09239
2730,753.921,0.09318
2733,754.419,0.09602
2736,754.918,0.0975
2739,755.426,0.0998
2742,755.929,0.10207
2745,756.428,0.10334
2748,756.93,0.10303
2751,757.432,0.10212
2754,757.935,0.10105
2757,758.44,0.09781
2760,758.944,0.0958
2763,759.442,0.09415
2766,759.942,0.09504
2769,760.445,0.09476
2772,760.944,0.09669
2775,761.445,0.0976
2778,761.957,0.0993
2781,762.451,0.10038
2784,762.958,0.10066
2787,763.454,0.09854
2790,763.956,0.0957
2793,764.463,0.09301
2796,764.967,0.09277
2799,765.465,0.09336
2802,765.962,0.09706
2805,766.469,0.10068
2808,766.969,0.10364
2811,767.469,0.10575
2814,767.973,0.10625
2817,768.472,0.10814
2820,768.974,0.1073
2823,769.472,0.10762
2826,769.969,0.10665
2829,770.471,0.10486
2832,770.978,0.1046
2835,771.487,0.10368
2838,771.987,0.10181
2841,772.489,0.09999
2844,772.99,0.09862
2847,773.499,0.09769
2850,773.993,0.09877
2853,774.503,0.09787
2856,774.998,0.09822
2859,775.498,0.09662
2862,776.001,0.09591
2865,776.502,0.09581
2868,777.002,0.09606
2871,777.506,0.09589
2874,778.002,0.09529
2877,778.512,0.09457
2880,779.007,0.09486
2883,779.507,0.09572
2886,780.012,0.09586
2889,780.512,0.09632
2892,781.016,0.09746
2895,781.512,0.09768
2898,782.02,0.09913
2901,782.515,0.09968
2904,783.025,0.09802
2907,783.527,0.09814
2910,784.031,0.09755
2913,784.534,0.09665
2916,785.029,0.09815
2919,785.535,0.09944
2922,786.031,0.09953
2925,786.531,0.1015
2928,787.033,0.10109
2931,787.539,0.10085
2934,788.042,0.10198
2937,788.541,0.10188
2940,789.039,0.1031
2943,789.547,0.1049
2946,790.047,0.1069
2949,790.548,0.10759
2952,791.053,0.10756
2955,791.553,0.10678
2958,792.053,0.10532
2961,792.558,0.10589
2964,793.053,0.1069
2967,793.556,0.10888
2970,794.053,0.10862
2973,794.56,0.11003
2976,795.06,0.11043
2979,795.555,0.11099
2982,796.064,0.1114
2985,796.561,0.11106
2988,797.066,0.10968
2991,797.567,0.1105
2994,798.068,0.11086
2997,798.57,0.11118
3000,799.068,0.1129
3003,799.569,0.11354
3006,800.076,0.11343
3009,800.57,0.11288
3012,801.07,0.1118
3015,801.568,0.11011
3018,802.078,0.10998
3021,802.581,0.10932
3024,803.078,0.11084
3027,803.576,0.11177
3030,804.079,0.11188
3033,804.578,0.11068
3036,805.08,0.10845
3039,805.574,0.10618
3042,806.083,0.10609
3045,806.58,0.10584
3048,807.078,0.10697
3051,807.58,0.10656
3054,808.077,0.10818
3057,808.585,0.10902
3060,809.082,0.11109
3063,809.585,0.1136
3066,810.085,0.11377
3069,810.581,0.11356
3072,811.092,0.1131
3075,811.586,0.11171
3078,812.087,0.11249
3081,812.582,0.11303
3084,813.089,0.11231
3087,813.587,0.1118
3090,814.089,0.11108
3093,814.587,0.11031
3096,815.082,0.11103
3099,815.591,0.11105
3102,816.091,0.11217
3105,816.592,0.11302
3108,817.094,0.11283
3111,817.59,0.11304
3114,818.093,0.11444
3117,818.595,0.11535
3120,819.097,0.11659
3123,819.598,0.11706
3126,820.095,0.11738
3129,820.597,0.11945
3132,821.101,0.11957
3135,821.6,0.11942
3138,822.109,0.11979
3141,822.609,0.11736
3144,823.105,0.11581
3147,823.609,0.11405
3150,824.109,0.11314
3153,824.606,0.11158
3156,825.109,0.11054
3159,825.605,0.10959
3162,826.113,0.10794
3165,826.61,0.10772
3168,827.116,0.10613
3171,827.613,0.10452
3174,828.117,0.10359
3177,828.612,0.10388
3180,829.118,0.10414
3183,829.617,0.1051
3186,830.124,0.10593
3189,830.621,0.10412
3192,831.118,0.10367
3195,831.62,0.10357
3198,832.117,0.10496
3201,832.624,0.10534
3204,833.124,0.10544
3207,833.622,0.10718
3210,834.125,0.10571
3213,834.627,0.10642
3216,835.117,0.10512
3219,835.629,0.10525
3222,836.12,0.10486
3225,836.619,0.10556
3228,837.116,0.10667
3231,837.622,0.10607
3234,838.122,0.10501
3237,838.625,0.10483
3240,839.119,0.10379
3243,839.622,0.10358
3246,840.127,0.10454
3249,840.623,0.10386
3252,841.127,0.10438
3255,841.623,0.10443
3258,842.125,0.10318
3261,842.623,0.10274
3264,843.123,0.10181
3267,843.616,0.10189
3270,844.117,0.10339
3273,844.62,0.10562
3276,845.123,0.10632
3279,845.624,0.10779
3282,846.129,0.10523
3285,846.62,0.10384
3288,847.125,0.10467
3291,847.627,0.10562
3294,848.118,0.10662
3297,848.623,0.10838
3300,849.124,0.1071
3303,849.619,0.10594
3306,850.117,0.10608
3309,850.618,0.1056
3312,851.12,0.1068
3315,851.617,0.10668
3318,852.118,0.10682
3321,852.626,0.10758
3324,853.121,0.10836
3327,853.622,0.10818
3330,854.124,0.10872
3333,854.617,0.10987
3336,855.124,0.10981
3339,855.618,0.11195
3342,856.122,0.11129
3345,856.616,0.11116
3348,857.117,0.11007
3351,857.61,0.10776
3354,858.112,0.10844
3357,858.615,0.10861
3360,859.118,0.10914
3363,859.615,0.10871
3366,860.119,0.10903
3369,860.612,0.10852
3372,861.113,0.10864
3375,861.613,0.10719
3378,862.109,0.10663
3381,862.612,0.1052
3384,863.108,0.10367
3387,863.609,0.1013
3390,864.115,0.1029
3393,864.606,0.10432
3396,865.113,0.10633
3399,865.607,0.10833
3402,866.108,0.10798
3405,866.612,0.10915
3408,867.116,0.10754
3411,867.608,0.10708
3414,868.106,0.1067
3417,868.608,0.10453
3420,869.102,0.10245
3423,869.609,0.10175
3426,870.104,0.10314
3429,870.594,0.10378
3432,871.101,0.10645
3435,871.599,0.1083
3438,872.103,0.10954
3441,872.596,0.10959
3444,873.099,0.10966
3447,873.598,0.10907
3450,874.091,0.1074
3453,874.589,0.10567
3456,875.091,0.10425
3459,875.585,0.1036
3462,876.089,0.10523
3465,876.584,0.10556
3468,877.088,0.10594
3471,877.589,0.10694
3474,878.088,0.10626
3477,878.589,0.10715
3480,879.086,0.10642
3483,879.58,0.1046
3486,880.085,0.10456
3489,880.585,0.10489
3492,881.091,0.10368
3495,881.587,0.1023
3498,882.082,0.10173
3501,882.579,0.10085
3504,883.08,0.10159
3507,883.582,0.1024
3510,884.076,0.10251
3513,884.587,0.10252
3516,885.078,0.10137
3519,885.581,0.10172
3522,886.078,0.10229
3525,886.576,0.10216
3528,887.07,0.10263
3531,887.572,0.10103
3534,888.07,0.09986
3537,888.568,0.09749
3540,889.066,0.09741
3543,889.564,0.09862
3546,890.063,0.09807
3549,890.562,0.09747
3552,891.068,0.09578
3555,891.569,0.09363
3558,892.064,0.09308
3561,892.565,0.09241
3564,893.066,0.09155
3567,893.561,0.09206
3570,894.061,0.09247
3573,894.554,0.09202
3576,895.056,0.09314
3579,895.549,0.09263
3582,896.05,0.09087
3585,896.547,0.09076
3588,897.048,0.08934
3591,897.551,0.08773
3594,898.045,0.08588
3597,898.545,0.08514
3600,899.052,0.08526
3603,899.548,0.085
3606,900.042,0.0851
3609,900.542,0.08326
3612,901.039,0.08246
3615,901.532,0.08138
3618,902.042,0.08132
3621,902.533,0.08076
3624,903.031,0.07973
3627,903.527,0.07887
3630,904.029,0.07583
3633,904.53,0.07423
3636,905.031,0.07494
3639,905.525,0.07524
3642,906.026,0.07775
3645,906.52,0.07836
3648,907.02,0.07655
3651,907.517,0.0762
3654,908.015,0.07377
3657,908.513,0.07044
3660,909.008,0.07069
3663,909.509,0.06862
3666,910.011,0.06882
3669,910.514,0.06968
3672,911.01,0.07012
3675,911.513,0.07067
3678,912.015,0.07256
3681,912.515,0.07309
3684,913.01,0.0735
3687,913.503,0.07244
3690,914,0.07117
3693,914.502,0.07001
3696,915.001,0.06977
3699,915.501,0.06965
3702,915.997,0.07111
3705,916.498,0.07157
3708,916.991,0.07212
3711,917.494,0.07294
3714,917.99,0.07388
3717,918.491,0.07395
3720,918.991,0.07379
3723,919.487,0.07407
3726,919.981,0.07502
3729,920.484,0.07583
3732,920.983,0.07643
3735,921.481,0.07531
3738,921.979,0.075
3741,922.478,0.07373
3744,922.976,0.07405
3747,923.473,0.07251
3750,923.967,0.07235
3753,924.473,0.07232
3756,924.969,0.07294
3759,925.464,0.07102
3762,925.962,0.06853
3765,926.455,0.06409
3768,926.956,0.06109
3771,927.457,0.05749
3774,927.955,0.05503
3777,928.456,0.05124
3780,928.941,0.04963
3783,929.447,0.05016
3786,929.938,0.0518
3789,930.437,0.05355
3792,930.932,0.05338
3795,931.434,0.05202
3798,931.926,0.05094
3801,932.428,0.04953
3804,932.929,0.04935
3807,933.431,0.04915
3810,933.934,0.04837
3813,934.424,0.04684
3816,934.914,0.04632
3819,935.412,0.04462
3822,935.919,0.04366
3825,936.417,0.04237
3828,936.915,0.04094
3831,937.412,0.04063
3834,937.907,0.04094
3837,938.4,0.04009
3840,938.898,0.03916
3843,939.401,0.03965
3846,939.894,0.04042
3849,940.392,0.04108
3852,940.892,0.03942
3855,941.388,0.04028
3858,941.888,0.03825
3861,942.392,0.03899
3864,942.885,0.03731
3867,943.387,0.03685
3870,943.872,0.03384
3873,944.375,0.0335
3876,944.877,0.03339
3879,945.373,0.03477
3882,945.867,0.03674
3885,946.365,0.03573
3888,946.871,0.03458
3891,947.357,0.0326
3894,947.856,0.03354
3897,948.349,0.03494
3900,948.857,0.03731
3903,949.351,0.04026
3906,949.847,0.03902
3909,950.344,0.03988
3912,950.842,0.041
3915,951.341,0.03998
3918,951.838,0.03938
3921,952.337,0.03924
3924,952.83,0.03798
3927,953.327,0.03794
3930,953.826,0.03922
3933,954.32,0.04158
3936,954.816,0.0419
3939,955.318,0.04351
3942,955.813,0.03955
3945,956.309,0.03618
3948,956.81,0.03535
3951,957.308,0.03446
3954,957.8,0.0366
3957,958.298,0.03793
3960,958.794,0.03813
3963,959.29,0.04147
3966,959.781,0.04214
3969,960.287,0.0433
3972,960.785,0.04347
3975,961.277,0.04144
3978,961.777,0.04108
3981,962.272,0.04134
3984,962.77,0.04271
3987,963.269,0.04279
3990,963.755,0.04229
3993,964.261,0.04444
3996,964.757,0.04321
3999,965.258,0.04356
4002,965.758,0.04425
4005,966.255,0.04383
4008,966.747,0.04417
4011,967.25,0.04408
4014,967.742,0.04524
4017,968.24,0.04763
4020,968.737,0.04888
4023,969.229,0.04709
4026,969.726,0.04524
4029,970.222,0.04295
4032,970.716,0.03859
4035,971.21,0.03751
4038,971.707,0.03521
4041,972.205,0.03167
4044,972.701,0.02877
4047,973.195,0.02722
4050,973.692,0.02718
4053,974.192,0.02991
4056,974.692,0.03295
4059,975.179,0.03417
4062,975.679,0.03407
4065,976.17,0.03325
4068,976.668,0.02924
4071,977.163,0.02727
4074,977.657,0.02526
4077,978.159,0.0226
4080,978.644,0.02321
4083,979.144,0.02359
4086,979.641,0.02393
4089,980.137,0.02618
4092,980.626,0.02595
4095,981.13,0.0263
4098,981.619,0.02702
4101,982.116,0.02896
4104,982.613,0.02951
4107,983.107,0.03127
4110,983.602,0.03137
4113,984.103,0.02383
4116,984.598,0.02357
4119,985.089,0.00335
4122,985.585,-0.02419
4125,986.078,-0.04084
4128,986.576,-0.052
4131,987.079,-0.06164
4134,987.568,-0.06795
4137,988.065,-0.07146
4140,988.562,-0.07514
4143,989.055,-0.0811
4146,989.555,-0.08437
4149,990.049,-0.08987
4152,990.55,-0.09449
4155,991.034,-0.09918
4158,991.541,-0.10314
4161,992.039,-0.10598
4164,992.534,-0.10817
4167,993.026,-0.11069
4170,993.527,-0.11332
4173,994.021,-0.11716
4176,994.523,-0.12035
4179,995.017,-0.12162
4182,995.513,-0.1231
4185,995.999,-0.12414
4188,996.499,-0.12684
4191,996.999,-0.12519
4194,997.498,-0.12581
4197,997.988,-0.12614
4200,998.486,-0.12793
4203,998.982,-0.13023
4206,999.481,-0.13567
4209,999.962,-0.14058
4212,1000.466,-0.14435
4215,1000.962,-0.14589
4218,1001.457,-0.14744
4221,1001.946,-0.14857
4224,1002.446,-0.14811
4227,1002.938,-0.14768
4230,1003.429,-0.14694
4233,1003.927,-0.14635
4236,1004.421,-0.14701
4239,1004.919,-0.14947
4242,1005.409,-0.15086
4245,1005.91,-0.15232
4248,1006.402,-0.14822
4251,1006.9,-0.14396
4254,1007.398,-0.13984
4257,1007.885,-0.13882
4260,1008.387,-0.13767
4263,1008.881,-0.13963
4266,1009.371,-0.14235
4269,1009.864,-0.14299
4272,1010.364,-0.14441
4275,1010.857,-0.14268
4278,1011.355,-0.14172
4281,1011.847,-0.14225
4284,1012.34,-0.14274
4287,1012.842,-0.14641
4290,1013.337,-0.14905
4293,1013.827,-0.15014
4296,1014.325,-0.15023
4299,1014.816,-0.14784
4302,1015.316,-0.14738
4305,1015.813,-0.14722
4308,1016.305,-0.14803
4311,1016.804,-0.15079
4314,1017.291,-0.15208
4317,1017.785,-0.15311
4320,1018.285,-0.15467
4323,1018.782,-0.15449
4326,1019.263,-0.15568
4329,1019.769,-0.1563
4332,1020.262,-0.15827
4335,1020.752,-0.16102
4338,1021.242,-0.16635
4341,1021.736,-0.17045
4344,1022.235,-0.17913
4347,1022.73,-0.18142
4350,1023.229,-0.1741