File: PMMA/Validation_Results/NIST-StMU-FSRI/NIST-StMU-FSRI_Gasification_q50_MLR_R3.csv
Time,MLR
[s],[g/m2/s]
0,0
0.5,3.52523E-05
1,5.19827E-05
1.5,9.10315E-05
2,0.000172134
2.51,0.000325063
3.01,0.000587702
3.51,0.001005895
4.01,0.001642953
4.51,0.002573521
5.01,0.003886031
5.51,0.005683092
6.01,0.008081629
6.51,0.0112128
7.01,0.0152214
7.51,0.0202657
8.01,0.0265157
8.51,0.0341526
9.01,0.0433662
9.51,0.0543539
10.01,0.0673173
10.51,0.0824597
11.01,0.0999828
11.51,0.120083
12.01,0.142948
12.51,0.16875
13.01,0.197643
13.51,0.229761
14.01,0.265205
14.51,0.304045
15.01,0.346315
15.51,0.392005
16.01,0.441062
16.51,0.493383
17.01,0.548816
17.51,0.607161
18,0.667552
18.5,0.730242
19,0.7955874
19.5,0.862574
20,0.930784
20.5,0.999772
21,1.06907
21.5,1.13821
22,1.206701
22.5,1.27407
23,1.33986
23.5,1.40363
24,1.46498
24.5,1.52353
25,1.57898
25.5,1.63104
26,1.6795
26.5,1.72422
27,1.7651
27.5,1.80211
28,1.83531
28.5,1.86479
29,1.89074
29.5,1.91337
30,1.933
30.5,1.94995
31,1.96465
31.5,1.97751
32,1.98903
32.5,1.9997
33,2.01006
33.5,2.02065
34,2.03201
34.5,2.04467
35,2.05917
35.5,2.07601
36,2.095678
36.5,2.11861
37,2.14521
37.5,2.175857
38,2.21086
38.5,2.2505
39,2.295
39.5,2.344552
40,2.39928
40.5,2.45929
41,2.52462
41.5,2.595299
42,2.6713
42.5,2.75256
43,2.839
43.51,2.93145
44.01,3.02894
44.51,3.13025
45.01,3.23615
45.51,3.34645
46.01,3.46092
46.51,3.57934
47.01,3.70149
47.51,3.8271
48.01,3.95592
48.51,4.08768
49.01,4.22213
49.51,4.35899
50.01,4.49797
50.51,4.63881
51.01,4.78124
51.51,4.92499
52.01,5.06979
52.51,5.21538
53.01,5.36154
53.51,5.508
54.01,5.65453
54.51,5.80097
55.01,5.94705
55.51,6.0926
56.01,6.23754
56.51,6.38151
57.01,6.52464
57.51,6.6665
58.01,6.80729
58.51,6.94655
59.01,7.084579
59.51,7.2209
60.01,7.35583
60.51,7.489054
61.01,7.62043
61.51,7.75046
62.01,7.87831
62.51,8.00467
63.01,8.12926
63.51,8.25174
64.01,8.37264
64.51,8.49185
65.01,8.60894
65.51,8.72417
66.01,8.83819
66.51,8.95004
67.01,9.05973
67.51,9.16825
68.01,9.27524
68.51,9.38004
69.01,9.48302
69.51,9.58464
70.01,9.6851
70.51,9.78354
71.01,9.88034
71.51,9.97529
72.01,10.0692
72.5,10.1613
73,10.2516
73.5,10.34103
74,10.42881
74.5,10.5153
75,10.60178
75.5,10.6866
76,10.7697
76.5,10.8512
77,10.9318
77.5,11.011
78,11.0898
78.5,11.1678
79,11.2442
79.5,11.3196
80,11.3937
80.5,11.4667
81,11.53842
81.5,11.6092
82,11.6805
82.5,11.751
83,11.81998
83.5,11.8877
84,11.9544
84.5,12.0201
85,12.085
85.5,12.1494
86,12.2132
86.5,12.2775
87,12.3406
87.5,12.4025
88,12.4634
88.5,12.5237
89,12.5836
89.5,12.6427
90,12.7009
90.5,12.7583
91,12.815
91.5,12.872
92,12.9294
92.5,12.9862
93,13.042
93.5,13.0969
94,13.1512
94.5,13.2047
95,13.2576
95.5,13.3099
96,13.3616
96.5,13.4133
97,13.4649
97.5,13.5159
98,13.568
98.5,13.6195
99,13.6699
99.5,13.7196
100,13.76884
100.5,13.8175
101,13.8662
101.5,13.9146
102,13.9625
102.5,14.0099
103,14.0569
103.5,14.1035
104,14.1497
104.5,14.1956
105,14.2412
105.5,14.2882
106,14.3353
106.5,14.3821
107,14.428
107.5,14.4733
108,14.5181
108.5,14.5623
109,14.6062
109.5,14.6499
110,14.6933
110.5,14.7365
111,14.7794
111.5,14.8228
112,14.86598
112.5,14.9087
113,14.9512
113.5,14.9935
114,15.0368
114.5,15.0807
115,15.1236
115.5,15.16584
116,15.2076
116.5,15.24902
117,15.29083
117.5,15.333
118,15.3746
118.5,15.4158
119,15.4567
119.5,15.4973
120,15.53761
120.5,15.5778
121,15.618
121.5,15.65803
122,15.69787
122.5,15.73755
123,15.7773
123.5,15.8177
124,15.8596
124.5,15.9015
125,15.9428
125.5,15.9834
126,16.0235
126.5,16.0632
127,16.10258
127.5,16.1417
128,16.1807
128.5,16.2196
129,16.2586
129.5,16.2978
130,16.3376
130.5,16.3771
131,16.4163
131.5,16.4552
132,16.4939
132.5,16.5323
133,16.5709
133.5,16.6094
134,16.6479
134.5,16.6862
135,16.7261
135.5,16.7663
136,16.8057
136.5,16.8454
137,16.8852
137.5,16.9247
138,16.9639
138.5,17.0026
139,17.0411
139.5,17.0793
140,17.1174
140.5,17.1553
141,17.19313
141.5,17.2309
142,17.2688
142.5,17.3067
143,17.3445
143.5,17.3831
144,17.422
144.5,17.4604
145,17.4985
145.5,17.5363
146,17.574
146.5,17.6121
147,17.6521
147.5,17.692
148,17.7309
148.5,17.7693
149,17.8073
149.5,17.8451
150,17.8828
150.5,17.9205
151,17.9596
151.5,17.9983
152,18.0366
152.5,18.0745
153,18.1122
153.5,18.1497
154,18.18699
154.5,18.2241
155,18.26109
155.5,18.2982
156,18.3355
156.5,18.3728
157,18.4099
157.5,18.4468
158,18.48391
158.5,18.522
159,18.5597
159.51,18.5984
160.01,18.6386
160.51,18.6776
161.01,18.716
161.51,18.7537
162.01,18.791
162.51,18.8279
163.01,18.8647
163.51,18.9013
164.01,18.9377
164.51,18.9738
165.01,19.01
165.51,19.0467
166.01,19.0845
166.51,19.122
167.01,19.1589
167.51,19.1954
168.01,19.2316
168.51,19.2675
169.01,19.3031
169.51,19.3386
170.01,19.3744
170.51,19.4103
171.01,19.446
171.51,19.4814
172.01,19.5166
172.51,19.5515
173.01,19.5882
173.51,19.6261
174.01,19.6639
174.51,19.7006
175.01,19.7369
175.51,19.7729
176.01,19.8084
176.51,19.8434
177.01,19.8782
177.51,19.9127
178.01,19.9469
178.51,19.9808
179.01,20.0145
179.51,20.0479
180.01,20.0816
180.51,20.1156
181.01,20.1493
181.51,20.1838
182.01,20.2186
182.51,20.2526
183.01,20.286
183.51,20.319
184.01,20.3519
184.51,20.3846
185.01,20.4172
185.51,20.45008
186.01,20.4826
186.51,20.5152
187.01,20.5497
187.51,20.5833
188.01,20.6163
188.51,20.6485
189.01,20.6802
189.51,20.7125
190.01,20.7454
190.51,20.77815
191.01,20.8103
191.51,20.842
192.01,20.8732
192.51,20.904
193.01,20.93445
193.51,20.9645
194.01,20.9943
194.51,21.0238
195.01,21.0534
195.51,21.0834
196.01,21.1135
196.51,21.1431
197.01,21.1723
197.51,21.2016
198.01,21.2321
198.51,21.262
199.01,21.2916
199.51,21.3206
200.01,21.3492
200.51,21.3778
201.01,21.4089
201.51,21.4397
202.01,21.4692
202.51,21.4982
203.01,21.5268
203.51,21.5548
204.01,21.5825
204.51,21.6099
205.01,21.637
205.51,21.6638
206.01,21.6926
206.51,21.722
207.01,21.7507
207.51,21.7786
208.01,21.806
208.51,21.8329
209.01,21.8595
209.51,21.8858
210.01,21.9122
210.51,21.9386
211.01,21.9651
211.51,21.9921
212.01,22.0188
212.51,22.0452
213.01,22.0714
213.51,22.0974
214.01,22.1239
214.51,22.152
215.01,22.1806
215.51,22.2101
216.01,22.2383
216.51,22.2664
217.01,22.2944
217.51,22.3218
218.01,22.3491
218.51,22.3761
219.01,22.403
219.51,22.4297
220.01,22.4563
220.51,22.4827
221.01,22.5091
221.51,22.5357
222.01,22.5638
222.51,22.5934
223.01,22.6231
223.51,22.652
224.01,22.6804
224.51,22.7086
225.01,22.7369
225.51,22.7655
226.01,22.7942
226.51,22.823
227.01,22.8522
227.51,22.88228
228.01,22.9124
228.51,22.9424
229.01,22.9739
229.51,23.0071
230.01,23.0396
230.51,23.0723
231.01,23.1064
231.51,23.1399
232.01,23.1732
232.51,23.2072
233.01,23.2415
233.51,23.27612
234.01,23.311
234.51,23.3459
235.01,23.3809
235.51,23.416
236.01,23.4514
236.51,23.4872
237.01,23.524
237.51,23.562
238.01,23.60101
238.51,23.6406
239.01,23.6819
239.51,23.72288
240.01,23.7639
240.51,23.805
241.01,23.847
241.51,23.8893
242.01,23.93213
242.51,23.9774
243.01,24.0239
243.51,24.0702
244.01,24.1164
244.51,24.1627
245.01,24.20967
245.51,24.2567
246.01,24.3043
246.51,24.3533
247.01,24.4038
247.51,24.4539
248.01,24.5048
248.51,24.557
249.01,24.6094
249.51,24.66191
250.01,24.7144
250.51,24.767
251.01,24.8197
251.51,24.8728
252.01,24.9267
252.51,24.98174
253.01,25.0373
253.51,25.0939
254.01,25.15052
254.51,25.20868
255.01,25.26864
255.51,25.3291
256.01,25.389
256.51,25.4488
257.01,25.5079
257.51,25.5666
258.01,25.6257
258.51,25.6861
259.01,25.7462
259.51,25.8061
260.01,25.8663
260.51,25.9262
261.01,25.98597
261.51,26.0461
262.01,26.1062
262.51,26.1678
263.01,26.2287
263.51,26.2906
264.01,26.3529
264.51,26.4147
265.01,26.4754
265.51,26.5355
266.01,26.5951
266.51,26.6542
267.01,26.7131
267.51,26.7732
268.01,26.835
268.51,26.8961
269.01,26.9569
269.51,27.0165
270.01,27.076
270.51,27.1366
271.01,27.1959
271.51,27.2547
272.01,27.3128
272.51,27.37
273.01,27.4262
273.51,27.4821
274.01,27.53882
274.51,27.5951
275.01,27.6505
275.51,27.7058
276.01,27.7599
276.51,27.8134
277.01,27.8667
277.51,27.9193
278.01,27.9712
278.51,28.0241
279.01,28.0768
279.51,28.1305
280.01,28.1833
280.51,28.2347
281.01,28.2861
281.51,28.3365
282.01,28.3854
282.51,28.4334
283.01,28.4816
283.51,28.5296
284.01,28.5763
284.51,28.623
285.01,28.6694
285.51,28.7147
286.01,28.7589
286.51,28.8034
287.01,28.8493
287.51,28.894
288.01,28.9371
288.51,28.9791
289.01,29.0203
289.51,29.0612
290.01,29.1022
290.51,29.1426
291.01,29.1827
291.51,29.2227
292.01,29.261
292.51,29.2986
293.01,29.3357
293.51,29.3721
294.01,29.40806
294.51,29.4431
295.01,29.4792
295.51,29.5185
296.01,29.5571
296.51,29.5941
297.01,29.629
297.51,29.6622
298.01,29.6943
298.51,29.72574
299.01,29.7582
299.51,29.7907
300.01,29.8218
300.51,29.8518
301.01,29.8825
301.51,29.9126
302.01,29.9423
302.51,29.9718
303.01,30.0007
303.51,30.0293
304.01,30.0586
304.51,30.0876
305.01,30.115
305.51,30.1422
306.01,30.1686
306.51,30.1956
307.01,30.2231
307.51,30.2497
308.01,30.2751
308.51,30.3014
309.01,30.3273
309.51,30.3518
310.01,30.37567
310.51,30.3994
311.01,30.4231
311.51,30.4467
312.01,30.4714
312.51,30.4975
313.01,30.522
313.51,30.5446
314.01,30.5661
314.51,30.5879
315.01,30.6117
315.51,30.634
316.01,30.6548
316.51,30.67478
317.01,30.6954
317.51,30.7176
318.01,30.7389
318.51,30.7598
319.01,30.78053
319.51,30.8005
320.01,30.8202
320.51,30.8409
321.01,30.8625
321.51,30.883
322.01,30.9025
322.51,30.9239
323.01,30.94424
323.51,30.9644
324.01,30.9832
324.51,31.00159
325.01,31.0197
325.51,31.0368
326.01,31.0543
326.51,31.0731
327.01,31.091
327.51,31.1093
328.01,31.1287
328.51,31.147
329.01,31.1636
329.51,31.182
330.01,31.2008
330.51,31.2174
331.01,31.23338
331.51,31.2495
332.01,31.26681
332.51,31.2838
333.01,31.2999
333.51,31.3163
334.01,31.3321
334.51,31.3475
335.01,31.3637
335.51,31.3789
336.01,31.3929
336.51,31.4079
337.01,31.4232
337.51,31.4385
338.01,31.4521
338.51,31.4655
339.01,31.4782
339.51,31.4899
340.01,31.5031
340.51,31.51633
341.01,31.5298
341.51,31.5416
342.01,31.5515
342.51,31.5621
343.01,31.5729
343.51,31.5826
344.01,31.5895
344.51,31.5974
345.01,31.6034
345.51,31.6083
346.01,31.614
346.51,31.6169
347.01,31.6232
347.51,31.624
348.01,31.6293
348.51,31.6282
349.01,31.6309
349.51,31.6284
350.01,31.6278
350.51,31.6239
351.01,31.62122
351.51,31.6172
352.01,31.6104
352.51,31.6035
353.01,31.5911
353.51,31.5812
354.01,31.5645
354.51,31.5507
355.01,31.5295
355.51,31.5113
356.01,31.4863
356.51,31.4586
357.01,31.4284
357.51,31.3902
358.01,31.3519
358.51,31.305
359.01,31.2618
359.51,31.2036
360.01,31.15103
360.51,31.0788
361.01,31.008
361.51,30.9197
362.01,30.8483
362.51,30.7344
363.01,30.6347
363.51,30.4914
364.01,30.3897
364.51,30.3011
365.01,30.2088
365.51,30.10689
366.01,29.9589
366.51,29.7377
367.01,29.5827
367.51,29.4388
368.01,29.2875
368.51,29.1227
369.01,28.9272
369.51,28.5533
370.01,28.285
370.51,28.0615
371.01,27.8301
371.51,27.5759
372.01,27.29554
372.51,26.86536
373.01,26.2493
373.51,25.8769
374.01,25.52542
374.51,25.1368
375.01,24.6977
375.51,24.2046
376.01,23.601
376.51,22.3028
377.01,21.5795
377.51,20.9597
378.01,20.2229
378.51,19.328
379.01,18.2429
379.51,16.9147
380.01,15.2627
380.51,13.1646
381.01,10.4671
381.51,7.10761
382.01,3.52839
382.51,0.989288
383.01,0.118557
383.51,0.005217646
384.01,8.3207E-05
384.51,4.94507E-07
385.01,1.1287E-09
385.51,1.01949E-12
386.01,3.25992E-16
386.51,0
387.01,0
387.51,0
388.01,0
388.51,0
389.01,0
389.51,0
390.01,0
390.51,0
391.01,0
391.51,0
392.01,0
392.51,0
393.01,0
393.51,0
394.01,0
394.51,0
395.01,0
395.51,0
396.01,0
396.51,0
397.01,0
397.51,0
398.01,0
398.51,0
399.01,0
399.51,0
400.01,0
400.51,0
401.01,0
401.51,0
402.01,0
402.51,0
403.01,0
403.51,0
404.01,0
404.51,0
405.01,0
405.51,0
406.01,0
406.51,0
407.01,0
407.51,0
408.01,0
408.51,0
409.01,0
409.51,0
410.01,0
410.51,0
411.01,0
411.51,0
412.01,0
412.51,0
413.01,0
413.51,0
414.01,0
414.51,0
415.01,0
415.51,0
416.01,0
416.51,0
417.01,0
417.51,0
418.01,0
418.51,0
419.01,0
419.51,0
420.01,0
420.51,0
421.01,0
421.51,0
422.01,0
422.51,0
423.01,0
423.51,0
424.01,0
424.51,0
425.01,0
425.51,0
426.01,0
426.51,0
427.01,0
427.51,0
428.01,0
428.51,0
429.01,0
429.51,0
430.01,0
430.51,0
431.01,0
431.51,0
432.01,0
432.51,0
433.01,0
433.51,0
434.01,0
434.51,0
435.01,0
435.51,0
436.01,0
436.51,0
437.01,0
437.51,0
438.01,0
438.51,0
439.01,0
439.51,0
440.01,0
440.51,0
441.01,0
441.51,0
442.01,0
442.51,0
443.01,0
443.51,0
444.01,0
444.51,0
445.01,0
445.51,0
446.01,0
446.51,0
447.01,0
447.51,0
448.01,0
448.51,0
449.01,0
449.51,0
450.01,0
450.51,0
451.01,0
451.51,0
452.01,0
452.51,0
453.01,0
453.51,0
454.01,0
454.51,0
455.01,0
455.51,0
456.01,0
456.51,0
457.01,0
457.51,0
458.01,0
458.51,0
459.01,0
459.51,0
460.01,0
460.51,0
461.01,0
461.51,0
462.01,0
462.51,0
463.01,0
463.51,0
464.01,0
464.51,0
465.01,0
465.51,0
466.01,0
466.51,0
467.01,0
467.51,0
468.01,0
468.51,0
469.01,0
469.51,0
470.01,0
470.51,0
471.01,0
471.51,0
472.01,0
472.51,0
473.01,0
473.51,0
474.01,0
474.51,0
475.01,0
475.51,0
476.01,0
476.51,0
477.01,0
477.51,0
478.01,0
478.51,0
479.01,0
479.51,0
480.01,0
480.51,0
481.01,0
481.51,0
482.01,0
482.51,0
483.01,0
483.51,0
484.01,0
484.51,0
485.01,0
485.51,0
486.01,0
486.51,0
487.01,0
487.51,0
488.01,0
488.51,0
489.01,0
489.51,0
490.01,0
490.51,0
491.01,0
491.51,0
492.01,0
492.51,0
493.01,0
493.51,0
494.01,0
494.51,0
495.01,0
495.51,0
496.01,0
496.51,0
497.01,0
497.51,0
498.01,0
498.51,0
499.01,0
499.51,0
500,0