File: PMMA/Validation_Results/NIST-StMU-FSRI/NIST-StMU-FSRI_Gasification_q50_MLR_R5.csv
Time,MLR
[s],[g/m2/s]
0,0
0.5,3.74935E-05
1,5.41356E-05
1.5,9.27541E-05
2,0.00017287
2.51,0.000323863
3.01,0.000583139
3.51,0.000995996
4.01,0.001625026
4.51,0.002544075
5.01,0.003840682
5.51,0.005616481
6.01,0.007987354
6.51,0.0110833
7.01,0.0150482
7.51,0.02003898
8.01,0.0262247
8.51,0.0337852
9.01,0.0429097
9.51,0.0537944
10.01,0.0666404
10.51,0.0816504
11.01,0.099026
11.51,0.118964
12.01,0.14165
12.51,0.16726
13.01,0.195949
13.51,0.22785
14.01,0.263068
14.51,0.301675
15.01,0.343708
15.51,0.38916
16.01,0.437981
16.51,0.490074
17.01,0.545291
17.51,0.603434
18,0.663646
18.5,0.726181
19,0.791398
19.5,0.85829
20,0.926442
20.5,0.995412
21,1.06474
21.5,1.13394
22,1.20254
22.5,1.27007
23,1.33606
23.5,1.40007
24,1.4617
24.5,1.52057
25,1.57636
25.5,1.62879
26,1.67765
26.5,1.72278
27,1.76407
27.5,1.801501
28,1.8351
28.5,1.86498
29,1.89129
29.5,1.91427
30,1.93419
30.5,1.95141
31,1.96631
31.5,1.97932
32,1.99092
32.5,2.00162
33,2.01193
33.5,2.0224
34,2.03357
34.5,2.04597
35,2.06013
35.5,2.07656
36,2.09575
36.5,2.11814
37,2.14415
37.5,2.17413
38,2.20844
38.5,2.24733
39,2.29105
39.5,2.33979
40,2.39369
40.5,2.45284
41,2.51732
41.5,2.58714
42,2.66229
42.5,2.74271
43,2.82832
43.51,2.91993
44.01,3.01662
44.51,3.11715
45.01,3.22229
45.51,3.33185
46.01,3.4456
46.51,3.56333
47.01,3.684803
47.51,3.80976
48.01,3.937951
48.51,4.06911
49.01,4.20298
49.51,4.33929
50.01,4.47776
50.51,4.61811
51.01,4.76008
51.51,4.9034
52.01,5.0478
52.51,5.19304
53.01,5.338869
53.51,5.48501
54.01,5.63129
54.51,5.77748
55.01,5.92329
55.51,6.0687
56.01,6.21334
56.51,6.35722
57.01,6.50007
57.51,6.64184
58.01,6.78234
58.51,6.92157
59.01,7.05924
59.51,7.195585
60.01,7.33006
60.51,7.46324
61.01,7.59441
61.51,7.72403
62.01,7.851922
62.51,7.97774
63.01,8.10208
63.51,8.22455
64.01,8.34479
64.51,8.46366
65.01,8.58071
65.51,8.69547
66.01,8.80863
66.51,8.920421
67.01,9.02997
67.51,9.1376
68.01,9.2438
68.51,9.348518
69.01,9.45128
69.51,9.55205
70.01,9.65111
70.51,9.74945
71.01,9.845917
71.51,9.940375
72.01,10.033
72.5,10.1237
73,10.2136
73.5,10.30261
74,10.3898
74.5,10.4756
75,10.5599
75.5,10.6433
76,10.7259
76.5,10.807
77,10.8867
77.5,10.9649
78,11.0417
78.5,11.1172
79,11.1927
79.5,11.2675
80,11.3408
80.5,11.4126
81,11.483
81.5,11.5524
82,11.621
82.5,11.6887
83,11.75636
83.5,11.82328
84,11.8888
84.5,11.9531
85,12.0168
85.5,12.0795
86,12.1413
86.5,12.2021
87,12.2619
87.5,12.3213
88,12.3814
88.5,12.44079
89,12.499
89.5,12.5561
90,12.6123
90.5,12.6677
91,12.7223
91.5,12.7762
92,12.8297
92.5,12.8829
93,12.9353
93.5,12.9886
94,13.0414
94.5,13.093
95,13.1437
95.5,13.19359
96,13.243
96.5,13.2925
97,13.3413
97.5,13.3893
98,13.4368
98.5,13.4836
99,13.53
99.5,13.576
100,13.6217
100.5,13.6686
101,13.7154
101.5,13.76137
102,13.8066
102.5,13.8511
103,13.8951
103.5,13.9385
104,13.9814
104.5,14.0238
105,14.0658
105.5,14.10751
106,14.14943
106.5,14.1914
107,14.2327
107.5,14.2736
108,14.31407
108.5,14.3552
109,14.3972
109.5,14.4382
110,14.4785
110.5,14.5182
111,14.5574
111.5,14.5965
112,14.6359
112.5,14.6748
113,14.7135
113.5,14.7517
114,14.7896
114.5,14.8271
115,14.8643
115.5,14.9012
116,14.9379
116.5,14.9745
117,15.0109
117.5,15.0474
118,15.0845
118.5,15.1232
119,15.1613
119.5,15.1985
120,15.2351
120.5,15.2712
121,15.3071
121.5,15.34273
122,15.37805
122.5,15.4131
123,15.4479
123.5,15.4825
124,15.51704
124.5,15.5523
125,15.5875
125.5,15.6224
126,15.657
126.5,15.69131
127,15.7254
127.5,15.7592
128,15.7929
128.5,15.8264
129,15.8598
129.5,15.89444
130,15.9302
130.5,15.965
131,15.9994
131.5,16.0343
132,16.06878
132.5,16.10272
133,16.13628
133.5,16.1696
134,16.203
134.5,16.2362
135,16.26919
135.5,16.302
136,16.3347
136.5,16.3672
137,16.3995
137.5,16.4318
138,16.4641
138.5,16.497
139,16.5306
139.5,16.5638
140,16.59669
140.5,16.6293
141,16.6617
141.5,16.694
142,16.727
142.5,16.7615
143,16.7953
143.5,16.8287
144,16.8616
144.5,16.8943
145,16.9267
145.5,16.9589
146,16.9913
146.5,17.0244
147,17.0572
147.5,17.0897
148,17.1223
148.5,17.1548
149,17.187
149.5,17.2191
150,17.251
150.5,17.2828
151,17.3146
151.5,17.3463
152,17.3779
152.5,17.4094
153,17.4412
153.5,17.4731
154,17.5053
154.5,17.5383
155,17.571
155.5,17.6038
156,17.6384
156.5,17.6722
157,17.7052
157.5,17.7378
158,17.7703
158.5,17.8029
159,17.8351
159.51,17.8675
160.01,17.89972
160.51,17.9314
161.01,17.96303
161.51,17.99458
162.01,18.0265
162.51,18.0594
163.01,18.0921
163.51,18.1248
164.01,18.1572
164.51,18.1893
165.01,18.2212
165.51,18.253
166.01,18.2847
166.51,18.3163
167.01,18.3478
167.51,18.3792
168.01,18.4106
168.51,18.4423
169.01,18.4742
169.51,18.5059
170.01,18.5382
170.51,18.5731
171.01,18.60782
171.51,18.6414
172.01,18.6743
172.51,18.7067
173.01,18.73884
173.51,18.771
174.01,18.80331
174.51,18.8353
175.01,18.86704
175.51,18.8986
176.01,18.93
176.51,18.9614
177.01,18.9927
177.51,19.0239
178.01,19.055
178.51,19.086
179.01,19.1185
179.51,19.1514
180.01,19.1838
180.51,19.2158
181.01,19.2475
181.51,19.2789
182.01,19.3102
182.51,19.3412
183.01,19.3721
183.51,19.4028
184.01,19.4336
184.51,19.465
185.01,19.4975
185.51,19.5311
186.01,19.5636
186.51,19.5953
187.01,19.6266
187.51,19.6586
188.01,19.69101
188.51,19.7228
189.01,19.7541
189.51,19.7851
190.01,19.8164
190.51,19.84733
191.01,19.878
191.51,19.90839
192.01,19.9387
192.51,19.9689
193.01,19.9988
193.51,20.02862
194.01,20.05826
194.51,20.0877
195.01,20.1173
195.51,20.1473
196.01,20.1777
196.51,20.2091
197.01,20.2399
197.51,20.2701
198.01,20.2999
198.51,20.3293
199.01,20.3584
199.51,20.3874
200.01,20.4167
200.51,20.4482
201.01,20.4796
201.51,20.5101
202.01,20.5398
202.51,20.5689
203.01,20.5977
203.51,20.6264
204.01,20.6548
204.51,20.683
205.01,20.7123
205.51,20.7416
206.01,20.77047
206.51,20.7995
207.01,20.828
207.51,20.8563
208.01,20.8842
208.51,20.9119
209.01,20.9393
209.51,20.9664
210.01,20.9933
210.51,21.0199
211.01,21.04633
211.51,21.0728
212.01,21.1
212.51,21.12717
213.01,21.1539
213.51,21.1805
214.01,21.20828
214.51,21.2356
215.01,21.2624
215.51,21.2892
216.01,21.31804
216.51,21.346
217.01,21.3729
217.51,21.3997
218.01,21.4264
218.51,21.4526
219.01,21.4782
219.51,21.5037
220.01,21.529
220.51,21.5541
221.01,21.5788
221.51,21.6034
222.01,21.6279
222.51,21.6526
223.01,21.6788
223.51,21.705
224.01,21.7309
224.51,21.7562
225.01,21.7811
225.51,21.8055
226.01,21.8296
226.51,21.8534
227.01,21.8769
227.51,21.9004
228.01,21.9241
228.51,21.9478
229.01,21.97203
229.51,21.9961
230.01,22.0199
230.51,22.0433
231.01,22.0669
231.51,22.0933
232.01,22.1205
232.51,22.1465
233.01,22.1715
233.51,22.1958
234.01,22.2196
234.51,22.2437
235.01,22.2681
235.51,22.292
236.01,22.3157
236.51,22.3394
237.01,22.3629
237.51,22.3863
238.01,22.4096
238.51,22.4328
239.01,22.4558
239.51,22.4787
240.01,22.502
240.51,22.5281
241.01,22.5544
241.51,22.5799
242.01,22.6048
242.51,22.6292
243.01,22.6534
243.51,22.6775
244.01,22.7018
244.51,22.7264
245.01,22.7511
245.51,22.7757
246.01,22.8014
246.51,22.8293
247.01,22.857
247.51,22.8839
248.01,22.9103
248.51,22.937
249.01,22.9643
249.51,22.9929
250.01,23.0209
250.51,23.0487
251.01,23.0764
251.51,23.1047
252.01,23.1334
252.51,23.1623
253.01,23.1913
253.51,23.2205
254.01,23.2498
254.51,23.2792
255.01,23.3087
255.51,23.3383
256.01,23.36822
256.51,23.3988
257.01,23.4307
257.51,23.4639
258.01,23.4987
258.51,23.5333
259.01,23.5674
259.51,23.60151
260.01,23.6359
260.51,23.6712
261.01,23.7091
261.51,23.74652
262.01,23.7836
262.51,23.821
263.01,23.8595
263.51,23.8981
264.01,23.9368
264.51,23.9758
265.01,24.0156
265.51,24.0556
266.01,24.0962
266.51,24.1392
267.01,24.1822
267.51,24.2249
268.01,24.2682
268.51,24.3127
269.01,24.3577
269.51,24.4031
270.01,24.4487
270.51,24.4943
271.01,24.5402
271.51,24.5863
272.01,24.6327
272.51,24.6798
273.01,24.7284
273.51,24.7779
274.01,24.8285
274.51,24.8819
275.01,24.9361
275.51,24.98904
276.01,25.0417
276.51,25.0942
277.01,25.1472
277.51,25.20027
278.01,25.2533
278.51,25.3063
279.01,25.3606
279.51,25.4155
280.01,25.4702
280.51,25.525
281.01,25.5803
281.51,25.6355
282.01,25.6905
282.51,25.7464
283.01,25.8042
283.51,25.8613
284.01,25.9178
284.51,25.9754
285.01,26.0334
285.51,26.0914
286.01,26.1489
286.51,26.2058
287.01,26.2623
287.51,26.32032
288.01,26.37817
288.51,26.43554
289.01,26.4935
289.51,26.5513
290.01,26.6095
290.51,26.6668
291.01,26.7252
291.51,26.7833
292.01,26.8407
292.51,26.8974
293.01,26.9541
293.51,27.0102
294.01,27.0657
294.51,27.1207
295.01,27.1756
295.51,27.23151
296.01,27.2864
296.51,27.3409
297.01,27.3956
297.51,27.4495
298.01,27.5024
298.51,27.5551
299.01,27.6077
299.51,27.6616
300.01,27.7146
300.51,27.7668
301.01,27.8217
301.51,27.8757
302.01,27.9286
302.51,27.9801
303.01,28.0304
303.51,28.0794
304.01,28.1276
304.51,28.1751
305.01,28.2234
305.51,28.2718
306.01,28.3191
306.51,28.367
307.01,28.4138
307.51,28.4596
308.01,28.50628
308.51,28.5528
309.01,28.59856
309.51,28.6439
310.01,28.6878
310.51,28.7308
311.01,28.7729
311.51,28.8146
312.01,28.8576
312.51,28.8995
313.01,28.9403
313.51,28.9814
314.01,29.0218
314.51,29.061
315.01,29.1009
315.51,29.1403
316.01,29.17858
316.51,29.21667
317.01,29.2553
317.51,29.2942
318.01,29.3328
318.51,29.37017
319.01,29.4068
319.51,29.4423
320.01,29.4764
320.51,29.5095
321.01,29.5418
321.51,29.5748
322.01,29.6088
322.51,29.6413
323.01,29.6731
323.51,29.7053
324.01,29.7366
324.51,29.7671
325.01,29.7975
325.51,29.8285
326.01,29.8607
326.51,29.891
327.01,29.92
327.51,29.9486
328.01,29.9766
328.51,30.0042
329.01,30.0332
329.51,30.0624
330.01,30.0913
330.51,30.1188
331.01,30.145
331.51,30.1713
332.01,30.197
332.51,30.22169
333.01,30.246
333.51,30.26969
334.01,30.2945
334.51,30.3209
335.01,30.3478
335.51,30.3731
336.01,30.3978
336.51,30.4212
337.01,30.4433
337.51,30.4646
338.01,30.4879
338.51,30.5116
339.01,30.5338
339.51,30.55496
340.01,30.5758
340.51,30.5976
341.01,30.62
341.51,30.6415
342.01,30.6631
342.51,30.6852
343.01,30.7074
343.51,30.7291
344.01,30.7501
344.51,30.7707
345.01,30.7902
345.51,30.81
346.01,30.8317
346.51,30.8521
347.01,30.8714
347.51,30.8913
348.01,30.9098
348.51,30.928
349.01,30.9461
349.51,30.9639
350.01,30.9821
350.51,31.0011
351.01,31.0219
351.51,31.0416
352.01,31.0602
352.51,31.078
353.01,31.095
353.51,31.1137
354.01,31.1331
354.51,31.1507
355.01,31.1665
355.51,31.1818
356.01,31.2001
356.51,31.218
357.01,31.2345
357.51,31.2509
358.01,31.2681
358.51,31.285
359.01,31.3015
359.51,31.317
360.01,31.3319
360.51,31.3471
361.01,31.3637
361.51,31.3793
362.01,31.395
362.51,31.4094
363.01,31.4235
363.51,31.4363
364.01,31.4497
364.51,31.4643
365.01,31.4791
365.51,31.493
366.01,31.5059
366.51,31.5171
367.01,31.528
367.51,31.5405
368.01,31.5515
368.51,31.5619
369.01,31.5702
369.51,31.5815
370.01,31.5927
370.51,31.5974
371.01,31.6045
371.51,31.6088
372.01,31.6142
372.51,31.6182
373.01,31.6219
373.51,31.6256
374.01,31.62636
374.51,31.6297
375.01,31.6301
375.51,31.63247
376.01,31.6335
376.51,31.6322
377.01,31.6303
377.51,31.6249
378.01,31.6212
378.51,31.6124
379.01,31.6056
379.51,31.5939
380.01,31.5832
380.51,31.5676
381.01,31.5505
381.51,31.5285
382.01,31.5049
382.51,31.4787
383.01,31.4479
383.51,31.4175
384.01,31.379
384.51,31.3382
385.01,31.2909
385.51,31.2464
386.01,31.1843
386.51,31.1306
387.01,31.0526
387.51,30.9814
388.01,30.8882
388.51,30.8161
389.01,30.6995
389.51,30.5941
390.01,30.4438
390.51,30.33814
391.01,30.2442
391.51,30.14534
392.01,30.0432
392.51,29.8386
393.01,29.647
393.51,29.4966
394.01,29.3482
394.51,29.1895
395.01,29.0156
395.51,28.7603
396.01,28.3948
396.51,28.1476
397.01,27.9182
397.51,27.6734
398.01,27.4029
398.51,27.1053
399.01,26.5394
399.51,26.00452
400.01,25.6391
400.51,25.2641
401.01,24.843
401.51,24.3669
402.01,23.83166
402.51,23.0216
403.01,21.7664
403.51,21.0861
404.01,20.3842
404.51,19.5334
405.01,18.4945
405.51,17.2178
406.01,15.6313
406.51,13.62218
407.01,11.0448
407.51,7.81077
408.01,4.221467
408.51,1.38542
409.01,0.209363
409.51,0.0121044
410.01,0.000256038
410.51,2.01121E-06
411.01,6.00274E-09
411.51,6.97723E-12
412.01,3.18276E-15
412.51,0
413.01,0
413.51,0
414.01,0
414.51,0
415.01,0
415.51,0
416.01,0
416.51,0
417.01,0
417.51,0
418.01,0
418.51,0
419.01,0
419.51,0
420.01,0
420.51,0
421.01,0
421.51,0
422.01,0
422.51,0
423.01,0
423.51,0
424.01,0
424.51,0
425.01,0
425.51,0
426.01,0
426.51,0
427.01,0
427.51,0
428.01,0
428.51,0
429.01,0
429.51,0
430.01,0
430.51,0
431.01,0
431.51,0
432.01,0
432.51,0
433.01,0
433.51,0
434.01,0
434.51,0
435.01,0
435.51,0
436.01,0
436.51,0
437.01,0
437.51,0
438.01,0
438.51,0
439.01,0
439.51,0
440.01,0
440.51,0
441.01,0
441.51,0
442.01,0
442.51,0
443.01,0
443.51,0
444.01,0
444.51,0
445.01,0
445.51,0
446.01,0
446.51,0
447.01,0
447.51,0
448.01,0
448.51,0
449.01,0
449.51,0
450.01,0
450.51,0
451.01,0
451.51,0
452.01,0
452.51,0
453.01,0
453.51,0
454.01,0
454.51,0
455.01,0
455.51,0
456.01,0
456.51,0
457.01,0
457.51,0
458.01,0
458.51,0
459.01,0
459.51,0
460.01,0
460.51,0
461.01,0
461.51,0
462.01,0
462.51,0
463.01,0
463.51,0
464.01,0
464.51,0
465.01,0
465.51,0
466.01,0
466.51,0
467.01,0
467.51,0
468.01,0
468.51,0
469.01,0
469.51,0
470.01,0
470.51,0
471.01,0
471.51,0
472.01,0
472.51,0
473.01,0
473.51,0
474.01,0
474.51,0
475.01,0
475.51,0
476.01,0
476.51,0
477.01,0
477.51,0
478.01,0
478.51,0
479.01,0
479.51,0
480.01,0
480.51,0
481.01,0
481.51,0
482.01,0
482.51,0
483.01,0
483.51,0
484.01,0
484.51,0
485.01,0
485.51,0
486.01,0
486.51,0
487.01,0
487.51,0
488.01,0
488.51,0
489.01,0
489.51,0
490.01,0
490.51,0
491.01,0
491.51,0
492.01,0
492.51,0
493.01,0
493.51,0
494.01,0
494.51,0
495.01,0
495.51,0
496.01,0
496.51,0
497.01,0
497.51,0
498.01,0
498.51,0
499.01,0
499.51,0
500,0