File: PMMA/Validation_Results/NIST-StMU-FSRI/NIST-StMU-FSRI_Gasification_q50_MLR_R4.csv
Time,MLR
[s],[g/m2/s]
0,0
0.5,3.51875E-05
1,5.19272E-05
1.5,9.101E-05
2,0.000172191
2.51,0.000325273
3.01,0.000588179
3.51,0.001006793
4.01,0.001644487
4.51,0.002575967
5.01,0.003889736
5.51,0.00568848
6.01,0.008089207
6.51,0.0112231
7.01,0.0152353
7.51,0.0202838
8.01,0.0265389
8.51,0.0341817
9.01,0.0434025
9.51,0.0543983
10.01,0.0673709
10.51,0.08252375
11.01,0.100059
11.51,0.120172
12.01,0.14305
12.51,0.168867
13.01,0.197777
13.51,0.229912
14.01,0.2653733
14.51,0.304232
15.01,0.346521
15.51,0.39223
16.01,0.441305
16.51,0.493644
17.01,0.549094
17.51,0.6074546
18,0.66786
18.5,0.730562
19,0.795917
19.5,0.86291
20,0.931124
20.5,1.00011
21,1.06941
21.5,1.13854
22,1.20703
22.5,1.27438
23,1.34016
23.5,1.40391
24,1.46523
24.5,1.52376
25,1.579179
25.5,1.63121
26,1.67964
26.5,1.72433
27,1.76517
27.5,1.80216
28,1.83532
28.5,1.86477
29,1.89069
29.5,1.9133
30,1.9329
30.5,1.94984
31,1.96451
31.5,1.977366
32,1.98888
32.5,1.99955
33,2.009914
33.5,2.02051
34,2.03188
34.5,2.04457
35,2.0591
35.5,2.07597
36,2.095672
36.5,2.11865
37,2.1453
37.5,2.175992
38,2.21105
38.5,2.25075
39,2.29531
39.5,2.34492
40,2.39972
40.5,2.45979
41,2.52519
41.5,2.59593
42,2.67199
42.5,2.75332
43,2.83983
43.51,2.93234
44.01,3.02989
44.51,3.13126
45.01,3.23722
45.51,3.34757
46.01,3.4621
46.51,3.58057
47.01,3.70277
47.51,3.82843
48.01,3.95729
48.51,4.0891
49.01,4.22359
49.51,4.36048
50.01,4.4995
50.51,4.640376
51.01,4.78283
51.51,4.92662
52.01,5.07143
52.51,5.21704
53.01,5.36321
53.51,5.5097
54.01,5.65623
54.51,5.80268
55.01,5.94878
55.51,6.09433
56.01,6.23928
56.51,6.38325
57.01,6.52638
57.51,6.66824
58.01,6.80903
58.51,6.9483
59.01,7.08635
59.51,7.22266
60.01,7.3576
60.51,7.4908
61.01,7.62223
61.51,7.75223
62.01,7.88008
62.51,8.00645
63.01,8.13101
63.51,8.25349
64.01,8.37444
64.51,8.49365
65.01,8.610713
65.51,8.72596
66.01,8.84
66.51,8.95181
67.01,9.0615
67.51,9.17012
68.01,9.277059
68.51,9.381836
69.01,9.48484
69.51,9.58653
70.01,9.68695
70.51,9.78545
71.01,9.88223
71.51,9.97715
72.01,10.0712
72.5,10.1633
73,10.2536
73.5,10.343
74,10.43075
74.5,10.5175
75,10.604
75.5,10.6887
76,10.77177
76.5,10.8534
77,10.934
77.5,11.0132
78,11.0922
78.5,11.1701
79,11.2466
79.5,11.3221
80,11.3962
80.5,11.4691
81,11.5409
81.5,11.6118
82,11.6834
82.5,11.7538
83,11.8228
83.5,11.8905
84,11.9572
84.5,12.0229
85,12.088
85.5,12.1525
86,12.2165
86.5,12.28087
87,12.3439
87.5,12.4058
88,12.4667
88.5,12.5274
89,12.5873
89.5,12.6463
90,12.7045
90.5,12.7619
91,12.8187
91.5,12.87623
92,12.9338
92.5,12.9906
93,13.0463
93.5,13.1013
94,13.1555
94.5,13.2091
95,13.262
95.5,13.3143
96,13.3663
96.5,13.4184
97,13.4699
97.5,13.5213
98,13.5736
98.5,13.6249
99,13.6753
99.5,13.7251
100,13.7744
100.5,13.8232
101,13.8722
101.5,13.9207
102,13.9685
102.5,14.016
103,14.0631
103.5,14.1098
104,14.156
104.5,14.2019
105,14.248
105.5,14.2956
106,14.3431
106.5,14.3897
107,14.4355
107.5,14.4808
108,14.5255
108.5,14.56981
109,14.61384
109.5,14.6577
110,14.7012
110.5,14.74439
111,14.7879
111.5,14.8315
112,14.8747
112.5,14.9175
113,14.9601
113.5,15.0027
114,15.0468
114.5,15.0904
115,15.1332
115.5,15.1754
116,15.2172
116.5,15.2591
117,15.3016
117.5,15.3436
118,15.3852
118.5,15.4264
119,15.4673
119.5,15.5079
120,15.5484
120.5,15.5889
121,15.6292
121.5,15.6693
122,15.7093
122.5,15.7491
123,15.7897
123.5,15.8307
124,15.8732
124.5,15.915
125,15.956
125.5,15.9965
126,16.03655
126.5,16.0763
127,16.1157
127.5,16.155
128,16.1941
128.5,16.2334
129,16.27266
129.5,16.3127
130,16.3525
130.5,16.3919
131,16.4311
131.5,16.47
132,16.5087
132.5,16.5474
133,16.5862
133.5,16.6249
134,16.6634
134.5,16.7026
135,16.7433
135.5,16.7831
136,16.8231
136.5,16.8632
137,16.903
137.5,16.9424
138,16.9814
138.5,17.0201
139,17.0585
139.5,17.0968
140,17.135
140.5,17.173
141,17.211
141.5,17.2492
142,17.2873
142.5,17.3253
143,17.364
143.5,17.4031
144,17.4417
144.5,17.48
145,17.518
145.5,17.5559
146,17.5941
146.5,17.6335
147,17.6739
147.5,17.7132
148,17.75192
148.5,17.79018
149,17.8282
149.5,17.8661
150,17.9041
150.5,17.9434
151,17.9823
151.5,18.0207
152,18.05884
152.5,18.0967
153,18.1344
153.5,18.17188
154,18.2092
154.5,18.24634
155,18.2837
155.5,18.3212
156,18.3587
156.5,18.3959
157,18.433
157.5,18.4703
158,18.5086
158.5,18.5464
159,18.5845
159.51,18.6249
160.01,18.6647
160.51,18.7032
161.01,18.7412
161.51,18.7786
162.01,18.8158
162.51,18.8528
163.01,18.8895
163.51,18.926
164.01,18.9624
164.51,18.9988
165.01,19.0358
165.51,19.0738
166.01,19.1114
166.51,19.1485
167.01,19.1851
167.51,19.2214
168.01,19.2574
168.51,19.2932
169.01,19.3289
169.51,19.3649
170.01,19.401
170.51,19.4368
171.01,19.4723
171.51,19.5076
172.01,19.5426
172.51,19.57919
173.01,19.6176
173.51,19.6556
174.01,19.6924
174.51,19.729
175.01,19.7651
175.51,19.8006
176.01,19.8358
176.51,19.8707
177.01,19.9053
177.51,19.9396
178.01,19.9737
178.51,20.00747
179.01,20.0411
179.51,20.0751
180.01,20.1092
180.51,20.143
181.01,20.1779
181.51,20.2126
182.01,20.2467
182.51,20.2802
183.01,20.3133
183.51,20.3463
184.01,20.3791
184.51,20.412
185.01,20.445
185.51,20.4775
186.01,20.5101
186.51,20.5447
187.01,20.5785
187.51,20.6115
188.01,20.6439
188.51,20.6757
189.01,20.7085
189.51,20.7415
190.01,20.7743
190.51,20.8065
191.01,20.8382
191.51,20.8695
192.01,20.9004
192.51,20.9309
193.01,20.96103
193.51,20.9909
194.01,21.0205
194.51,21.0503
195.01,21.0806
195.51,21.1107
196.01,21.1403
196.51,21.1695
197.01,21.1992
197.51,21.2298
198.01,21.2598
198.51,21.2893
199.01,21.31839
199.51,21.34702
200.01,21.376
200.51,21.4072
201.01,21.4379
201.51,21.46752
202.01,21.4966
202.51,21.52514
203.01,21.5532
203.51,21.5809
204.01,21.6084
204.51,21.6355
205.01,21.6627
205.51,21.6922
206.01,21.7215
206.51,21.7501
207.01,21.7779
207.51,21.8053
208.01,21.8322
208.51,21.8588
209.01,21.8851
209.51,21.91175
210.01,21.9383
210.51,21.965
211.01,21.9921
211.51,22.0188
212.01,22.0452
212.51,22.0714
213.01,22.0975
213.51,22.1247
214.01,22.1529
214.51,22.1815
215.01,22.2109
215.51,22.2392
216.01,22.2676
216.51,22.2955
217.01,22.323
217.51,22.3503
218.01,22.3774
218.51,22.40432
219.01,22.4311
219.51,22.45766
220.01,22.4841
220.51,22.5106
221.01,22.53785
221.51,22.5664
222.01,22.5964
222.51,22.6259
223.01,22.6546
223.51,22.683
224.01,22.7113
224.51,22.7397
225.01,22.7685
225.51,22.7973
226.01,22.8262
226.51,22.856
227.01,22.8861
227.51,22.9162
228.01,22.9463
228.51,22.9786
229.01,23.0118
229.51,23.0441
230.01,23.0776
230.51,23.1117
231.01,23.14524
231.51,23.1787
232.01,23.213
232.51,23.2476
233.01,23.2823
233.51,23.31729
234.01,23.3523
234.51,23.3874
235.01,23.4227
235.51,23.4582
236.01,23.49437
236.51,23.53168
237.01,23.5703
237.51,23.6094
238.01,23.6497
238.51,23.691
239.01,23.73204
239.51,23.7732
240.01,23.8147
240.51,23.8569
241.01,23.8994
241.51,23.9426
242.01,23.9885
242.51,24.03535
243.01,24.0817
243.51,24.128
244.01,24.1748
244.51,24.2218
245.01,24.2691
245.51,24.317
246.01,24.3671
246.51,24.4175
247.01,24.4678
247.51,24.5195
248.01,24.5719
248.51,24.6244
249.01,24.6769
249.51,24.72953
250.01,24.7822
250.51,24.8352
251.01,24.8885
251.51,24.94316
252.01,24.9983
252.51,25.05465
253.01,25.1113
253.51,25.1683
254.01,25.2271
254.51,25.28747
255.01,25.3478
255.51,25.408
256.01,25.4676
256.51,25.5267
257.01,25.5855
257.51,25.6454
258.01,25.7059
258.51,25.7659
259.01,25.8261
259.51,25.88629
260.01,25.9461
260.51,26.0063
261.01,26.0664
261.51,26.1272
262.01,26.1888
262.51,26.2499
263.01,26.3124
263.51,26.3747
264.01,26.4361
264.51,26.4966
265.01,26.5566
265.51,26.616
266.01,26.6751
266.51,26.7344
267.01,26.7952
267.51,26.8568
268.01,26.9183
268.51,26.9787
269.01,27.0381
269.51,27.0983
270.01,27.1586
270.51,27.2178
271.01,27.2765
271.51,27.3343
272.01,27.3912
272.51,27.4472
273.01,27.5036
273.51,27.5604
274.01,27.6163
274.51,27.6719
275.01,27.7268
275.51,27.7806
276.01,27.8341
276.51,27.8873
277.01,27.9396
277.51,27.9917
278.01,28.0446
278.51,28.0982
279.01,28.1516
279.51,28.204
280.01,28.255
280.51,28.3062
281.01,28.3561
281.51,28.4047
282.01,28.4527
282.51,28.5012
283.01,28.5487
283.51,28.5952
284.01,28.64213
284.51,28.6881
285.01,28.7329
285.51,28.77713
286.01,28.82231
286.51,28.8681
287.01,28.912
287.51,28.9547
288.01,28.9963
288.51,29.0375
289.01,29.0783
289.51,29.1193
290.01,29.1594
290.51,29.19987
291.01,29.2391
291.51,29.277
292.01,29.3145
292.51,29.3512
293.01,29.3876
293.51,29.4232
294.01,29.4581
294.51,29.4956
295.01,29.53521
295.51,29.5733
296.01,29.6094
296.51,29.6435
297.01,29.6762
297.51,29.708
298.01,29.73973
298.51,29.7727
299.01,29.8045
299.51,29.8351
300.01,29.86522
300.51,29.8959
301.01,29.9258
301.51,29.9556
302.01,29.98454
302.51,30.0136
303.01,30.0421
303.51,30.0717
304.01,30.1
304.51,30.1272
305.01,30.1541
305.51,30.18066
306.01,30.208
306.51,30.23537
307.01,30.2612
307.51,30.2868
308.01,30.3132
308.51,30.3384
309.01,30.3627
309.51,30.3865
310.01,30.4102
310.51,30.4338
311.01,30.4578
311.51,30.4832
312.01,30.509
312.51,30.5325
313.01,30.5546
313.51,30.5758
314.01,30.599
314.51,30.6222
315.01,30.6438
315.51,30.66403
316.01,30.6841
316.51,30.7057
317.01,30.7277
317.51,30.7485
318.01,30.7696
318.51,30.7899
319.01,30.8098
319.51,30.82946
320.01,30.8508
320.51,30.872
321.01,30.892
321.51,30.9123
322.01,30.9335
322.51,30.95372
323.01,30.9734
323.51,30.9918
324.01,31.0103
324.51,31.0279
325.01,31.0449
325.51,31.06325
326.01,31.0817
326.51,31.0996
327.01,31.1184
327.51,31.1376
328.01,31.1548
328.51,31.1719
329.01,31.1913
329.51,31.2088
330.01,31.225
330.51,31.2408
331.01,31.2578
331.51,31.2751
332.01,31.29141
332.51,31.3079
333.01,31.324
333.51,31.3393
334.01,31.3554
334.51,31.3711
335.01,31.3857
335.51,31.3998
336.01,31.4154
336.51,31.43048
337.01,31.4451
337.51,31.4585
338.01,31.47165
338.51,31.4838
339.01,31.4961
339.51,31.5094
340.01,31.5226
340.51,31.5357
341.01,31.5463
341.51,31.5565
342.01,31.56719
342.51,31.5777
343.01,31.5861
343.51,31.59235
344.01,31.6018
344.51,31.6031
345.01,31.6124
345.51,31.6133
346.01,31.6204
346.51,31.6225
347.01,31.6265
347.51,31.6284
348.01,31.6295
348.51,31.6295
349.01,31.6277
349.51,31.62591
350.01,31.6219
350.51,31.6193
351.01,31.6133
351.51,31.6067
352.01,31.5971
352.51,31.5851
353.01,31.5733
353.51,31.55645
354.01,31.5396
354.51,31.5191
355.01,31.4992
355.51,31.4714
356.01,31.444
356.51,31.4073
357.01,31.3724
357.51,31.3256
358.01,31.2859
358.51,31.2291
359.01,31.17956
359.51,31.1115
360.01,31.0465
360.51,30.9582
361.01,30.8845
361.51,30.7886
362.01,30.6908
362.51,30.5538
363.01,30.4343
363.51,30.344
364.01,30.2535
364.51,30.157
365.01,30.0501
365.51,29.8317
366.01,29.6529
366.51,29.5076
367.01,29.3616
367.51,29.2037
368.01,29.03052
368.51,28.7421
369.01,28.4012
369.51,28.1677
370.01,27.9426
370.51,27.7004
371.01,27.4338
371.51,27.1325
372.01,26.5014
372.51,26.0451
373.01,25.6976
373.51,25.3295
374.01,24.91579
374.51,24.4498
375.01,23.9259
375.51,22.9515
376.01,21.8793
376.51,21.271
377.01,20.5983
377.51,19.7836
378.01,18.7957
378.51,17.5944
379.01,16.1131
379.51,14.2502
380.01,11.8626
380.51,8.81581
381.01,5.23185
381.51,2.00968
382.01,0.374801
382.51,0.0270297
383.01,0.000702958
383.51,6.71321E-06
384.01,2.4269E-08
384.51,3.42284E-11
385.01,1.93592E-14
385.51,0
386.01,0
386.51,0
387.01,0
387.51,0
388.01,0
388.51,0
389.01,0
389.51,0
390.01,0
390.51,0
391.01,0
391.51,0
392.01,0
392.51,0
393.01,0
393.51,0
394.01,0
394.51,0
395.01,0
395.51,0
396.01,0
396.51,0
397.01,0
397.51,0
398.01,0
398.51,0
399.01,0
399.51,0
400.01,0
400.51,0
401.01,0
401.51,0
402.01,0
402.51,0
403.01,0
403.51,0
404.01,0
404.51,0
405.01,0
405.51,0
406.01,0
406.51,0
407.01,0
407.51,0
408.01,0
408.51,0
409.01,0
409.51,0
410.01,0
410.51,0
411.01,0
411.51,0
412.01,0
412.51,0
413.01,0
413.51,0
414.01,0
414.51,0
415.01,0
415.51,0
416.01,0
416.51,0
417.01,0
417.51,0
418.01,0
418.51,0
419.01,0
419.51,0
420.01,0
420.51,0
421.01,0
421.51,0
422.01,0
422.51,0
423.01,0
423.51,0
424.01,0
424.51,0
425.01,0
425.51,0
426.01,0
426.51,0
427.01,0
427.51,0
428.01,0
428.51,0
429.01,0
429.51,0
430.01,0
430.51,0
431.01,0
431.51,0
432.01,0
432.51,0
433.01,0
433.51,0
434.01,0
434.51,0
435.01,0
435.51,0
436.01,0
436.51,0
437.01,0
437.51,0
438.01,0
438.51,0
439.01,0
439.51,0
440.01,0
440.51,0
441.01,0
441.51,0
442.01,0
442.51,0
443.01,0
443.51,0
444.01,0
444.51,0
445.01,0
445.51,0
446.01,0
446.51,0
447.01,0
447.51,0
448.01,0
448.51,0
449.01,0
449.51,0
450.01,0
450.51,0
451.01,0
451.51,0
452.01,0
452.51,0
453.01,0
453.51,0
454.01,0
454.51,0
455.01,0
455.51,0
456.01,0
456.51,0
457.01,0
457.51,0
458.01,0
458.51,0
459.01,0
459.51,0
460.01,0
460.51,0
461.01,0
461.51,0
462.01,0
462.51,0
463.01,0
463.51,0
464.01,0
464.51,0
465.01,0
465.51,0
466.01,0
466.51,0
467.01,0
467.51,0
468.01,0
468.51,0
469.01,0
469.51,0
470.01,0
470.51,0
471.01,0
471.51,0
472.01,0
472.51,0
473.01,0
473.51,0
474.01,0
474.51,0
475.01,0
475.51,0
476.01,0
476.51,0
477.01,0
477.51,0
478.01,0
478.51,0
479.01,0
479.51,0
480.01,0
480.51,0
481.01,0
481.51,0
482.01,0
482.51,0
483.01,0
483.51,0
484.01,0
484.51,0
485.01,0
485.51,0
486.01,0
486.51,0
487.01,0
487.51,0
488.01,0
488.51,0
489.01,0
489.51,0
490.01,0
490.51,0
491.01,0
491.51,0
492.01,0
492.51,0
493.01,0
493.51,0
494.01,0
494.51,0
495.01,0
495.51,0
496.01,0
496.51,0
497.01,0
497.51,0
498.01,0
498.51,0
499.01,0
499.51,0
500,0