File: Wood/Calibration_Data/MFSL/MFSL_TGA_N2_10K_R2.csv
Time(s),Temperature (K),Mass (mg)
0,291.311,5.079
6.6,291.318,5.0858
13.2,291.329,5.0847
19.8,291.334,5.0791
26.4,291.355,5.0795
33,291.377,5.0801
39.6,291.429,5.079
46.2,291.486,5.0795
52.8,291.575,5.0786
59.4,291.687,5.0792
66,291.792,5.0791
72.6,291.962,5.0784
79.2,292.128,5.0797
85.8,292.343,5.0782
101.9502,293.022,5.0749
134.9502,294.948,5.063
167.9502,297.358,5.0468
200.9502,299.999,5.0284
233.9502,302.599,5.0055
266.9502,305.07,4.9819
299.9502,307.276,4.9562
332.9502,309.178,4.9316
365.9502,310.806,4.9068
398.9502,312.113,4.8893
431.9502,313.181,4.8698
464.9502,313.999,4.8505
497.9502,314.624,4.8385
530.9502,315.067,4.8255
563.9502,315.384,4.8154
596.9502,315.588,4.8066
629.9502,315.674,4.7987
662.9502,315.676,4.7934
695.9502,315.62,4.7887
728.9502,315.519,4.7856
761.9502,315.362,4.782
794.9502,315.202,4.7782
827.9502,315.009,4.7719
860.9502,314.82,4.7709
893.9502,314.628,4.7685
926.9502,314.436,4.7705
959.9502,314.241,4.7702
992.9502,314.085,4.7692
1025.95,313.911,4.7685
1058.95,313.751,4.7681
1091.95,313.611,4.765
1124.95,313.507,4.7656
1157.95,313.403,4.7655
1190.95,313.308,4.7641
1223.95,313.234,4.762
1256.95,313.169,4.7606
1289.95,313.107,4.7605
1322.95,313.075,4.7591
1355.95,313.026,4.7586
1388.95,313.004,4.7595
1421.95,312.991,4.762
1454.95,312.985,4.7619
1487.95,312.957,4.7611
1520.95,312.96,4.7621
1553.95,312.956,4.7606
1586.95,312.958,4.7611
1619.95,312.943,4.7625
1652.95,312.943,4.763
1685.95,312.967,4.762
1718.95,312.972,4.7621
1751.95,312.977,4.7634
1784.95,312.988,4.7626
1817.95,312.988,4.7619
1850.95,313.003,4.7627
1883.95,313.022,4.763
1892.75,313.034,4.762
1896.05,313.026,4.7622
1899.35,313.033,4.7621
1902.65,313.04,4.7619
1905.95,313.04,4.7617
1909.25,313.043,4.7615
1912.55,313.059,4.7611
1915.85,313.051,4.761
1919.15,313.072,4.761
1922.45,313.072,4.761
1925.75,313.129,4.761
1929.05,313.139,4.7611
1932.35,313.161,4.7611
1935.65,313.2,4.7616
1938.95,313.238,4.7616
1942.25,313.284,4.7625
1945.55,313.341,4.7625
1948.85,313.404,4.7625
1952.15,313.476,4.7622
1955.45,313.55,4.7618
1958.75,313.628,4.7625
1962.05,313.708,4.7628
1965.35,313.796,4.7625
1968.65,313.91,4.7629
1971.95,314.03,4.7625
1975.25,314.159,4.762
1978.55,314.282,4.7616
1981.85,314.426,4.7613
1985.15,314.572,4.762
1988.45,314.734,4.7615
1991.75,314.906,4.7624
1995.05,315.084,4.7631
1998.35,315.267,4.7625
2001.65,315.469,4.7633
2004.95,315.689,4.7628
2008.25,315.925,4.7617
2011.55,316.139,4.7619
2014.85,316.403,4.7623
2018.15,316.653,4.7625
2021.45,316.894,4.7626
2024.75,317.172,4.7627
2028.05,317.494,4.7636
2031.35,317.786,4.7629
2034.65,318.101,4.7623
2037.95,318.424,4.7625
2041.25,318.763,4.7624
2044.55,319.116,4.7627
2047.85,319.461,4.7619
2051.15,319.848,4.7615
2054.45,320.212,4.7615
2057.75,320.609,4.7619
2061.05,321.03,4.7618
2064.35,321.443,4.7628
2067.65,321.855,4.763
2070.95,322.313,4.7619
2074.25,322.747,4.7626
2077.55,323.221,4.7624
2080.85,323.701,4.762
2084.15,324.183,4.7619
2087.45,324.658,4.7614
2090.75,325.17,4.7603
2094.05,325.696,4.7603
2097.35,326.218,4.7594
2100.65,326.756,4.7595
2103.95,327.301,4.7598
2107.25,327.836,4.7593
2110.55,328.407,4.7581
2113.85,328.964,4.7581
2117.15,329.57,4.7578
2120.45,330.155,4.7578
2123.75,330.755,4.7584
2127.05,331.372,4.7575
2130.35,331.975,4.7571
2133.65,332.603,4.757
2136.95,333.224,4.7568
2140.25,333.879,4.7553
2143.55,334.519,4.7552
2146.85,335.16,4.7549
2150.15,335.829,4.7553
2153.45,336.479,4.7553
2156.75,337.152,4.7548
2160.05,337.823,4.7544
2163.35,338.507,4.754
2166.65,339.188,4.7539
2169.95,339.88,4.7541
2173.25,340.588,4.7545
2176.55,341.278,4.7543
2179.85,341.983,4.7534
2183.15,342.688,4.7524
2186.45,343.405,4.7513
2189.75,344.124,4.7502
2193.05,344.833,4.7493
2196.35,345.541,4.7483
2199.65,346.274,4.7483
2202.95,347.009,4.7487
2206.25,347.725,4.7486
2209.55,348.466,4.748
2212.85,349.195,4.7475
2216.15,349.934,4.747
2219.45,350.672,4.7466
2222.75,351.399,4.7462
2226.05,352.127,4.7459
2229.35,352.886,4.7456
2232.65,353.617,4.7452
2235.95,354.36,4.7446
2239.25,355.109,4.7439
2242.55,355.848,4.7432
2245.85,356.605,4.7429
2249.15,357.358,4.7425
2252.45,358.091,4.7418
2255.75,358.837,4.7412
2259.05,359.592,4.7408
2262.35,360.341,4.7403
2265.65,361.107,4.7398
2268.95,361.834,4.7394
2272.25,362.585,4.739
2275.55,363.344,4.7387
2278.85,364.097,4.7385
2282.15,364.839,4.7382
2285.45,365.588,4.7373
2288.75,366.339,4.7357
2292.05,367.078,4.7351
2295.35,367.816,4.7349
2298.65,368.57,4.7348
2301.95,369.318,4.7348
2305.25,370.058,4.7346
2308.55,370.8,4.7341
2311.85,371.544,4.7335
2315.15,372.285,4.7331
2318.45,373.023,4.7328
2321.75,373.757,4.7324
2325.05,374.481,4.7323
2328.35,375.223,4.7322
2331.65,375.954,4.732
2334.95,376.688,4.732
2338.25,377.412,4.7319
2341.55,378.165,4.7318
2344.85,378.865,4.7317
2348.15,379.594,4.7315
2351.45,380.308,4.7313
2354.75,381.035,4.7311
2358.05,381.754,4.7309
2361.35,382.461,4.7307
2364.65,383.166,4.7304
2367.95,383.881,4.7299
2371.25,384.589,4.7297
2374.55,385.295,4.7282
2377.85,386.002,4.7271
2381.15,386.7,4.7266
2384.45,387.388,4.7265
2387.75,388.086,4.7265
2391.05,388.787,4.7265
2394.35,389.474,4.7265
2397.65,390.18,4.7265
2400.95,390.853,4.7265
2404.25,391.537,4.7265
2407.55,392.23,4.7265
2410.85,392.92,4.7265
2414.15,393.604,4.7265
2417.45,394.292,4.7264
2420.75,394.976,4.7264
2424.05,395.656,4.7264
2427.35,396.326,4.7273
2430.65,396.997,4.7283
2433.95,397.675,4.7284
2437.25,398.347,4.7285
2440.55,399.019,4.7286
2443.85,399.698,4.7287
2447.15,400.364,4.7287
2450.45,401.027,4.7288
2453.75,401.695,4.7289
2457.05,402.346,4.729
2460.35,403.009,4.7291
2463.65,403.683,4.7291
2466.95,404.338,4.7292
2470.25,405.012,4.7292
2473.55,405.664,4.7294
2476.85,406.321,4.7295
2480.15,406.97,4.7295
2483.45,407.631,4.7296
2486.75,408.275,4.7295
2490.05,408.916,4.7295
2493.35,409.576,4.7295
2496.65,410.238,4.7295
2499.95,410.885,4.7295
2503.25,411.532,4.7295
2506.55,412.169,4.7295
2509.85,412.829,4.7295
2513.15,413.48,4.7295
2516.45,414.11,4.7295
2519.75,414.749,4.7295
2523.05,415.392,4.7295
2526.35,416.033,4.7295
2529.65,416.671,4.7295
2532.95,417.303,4.7295
2536.25,417.943,4.7295
2539.55,418.584,4.7295
2542.85,419.208,4.7295
2546.15,419.832,4.7295
2549.45,420.471,4.7295
2552.75,421.12,4.7295
2556.05,421.74,4.7283
2559.35,422.357,4.7275
2562.65,422.994,4.7274
2565.95,423.612,4.7273
2569.25,424.229,4.7273
2572.55,424.845,4.7271
2575.85,425.476,4.7271
2579.15,426.091,4.727
2582.45,426.716,4.727
2585.75,427.318,4.7269
2589.05,427.935,4.7268
2592.35,428.548,4.7264
2595.65,429.157,4.7259
2598.95,429.761,4.7256
2602.25,430.379,4.7255
2605.55,430.99,4.7253
2608.85,431.586,4.7242
2612.15,432.197,4.7237
2615.45,432.797,4.7234
2618.75,433.401,4.7232
2622.05,434.008,4.723
2625.35,434.605,4.7223
2628.65,435.204,4.7213
2631.95,435.814,4.7208
2635.25,436.389,4.7205
2638.55,436.997,4.7201
2641.85,437.586,4.7195
2645.15,438.176,4.719
2648.45,438.778,4.7185
2651.75,439.355,4.7181
2655.05,439.965,4.7177
2658.35,440.543,4.7174
2661.65,441.128,4.7171
2664.95,441.71,4.7167
2668.25,442.297,4.7163
2671.55,442.872,4.7169
2674.85,443.462,4.7166
2678.15,444.049,4.7155
2681.45,444.631,4.7145
2684.75,445.216,4.7139
2688.05,445.792,4.7132
2691.35,446.375,4.7126
2694.65,446.954,4.712
2697.95,447.528,4.7114
2701.25,448.118,4.7107
2704.55,448.684,4.71
2707.85,449.247,4.7092
2711.15,449.815,4.7083
2714.45,450.395,4.7068
2717.75,450.961,4.7056
2721.05,451.54,4.7044
2724.35,452.109,4.7023
2727.65,452.694,4.7005
2730.95,453.262,4.6998
2734.25,453.842,4.6986
2737.55,454.403,4.6977
2740.85,454.971,4.697
2744.15,455.548,4.6961
2747.45,456.113,4.6946
2750.75,456.673,4.6933
2754.05,457.242,4.6923
2757.35,457.803,4.6914
2760.65,458.375,4.6905
2763.95,458.942,4.6899
2767.25,459.497,4.6891
2770.55,460.059,4.6881
2773.85,460.62,4.687
2777.15,461.197,4.6859
2780.45,461.748,4.6839
2783.75,462.314,4.6822
2787.05,462.87,4.6808
2790.35,463.434,4.6799
2793.65,464.004,4.6788
2796.95,464.549,4.6772
2800.25,465.114,4.6756
2803.55,465.671,4.6743
2806.85,466.236,4.673
2810.15,466.802,4.6718
2813.45,467.347,4.6698
2816.75,467.906,4.6681
2820.05,468.455,4.6667
2823.35,469.026,4.6657
2826.65,469.578,4.6644
2829.95,470.137,4.6625
2833.25,470.695,4.6609
2836.55,471.249,4.6593
2839.85,471.806,4.6578
2843.15,472.356,4.6559
2846.45,472.915,4.6534
2849.75,473.476,4.6523
2853.05,474.019,4.6509
2856.35,474.576,4.6493
2859.65,475.141,4.6468
2862.95,475.687,4.6454
2866.25,476.237,4.6439
2869.55,476.787,4.6411
2872.85,477.339,4.6401
2876.15,477.878,4.6382
2879.45,478.443,4.6362
2882.75,478.983,4.6348
2886.05,479.529,4.6332
2889.35,480.08,4.6317
2892.65,480.623,4.6299
2895.95,481.175,4.6279
2899.25,481.733,4.6257
2902.55,482.281,4.6239
2905.85,482.825,4.6221
2909.15,483.385,4.6202
2912.45,483.931,4.6187
2915.75,484.479,4.617
2919.05,485.018,4.6154
2922.35,485.58,4.6135
2925.65,486.122,4.6109
2928.95,486.662,4.6095
2932.25,487.221,4.6073
2935.55,487.764,4.6055
2938.85,488.307,4.6038
2942.15,488.861,4.6023
2945.45,489.405,4.6009
2948.75,489.953,4.5985
2952.05,490.492,4.5966
2955.35,491.043,4.595
2958.65,491.589,4.5926
2961.95,492.133,4.5907
2965.25,492.664,4.5881
2968.55,493.213,4.5859
2971.85,493.764,4.584
2975.15,494.308,4.5814
2978.45,494.86,4.5797
2981.75,495.406,4.5774
2985.05,495.945,4.5759
2988.35,496.488,4.5731
2991.65,497.032,4.5718
2994.95,497.58,4.569
2998.25,498.126,4.5667
3001.55,498.671,4.5646
3004.85,499.207,4.5628
3008.15,499.752,4.5592
3011.45,500.29,4.5574
3014.75,500.843,4.5547
3018.05,501.38,4.5524
3021.35,501.928,4.549
3024.65,502.47,4.5462
3027.95,503.013,4.5435
3031.25,503.56,4.541
3034.55,504.097,4.5369
3037.85,504.654,4.5349
3041.15,505.196,4.5317
3044.45,505.734,4.5285
3047.75,506.277,4.5257
3051.05,506.824,4.5229
3054.35,507.365,4.5203
3057.65,507.915,4.5178
3060.95,508.455,4.5141
3064.25,508.991,4.5102
3067.55,509.545,4.5065
3070.85,510.093,4.5037
3074.15,510.634,4.4995
3077.45,511.172,4.4958
3080.75,511.706,4.4924
3084.05,512.261,4.489
3087.35,512.801,4.4855
3090.65,513.345,4.4813
3093.95,513.899,4.4782
3097.25,514.435,4.4741
3100.55,514.973,4.4715
3103.85,515.513,4.4673
3107.15,516.053,4.4641
3110.45,516.6,4.4601
3113.75,517.155,4.4561
3117.05,517.692,4.4515
3120.35,518.223,4.4479
3123.65,518.765,4.4438
3126.95,519.309,4.4397
3130.25,519.858,4.4351
3133.55,520.404,4.4301
3136.85,520.946,4.4261
3140.15,521.486,4.4217
3143.45,522.026,4.4174
3146.75,522.576,4.4122
3150.05,523.117,4.4076
3153.35,523.652,4.4024
3156.65,524.205,4.3978
3159.95,524.734,4.3929
3163.25,525.286,4.3881
3166.55,525.829,4.3829
3169.85,526.37,4.3775
3173.15,526.91,4.3732
3176.45,527.455,4.3692
3179.75,528.007,4.3637
3183.05,528.55,4.3583
3186.35,529.082,4.3517
3189.65,529.617,4.3451
3192.95,530.157,4.3396
3196.25,530.697,4.3333
3199.55,531.258,4.3276
3202.85,531.8,4.3213
3206.15,532.333,4.3151
3209.45,532.875,4.3096
3212.75,533.414,4.3037
3216.05,533.955,4.2957
3219.35,534.5,4.2899
3222.65,535.044,4.2824
3225.95,535.59,4.2751
3229.25,536.132,4.2682
3232.55,536.679,4.2625
3235.85,537.217,4.2557
3239.15,537.745,4.2495
3242.45,538.286,4.2425
3245.75,538.843,4.2364
3249.05,539.383,4.23
3252.35,539.93,4.2232
3255.65,540.465,4.2166
3258.95,541.007,4.2101
3262.25,541.548,4.2025
3265.55,542.089,4.1959
3268.85,542.645,4.1885
3272.15,543.174,4.1815
3275.45,543.717,4.1735
3278.75,544.262,4.1655
3282.05,544.806,4.1587
3285.35,545.345,4.1508
3288.65,545.884,4.1435
3291.95,546.424,4.136
3295.25,546.972,4.1295
3298.55,547.5,4.1219
3301.85,548.053,4.1149
3305.15,548.594,4.1072
3308.45,549.133,4.1003
3311.75,549.675,4.0931
3315.05,550.216,4.0852
3318.35,550.761,4.0763
3321.65,551.292,4.0683
3324.95,551.843,4.0607
3328.25,552.391,4.0533
3331.55,552.916,4.0456
3334.85,553.468,4.0372
3338.15,554.009,4.028
3341.45,554.544,4.0185
3344.75,555.091,4.0087
3348.05,555.623,3.9995
3351.35,556.18,3.9924
3354.65,556.712,3.9855
3357.95,557.258,3.9768
3361.25,557.799,3.9689
3364.55,558.348,3.9614
3367.85,558.884,3.9517
3371.15,559.428,3.9419
3374.45,559.974,3.9324
3377.75,560.523,3.9223
3381.05,561.067,3.913
3384.35,561.592,3.9042
3387.65,562.147,3.8958
3390.95,562.688,3.8873
3394.25,563.223,3.8786
3397.55,563.767,3.8696
3400.85,564.316,3.8607
3404.15,564.85,3.851
3407.45,565.401,3.8412
3410.75,565.942,3.831
3414.05,566.493,3.8217
3417.35,567.025,3.812
3420.65,567.568,3.803
3423.95,568.1,3.7949
3427.25,568.648,3.7853
3430.55,569.193,3.7745
3433.85,569.727,3.7655
3437.15,570.27,3.7563
3440.45,570.828,3.746
3443.75,571.359,3.7357
3447.05,571.9,3.7266
3450.35,572.452,3.7169
3453.65,572.986,3.7078
3456.95,573.522,3.6979
3460.25,574.078,3.6877
3463.55,574.61,3.6761
3466.85,575.154,3.6665
3470.15,575.696,3.6559
3473.45,576.248,3.6444
3476.75,576.788,3.6328
3480.05,577.334,3.6213
3483.35,577.885,3.6112
3486.65,578.416,3.6001
3489.95,578.971,3.5885
3493.25,579.507,3.5765
3496.55,580.041,3.5654
3499.85,580.583,3.5535
3503.15,581.118,3.5415
3506.45,581.672,3.5292
3509.75,582.203,3.517
3513.05,582.767,3.5045
3516.35,583.312,3.4921
3519.65,583.839,3.4786
3522.95,584.389,3.4662
3526.25,584.927,3.4537
3529.55,585.478,3.4407
3532.85,586.008,3.4271
3536.15,586.557,3.4138
3539.45,587.099,3.4008
3542.75,587.652,3.3875
3546.05,588.192,3.3745
3549.35,588.735,3.3617
3552.65,589.273,3.3484
3555.95,589.817,3.3343
3559.25,590.359,3.3191
3562.55,590.9,3.3027
3565.85,591.448,3.285
3569.15,591.997,3.2691
3572.45,592.531,3.2557
3575.75,593.079,3.2429
3579.05,593.608,3.2296
3582.35,594.165,3.2157
3585.65,594.701,3.2009
3588.95,595.248,3.1851
3592.25,595.792,3.167
3595.55,596.332,3.146
3598.85,596.874,3.1294
3602.15,597.429,3.116
3605.45,597.957,3.1027
3608.75,598.508,3.089
3612.05,599.054,3.0735
3615.35,599.593,3.0544
3618.65,600.134,3.0337
3621.95,600.686,3.0169
3625.25,601.224,3.0016
3628.55,601.767,2.9863
3631.85,602.3,2.973
3635.15,602.848,2.9585
3638.45,603.396,2.9386
3641.75,603.932,2.9161
3645.05,604.475,2.8979
3648.35,605.017,2.8811
3651.65,605.563,2.865
3654.95,606.11,2.847
3658.25,606.656,2.8296
3661.55,607.198,2.8133
3664.85,607.742,2.7969
3668.15,608.289,2.78
3671.45,608.829,2.7629
3674.75,609.376,2.7466
3678.05,609.922,2.729
3681.35,610.445,2.7119
3684.65,611.005,2.6904
3687.95,611.542,2.6734
3691.25,612.098,2.6586
3694.55,612.638,2.6435
3697.85,613.178,2.6256
3701.15,613.719,2.6033
3704.45,614.261,2.5841
3707.75,614.813,2.5673
3711.05,615.354,2.5515
3714.35,615.901,2.5368
3717.65,616.445,2.5175
3720.95,616.987,2.4952
3724.25,617.533,2.4746
3727.55,618.068,2.4546
3730.85,618.614,2.4364
3734.15,619.17,2.4159
3737.45,619.696,2.3964
3740.75,620.241,2.3781
3744.05,620.788,2.3583
3747.35,621.326,2.3377
3750.65,621.871,2.3185
3753.95,622.416,2.3002
3757.25,622.965,2.2785
3760.55,623.511,2.258
3763.85,624.042,2.2366
3767.15,624.589,2.2159
3770.45,625.133,2.1954
3773.75,625.679,2.1746
3777.05,626.217,2.1528
3780.35,626.757,2.1303
3783.65,627.312,2.109
3786.95,627.854,2.0884
3790.25,628.395,2.066
3793.55,628.94,2.0432
3796.85,629.49,2.02
3800.15,630.027,1.9977
3803.45,630.575,1.9751
3806.75,631.121,1.9525
3810.05,631.668,1.9286
3813.35,632.209,1.9064
3816.65,632.745,1.8832
3819.95,633.291,1.8606
3823.25,633.831,1.8385
3826.55,634.382,1.8152
3829.85,634.921,1.7921
3833.15,635.465,1.7692
3836.45,636.018,1.7473
3839.75,636.56,1.7252
3843.05,637.105,1.702
3846.35,637.643,1.6793
3849.65,638.197,1.6576
3852.95,638.731,1.6354
3856.25,639.273,1.6138
3859.55,639.817,1.5927
3862.85,640.356,1.5713
3866.15,640.903,1.551
3869.45,641.447,1.5319
3872.75,641.998,1.5139
3876.05,642.533,1.4946
3879.35,643.089,1.479
3882.65,643.633,1.463
3885.95,644.178,1.4468
3889.25,644.713,1.432
3892.55,645.262,1.418
3895.85,645.803,1.4056
3899.15,646.361,1.393
3902.45,646.894,1.381
3905.75,647.437,1.369
3909.05,647.991,1.3585
3912.35,648.54,1.3485
3915.65,649.089,1.3386
3918.95,649.627,1.3306
3922.25,650.175,1.3233
3925.55,650.716,1.3169
3928.85,651.263,1.3091
3932.15,651.807,1.3034
3935.45,652.361,1.2976
3938.75,652.903,1.2922
3942.05,653.454,1.288
3945.35,654.001,1.2829
3948.65,654.553,1.2803
3951.95,655.105,1.276
3955.25,655.644,1.274
3958.55,656.194,1.2719
3961.85,656.747,1.2687
3965.15,657.296,1.2665
3968.45,657.835,1.2641
3971.75,658.387,1.2611
3975.05,658.92,1.2597
3978.35,659.461,1.2571
3981.65,660.019,1.2551
3984.95,660.559,1.2525
3988.25,661.105,1.2507
3991.55,661.652,1.2493
3994.85,662.196,1.247
3998.15,662.751,1.2447
4001.45,663.286,1.2421
4004.75,663.834,1.2404
4008.05,664.383,1.2387
4011.35,664.916,1.2368
4014.65,665.466,1.235
4017.95,666.018,1.2332
4021.25,666.56,1.2315
4024.55,667.111,1.2299
4027.85,667.658,1.2272
4031.15,668.207,1.2256
4034.45,668.739,1.2236
4037.75,669.295,1.2219
4041.05,669.842,1.22
4044.35,670.395,1.2175
4047.65,670.935,1.2165
4050.95,671.48,1.2152
4054.25,672.022,1.2133
4057.55,672.565,1.2114
4060.85,673.11,1.2097
4064.15,673.655,1.2069
4067.45,674.208,1.2057
4070.75,674.757,1.204
4074.05,675.306,1.2025
4077.35,675.847,1.2011
4080.65,676.401,1.1995
4083.95,676.946,1.1984
4087.25,677.487,1.196
4090.55,678.04,1.1942
4093.85,678.572,1.1921
4097.15,679.127,1.1903
4100.45,679.667,1.1885
4103.75,680.221,1.186
4107.05,680.766,1.1845
4110.35,681.313,1.1827
4113.65,681.862,1.1811
4116.95,682.403,1.179
4120.25,682.95,1.1774
4123.55,683.504,1.1761
4126.85,684.047,1.1745
4130.15,684.582,1.1722
4133.45,685.135,1.171
4136.75,685.69,1.1696
4140.05,686.219,1.1679
4143.35,686.774,1.1658
4146.65,687.321,1.1642
4149.95,687.868,1.1628
4153.25,688.41,1.1615
4156.55,688.961,1.159
4159.85,689.507,1.158
4163.15,690.05,1.1566
4166.45,690.599,1.1546
4169.75,691.137,1.1533
4173.05,691.688,1.1519
4176.35,692.244,1.1502
4179.65,692.776,1.1487
4182.95,693.332,1.1473
4186.25,693.875,1.1452
4189.55,694.424,1.1436
4192.85,694.961,1.1423
4196.15,695.515,1.1406
4199.45,696.056,1.1389
4202.75,696.596,1.1373
4206.05,697.143,1.136
4209.35,697.677,1.135
4212.65,698.223,1.134
4215.95,698.78,1.1327
4219.25,699.32,1.1307
4222.55,699.866,1.1296
4225.85,700.418,1.1281
4229.15,700.967,1.1266
4232.45,701.499,1.1249
4235.75,702.038,1.1234
4239.05,702.599,1.1217
4242.35,703.132,1.1203
4245.65,703.691,1.1186
4248.95,704.234,1.1159
4252.25,704.775,1.1146
4255.55,705.311,1.1128
4258.85,705.868,1.1108
4262.15,706.422,1.1089
4265.45,706.947,1.1075
4268.75,707.489,1.105
4272.05,708.043,1.1032
4275.35,708.586,1.102
4278.65,709.129,1.0997
4281.95,709.681,1.0974
4285.25,710.227,1.096
4288.55,710.779,1.0942
4291.85,711.326,1.0918
4295.15,711.872,1.0905
4298.45,712.416,1.0889
4301.75,712.971,1.0874
4305.05,713.521,1.0857
4308.35,714.058,1.0835
4311.65,714.624,1.0817
4314.95,715.157,1.0809
4318.25,715.713,1.0791
4321.55,716.251,1.0776
4324.85,716.806,1.0762
4328.15,717.355,1.0747
4331.45,717.913,1.0726
4334.75,718.449,1.071
4338.05,718.997,1.0695
4341.35,719.545,1.0681
4344.65,720.096,1.0666
4347.95,720.646,1.0645
4351.25,721.195,1.063
4354.55,721.741,1.0612
4357.85,722.286,1.0595
4361.15,722.838,1.0578
4364.45,723.378,1.0562
4367.75,723.927,1.0547
4371.05,724.478,1.0529
4374.35,725.014,1.051
4377.65,725.577,1.0493
4380.95,726.116,1.0481
4384.25,726.665,1.0468
4387.55,727.209,1.045
4390.85,727.757,1.0438
4394.15,728.309,1.0423
4397.45,728.86,1.0411
4400.75,729.4,1.0384
4404.05,729.951,1.0374
4407.35,730.498,1.0348
4410.65,731.04,1.033
4413.95,731.591,1.0312
4417.25,732.141,1.0285
4420.55,732.688,1.0275
4423.85,733.234,1.0261
4427.15,733.792,1.0239
4430.45,734.328,1.022
4433.75,734.884,1.0205
4437.05,735.431,1.0188
4440.35,735.981,1.0165
4443.65,736.516,1.0147
4446.95,737.064,1.013
4450.25,737.611,1.0108
4453.55,738.157,1.0092
4456.85,738.719,1.0076
4460.15,739.267,1.0061
4463.45,739.805,1.0039
4466.75,740.343,1.0028
4470.05,740.893,1.0016
4473.35,741.441,0.9999
4476.65,741.996,0.9981
4479.95,742.54,0.9967
4483.25,743.081,0.9953
4486.55,743.635,0.9939
4489.85,744.184,0.9919
4493.15,744.724,0.9903
4496.45,745.27,0.9889
4499.75,745.817,0.9872
4503.05,746.375,0.985
4506.35,746.922,0.9833
4509.65,747.459,0.9817
4512.95,748.006,0.9787
4516.25,748.546,0.9768
4519.55,749.107,0.9748
4522.85,749.647,0.9728
4526.15,750.205,0.9713
4529.45,750.744,0.9694
4532.75,751.295,0.9678
4536.05,751.837,0.9669
4539.35,752.385,0.9652
4542.65,752.932,0.9638
4545.95,753.473,0.9619
4549.25,754.017,0.9599
4552.55,754.567,0.9581
4555.85,755.122,0.9566
4559.15,755.669,0.9546
4562.45,756.215,0.9521
4565.75,756.766,0.9514
4569.05,757.313,0.95
4572.35,757.854,0.9484
4575.65,758.397,0.9469
4578.95,758.951,0.9454
4582.25,759.495,0.944
4585.55,760.039,0.9423
4588.85,760.59,0.94
4592.15,761.13,0.9393
4595.45,761.671,0.9382
4598.75,762.222,0.9365
4602.05,762.762,0.9349
4605.35,763.306,0.9331
4608.65,763.859,0.9315
4611.95,764.403,0.93
4615.25,764.949,0.9286
4618.55,765.499,0.9272
4621.85,766.042,0.9247
4625.15,766.593,0.9236
4628.45,767.133,0.9224
4631.75,767.68,0.9203
4635.05,768.236,0.9174
4638.35,768.782,0.9152
4641.65,769.337,0.9122
4644.95,769.89,0.9106
4648.25,770.435,0.9092
4651.55,770.977,0.9073
4654.85,771.533,0.9055
4658.15,772.079,0.9027
4661.45,772.631,0.9009
4664.75,773.177,0.8997
4668.05,773.724,0.8976
4671.35,774.278,0.896
4674.65,774.819,0.8946
4677.95,775.369,0.8932
4681.25,775.92,0.8911
4684.55,776.47,0.8905
4687.85,777.016,0.8891
4691.15,777.563,0.887
4694.45,778.107,0.8853
4697.75,778.662,0.8836
4701.05,779.207,0.8812
4704.35,779.761,0.8792
4707.65,780.303,0.8773
4710.95,780.854,0.8746
4714.25,781.405,0.872
4717.55,781.956,0.8697
4720.85,782.502,0.8678
4724.15,783.044,0.8657
4727.45,783.6,0.8642
4730.75,784.149,0.862
4734.05,784.693,0.86
4737.35,785.244,0.8581
4740.65,785.796,0.8556
4743.95,786.342,0.853
4747.25,786.893,0.8503
4750.55,787.443,0.8486
4753.85,787.985,0.8469
4757.15,788.547,0.8447
4760.45,789.086,0.8433
4763.75,789.64,0.8417
4767.05,790.188,0.8391
4770.35,790.743,0.8374
4773.65,791.296,0.8354
4776.95,791.836,0.8337
4780.25,792.384,0.8319
4783.55,792.93,0.8297
4786.85,793.475,0.8273
4790.15,794.025,0.8253
4793.45,794.568,0.8225
4796.75,795.117,0.8205
4800.05,795.668,0.8186
4803.35,796.22,0.8166
4806.65,796.772,0.814
4809.95,797.31,0.8131
4813.25,797.868,0.8118
4816.55,798.419,0.8107
4819.85,798.953,0.8091
4823.15,799.499,0.8079
4826.45,800.05,0.8067
4829.75,800.591,0.8054
4833.05,801.149,0.8046
4836.35,801.697,0.8036
4839.65,802.237,0.8024
4842.95,802.776,0.801
4846.25,803.328,0.8006
4849.55,803.882,0.7996
4852.85,804.427,0.7982
4856.15,804.969,0.7962
4859.45,805.52,0.7943
4862.75,806.068,0.7929
4866.05,806.612,0.7909
4869.35,807.147,0.7888
4872.65,807.703,0.7872
4875.95,808.254,0.7844
4879.25,808.802,0.7823
4882.55,809.357,0.7806
4885.85,809.906,0.7785
4889.15,810.444,0.7765
4892.45,810.994,0.7744
4895.75,811.546,0.7724
4899.05,812.094,0.7701
4902.35,812.638,0.7671
4905.65,813.186,0.7652
4908.95,813.731,0.7629
4912.25,814.282,0.761
4915.55,814.836,0.7593
4918.85,815.391,0.7569
4922.15,815.94,0.7551
4925.45,816.479,0.7532
4928.75,817.032,0.7509
4932.05,817.587,0.7489
4935.35,818.134,0.7476
4938.65,818.684,0.7451
4941.95,819.219,0.7429
4945.25,819.779,0.7408
4948.55,820.328,0.738
4951.85,820.877,0.7357
4955.15,821.43,0.7327
4958.45,821.977,0.7308
4961.75,822.535,0.7282
4965.05,823.083,0.726
4968.35,823.635,0.7231
4971.65,824.178,0.7212
4974.95,824.73,0.7189
4978.25,825.28,0.7172
4981.55,825.836,0.7144
4984.85,826.378,0.7126
4988.15,826.925,0.711
4991.45,827.471,0.7096
4994.75,828.035,0.7082
4998.05,828.573,0.7066
5001.35,829.126,0.7052
5004.65,829.671,0.704
5007.95,830.216,0.7014
5011.25,830.764,0.6999
5014.55,831.316,0.6981
5017.85,831.858,0.6959
5021.15,832.416,0.6939
5024.45,832.962,0.6923
5027.75,833.506,0.6897
5031.05,834.062,0.6881
5034.35,834.606,0.6865
5037.65,835.162,0.6844
5040.95,835.7,0.6824
5044.25,836.253,0.6804
5047.55,836.796,0.678
5050.85,837.347,0.6759
5054.15,837.898,0.6741
5057.45,838.453,0.6725
5060.75,839.003,0.6716
5064.05,839.55,0.6698
5067.35,840.097,0.6681
5070.65,840.652,0.6665
5073.95,841.201,0.664
5077.25,841.745,0.6629
5080.55,842.298,0.6609
5083.85,842.848,0.6588
5087.15,843.393,0.657
5090.45,843.95,0.6546
5093.75,844.49,0.6534
5097.05,845.049,0.6508
5100.35,845.599,0.6486
5103.65,846.148,0.647
5106.95,846.7,0.6442
5110.25,847.248,0.6428
5113.55,847.802,0.641
5116.85,848.355,0.6389
5120.15,848.905,0.6368
5123.45,849.455,0.635
5126.75,850.001,0.6323
5130.05,850.553,0.6307
5133.35,851.096,0.6289
5136.65,851.653,0.6269
5139.95,852.203,0.6247
5143.25,852.76,0.6218
5146.55,853.303,0.6199
5149.85,853.858,0.6183
5153.15,854.408,0.6161
5156.45,854.964,0.6145
5159.75,855.505,0.6129
5163.05,856.062,0.6099
5166.35,856.61,0.6083
5169.65,857.156,0.6071
5172.95,857.704,0.6055
5176.25,858.255,0.6037
5179.55,858.801,0.6013
5182.85,859.348,0.5998
5186.15,859.9,0.598
5189.45,860.438,0.5961
5192.75,861.002,0.5945
5196.05,861.558,0.5924
5199.35,862.095,0.5903
5202.65,862.659,0.5884
5205.95,863.199,0.586
5209.25,863.74,0.5841
5212.55,864.294,0.5824
5215.85,864.835,0.5806
5219.15,865.39,0.5778
5222.45,865.942,0.5767
5225.75,866.486,0.5749
5229.05,867.035,0.5728
5232.35,867.585,0.5709
5235.65,868.128,0.5692
5238.95,868.67,0.5674
5242.25,869.232,0.5649
5245.55,869.779,0.5639
5248.85,870.338,0.5618
5252.15,870.884,0.5606
5255.45,871.424,0.5585
5258.75,871.981,0.5569
5262.05,872.52,0.5545
5265.35,873.067,0.5518
5268.65,873.623,0.5502
5271.95,874.175,0.548
5275.25,874.725,0.5456
5278.55,875.276,0.5439
5281.85,875.83,0.5425
5285.15,876.373,0.5409
5288.45,876.938,0.538
5291.75,877.478,0.5367
5295.05,878.027,0.5347
5298.35,878.582,0.5327
5301.65,879.136,0.5308
5304.95,879.679,0.5292
5308.25,880.249,0.5278
5311.55,880.789,0.5249
5314.85,881.334,0.5231
5318.15,881.889,0.5203
5321.45,882.446,0.5181
5324.75,882.997,0.5161
5328.05,883.535,0.5132
5331.35,884.096,0.5116
5334.65,884.652,0.5109
5337.95,885.19,0.5085
5341.25,885.747,0.5066
5344.55,886.293,0.5051
5347.85,886.846,0.5036
5351.15,887.401,0.501
5354.45,887.949,0.5002
5357.75,888.506,0.4993
5361.05,889.07,0.4978
5364.35,889.617,0.4956
5367.65,890.16,0.4939
5370.95,890.716,0.4923
5374.25,891.255,0.4902
5377.55,891.808,0.4888
5380.85,892.355,0.4875
5384.15,892.905,0.4855
5387.45,893.452,0.4839
5390.75,894.011,0.4823
5394.05,894.566,0.4806
5397.35,895.11,0.4787
5400.65,895.657,0.4769
5403.95,896.214,0.4753
5407.25,896.758,0.473
5410.55,897.308,0.4715
5413.85,897.855,0.4699
5417.15,898.412,0.4676
5420.45,898.959,0.4655
5423.75,899.525,0.4636
5427.05,900.073,0.4615
5430.35,900.621,0.4597
5433.65,901.161,0.4583
5436.95,901.719,0.4568
5440.25,902.267,0.4552
5443.55,902.818,0.4524
5446.85,903.366,0.4507
5450.15,903.914,0.4482
5453.45,904.469,0.4466
5456.75,905.021,0.4452
5460.05,905.581,0.4438
5463.35,906.13,0.4426
5466.65,906.687,0.44
5469.95,907.241,0.4389
5473.25,907.786,0.4375
5476.55,908.328,0.4359
5479.85,908.893,0.434
5483.15,909.437,0.4327
5486.45,909.988,0.431
5489.75,910.543,0.4294
5493.05,911.096,0.4276
5496.35,911.637,0.4251
5499.65,912.185,0.4231
5502.95,912.733,0.4214
5506.25,913.289,0.4195
5509.55,913.833,0.4173
5512.85,914.382,0.4157
5516.15,914.946,0.4138
5519.45,915.491,0.4112
5522.75,916.038,0.4095
5526.05,916.587,0.4083
5529.35,917.148,0.4065
5532.65,917.702,0.4049
5535.95,918.253,0.4033
5539.25,918.81,0.401
5542.55,919.356,0.3995
5545.85,919.899,0.3967
5549.15,920.453,0.3947
5552.45,921.016,0.393
5555.75,921.562,0.3908001
5559.05,922.107,0.3896
5562.35,922.661,0.3884
5565.65,923.22,0.3868
5568.95,923.764,0.3852
5572.25,924.323,0.3831
5575.55,924.868,0.3817
5578.85,925.418,0.3789
5582.15,925.976,0.378
5585.45,926.535,0.3766
5588.75,927.081,0.3751
5592.05,927.625,0.3746
5595.35,928.179,0.3731
5598.65,928.742,0.3714999
5601.95,929.289,0.37
5605.25,929.834,0.3682
5608.55,930.385,0.3662
5611.85,930.937,0.3648
5615.15,931.486,0.3635
5618.45,932.05,0.3617
5621.75,932.587,0.3597
5625.05,933.135,0.3579
5628.35,933.704,0.3562
5631.65,934.246,0.3545
5634.95,934.797,0.3527
5638.25,935.345,0.3504
5641.55,935.887,0.3486
5644.85,936.454,0.3466
5648.15,937.008,0.3444
5651.45,937.554,0.3427
5654.75,938.107,0.3409
5658.05,938.658,0.3393
5661.35,939.21,0.3366
5664.65,939.761,0.3354
5667.95,940.304,0.3339
5671.25,940.868,0.3323
5674.55,941.415,0.3306
5677.85,941.969,0.3290999
5681.15,942.524,0.3275
5684.45,943.075,0.3263
5687.75,943.62,0.3249
5691.05,944.177,0.3229
5694.35,944.721,0.3212
5697.65,945.273,0.3204
5700.95,945.833,0.3187
5704.25,946.378,0.3173
5707.55,946.918,0.3162
5710.85,947.476,0.3149
5714.15,948.014,0.3132
5717.45,948.571,0.312
5720.75,949.126,0.3108
5724.05,949.665,0.3097
5727.35,950.226,0.3082
5730.65,950.771,0.3065
5733.95,951.322,0.3042
5737.25,951.863,0.3032
5740.55,952.422,0.302
5743.85,952.977,0.3008
5747.15,953.531,0.2993
5750.45,954.071,0.2975
5753.75,954.618,0.2958
5757.05,955.169,0.2945
5760.35,955.715,0.2929
5763.65,956.272,0.2917
5766.95,956.82,0.2905
5770.25,957.374,0.2903
5773.55,957.93,0.288
5776.85,958.473,0.2866999
5780.15,959.015,0.285
5783.45,959.572,0.2828
5786.75,960.116,0.2813
5790.05,960.672,0.2797
5793.35,961.23,0.2784
5796.65,961.765,0.2762
5799.95,962.323,0.2747
5803.25,962.873,0.2734
5806.55,963.42,0.2719
5809.85,963.979,0.2704
5813.15,964.529,0.2692
5816.45,965.069,0.2678
5819.75,965.628,0.2669
5823.05,966.178,0.266
5826.35,966.734,0.2647
5829.65,967.282,0.2621
5832.95,967.846,0.2609
5836.25,968.388,0.2596
5839.55,968.937,0.2586
5842.85,969.49,0.2575
5846.15,970.051,0.2556
5849.45,970.599,0.2542
5852.75,971.144,0.2528
5856.05,971.704,0.2514
5859.35,972.257,0.2501
5862.65,972.808,0.248
5865.95,973.353,0.2465
5869.25,973.902,0.2452
5872.55,974.456,0.2435
5875.85,975.01,0.2424
5879.15,975.559,0.2408
5882.45,976.115,0.2393
5885.75,976.671,0.238
5889.05,977.214,0.2361
5892.35,977.775,0.2344
5895.65,978.326,0.2318
5898.95,978.88,0.2307
5902.25,979.429,0.2294
5905.55,979.979,0.2281
5908.85,980.531,0.2256
5912.15,981.077,0.2235
5915.45,981.627,0.2218
5918.75,982.191,0.2198
5922.05,982.738,0.2175
5925.35,983.285,0.216
5928.65,983.832,0.2137
5931.95,984.391,0.2122
5935.25,984.943,0.2107
5938.55,985.495,0.2096
5941.85,986.049,0.2083
5945.15,986.597,0.2061
5948.45,987.153,0.2049
5951.75,987.704,0.2037
5955.05,988.248,0.2027
5958.35,988.804,0.2015
5961.65,989.364,0.1999
5964.95,989.91,0.1981
5968.25,990.459,0.1967
5971.55,991.018,0.1952
5974.85,991.57,0.1939
5978.15,992.111,0.1931
5981.45,992.661,0.1923
5984.75,993.216,0.1918
5988.05,993.765,0.1897
5991.35,994.316,0.1892
5994.65,994.874,0.1884
5997.95,995.416,0.1875
6001.25,995.968,0.1866
6004.55,996.525,0.1857
6007.85,997.071,0.1844
6011.15,997.622,0.1829
6014.45,998.175,0.1819
6017.75,998.719,0.1817
6021.05,999.28,0.1809
6024.35,999.821,0.1802
6027.65,1000.37,0.1798
6030.95,1000.93,0.1791
6034.25,1001.48,0.1779
6037.55,1002.03,0.1759
6040.85,1002.57,0.1756
6044.15,1003.13,0.1752
6047.45,1003.68,0.1744
6050.75,1004.23,0.1733
6054.05,1004.79,0.1721
6057.35,1005.34,0.1711
6060.65,1005.89,0.1702
6063.95,1006.426,0.1704
6067.25,1006.99,0.1698
6070.55,1007.538,0.1691
6073.85,1008.09,0.1688
6077.15,1008.64,0.168
6080.45,1009.19,0.1671
6083.75,1009.74,0.1666
6087.05,1010.29,0.1658
6090.35,1010.85,0.165
6093.65,1011.4,0.1641
6096.95,1011.95,0.163
6100.25,1012.51,0.1615
6103.55,1013.05,0.1606
6106.85,1013.6,0.16
6110.15,1014.17,0.1591
6113.45,1014.71,0.1586
6116.75,1015.27,0.1583
6120.05,1015.82,0.1577
6123.35,1016.37,0.157
6126.65,1016.92,0.1562
6129.95,1017.47,0.1547
6133.25,1018.02,0.1534
6136.55,1018.57,0.1522
6139.85,1019.124,0.1514
6143.15,1019.67,0.1504
6146.45,1020.23,0.149
6149.75,1020.775,0.148
6153.05,1021.33,0.1469
6156.35,1021.88,0.1446
6159.65,1022.44,0.1435
6162.95,1022.991,0.1423
6166.25,1023.538,0.1413
6169.55,1024.1,0.1403
6172.85,1024.64,0.1388
6176.15,1025.19,0.1374
6179.45,1025.74,0.1355
6182.75,1026.3,0.1341
6186.05,1026.85,0.1331
6189.35,1027.41,0.1319
6192.65,1027.96,0.131
6195.95,1028.51,0.13
6199.25,1029.05,0.1294
6202.55,1029.6,0.1283
6205.85,1030.15,0.1271
6209.15,1030.71,0.126
6212.45,1031.26,0.1247
6215.75,1031.809,0.1232
6219.05,1032.36,0.1219
6222.35,1032.92,0.1208
6225.65,1033.47,0.1199
6228.95,1034.02,0.1188
6232.25,1034.57,0.1179
6235.55,1035.12,0.117
6238.85,1035.67,0.116
6242.15,1036.22,0.116
6245.45,1036.78,0.1152
6248.75,1037.32,0.1143
6252.05,1037.87,0.1139
6255.35,1038.42,0.1128
6258.65,1038.98,0.1107
6261.95,1039.54,0.1094
6265.25,1040.09,0.1083
6268.55,1040.63,0.1069
6271.85,1041.189,0.1059
6275.15,1041.74,0.1048
6278.45,1042.29,0.1033
6281.75,1042.84,0.1017
6285.05,1043.39,0.1006
6288.35,1043.95,0.1002
6291.65,1044.49,0.0989999
6294.95,1045.05,0.0975
6298.25,1045.6,0.0963999
6301.55,1046.16,0.0952998
6304.85,1046.715,0.0949001
6308.15,1047.26,0.0934998
6311.45,1047.81,0.0922001
6314.75,1048.36,0.0908999
6318.05,1048.921,0.0898998
6321.35,1049.47,0.0893
6324.65,1050.02,0.0886001
6327.95,1050.57,0.08799977
6331.25,1051.12,0.0876001
6334.55,1051.67,0.08739994
6337.85,1052.23,0.0871998
6341.15,1052.77,0.0869002
6344.45,1053.32,0.0869002
6347.75,1053.88,0.08680011
6351.05,1054.43,0.0862998
6354.35,1054.99,0.0860002
6357.65,1055.53,0.0854999
6360.95,1056.07,0.0851002
6364.25,1056.63,0.0850001
6367.55,1057.17,0.0850001
6370.85,1057.73,0.0848
6374.15,1058.283,0.0844998
6377.45,1058.822,0.08420017
6380.75,1059.38,0.0831001
6384.05,1059.93,0.0823001
6387.35,1060.49,0.0816998
6390.65,1061.04,0.0808998
6393.95,1061.6,0.0803
6397.25,1062.145,0.07960012
6400.55,1062.689,0.0788002
6403.85,1063.24,0.0775
6407.15,1063.79,0.0766
6410.45,1064.35,0.0759001
6413.75,1064.895,0.0753002
6417.05,1065.44,0.0743002
6420.35,1065.99,0.0731
6423.65,1066.55,0.0722
6426.95,1067.11,0.0713
6430.25,1067.66,0.0717998
6433.55,1068.21,0.0712
6436.85,1068.762,0.0706001
6440.15,1069.3,0.0698002
6443.45,1069.86,0.0687001
6446.75,1070.43,0.0672002
6450.1,1070.97,0.06690008
6483.1,1073.67,0.0579001
6516.1,1073.87,0.0523
6549.1,1073.73,0.0463002
6582.1,1073.65,0.04499994
6615.1,1073.62,0.0461001
6648.1,1073.611,0.0463002
6681.1,1073.58,0.04499994
6714.1,1073.58,0.0455002
6747.1,1073.52,0.0484999
6780.1,1073.48,0.0466999
6813.1,1073.439,0.0431999
6846.1,1073.38,0.0415
6879.1,1073.36,0.0382002
6912.1,1073.32,0.0389001
6945.1,1073.3,0.0410002
6978.1,1073.283,0.0426001
7011.1,1073.26,0.0439999
7044.1,1073.24,0.0454002
7077.1,1073.21,0.0437998
7110.1,1073.2,0.0407001
7143.1,1073.19,0.0430999
7176.1,1073.18,0.0443001
7209.1,1073.18,0.0457999
7242.1,1073.17,0.04559977
7275.1,1073.163,0.04440011
7308.1,1073.15,0.0443001
7341.1,1073.145,0.0448999
7347.1,1073.14,0.0448999