File: Wood/Calibration_Data/MFSL/MFSL_TGA_N2_10K_R1.csv
Time (s),Temperature (K),Mass (mg)
0.0,293.3,4.944
9.0,293.3,4.960
18.6,293.3,4.945
28.2,293.4,4.943
37.8,293.4,4.941
47.4,293.5,4.940
57.0,293.6,4.939
66.6,293.8,4.938
76.2,294.0,4.936
85.8,294.3,4.935
116.9,295.7,4.920
164.9,299.0,4.890
212.9,302.6,4.858
260.9,306.1,4.821
308.9,309.1,4.785
356.9,311.4,4.754
404.9,313.2,4.730
452.9,314.4,4.709
500.9,315.2,4.693
548.9,315.7,4.680
596.9,315.9,4.669
644.9,315.9,4.662
692.9,315.8,4.659
740.9,315.5,4.652
788.9,315.3,4.649
836.9,315.0,4.647
884.9,314.7,4.645
932.9,314.4,4.641
980.9,314.1,4.644
1028.9,313.9,4.644
1076.9,313.6,4.644
1124.9,313.4,4.644
1172.9,313.3,4.645
1220.9,313.2,4.639
1268.9,313.1,4.638
1316.9,313.1,4.636
1364.9,313.0,4.635
1412.9,313.0,4.640
1460.9,313.0,4.638
1508.9,313.0,4.640
1556.9,313.0,4.641
1604.9,313.0,4.643
1652.9,313.0,4.641
1700.9,313.0,4.641
1748.9,313.0,4.643
1796.9,313.0,4.641
1844.9,313.0,4.642
1890.3,313.0,4.645
1895.1,313.0,4.645
1899.9,313.0,4.645
1904.7,313.0,4.645
1909.5,313.0,4.646
1914.3,313.1,4.645
1919.1,313.1,4.645
1923.9,313.1,4.645
1928.7,313.1,4.645
1933.5,313.2,4.644
1938.3,313.2,4.644
1943.1,313.3,4.644
1947.9,313.4,4.643
1952.7,313.5,4.643
1957.5,313.6,4.643
1962.3,313.7,4.645
1967.1,313.9,4.644
1971.9,314.0,4.644
1976.7,314.2,4.644
1981.5,314.4,4.644
1986.3,314.6,4.645
1991.1,314.9,4.644
1995.9,315.1,4.644
2000.7,315.4,4.645
2005.5,315.7,4.644
2010.3,316.1,4.644
2015.1,316.4,4.644
2019.9,316.8,4.644
2024.7,317.2,4.644
2029.5,317.6,4.645
2034.3,318.1,4.644
2039.1,318.5,4.645
2043.9,319.0,4.645
2048.7,319.5,4.644
2053.5,320.1,4.644
2058.3,320.7,4.644
2063.1,321.3,4.644
2067.9,321.9,4.645
2072.7,322.5,4.644
2077.5,323.2,4.644
2082.3,323.9,4.644
2087.1,324.6,4.644
2091.9,325.4,4.643
2096.7,326.1,4.642
2101.5,326.9,4.642
2106.3,327.7,4.643
2111.1,328.5,4.642
2115.9,329.3,4.641
2120.7,330.2,4.642
2125.5,331.1,4.641
2130.3,332.0,4.640
2135.1,332.9,4.640
2139.9,333.8,4.639
2144.7,334.7,4.640
2149.5,335.7,4.639
2154.3,336.6,4.639
2159.1,337.6,4.638
2163.9,338.6,4.638
2168.7,339.6,4.639
2173.5,340.6,4.639
2178.3,341.6,4.638
2183.1,342.7,4.637
2187.9,343.7,4.636
2192.7,344.8,4.635
2197.5,345.8,4.634
2202.3,346.9,4.635
2207.1,347.9,4.635
2211.9,349.0,4.635
2216.7,350.1,4.633
2221.5,351.1,4.632
2226.3,352.2,4.632
2231.1,353.3,4.631
2235.9,354.3,4.630
2240.7,355.4,4.629
2245.5,356.5,4.628
2250.3,357.6,4.627
2255.1,358.7,4.626
2259.9,359.8,4.626
2264.7,360.9,4.625
2269.5,361.9,4.624
2274.3,363.0,4.624
2279.1,364.1,4.623
2283.9,365.2,4.623
2288.7,366.3,4.622
2293.5,367.4,4.622
2298.3,368.5,4.621
2303.1,369.6,4.621
2307.9,370.6,4.621
2312.7,371.7,4.620
2317.5,372.8,4.619
2322.3,373.9,4.619
2327.1,374.9,4.619
2331.9,376.0,4.619
2336.7,377.1,4.619
2341.5,378.1,4.618
2346.3,379.2,4.618
2351.1,380.2,4.618
2355.9,381.3,4.618
2360.7,382.3,4.618
2365.5,383.3,4.618
2370.3,384.4,4.618
2375.1,385.4,4.617
2379.9,386.4,4.617
2384.7,387.4,4.617
2389.5,388.4,4.617
2394.3,389.4,4.617
2399.1,390.5,4.617
2403.9,391.5,4.617
2408.7,392.5,4.617
2413.5,393.5,4.617
2418.3,394.5,4.617
2423.1,395.4,4.617
2427.9,396.4,4.617
2432.7,397.4,4.617
2437.5,398.4,4.617
2442.3,399.4,4.617
2447.1,400.4,4.617
2451.9,401.3,4.617
2456.7,402.3,4.616
2461.5,403.3,4.616
2466.3,404.2,4.616
2471.1,405.2,4.616
2475.9,406.1,4.616
2480.7,407.1,4.616
2485.5,408.1,4.616
2490.3,409.0,4.616
2495.1,409.9,4.616
2499.9,410.9,4.616
2504.7,411.8,4.616
2509.5,412.8,4.617
2514.3,413.7,4.618
2519.1,414.7,4.618
2523.9,415.6,4.618
2528.7,416.5,4.618
2533.5,417.4,4.618
2538.3,418.4,4.618
2543.1,419.3,4.618
2547.9,420.2,4.618
2552.7,421.1,4.618
2557.5,422.1,4.618
2562.3,423.0,4.617
2567.1,423.9,4.616
2571.9,424.8,4.615
2576.7,425.7,4.615
2581.5,426.6,4.614
2586.3,427.5,4.614
2591.1,428.4,4.614
2595.9,429.3,4.613
2600.7,430.2,4.613
2605.5,431.0,4.612
2610.3,431.9,4.612
2615.1,432.8,4.612
2619.9,433.7,4.611
2624.7,434.6,4.608
2629.5,435.4,4.607
2634.3,436.3,4.607
2639.1,437.2,4.607
2643.9,438.0,4.607
2648.7,438.9,4.607
2653.5,439.8,4.606
2658.3,440.6,4.605
2663.1,441.5,4.604
2667.9,442.3,4.602
2672.7,443.2,4.603
2677.5,444.0,4.603
2682.3,444.9,4.602
2687.1,445.7,4.601
2691.9,446.5,4.600
2696.7,447.4,4.600
2701.5,448.2,4.599
2706.3,449.1,4.597
2711.1,449.9,4.596
2715.9,450.7,4.594
2720.7,451.6,4.593
2725.5,452.4,4.591
2730.3,453.2,4.589
2735.1,454.0,4.587
2739.9,454.9,4.585
2744.7,455.7,4.584
2749.5,456.5,4.582
2754.3,457.4,4.581
2759.1,458.2,4.580
2763.9,459.0,4.577
2768.7,459.8,4.576
2773.5,460.6,4.574
2778.3,461.5,4.573
2783.1,462.3,4.571
2787.9,463.1,4.568
2792.7,463.9,4.567
2797.5,464.7,4.565
2802.3,465.5,4.563
2807.1,466.4,4.561
2811.9,467.2,4.559
2816.7,468.0,4.557
2821.5,468.8,4.555
2826.3,469.6,4.552
2831.1,470.4,4.550
2835.9,471.2,4.548
2840.7,472.0,4.545
2845.5,472.8,4.543
2850.3,473.6,4.541
2855.1,474.4,4.539
2859.9,475.3,4.536
2864.7,476.1,4.535
2869.5,476.9,4.532
2874.3,477.7,4.530
2879.1,478.5,4.528
2883.9,479.3,4.526
2888.7,480.1,4.523
2893.5,480.9,4.522
2898.3,481.7,4.519
2903.1,482.5,4.516
2907.9,483.3,4.514
2912.7,484.1,4.512
2917.5,484.9,4.508
2922.3,485.7,4.506
2927.1,486.5,4.504
2931.9,487.3,4.501
2936.7,488.0,4.498
2941.5,488.8,4.496
2946.3,489.6,4.494
2951.1,490.4,4.490
2955.9,491.2,4.487
2960.7,492.0,4.484
2965.5,492.8,4.481
2970.3,493.6,4.478
2975.1,494.4,4.475
2979.9,495.2,4.471
2984.7,496.0,4.468
2989.5,496.8,4.465
2994.3,497.6,4.462
2999.1,498.4,4.459
3003.9,499.2,4.455
3008.7,500.0,4.452
3013.5,500.7,4.448
3018.3,501.5,4.445
3023.1,502.3,4.441
3027.9,503.1,4.437
3032.7,503.9,4.433
3037.5,504.7,4.430
3042.3,505.5,4.425
3047.1,506.3,4.421
3051.9,507.1,4.415
3056.7,507.9,4.411
3061.5,508.7,4.406
3066.3,509.5,4.401
3071.1,510.2,4.396
3075.9,511.0,4.392
3080.7,511.8,4.387
3085.5,512.6,4.382
3090.3,513.4,4.377
3095.1,514.2,4.370
3099.9,515.0,4.365
3104.7,515.8,4.359
3109.5,516.6,4.354
3114.3,517.3,4.348
3119.1,518.1,4.341
3123.9,518.9,4.336
3128.7,519.7,4.329
3133.5,520.5,4.322
3138.3,521.3,4.316
3143.1,522.1,4.309
3147.9,522.9,4.301
3152.7,523.7,4.295
3157.5,524.4,4.289
3162.3,525.2,4.282
3167.1,526.0,4.276
3171.9,526.8,4.268
3176.7,527.6,4.262
3181.5,528.4,4.255
3186.3,529.2,4.247
3191.1,530.0,4.237
3195.9,530.8,4.228
3200.7,531.6,4.218
3205.5,532.3,4.210
3210.3,533.1,4.202
3215.1,533.9,4.193
3219.9,534.7,4.183
3224.7,535.5,4.173
3229.5,536.3,4.164
3234.3,537.1,4.155
3239.1,537.9,4.145
3243.9,538.6,4.135
3248.7,539.4,4.126
3253.5,540.2,4.115
3258.3,541.0,4.108
3263.1,541.8,4.098
3267.9,542.6,4.089
3272.7,543.4,4.079
3277.5,544.2,4.069
3282.3,545.0,4.059
3287.1,545.7,4.048
3291.9,546.5,4.037
3296.7,547.3,4.025
3301.5,548.1,4.015
3306.3,548.9,4.004
3311.1,549.7,3.993
3315.9,550.5,3.980
3320.7,551.3,3.969
3325.5,552.1,3.958
3330.3,552.8,3.947
3335.1,553.6,3.936
3339.9,554.4,3.926
3344.7,555.2,3.915
3349.5,556.0,3.904
3354.3,556.8,3.892
3359.1,557.6,3.879
3363.9,558.4,3.867
3368.7,559.1,3.855
3373.5,559.9,3.843
3378.3,560.7,3.831
3383.1,561.5,3.818
3387.9,562.3,3.806
3392.7,563.1,3.792
3397.5,563.9,3.778
3402.3,564.7,3.765
3407.1,565.5,3.754
3411.9,566.2,3.743
3416.7,567.0,3.729
3421.5,567.8,3.714
3426.3,568.6,3.699
3431.1,569.4,3.685
3435.9,570.2,3.670
3440.7,571.0,3.656
3445.5,571.8,3.642
3450.3,572.6,3.629
3455.1,573.3,3.614
3459.9,574.1,3.598
3464.7,574.9,3.584
3469.5,575.7,3.569
3474.3,576.5,3.552
3479.1,577.3,3.538
3483.9,578.1,3.522
3488.7,578.9,3.506
3493.5,579.7,3.487
3498.3,580.4,3.471
3503.1,581.2,3.453
3507.9,582.0,3.435
3512.7,582.8,3.418
3517.5,583.6,3.401
3522.3,584.4,3.383
3527.1,585.2,3.365
3531.9,586.0,3.346
3536.7,586.8,3.327
3541.5,587.5,3.307
3546.3,588.3,3.287
3551.1,589.1,3.269
3555.9,589.9,3.249
3560.7,590.7,3.230
3565.5,591.5,3.210
3570.3,592.3,3.189
3575.1,593.1,3.166
3579.9,593.9,3.138
3584.7,594.7,3.115
3589.5,595.4,3.096
3594.3,596.2,3.076
3599.1,597.0,3.055
3603.9,597.8,3.032
3608.7,598.6,3.001
3613.5,599.4,2.981
3618.3,600.2,2.962
3623.1,601.0,2.940
3627.9,601.8,2.916
3632.7,602.6,2.886
3637.5,603.3,2.864
3642.3,604.1,2.844
3647.1,604.9,2.824
3651.9,605.7,2.794
3656.7,606.5,2.766
3661.5,607.3,2.743
3666.3,608.1,2.722
3671.1,608.9,2.700
3675.9,609.7,2.673
3680.7,610.5,2.642
3685.5,611.2,2.620
3690.3,612.0,2.598
3695.1,612.8,2.571
3699.9,613.6,2.541
3704.7,614.4,2.514
3709.5,615.2,2.490
3714.3,616.0,2.465
3719.1,616.8,2.436
3723.9,617.6,2.409
3728.7,618.3,2.382
3733.5,619.1,2.355
3738.3,619.9,2.327
3743.1,620.7,2.298
3747.9,621.5,2.270
3752.7,622.3,2.242
3757.5,623.1,2.214
3762.3,623.9,2.184
3767.1,624.7,2.152
3771.9,625.5,2.122
3776.7,626.2,2.091
3781.5,627.0,2.061
3786.3,627.8,2.031
3791.1,628.6,1.998
3795.9,629.4,1.966
3800.7,630.2,1.933
3805.5,631.0,1.899
3810.3,631.8,1.867
3815.1,632.6,1.835
3819.9,633.4,1.802
3824.7,634.1,1.768
3829.5,634.9,1.735
3834.3,635.7,1.703
3839.1,636.5,1.672
3843.9,637.3,1.639
3848.7,638.1,1.608
3853.5,638.9,1.578
3858.3,639.7,1.549
3863.1,640.5,1.520
3867.9,641.3,1.495
3872.7,642.1,1.471
3877.5,642.9,1.449
3882.3,643.6,1.428
3887.1,644.4,1.409
3891.9,645.2,1.391
3896.7,646.0,1.371
3901.5,646.8,1.355
3906.3,647.6,1.340
3911.1,648.4,1.326
3915.9,649.2,1.315
3920.7,650.0,1.306
3925.5,650.8,1.298
3930.3,651.6,1.291
3935.1,652.4,1.286
3939.9,653.2,1.280
3944.7,654.0,1.275
3949.5,654.8,1.270
3954.3,655.6,1.264
3959.1,656.3,1.260
3963.9,657.1,1.257
3968.7,657.9,1.255
3973.5,658.7,1.252
3978.3,659.5,1.249
3983.1,660.3,1.246
3987.9,661.1,1.242
3992.7,661.9,1.239
3997.5,662.7,1.237
4002.3,663.5,1.234
4007.1,664.3,1.232
4011.9,665.0,1.228
4016.7,665.9,1.225
4021.5,666.6,1.223
4026.3,667.4,1.221
4031.1,668.2,1.217
4035.9,669.0,1.216
4040.7,669.8,1.213
4045.5,670.6,1.211
4050.3,671.4,1.209
4055.1,672.2,1.206
4059.9,673.0,1.204
4064.7,673.8,1.201
4069.5,674.6,1.199
4074.3,675.4,1.197
4079.1,676.2,1.194
4083.9,677.0,1.192
4088.7,677.7,1.190
4093.5,678.5,1.187
4098.3,679.3,1.184
4103.1,680.1,1.182
4107.9,680.9,1.179
4112.7,681.7,1.177
4117.5,682.5,1.175
4122.3,683.3,1.173
4127.1,684.1,1.170
4131.9,684.9,1.169
4136.7,685.7,1.165
4141.5,686.5,1.163
4146.3,687.3,1.161
4151.1,688.1,1.158
4155.9,688.9,1.155
4160.7,689.7,1.153
4165.5,690.4,1.150
4170.3,691.3,1.147
4175.1,692.0,1.145
4179.9,692.8,1.141
4184.7,693.6,1.139
4189.5,694.4,1.137
4194.3,695.2,1.134
4199.1,696.0,1.132
4203.9,696.8,1.129
4208.7,697.6,1.126
4213.5,698.4,1.124
4218.3,699.2,1.121
4223.1,700.0,1.119
4227.9,700.8,1.116
4232.7,701.6,1.114
4237.5,702.3,1.110
4242.3,703.1,1.108
4247.1,703.9,1.105
4251.9,704.7,1.103
4256.7,705.5,1.099
4261.5,706.3,1.097
4266.3,707.1,1.093
4271.1,707.9,1.092
4275.9,708.7,1.089
4280.7,709.5,1.087
4285.5,710.3,1.084
4290.3,711.1,1.081
4295.1,711.9,1.078
4299.9,712.7,1.075
4304.7,713.5,1.073
4309.5,714.3,1.070
4314.3,715.1,1.067
4319.1,715.9,1.065
4323.9,716.7,1.062
4328.7,717.5,1.059
4333.5,718.3,1.057
4338.3,719.0,1.054
4343.1,719.8,1.052
4347.9,720.7,1.050
4352.7,721.4,1.047
4357.5,722.2,1.044
4362.3,723.0,1.042
4367.1,723.8,1.039
4371.9,724.6,1.037
4376.7,725.4,1.034
4381.5,726.2,1.031
4386.3,727.0,1.028
4391.1,727.8,1.026
4395.9,728.6,1.023
4400.7,729.4,1.020
4405.5,730.2,1.016
4410.3,731.0,1.014
4415.1,731.8,1.010
4419.9,732.6,1.008
4424.7,733.4,1.005
4429.5,734.2,1.003
4434.3,735.0,0.999
4439.1,735.8,0.997
4443.9,736.6,0.994
4448.7,737.4,0.992
4453.5,738.2,0.990
4458.3,739.0,0.986
4463.1,739.8,0.984
4467.9,740.6,0.981
4472.7,741.3,0.978
4477.5,742.2,0.976
4482.3,742.9,0.973
4487.1,743.7,0.970
4491.9,744.5,0.967
4496.7,745.3,0.964
4501.5,746.1,0.962
4506.3,746.9,0.959
4511.1,747.7,0.957
4515.9,748.5,0.954
4520.7,749.3,0.951
4525.5,750.1,0.949
4530.3,750.9,0.946
4535.1,751.7,0.945
4539.9,752.5,0.941
4544.7,753.3,0.939
4549.5,754.1,0.936
4554.3,754.9,0.933
4559.1,755.7,0.930
4563.9,756.5,0.927
4568.7,757.3,0.924
4573.5,758.1,0.922
4578.3,758.9,0.918
4583.1,759.7,0.916
4587.9,760.5,0.912
4592.7,761.3,0.909
4597.5,762.1,0.906
4602.3,762.9,0.902
4607.1,763.7,0.899
4611.9,764.4,0.897
4616.7,765.3,0.893
4621.5,766.0,0.890
4626.3,766.8,0.887
4631.1,767.6,0.884
4635.9,768.4,0.881
4640.7,769.2,0.877
4645.5,770.0,0.874
4650.3,770.8,0.870
4655.1,771.6,0.868
4659.9,772.4,0.865
4664.7,773.2,0.862
4669.5,774.0,0.858
4674.3,774.8,0.856
4679.1,775.6,0.853
4683.9,776.4,0.851
4688.7,777.2,0.848
4693.5,778.0,0.845
4698.3,778.8,0.842
4703.1,779.6,0.838
4707.9,780.4,0.836
4712.7,781.2,0.832
4717.5,782.0,0.829
4722.3,782.8,0.825
4727.1,783.5,0.822
4731.9,784.3,0.819
4736.7,785.1,0.816
4741.5,785.9,0.813
4746.3,786.7,0.809
4751.1,787.5,0.807
4755.9,788.3,0.804
4760.7,789.1,0.801
4765.5,789.9,0.799
4770.3,790.7,0.796
4775.1,791.5,0.793
4779.9,792.3,0.790
4784.7,793.1,0.787
4789.5,793.9,0.783
4794.3,794.7,0.779
4799.1,795.5,0.776
4803.9,796.3,0.772
4808.7,797.1,0.769
4813.5,797.9,0.765
4818.3,798.7,0.761
4823.1,799.5,0.758
4827.9,800.3,0.754
4832.7,801.1,0.751
4837.5,801.9,0.749
4842.3,802.7,0.746
4847.1,803.5,0.743
4851.9,804.3,0.740
4856.7,805.1,0.737
4861.5,805.9,0.734
4866.3,806.7,0.729
4871.1,807.5,0.727
4875.9,808.2,0.724
4880.7,809.1,0.721
4885.5,809.9,0.718
4890.3,810.6,0.715
4895.1,811.4,0.712
4899.9,812.2,0.709
4904.7,813.0,0.707
4909.5,813.8,0.704
4914.3,814.6,0.701
4919.1,815.4,0.698
4923.9,816.2,0.695
4928.7,817.0,0.691
4933.5,817.8,0.686
4938.3,818.6,0.684
4943.1,819.4,0.680
4947.9,820.2,0.677
4952.7,821.0,0.674
4957.5,821.8,0.671
4962.3,822.6,0.667
4967.1,823.4,0.663
4971.9,824.2,0.660
4976.7,825.0,0.657
4981.5,825.8,0.653
4986.3,826.6,0.651
4991.1,827.4,0.648
4995.9,828.2,0.644
5000.7,829.0,0.641
5005.5,829.8,0.637
5010.3,830.6,0.634
5015.1,831.4,0.630
5019.9,832.2,0.626
5024.7,833.0,0.624
5029.5,833.8,0.620
5034.3,834.6,0.617
5039.1,835.4,0.613
5043.9,836.2,0.609
5048.7,837.0,0.606
5053.5,837.8,0.602
5058.3,838.6,0.599
5063.1,839.4,0.595
5067.9,840.2,0.592
5072.7,841.0,0.588
5077.5,841.8,0.585
5082.3,842.6,0.582
5087.1,843.4,0.578
5091.9,844.2,0.576
5096.7,845.0,0.573
5101.5,845.8,0.569
5106.3,846.6,0.565
5111.1,847.4,0.563
5115.9,848.2,0.560
5120.7,849.0,0.556
5125.5,849.8,0.553
5130.3,850.6,0.550
5135.1,851.4,0.545
5139.9,852.2,0.543
5144.7,853.0,0.539
5149.5,853.8,0.535
5154.3,854.6,0.533
5159.1,855.4,0.531
5163.9,856.2,0.527
5168.7,857.0,0.524
5173.5,857.8,0.522
5178.3,858.6,0.519
5183.1,859.4,0.517
5187.9,860.2,0.513
5192.7,861.0,0.509
5197.5,861.8,0.506
5202.3,862.6,0.502
5207.1,863.4,0.500
5211.9,864.2,0.496
5216.7,865.0,0.493
5221.5,865.8,0.489
5226.3,866.6,0.486
5231.1,867.4,0.483
5235.9,868.2,0.480
5240.7,869.0,0.477
5245.5,869.8,0.473
5250.3,870.5,0.470
5255.1,871.4,0.466
5259.9,872.2,0.462
5264.7,873.0,0.458
5269.5,873.8,0.453
5274.3,874.6,0.450
5279.1,875.3,0.446
5283.9,876.1,0.443
5288.7,877.0,0.440
5293.5,877.7,0.437
5298.3,878.5,0.434
5303.1,879.3,0.431
5307.9,880.1,0.428
5312.7,880.9,0.424
5317.5,881.7,0.422
5322.3,882.5,0.418
5327.1,883.3,0.415
5331.9,884.1,0.412
5336.7,884.9,0.409
5341.5,885.7,0.407
5346.3,886.5,0.404
5351.1,887.3,0.401
5355.9,888.1,0.398
5360.7,888.9,0.396
5365.5,889.7,0.393
5370.3,890.6,0.389
5375.1,891.4,0.387
5379.9,892.2,0.383
5384.7,892.9,0.381
5389.5,893.8,0.378
5394.3,894.6,0.375
5399.1,895.4,0.371
5403.9,896.2,0.368
5408.7,897.0,0.365
5413.5,897.8,0.362
5418.3,898.6,0.359
5423.1,899.4,0.356
5427.9,900.2,0.353
5432.7,901.0,0.350
5437.5,901.8,0.346
5442.3,902.6,0.343
5447.1,903.4,0.340
5451.9,904.2,0.337
5456.7,905.0,0.334
5461.5,905.8,0.332
5466.3,906.6,0.329
5471.1,907.4,0.325
5475.9,908.2,0.322
5480.7,909.0,0.318
5485.5,909.8,0.315
5490.3,910.6,0.311
5495.1,911.4,0.308
5499.9,912.2,0.305
5504.7,913.0,0.302
5509.5,913.8,0.300
5514.3,914.6,0.297
5519.1,915.4,0.294
5523.9,916.2,0.291
5528.7,917.0,0.289
5533.5,917.8,0.287
5538.3,918.6,0.283
5543.1,919.4,0.281
5547.9,920.2,0.278
5552.7,921.0,0.275
5557.5,921.8,0.273
5562.3,922.6,0.271
5567.1,923.4,0.269
5571.9,924.2,0.267
5576.7,925.0,0.265
5581.5,925.8,0.263
5586.3,926.6,0.260
5591.1,927.4,0.257
5595.9,928.2,0.255
5600.7,929.0,0.252
5605.5,929.8,0.250
5610.3,930.6,0.247
5615.1,931.4,0.245
5619.9,932.2,0.242
5624.7,933.0,0.238
5629.5,933.8,0.235
5634.3,934.6,0.233
5639.1,935.4,0.230
5643.9,936.2,0.227
5648.7,937.0,0.224
5653.5,937.8,0.222
5658.3,938.6,0.218
5663.1,939.4,0.216
5667.9,940.2,0.214
5672.7,941.0,0.210
5677.5,941.8,0.208
5682.3,942.6,0.205
5687.1,943.4,0.202
5691.9,944.2,0.199
5696.7,945.0,0.197
5701.5,945.9,0.194
5706.3,946.6,0.191
5711.1,947.4,0.189
5715.9,948.3,0.187
5720.7,949.1,0.185
5725.5,949.9,0.183
5730.3,950.6,0.180
5735.1,951.5,0.178
5739.9,952.3,0.176
5744.7,953.1,0.173
5749.5,953.9,0.169
5754.3,954.7,0.168
5759.1,955.5,0.165
5763.9,956.3,0.164
5768.7,957.1,0.161
5773.5,957.9,0.160
5778.3,958.7,0.158
5783.1,959.5,0.156
5787.9,960.3,0.155
5792.7,961.1,0.152
5797.5,961.9,0.150
5802.3,962.7,0.148
5807.1,963.5,0.146
5811.9,964.3,0.144
5816.7,965.1,0.143
5821.5,965.9,0.142
5826.3,966.7,0.139
5831.1,967.5,0.137
5835.9,968.3,0.134
5840.7,969.1,0.133
5845.5,969.9,0.131
5850.3,970.7,0.129
5855.1,971.5,0.128
5859.9,972.3,0.125
5864.7,973.1,0.123
5869.5,973.9,0.122
5874.3,974.7,0.121
5879.1,975.5,0.118
5883.9,976.3,0.116
5888.7,977.1,0.115
5893.5,977.9,0.113
5898.3,978.7,0.111
5903.1,979.5,0.108
5907.9,980.3,0.107
5912.7,981.1,0.105
5917.5,981.9,0.103
5922.3,982.7,0.102
5927.1,983.5,0.100
5931.9,984.3,0.099
5936.7,985.1,0.098
5941.5,985.9,0.096
5946.3,986.7,0.094
5951.1,987.6,0.092
5955.9,988.3,0.091
5960.7,989.1,0.089
5965.5,989.9,0.088
5970.3,990.7,0.087
5975.1,991.6,0.087
5979.9,992.3,0.085
5984.7,993.1,0.085
5989.5,993.9,0.084
5994.3,994.8,0.084
5999.1,995.6,0.083
6003.9,996.3,0.083
6008.7,997.1,0.083
6013.5,997.9,0.083
6018.3,998.7,0.084
6023.1,999.5,0.084
6027.9,1000.3,0.084
6032.7,1001.1,0.084
6037.5,1001.9,0.084
6042.3,1002.8,0.085
6047.1,1003.6,0.085
6051.9,1004.4,0.084
6056.7,1005.2,0.084
6061.5,1006.0,0.084
6066.3,1006.8,0.085
6071.1,1007.6,0.085
6075.9,1008.4,0.085
6080.7,1009.2,0.085
6085.5,1010.0,0.085
6090.3,1010.8,0.085
6095.1,1011.6,0.085
6099.9,1012.4,0.085
6104.7,1013.2,0.085
6109.5,1014.0,0.085
6114.3,1014.8,0.085
6119.1,1015.6,0.086
6123.9,1016.4,0.087
6128.7,1017.2,0.087
6133.5,1018.0,0.086
6138.3,1018.8,0.086
6143.1,1019.6,0.085
6147.9,1020.4,0.085
6152.7,1021.2,0.085
6157.5,1022.0,0.085
6162.3,1022.8,0.085
6167.1,1023.6,0.084
6171.9,1024.4,0.084
6176.7,1025.2,0.084
6181.5,1026.1,0.084
6186.3,1026.8,0.084
6191.1,1027.7,0.084
6195.9,1028.5,0.084
6200.7,1029.3,0.084
6205.5,1030.1,0.084
6210.3,1030.9,0.084
6215.1,1031.7,0.084
6219.9,1032.5,0.084
6224.7,1033.3,0.084
6229.5,1034.1,0.083
6234.3,1034.9,0.083
6239.1,1035.7,0.083
6243.9,1036.5,0.083
6248.7,1037.3,0.084
6253.5,1038.1,0.085
6258.3,1038.9,0.085
6263.1,1039.7,0.085
6267.9,1040.5,0.085
6272.7,1041.3,0.086
6277.5,1042.1,0.086
6282.3,1042.9,0.086
6287.1,1043.7,0.085
6291.9,1044.5,0.085
6296.7,1045.3,0.085
6301.5,1046.1,0.085
6306.3,1046.9,0.085
6311.1,1047.7,0.085
6315.9,1048.5,0.085
6320.7,1049.3,0.085
6325.5,1050.1,0.086
6330.3,1050.9,0.086
6335.1,1051.7,0.086
6339.9,1052.5,0.086
6344.7,1053.3,0.086
6349.5,1054.1,0.086
6354.3,1055.0,0.086
6359.1,1055.8,0.086
6363.9,1056.6,0.086
6368.7,1057.4,0.086
6373.5,1058.2,0.086
6378.3,1059.0,0.086
6383.1,1059.8,0.085
6387.9,1060.6,0.085
6392.7,1061.4,0.085
6397.5,1062.2,0.085
6402.3,1063.0,0.085
6407.1,1063.8,0.085
6411.9,1064.6,0.085
6416.7,1065.4,0.085
6421.5,1066.2,0.085
6426.3,1067.0,0.085
6431.1,1067.8,0.086
6435.9,1068.6,0.087
6440.7,1069.4,0.087
6445.5,1070.2,0.086
6453.0,1071.4,0.086
6501.0,1073.9,0.084
6549.0,1073.7,0.084
6597.0,1073.6,0.085
6645.0,1073.6,0.084
6693.0,1073.6,0.082
6741.0,1073.5,0.084
6789.0,1073.5,0.083
6837.0,1073.4,0.081
6885.0,1073.3,0.080
6933.0,1073.3,0.082
6981.0,1073.3,0.083
7029.0,1073.2,0.081
7077.0,1073.2,0.081
7125.0,1073.2,0.082
7173.0,1073.2,0.085
7221.0,1073.2,0.086
7269.0,1073.2,0.085
7317.0,1073.2,0.084
7341.0,1073.1,0.084