File: Wood/Calibration_Data/MFSL/MFSL_TGA_N2_10K_R3.csv
Time (s),Temperature (K),Mass (mg)
0,293.644,4.8355
6.6,293.653,4.8493
13.2,293.653,4.8501
19.8,293.684,4.8424
26.4,293.689,4.8418
33,293.722,4.8414
39.6,293.753,4.8403
46.2,293.816,4.8403
52.8,293.912,4.8395
59.4,294.019,4.8395
66,294.124,4.8374
72.6,294.28,4.8362
79.2,294.467,4.8365
85.8,294.665,4.8354
101.85,295.304,4.8288
134.85,297.187,4.8106
167.85,299.531,4.7938
200.85,302.026,4.7756
233.85,304.535,4.7514
266.85,306.818,4.7281
299.85,308.827,4.7066
332.85,310.591,4.6876
365.85,312.042,4.6662
398.85,313.19,4.6521
431.85,314.103,4.6372
464.85,314.801,4.6243
497.85,315.3,4.6128
530.85,315.647,4.6016
563.85,315.847,4.595
596.85,315.933,4.5899
629.85,315.96,4.5847
662.85,315.906,4.5797
695.85,315.795,4.5752
728.85,315.638,4.5715
761.85,315.454,4.5702
794.85,315.267,4.5682
827.85,315.04,4.568
860.85,314.837,4.5678
893.85,314.617,4.5663
926.85,314.415,4.562
959.85,314.204,4.561
992.85,314.012,4.5631
1025.85,313.845,4.5647
1058.85,313.707,4.5643
1091.85,313.559,4.5616
1124.85,313.457,4.5631
1157.85,313.364,4.5635
1190.85,313.253,4.5603
1223.85,313.187,4.5596
1256.85,313.135,4.5591
1289.85,313.088,4.559
1322.85,313.039,4.5587
1355.85,313.041,4.5596
1388.85,312.97,4.5609
1421.85,312.965,4.5639
1454.85,312.941,4.5625
1487.85,312.947,4.564
1520.85,312.955,4.567
1553.85,312.938,4.5669
1586.85,312.966,4.5649
1619.85,312.962,4.565
1652.85,312.987,4.566
1685.85,312.983,4.5651
1718.85,312.998,4.564
1751.85,313.006,4.5662
1784.85,313.026,4.5665
1817.85,313.03,4.567
1850.85,313.042,4.5672
1883.85,313.033,4.5694
1892.65,313.041,4.57
1895.95,313.057,4.5702
1899.25,313.046,4.5704
1902.55,313.051,4.5706
1905.85,313.04,4.5708
1909.15,313.059,4.571
1912.45,313.072,4.571
1915.75,313.075,4.571
1919.05,313.082,4.571
1922.35,313.108,4.571
1925.65,313.13,4.571
1928.95,313.143,4.5705
1932.25,313.192,4.5698
1935.55,313.228,4.5707
1938.85,313.275,4.571
1942.15,313.305,4.5715
1945.45,313.363,4.5718
1948.75,313.415,4.5727
1952.05,313.482,4.5719
1955.35,313.563,4.5708
1958.65,313.637,4.5711
1961.95,313.73,4.5714
1965.25,313.814,4.5715
1968.55,313.934,4.5715
1971.85,314.032,4.5716
1975.15,314.149,4.5718
1978.45,314.295,4.5717
1981.75,314.421,4.5725
1985.05,314.585,4.5724
1988.35,314.751,4.5718
1991.65,314.92,4.5721
1994.95,315.076,4.5722
1998.25,315.283,4.5718
2001.55,315.482,4.5717
2004.85,315.692,4.5718
2008.15,315.904,4.5721
2011.45,316.158,4.5721
2014.75,316.394,4.5731
2018.05,316.644,4.573
2021.35,316.904,4.5733
2024.65,317.185,4.573
2027.95,317.477,4.5743
2031.25,317.786,4.573
2034.55,318.1,4.5728
2037.85,318.415,4.5724
2041.15,318.751,4.5723
2044.45,319.105,4.5716
2047.75,319.468,4.5708
2051.05,319.85,4.5706
2054.35,320.228,4.5712
2057.65,320.603,4.571
2060.95,321.021,4.571
2064.25,321.423,4.5709
2067.55,321.85,4.5711
2070.85,322.29,4.5699
2074.15,322.724,4.5711
2077.45,323.191,4.5696
2080.75,323.671,4.5695
2084.05,324.167,4.5693
2087.35,324.645,4.5695
2090.65,325.162,4.569
2093.95,325.685,4.57
2097.25,326.202,4.5704
2100.55,326.736,4.57
2103.85,327.281,4.5698
2107.15,327.827,4.5696
2110.45,328.385,4.5683
2113.75,328.957,4.5681
2117.05,329.541,4.5679
2120.35,330.133,4.5681
2123.65,330.724,4.5682
2126.95,331.338,4.5683
2130.25,331.947,4.5681
2133.55,332.557,4.5682
2136.85,333.196,4.5683
2140.15,333.85,4.5673
2143.45,334.475,4.5673
2146.75,335.143,4.5669
2150.05,335.791,4.5668
2153.35,336.457,4.5667
2156.65,337.118,4.5661
2159.95,337.797,4.5656
2163.25,338.482,4.5651
2166.55,339.166,4.5651
2169.85,339.85,4.5653
2173.15,340.567,4.5657
2176.45,341.261,4.5654
2179.75,341.964,4.5644
2183.05,342.684,4.5636
2186.35,343.384,4.563
2189.65,344.096,4.5623
2192.95,344.815,4.5617
2196.25,345.531,4.5604
2199.55,346.265,4.5603
2202.85,346.994,4.5608
2206.15,347.708,4.5608
2209.45,348.446,4.5606
2212.75,349.177,4.5604
2216.05,349.91,4.5596
2219.35,350.631,4.5589
2222.65,351.379,4.5582
2225.95,352.125,4.5577
2229.25,352.857,4.5573
2232.55,353.595,4.5568
2235.85,354.334,4.5564
2239.15,355.084,4.5559
2242.45,355.823,4.5554
2245.75,356.577,4.5554
2249.05,357.305,4.5552
2252.35,358.066,4.5547
2255.65,358.804,4.5542
2258.95,359.557,4.5538
2262.25,360.291,4.5533
2265.55,361.041,4.5528
2268.85,361.789,4.5524
2272.15,362.546,4.552
2275.45,363.291,4.5517
2278.75,364.045,4.5515
2282.05,364.784,4.5512
2285.35,365.537,4.5509
2288.65,366.286,4.5503
2291.95,367.036,4.5501
2295.25,367.774,4.55
2298.55,368.519,4.5501
2301.85,369.277,4.5502
2305.15,370.007,4.5502
2308.45,370.748,4.5501
2311.75,371.487,4.5502
2315.05,372.236,4.5501
2318.35,372.951,4.55
2321.65,373.706,4.5499
2324.95,374.439,4.55
2328.25,375.175,4.5501
2331.55,375.9,4.5503
2334.85,376.64,4.5504
2338.15,377.366,4.5504
2341.45,378.09,4.5503
2344.75,378.815,4.5502
2348.05,379.534,4.5501
2351.35,380.254,4.55
2354.65,380.97,4.5499
2357.95,381.696,4.5498
2361.25,382.407,4.5497
2364.55,383.118,4.5496
2367.85,383.835,4.5495
2371.15,384.533,4.5495
2374.45,385.25,4.5495
2377.75,385.957,4.5495
2381.05,386.645,4.5495
2384.35,387.358,4.5495
2387.65,388.055,4.5495
2390.95,388.748,4.5495
2394.25,389.439,4.5495
2397.55,390.135,4.5495
2400.85,390.815,4.5495
2404.15,391.504,4.5495
2407.45,392.183,4.5495
2410.75,392.884,4.5495
2414.05,393.566,4.5495
2417.35,394.247,4.5494
2420.65,394.943,4.5494
2423.95,395.626,4.5494
2427.25,396.298,4.5493
2430.55,396.968,4.5493
2433.85,397.649,4.5492
2437.15,398.325,4.5492
2440.45,398.988,4.5491
2443.75,399.671,4.5491
2447.05,400.352,4.549
2450.35,401.007,4.549
2453.65,401.671,4.549
2456.95,402.344,4.5489
2460.25,403.013,4.5489
2463.55,403.675,4.5488
2466.85,404.339,4.5488
2470.15,404.994,4.5487
2473.45,405.656,4.5487
2476.75,406.314,4.5487
2480.05,406.984,4.5486
2483.35,407.631,4.5486
2486.65,408.283,4.5485
2489.95,408.942,4.5485
2493.25,409.594,4.5485
2496.55,410.255,4.5485
2499.85,410.891,4.5485
2503.15,411.54,4.5485
2506.45,412.195,4.5485
2509.75,412.849,4.5474
2513.05,413.493,4.547
2516.35,414.128,4.547
2519.65,414.772,4.547
2522.95,415.416,4.5469
2526.25,416.062,4.5469
2529.55,416.694,4.5469
2532.85,417.327,4.5469
2536.15,417.975,4.5463
2539.45,418.613,4.5459
2542.75,419.251,4.5458
2546.05,419.869,4.5456
2549.35,420.509,4.5455
2552.65,421.139,4.5454
2555.95,421.766,4.5451
2559.25,422.388,4.5448
2562.55,423.009,4.5447
2565.85,423.646,4.5445
2569.15,424.274,4.5443
2572.45,424.894,4.5441
2575.75,425.512,4.5439
2579.05,426.13,4.5439
2582.35,426.754,4.5438
2585.65,427.369,4.5436
2588.95,427.975,4.5434
2592.25,428.606,4.5429
2595.55,429.215,4.5423
2598.85,429.832,4.542
2602.15,430.428,4.5417
2605.45,431.035,4.5416
2608.75,431.647,4.5414
2612.05,432.249,4.5412
2615.35,432.86,4.541
2618.65,433.456,4.5401
2621.95,434.069,4.5395
2625.25,434.657,4.5391
2628.55,435.273,4.5389
2631.85,435.869,4.5386
2635.15,436.472,4.5383
2638.45,437.071,4.538
2641.75,437.65,4.5379
2645.05,438.251,4.5377
2648.35,438.851,4.5375
2651.65,439.428,4.5369
2654.95,440.025,4.5364
2658.25,440.624,4.5356
2661.55,441.207,4.5338
2664.85,441.782,4.5327
2668.15,442.375,4.5325
2671.45,442.965,4.5333
2674.75,443.539,4.533
2678.05,444.133,4.5323
2681.35,444.718,4.5316
2684.65,445.285,4.5309
2687.95,445.875,4.5306
2691.25,446.437,4.5305
2694.55,447.024,4.5303
2697.85,447.603,4.53
2701.15,448.177,4.5295
2704.45,448.758,4.5286
2707.75,449.33,4.5277
2711.05,449.898,4.5269
2714.35,450.481,4.5255
2717.65,451.047,4.5246
2720.95,451.62,4.5237
2724.25,452.193,4.5224
2727.55,452.753,4.5207
2730.85,453.338,4.5194
2734.15,453.892,4.518
2737.45,454.453,4.5171
2740.75,455.024,4.5163
2744.05,455.602,4.5156
2747.35,456.164,4.5146
2750.65,456.732,4.5134
2753.95,457.295,4.5124
2757.25,457.872,4.5111
2760.55,458.442,4.5103
2763.85,459,4.5094
2767.15,459.555,4.5081
2770.45,460.128,4.5069
2773.75,460.696,4.5064
2777.05,461.243,4.5049
2780.35,461.801,4.504
2783.65,462.368,4.503
2786.95,462.93,4.5018
2790.25,463.487,4.5006
2793.55,464.048,4.4995
2796.85,464.608,4.4981
2800.15,465.159,4.4959
2803.45,465.719,4.4948
2806.75,466.279,4.4935
2810.05,466.842,4.4914
2813.35,467.389,4.49
2816.65,467.935,4.4887
2819.95,468.509,4.487
2823.25,469.066,4.4851
2826.55,469.621,4.4833
2829.85,470.172,4.4817
2833.15,470.731,4.4803
2836.45,471.297,4.4784
2839.75,471.836,4.4769
2843.05,472.405,4.4744
2846.35,472.952,4.4728
2849.65,473.511,4.471
2852.95,474.063,4.469
2856.25,474.617,4.4664
2859.55,475.165,4.4644
2862.85,475.718,4.4626
2866.15,476.277,4.4599
2869.45,476.83,4.4582
2872.75,477.385,4.4567
2876.05,477.941,4.4553
2879.35,478.487,4.4529
2882.65,479.033,4.4517
2885.95,479.582,4.4504
2889.25,480.129,4.449
2892.55,480.685,4.4475
2895.85,481.231,4.4466
2899.15,481.775,4.446
2902.45,482.327,4.4445
2905.75,482.878,4.4432
2909.05,483.429,4.4418
2912.35,483.972,4.4403
2915.65,484.518,4.4384
2918.95,485.07,4.4368
2922.25,485.613,4.4342
2925.55,486.172,4.4335
2928.85,486.712,4.4326
2932.15,487.249,4.4315
2935.45,487.802,4.4304
2938.75,488.345,4.4294
2942.05,488.891,4.4271
2945.35,489.452,4.4255
2948.65,489.982,4.4236
2951.95,490.533,4.4214
2955.25,491.075,4.4188
2958.55,491.631,4.4171
2961.85,492.177,4.4153
2965.15,492.722,4.4128
2968.45,493.268,4.4111
2971.75,493.806,4.4091
2975.05,494.36,4.4063
2978.35,494.896,4.4049
2981.65,495.448,4.4032
2984.95,495.997,4.4004
2988.25,496.542,4.3985
2991.55,497.069,4.3966
2994.85,497.627,4.3947
2998.15,498.163,4.3918
3001.45,498.705,4.3898
3004.75,499.254,4.3873
3008.05,499.8,4.3854
3011.35,500.34,4.3829
3014.65,500.884,4.3804
3017.95,501.434,4.378
3021.25,501.98,4.3754
3024.55,502.528,4.3729
3027.85,503.073,4.3691
3031.15,503.61,4.3672
3034.45,504.158,4.364
3037.75,504.702,4.3613
3041.05,505.25,4.3584
3044.35,505.793,4.3555
3047.65,506.336,4.3526
3050.95,506.884,4.349
3054.25,507.439,4.3461
3057.55,507.971,4.3428
3060.85,508.505,4.34
3064.15,509.056,4.3366
3067.45,509.586,4.3325
3070.75,510.122,4.33
3074.05,510.675,4.3267
3077.35,511.218,4.3225
3080.65,511.768,4.3191
3083.95,512.305,4.3156
3087.25,512.849,4.3122
3090.55,513.392,4.3085
3093.85,513.933,4.3045
3097.15,514.484,4.301
3100.45,515.036,4.2971
3103.75,515.576,4.2935
3107.05,516.119,4.2894
3110.35,516.651,4.2857
3113.65,517.193,4.2806
3116.95,517.749,4.2773
3120.25,518.287,4.2731
3123.55,518.837,4.2693
3126.85,519.383,4.2649
3130.15,519.917,4.261
3133.45,520.467,4.2558
3136.75,521.015,4.2506
3140.05,521.554,4.2475
3143.35,522.091,4.2425
3146.65,522.646,4.2374
3149.95,523.179,4.2339
3153.25,523.72,4.2289
3156.55,524.27,4.225
3159.85,524.808,4.2205
3163.15,525.347,4.2153
3166.45,525.895,4.2103
3169.75,526.44,4.205
3173.05,526.978,4.1996
3176.35,527.518,4.1952
3179.65,528.065,4.1896
3182.95,528.607,4.1837
3186.25,529.145,4.1774
3189.55,529.7,4.172
3192.85,530.222,4.1654
3196.15,530.77,4.1603
3199.45,531.317,4.1543
3202.75,531.853,4.1493
3206.05,532.411,4.1434
3209.35,532.943,4.1373
3212.65,533.489,4.1315
3215.95,534.022,4.1255
3219.25,534.565,4.1189
3222.55,535.12,4.1136
3225.85,535.654,4.1078
3229.15,536.2,4.1008
3232.45,536.734,4.0948
3235.75,537.271,4.089
3239.05,537.822,4.082
3242.35,538.36,4.0753
3245.65,538.906,4.0689
3248.95,539.449,4.0623
3252.25,539.979,4.0562
3255.55,540.534,4.0489
3258.85,541.08,4.0428
3262.15,541.625,4.0362
3265.45,542.15,4.0285
3268.75,542.686,4.0211
3272.05,543.244,4.0143
3275.35,543.789,4.0073
3278.65,544.321,3.9989
3281.95,544.858,3.9927
3285.25,545.401,3.9851
3288.55,545.952,3.9791
3291.85,546.485,3.9711
3295.15,547.039,3.9647
3298.45,547.575,3.9582
3301.75,548.113,3.9503
3305.05,548.664,3.9428
3308.35,549.192,3.9379
3311.65,549.733,3.9305
3314.95,550.283,3.9226
3318.25,550.823,3.9153
3321.55,551.366,3.9077
3324.85,551.911,3.8994
3328.15,552.454,3.8906
3331.45,552.99,3.883
3334.75,553.536,3.8754
3338.05,554.083,3.8667
3341.35,554.622,3.8594
3344.65,555.169,3.8508
3347.95,555.701,3.842
3351.25,556.244,3.8336
3354.55,556.783,3.8243
3357.85,557.331,3.817
3361.15,557.877,3.8085
3364.45,558.406,3.7996
3367.75,558.951,3.7917
3371.05,559.497,3.7842
3374.35,560.045,3.7755
3377.65,560.589,3.7677
3380.95,561.137,3.7599
3384.25,561.664,3.7517
3387.55,562.217,3.745
3390.85,562.751,3.7364
3394.15,563.292,3.729
3397.45,563.837,3.7207
3400.75,564.373,3.7126
3404.05,564.916,3.7043
3407.35,565.46,3.6937
3410.65,566.008,3.6839
3413.95,566.546,3.6739
3417.25,567.084,3.6645
3420.55,567.631,3.6552
3423.85,568.178,3.6466
3427.15,568.734,3.6372
3430.45,569.273,3.6281
3433.75,569.802,3.6195
3437.05,570.351,3.6107
3440.35,570.892,3.6016
3443.65,571.442,3.5918
3446.95,571.98,3.5803
3450.25,572.521,3.5712
3453.55,573.059,3.5615
3456.85,573.602,3.5517
3460.15,574.14,3.5423
3463.45,574.683,3.532
3466.75,575.226,3.522
3470.05,575.776,3.5115
3473.35,576.31,3.5023
3476.65,576.849,3.4919
3479.95,577.397,3.4812
3483.25,577.946,3.4697
3486.55,578.483,3.459
3489.85,579.02,3.4483
3493.15,579.565,3.4371
3496.45,580.114,3.4258
3499.75,580.646,3.4145
3503.05,581.192,3.4032
3506.35,581.736,3.391
3509.65,582.278,3.379
3512.95,582.834,3.3672
3516.25,583.367,3.3551
3519.55,583.919,3.3436
3522.85,584.451,3.3306
3526.15,584.993,3.3194
3529.45,585.542,3.3062
3532.75,586.089,3.2937
3536.05,586.637,3.2798
3539.35,587.173,3.2663
3542.65,587.717,3.253
3545.95,588.259,3.2404
3549.25,588.802,3.2282
3552.55,589.342,3.2152
3555.85,589.889,3.2021
3559.15,590.427,3.1881
3562.45,590.973,3.1737
3565.75,591.512,3.1604
3569.05,592.055,3.1471
3572.35,592.591,3.1337
3575.65,593.149,3.1204
3578.95,593.684,3.1071
3582.25,594.229,3.0927
3585.55,594.766,3.0794
3588.85,595.322,3.0655
3592.15,595.869,3.052
3595.45,596.405,3.0366
3598.75,596.944,3.021
3602.05,597.484,3.0045
3605.35,598.029,2.9867
3608.65,598.566,2.9707
3611.95,599.125,2.9545
3615.25,599.653,2.941
3618.55,600.195,2.9275
3621.85,600.733,2.914
3625.15,601.29,2.8995
3628.45,601.819,2.8819
3631.75,602.363,2.8601
3635.05,602.904,2.842
3638.35,603.435,2.8271
3641.65,603.991,2.8135
3644.95,604.53,2.7979
3648.25,605.066,2.7826
3651.55,605.615,2.7659
3654.85,606.156,2.7464
3658.15,606.699,2.73
3661.45,607.243,2.7134
3664.75,607.79,2.6988
3668.05,608.325,2.684
3671.35,608.871,2.6688
3674.65,609.416,2.6532
3677.95,609.956,2.637
3681.25,610.486,2.6164
3684.55,611.04,2.597
3687.85,611.575,2.5802
3691.15,612.126,2.5646
3694.45,612.673,2.5505
3697.75,613.217,2.5347
3701.05,613.744,2.5143
3704.35,614.294,2.4941
3707.65,614.836,2.4761
3710.95,615.377,2.4604
3714.25,615.929,2.4459
3717.55,616.474,2.43
3720.85,617.012,2.413
3724.15,617.554,2.3905
3727.45,618.095,2.371
3730.75,618.64,2.3535
3734.05,619.175,2.3378
3737.35,619.718,2.3204
3740.65,620.271,2.3011
3743.95,620.808,2.2791
3747.25,621.357,2.2612
3750.55,621.894,2.2424
3753.85,622.44,2.2232
3757.15,622.987,2.2048
3760.45,623.526,2.1857
3763.75,624.074,2.1655
3767.05,624.616,2.1451
3770.35,625.162,2.1248
3773.65,625.718,2.1062
3776.95,626.254,2.0866
3780.25,626.794,2.066
3783.55,627.341,2.0459
3786.85,627.877,2.0249
3790.15,628.426,2.0063
3793.45,628.971,1.9842
3796.75,629.509,1.963
3800.05,630.059,1.9426
3803.35,630.61,1.9229
3806.65,631.145,1.9017
3809.95,631.7,1.8812
3813.25,632.242,1.8594
3816.55,632.771,1.8363
3819.85,633.315,1.8161
3823.15,633.863,1.7947
3826.45,634.404,1.7731
3829.75,634.937,1.7516
3833.05,635.48,1.7305
3836.35,636.036,1.7086
3839.65,636.576,1.6876
3842.95,637.12,1.6656
3846.25,637.646,1.6441
3849.55,638.206,1.6237
3852.85,638.742,1.6038
3856.15,639.296,1.5832
3859.45,639.845,1.5626
3862.75,640.389,1.5441
3866.05,640.925,1.5237
3869.35,641.468,1.5027
3872.65,642.018,1.4844
3875.95,642.562,1.468
3879.25,643.106,1.45
3882.55,643.641,1.4333
3885.85,644.186,1.4169
3889.15,644.745,1.4006
3892.45,645.281,1.386
3895.75,645.828,1.3726
3899.05,646.376,1.3603
3902.35,646.92,1.348
3905.65,647.471,1.3357
3908.95,648.004,1.3236
3912.25,648.542,1.3123
3915.55,649.094,1.3026
3918.85,649.634,1.2936
3922.15,650.184,1.2845
3925.45,650.719,1.2767
3928.75,651.27,1.2685
3932.05,651.821,1.2609
3935.35,652.372,1.2548
3938.65,652.916,1.2476
3941.95,653.455,1.2429
3945.25,654.007,1.2376
3948.55,654.544,1.233
3951.85,655.084,1.2294
3955.15,655.633,1.2251
3958.45,656.177,1.223
3961.75,656.724,1.2194
3965.05,657.273,1.2177
3968.35,657.83,1.2155
3971.65,658.384,1.2134
3974.95,658.923,1.2106
3978.25,659.468,1.2087
3981.55,660.023,1.2065
3984.85,660.572,1.2044
3988.15,661.113,1.2026
3991.45,661.661,1.2005
3994.75,662.203,1.1984
3998.05,662.746,1.1958
4001.35,663.293,1.1941
4004.65,663.839,1.192
4007.95,664.386,1.1899
4011.25,664.922,1.1879
4014.55,665.475,1.1862
4017.85,666.016,1.1843
4021.15,666.564,1.1828
4024.45,667.109,1.1816
4027.75,667.666,1.1793
4031.05,668.197,1.1788
4034.35,668.749,1.1785
4037.65,669.295,1.1774
4040.95,669.84,1.1763
4044.25,670.379,1.1747
4047.55,670.928,1.173
4050.85,671.473,1.1717
4054.15,672.024,1.1701
4057.45,672.565,1.1685
4060.75,673.113,1.1669
4064.05,673.66,1.1651
4067.35,674.205,1.1644
4070.65,674.75,1.1634
4073.95,675.282,1.1629
4077.25,675.831,1.1609
4080.55,676.381,1.1594
4083.85,676.928,1.1581
4087.15,677.464,1.1568
4090.45,678.01,1.1549
4093.75,678.559,1.1523
4097.05,679.107,1.1515
4100.35,679.653,1.1505
4103.65,680.189,1.1489
4106.95,680.739,1.1472
4110.25,681.281,1.1455
4113.55,681.841,1.1444
4116.85,682.373,1.1434
4120.15,682.916,1.1414
4123.45,683.471,1.1396
4126.75,684.011,1.1383
4130.05,684.56,1.1362
4133.35,685.108,1.1345
4136.65,685.66,1.133
4139.95,686.195,1.1318
4143.25,686.745,1.1304
4146.55,687.295,1.1286
4149.85,687.841,1.1272
4153.15,688.394,1.1262
4156.45,688.924,1.1244
4159.75,689.482,1.1227
4163.05,690.02,1.1207
4166.35,690.583,1.1192
4169.65,691.128,1.1174
4172.95,691.66,1.116
4176.25,692.216,1.1139
4179.55,692.757,1.1131
4182.85,693.302,1.1114
4186.15,693.851,1.1098
4189.45,694.392,1.1085
4192.75,694.935,1.1073
4196.05,695.487,1.1056
4199.35,696.038,1.1043
4202.65,696.58,1.1033
4205.95,697.129,1.1024
4209.25,697.681,1.1011
4212.55,698.221,1.0999
4215.85,698.763,1.0977
4219.15,699.31,1.0962
4222.45,699.851,1.0949
4225.75,700.391,1.0943
4229.05,700.952,1.0934
4232.35,701.493,1.0921
4235.65,702.039,1.0906
4238.95,702.581,1.0895
4242.25,703.135,1.0883
4245.55,703.674,1.0871
4248.85,704.225,1.0856
4252.15,704.763,1.0839
4255.45,705.315,1.0816
4258.75,705.858,1.0803
4262.05,706.411,1.0791
4265.35,706.957,1.0778
4268.65,707.513,1.0762
4271.95,708.045,1.0747
4275.25,708.606,1.0734
4278.55,709.149,1.0723
4281.85,709.682,1.071
4285.15,710.236,1.0695
4288.45,710.781,1.0673
4291.75,711.328,1.0656
4295.05,711.87,1.0643
4298.35,712.427,1.063
4301.65,712.977,1.0619
4304.95,713.517,1.0607
4308.25,714.072,1.06
4311.55,714.614,1.0588
4314.85,715.153,1.0579
4318.15,715.703,1.0567
4321.45,716.259,1.0554
4324.75,716.796,1.0535
4328.05,717.346,1.052
4331.35,717.882,1.0509
4334.65,718.437,1.0497
4337.95,718.984,1.0486
4341.25,719.527,1.0474
4344.55,720.069,1.0461
4347.85,720.617,1.0448
4351.15,721.16,1.0436
4354.45,721.718,1.0411
4357.75,722.271,1.0398
4361.05,722.813,1.0385
4364.35,723.36,1.0372
4367.65,723.905,1.0353
4370.95,724.453,1.0335
4374.25,725.003,1.0323
4377.55,725.547,1.0307
4380.85,726.105,1.0297
4384.15,726.65,1.0287
4387.45,727.203,1.0262
4390.75,727.747,1.0257
4394.05,728.296,1.0244
4397.35,728.84,1.0227
4400.65,729.394,1.0214
4403.95,729.951,1.0204
4407.25,730.481,1.0194
4410.55,731.032,1.0181
4413.85,731.582,1.0167
4417.15,732.127,1.0151
4420.45,732.674,1.0133
4423.75,733.226,1.0117
4427.05,733.764,1.0101
4430.35,734.322,1.0084
4433.65,734.869,1.0068
4436.95,735.414,1.0053
4440.25,735.965,1.0037
4443.55,736.512,1.0023
4446.85,737.057,1.001
4450.15,737.594,0.9986
4453.45,738.144,0.9981
4456.75,738.695,0.9972
4460.05,739.238,0.9961
4463.35,739.786,0.9948
4466.65,740.345,0.9933
4469.95,740.894,0.9918
4473.25,741.437,0.9909
4476.55,741.976,0.9899
4479.85,742.524,0.9892
4483.15,743.08,0.9883
4486.45,743.614,0.9872
4489.75,744.168,0.9862
4493.05,744.709,0.9843
4496.35,745.264,0.9823
4499.65,745.801,0.9809
4502.95,746.336,0.9791
4506.25,746.889,0.977
4509.55,747.445,0.9751
4512.85,747.993,0.9736
4516.15,748.544,0.972
4519.45,749.094,0.9701
4522.75,749.625,0.9684
4526.05,750.185,0.9674
4529.35,750.739,0.9661
4532.65,751.282,0.9643
4535.95,751.822,0.9618
4539.25,752.366,0.9593
4542.55,752.93,0.9578
4545.85,753.473,0.9572
4549.15,754.03,0.9561
4552.45,754.565,0.9556
4555.75,755.106,0.9554
4559.05,755.655,0.9548
4562.35,756.202,0.9541
4565.65,756.752,0.9537
4568.95,757.305,0.9537
4572.25,757.844,0.9536
4575.55,758.391,0.9518
4578.85,758.939,0.9501
4582.15,759.489,0.9484
4585.45,760.031,0.9468
4588.75,760.584,0.9448
4592.05,761.129,0.9421
4595.35,761.678,0.9404
4598.65,762.225,0.9385
4601.95,762.774,0.936
4605.25,763.317,0.9342
4608.55,763.86,0.9326
4611.85,764.417,0.9313
4615.15,764.962,0.9303
4618.45,765.5,0.9294
4621.75,766.049,0.9279
4625.05,766.6,0.926
4628.35,767.148,0.9251
4631.65,767.694,0.9239
4634.95,768.238,0.9231
4638.25,768.79,0.922
4641.55,769.324,0.9216
4644.85,769.882,0.9211
4648.15,770.419,0.919
4651.45,770.978,0.9173
4654.75,771.514,0.9163
4658.05,772.064,0.9156
4661.35,772.612,0.9153
4664.65,773.159,0.9149
4667.95,773.7,0.9132
4671.25,774.25,0.9117
4674.55,774.806,0.9097
4677.85,775.336,0.909
4681.15,775.886,0.9085
4684.45,776.44,0.9074
4687.75,776.982,0.9059
4691.05,777.526,0.9039
4694.35,778.093,0.9022
4697.65,778.639,0.9007
4700.95,779.184,0.8982
4704.25,779.728,0.8974
4707.55,780.279,0.8964
4710.85,780.824,0.8951
4714.15,781.371,0.8933
4717.45,781.919,0.8915
4720.75,782.465,0.8903
4724.05,783.014,0.8893
4727.35,783.557,0.888
4730.65,784.106,0.8866
4733.95,784.664,0.8851
4737.25,785.195,0.8825
4740.55,785.76,0.8813
4743.85,786.301,0.8796
4747.15,786.859,0.8776
4750.45,787.388,0.8762
4753.75,787.933,0.8751
4757.05,788.49,0.8738
4760.35,789.039,0.8729
4763.65,789.595,0.8719
4766.95,790.143,0.87
4770.25,790.687,0.8694
4773.55,791.229,0.8685
4776.85,791.787,0.8678
4780.15,792.33,0.8671
4783.45,792.884,0.8656
4786.75,793.422,0.8639
4790.05,793.971,0.8618
4793.35,794.526,0.8596
4796.65,795.074,0.8577
4799.95,795.627,0.8554
4803.25,796.176,0.8545
4806.55,796.721,0.8535
4809.85,797.266,0.8518
4813.15,797.824,0.8507
4816.45,798.368,0.8504
4819.75,798.922,0.8492
4823.05,799.464,0.847
4826.35,800.018,0.8448
4829.65,800.561,0.8421
4832.95,801.107,0.8407
4836.25,801.654,0.8387
4839.55,802.199,0.8377
4842.85,802.747,0.8373
4846.15,803.307,0.8367
4849.45,803.846,0.8358
4852.75,804.394,0.8342
4856.05,804.949,0.8325
4859.35,805.493,0.8307
4862.65,806.031,0.8291
4865.95,806.584,0.827
4869.25,807.138,0.8246
4872.55,807.686,0.8231
4875.85,808.24,0.8214
4879.15,808.784,0.8187
4882.45,809.333,0.8181
4885.75,809.88,0.8171
4889.05,810.439,0.8161
4892.35,810.983,0.815
4895.65,811.528,0.8142
4898.95,812.069,0.8132
4902.25,812.612,0.8117
4905.55,813.166,0.81
4908.85,813.709,0.8087
4912.15,814.264,0.8071
4915.45,814.804,0.8054
4918.75,815.363,0.8033
4922.05,815.903,0.8018
4925.35,816.457,0.7997
4928.65,817.002,0.798
4931.95,817.552,0.7973
4935.25,818.096,0.7966
4938.55,818.645,0.7958
4941.85,819.203,0.7941
4945.15,819.756,0.7912
4948.45,820.305,0.7893
4951.75,820.842,0.7875
4955.05,821.39,0.7857
4958.35,821.936,0.7839
4961.65,822.489,0.7826
4964.95,823.033,0.7813
4968.25,823.591,0.7802998
4971.55,824.136,0.7789
4974.85,824.688,0.7768
4978.15,825.235,0.7751
4981.45,825.795,0.7739
4984.75,826.337,0.7723
4988.05,826.882,0.7713
4991.35,827.425,0.7713
4994.65,827.978,0.7713
4997.95,828.521,0.7709
5001.25,829.077,0.77
5004.55,829.629,0.7687
5007.85,830.175,0.7675
5011.15,830.717,0.7661
5014.45,831.263,0.764
5017.75,831.815,0.7612
5021.05,832.365,0.7594
5024.35,832.919,0.7577
5027.65,833.46,0.7562
5030.95,834.026,0.755
5034.25,834.567,0.7535
5037.55,835.114,0.7523
5040.85,835.658,0.7514
5044.15,836.203,0.7506
5047.45,836.761,0.7489
5050.75,837.303,0.7472
5054.05,837.862,0.7453
5057.35,838.401,0.7429
5060.65,838.946,0.7411
5063.95,839.496,0.7392
5067.25,840.059,0.7368
5070.55,840.602,0.7357
5073.85,841.149,0.7341
5077.15,841.702,0.7322
5080.45,842.242,0.7307
5083.75,842.796,0.7292
5087.05,843.352,0.7277
5090.35,843.888,0.7262
5093.65,844.444,0.7253
5096.95,844.998,0.723
5100.25,845.537,0.7209
5103.55,846.086,0.7195
5106.85,846.644,0.7183
5110.15,847.194,0.7169
5113.45,847.737,0.7154
5116.75,848.299,0.7144
5120.05,848.851,0.7137
5123.35,849.396,0.7128
5126.65,849.945,0.7109
5129.95,850.496,0.7093
5133.25,851.037,0.7077
5136.55,851.598,0.7064
5139.85,852.137,0.705
5143.15,852.696,0.7041
5146.45,853.243,0.7031
5149.75,853.796,0.7022
5153.05,854.353,0.7007
5156.35,854.898,0.6992
5159.65,855.451,0.6977
5162.95,855.99,0.6967
5166.25,856.544,0.6958
5169.55,857.089,0.6952
5172.85,857.643,0.6939
5176.15,858.184,0.6924
5179.45,858.742,0.6911
5182.75,859.286,0.6903
5186.05,859.85,0.6899
5189.35,860.391,0.6885
5192.65,860.944,0.6871
5195.95,861.488,0.6861
5199.25,862.047,0.6844
5202.55,862.592,0.6826
5205.85,863.143,0.681
5209.15,863.687,0.6798
5212.45,864.242,0.679
5215.75,864.788,0.6781
5219.05,865.336,0.6766
5222.35,865.893,0.6747
5225.65,866.436,0.6725
5228.95,866.982,0.6713
5232.25,867.543,0.6697
5235.55,868.095,0.6678
5238.85,868.638,0.6659
5242.15,869.196,0.6642
5245.45,869.744,0.6615
5248.75,870.288,0.6609
5252.05,870.831,0.6603
5255.35,871.391,0.6591
5258.65,871.938,0.6577
5261.95,872.489,0.6555
5265.25,873.041,0.6533
5268.55,873.599,0.6512
5271.85,874.142,0.6494
5275.15,874.698,0.6476
5278.45,875.239,0.646
5281.75,875.794,0.644
5285.05,876.335,0.6434
5288.35,876.881,0.6425
5291.65,877.441,0.6412
5294.95,877.99,0.6393
5298.25,878.543,0.6373
5301.55,879.085,0.6359
5304.85,879.633,0.6344
5308.15,880.183,0.6332
5311.45,880.738,0.6314
5314.75,881.288,0.629
5318.05,881.837,0.6276
5321.35,882.391,0.6266
5324.65,882.942,0.6252
5327.95,883.487,0.6238
5331.25,884.045,0.623
5334.55,884.597,0.6227
5337.85,885.158,0.6212
5341.15,885.705,0.6201
5344.45,886.249,0.6189
5347.75,886.809,0.6177
5351.05,887.355,0.616
5354.35,887.911,0.6142
5357.65,888.455,0.6128
5360.95,889.016,0.6117
5364.25,889.559,0.6107
5367.55,890.106,0.6094
5370.85,890.659,0.6077
5374.15,891.213,0.6068
5377.45,891.759,0.606
5380.75,892.318,0.6052
5384.05,892.853,0.6044
5387.35,893.419,0.6034
5390.65,893.967,0.6025
5393.95,894.522,0.601
5397.25,895.068,0.6
5400.55,895.626,0.5977
5403.85,896.171,0.5977
5407.15,896.715,0.5971
5410.45,897.266,0.5968
5413.75,897.816,0.5963
5417.05,898.363,0.5958
5420.35,898.919,0.5948
5423.65,899.475,0.594
5426.95,900.017,0.5935
5430.25,900.561,0.5922
5433.55,901.11,0.5909
5436.85,901.672,0.5897
5440.15,902.223,0.5882
5443.45,902.773,0.587
5446.75,903.325,0.5847
5450.05,903.869,0.5838
5453.35,904.432,0.5827
5456.65,904.98,0.5811
5459.95,905.522,0.5793
5463.25,906.08,0.5779
5466.55,906.632,0.5762
5469.85,907.174,0.5747
5473.15,907.73,0.5722
5476.45,908.278,0.5702
5479.75,908.833,0.5686
5483.05,909.373,0.567
5486.35,909.943,0.5652
5489.65,910.488,0.5633
5492.95,911.048,0.5616999
5496.25,911.592,0.5607
5499.55,912.148,0.5597
5502.85,912.691,0.558
5506.15,913.243,0.5559
5509.45,913.801,0.5549
5512.75,914.35,0.553
5516.05,914.903,0.5511
5519.35,915.454,0.5493
5522.65,916.004,0.5482
5525.95,916.552,0.5474
5529.25,917.102,0.5462
5532.55,917.661,0.5444
5535.85,918.209,0.5427
5539.15,918.757,0.5425
5542.45,919.309,0.5423
5545.75,919.873,0.5417
5549.05,920.404,0.5409
5552.35,920.962,0.5402
5555.65,921.514,0.5387
5558.95,922.073,0.5378
5562.25,922.624,0.5365
5565.55,923.168,0.5356999
5568.85,923.724,0.535
5572.15,924.276,0.5344
5575.45,924.824,0.5334
5578.75,925.388,0.5326
5582.05,925.926,0.5314
5585.35,926.484,0.5299
5588.65,927.028,0.5279
5591.95,927.588,0.5271
5595.25,928.129,0.5265
5598.55,928.682,0.5258
5601.85,929.238,0.5245
5605.15,929.791,0.5233
5608.45,930.346,0.5225
5611.75,930.896,0.5215
5615.05,931.443,0.5204
5618.35,931.995,0.5195
5621.65,932.539,0.5183
5624.95,933.087,0.5171
5628.25,933.64,0.5149
5631.55,934.189,0.5141
5634.85,934.747,0.5135
5638.15,935.294,0.5126
5641.45,935.836,0.5114
5644.75,936.385,0.5103
5648.05,936.946,0.5091
5651.35,937.497,0.5075
5654.65,938.04,0.5061
5657.95,938.603,0.5052
5661.25,939.149,0.5036
5664.55,939.699,0.5024
5667.85,940.248,0.5014
5671.15,940.813,0.5002
5674.45,941.353,0.4982
5677.75,941.901,0.4963
5681.05,942.448,0.4948
5684.35,942.997,0.4932
5687.65,943.546,0.4918
5690.95,944.109,0.4897
5694.25,944.66,0.4881
5697.55,945.21,0.4869
5700.85,945.755,0.4855
5704.15,946.308,0.4841
5707.45,946.866,0.482
5710.75,947.417,0.4803
5714.05,947.973,0.4793
5717.35,948.524,0.4779
5720.65,949.076,0.4765
5723.95,949.633,0.4756
5727.25,950.18,0.4745
5730.55,950.73,0.4735
5733.85,951.275,0.4727
5737.15,951.84,0.4716
5740.45,952.383,0.4709
5743.75,952.938,0.4699
5747.05,953.481,0.4687
5750.35,954.029,0.4672
5753.65,954.584,0.4652
5756.95,955.139,0.4646
5760.25,955.684,0.4633
5763.55,956.242,0.4619
5766.85,956.798,0.46
5770.15,957.345,0.4597
5773.45,957.886,0.4585
5776.75,958.448,0.4573
5780.05,959.004,0.4564
5783.35,959.546,0.4555
5786.65,960.102,0.4544
5789.95,960.647,0.4535
5793.25,961.198,0.4528997
5796.55,961.748,0.4522
5799.85,962.307,0.4501
5803.15,962.86,0.4492
5806.45,963.412,0.4486
5809.75,963.967,0.4473
5813.05,964.517,0.446
5816.35,965.067,0.4446
5819.65,965.615,0.4432
5822.95,966.176,0.4418
5826.25,966.721,0.4408
5829.55,967.277,0.4396
5832.85,967.836,0.4384
5836.15,968.38,0.4375
5839.45,968.937,0.4367
5842.75,969.479,0.4344
5846.05,970.032,0.4338
5849.35,970.585,0.4332
5852.65,971.131,0.432
5855.95,971.689,0.4307
5859.25,972.237,0.4299
5862.55,972.791,0.4287
5865.85,973.342,0.4274
5869.15,973.891,0.4264
5872.45,974.438,0.4256
5875.75,974.994,0.4247
5879.05,975.548,0.4233
5882.35,976.104,0.4224
5885.65,976.656,0.4214
5888.95,977.211,0.4198
5892.25,977.753,0.4183
5895.55,978.297,0.4178
5898.85,978.864,0.4169
5902.15,979.394,0.4161
5905.45,979.959,0.4155
5908.75,980.506,0.4145
5912.05,981.047,0.4131
5915.35,981.609,0.4118
5918.65,982.158,0.4105
5921.95,982.711,0.4091
5925.25,983.254,0.4078
5928.55,983.822,0.4068
5931.85,984.37,0.4058
5935.15,984.916,0.4051
5938.45,985.456,0.4051
5941.75,986.017,0.4051
5945.05,986.576,0.4045
5948.35,987.12,0.4026
5951.65,987.673,0.4008997
5954.95,988.217,0.3994
5958.25,988.788,0.3976
5961.55,989.34,0.3961
5964.85,989.89,0.395
5968.15,990.443,0.3943
5971.45,991,0.3937
5974.75,991.541,0.3925
5978.05,992.098,0.3913
5981.35,992.66,0.3885
5984.65,993.207,0.3876
5987.95,993.763,0.3862
5991.25,994.309,0.3847
5994.55,994.854,0.3838
5997.85,995.421,0.3831
6001.15,995.959,0.383
6004.45,996.511,0.3828
6007.75,997.071,0.3817
6011.05,997.61,0.3808
6014.35,998.17,0.3804
6017.65,998.72,0.3807
6020.95,999.259,0.3803
6024.25,999.807,0.3797
6027.55,1000.37,0.3794
6030.85,1000.913,0.3792
6034.15,1001.47,0.3785
6037.45,1002.01,0.3776
6040.75,1002.56,0.3761
6044.05,1003.12,0.3742
6047.35,1003.67,0.3735
6050.65,1004.21,0.3724
6053.95,1004.77,0.3718
6057.25,1005.32,0.3711
6060.55,1005.88,0.3702
6063.85,1006.42,0.3694
6067.15,1006.98,0.3685
6070.45,1007.53,0.3677
6073.75,1008.08,0.3673
6077.05,1008.64,0.3668
6080.35,1009.189,0.366
6083.65,1009.74,0.3652
6086.95,1010.3,0.3638
6090.25,1010.83,0.362
6093.55,1011.39,0.3613
6096.85,1011.947,0.3604
6100.15,1012.5,0.3591
6103.45,1013.04,0.3579
6106.75,1013.598,0.3566
6110.05,1014.15,0.3553
6113.35,1014.71,0.3543
6116.65,1015.26,0.3539
6119.95,1015.8,0.3538
6123.25,1016.36,0.3536
6126.55,1016.91,0.353
6129.85,1017.46,0.3522
6133.15,1018,0.3513
6136.45,1018.56,0.3508
6139.75,1019.12,0.3498
6143.05,1019.67,0.3491
6146.35,1020.23,0.3474
6149.65,1020.77,0.3458
6152.95,1021.32,0.3455
6156.25,1021.87,0.3449
6159.55,1022.42,0.3438
6162.85,1022.978,0.3426
6166.15,1023.53,0.3412
6169.45,1024.08,0.3398
6172.75,1024.65,0.3382
6176.05,1025.19,0.337
6179.35,1025.74,0.336
6182.65,1026.29,0.3351
6185.95,1026.835,0.3342
6189.25,1027.39,0.3334
6192.55,1027.947,0.3334
6195.85,1028.5,0.332
6199.15,1029.04,0.3303
6202.45,1029.61,0.3303
6205.75,1030.15,0.3301
6209.05,1030.69,0.3288
6212.35,1031.25,0.3271
6215.65,1031.81,0.3264
6218.95,1032.36,0.3247
6222.25,1032.9,0.323
6225.55,1033.46,0.3219
6228.85,1034.017,0.3211
6232.15,1034.56,0.3204
6235.45,1035.13,0.3197
6238.75,1035.67,0.3191
6242.05,1036.22,0.3193
6245.35,1036.77,0.3193
6248.65,1037.32,0.3193
6251.95,1037.87,0.3185
6255.25,1038.426,0.3179
6258.55,1038.97,0.3166
6261.85,1039.52,0.315
6265.15,1040.07,0.3148
6268.45,1040.62,0.3149
6271.75,1041.17,0.3146
6275.05,1041.72,0.3141
6278.35,1042.28,0.3133
6281.65,1042.82,0.3124
6284.95,1043.38,0.3109
6288.25,1043.93,0.3098
6291.55,1044.49,0.309
6294.85,1045.038,0.3074
6298.15,1045.59,0.3063
6301.45,1046.13,0.3053
6304.75,1046.69,0.3045
6308.05,1047.24,0.3034
6311.35,1047.796,0.3025
6314.65,1048.34,0.3003
6317.95,1048.9,0.2992
6321.25,1049.44,0.2983
6324.55,1050,0.2982
6327.85,1050.55,0.298
6331.15,1051.1,0.2974
6334.45,1051.64,0.2964
6337.75,1052.21,0.2956
6341.05,1052.76,0.295
6344.35,1053.29,0.2934
6347.65,1053.86,0.2923
6350.95,1054.42,0.2915
6354.25,1054.96,0.2911
6357.55,1055.52,0.2905
6360.85,1056.07,0.2898
6364.15,1056.62,0.2893
6367.45,1057.18,0.2883
6370.75,1057.73,0.2871
6374.05,1058.28,0.2862
6377.35,1058.82,0.285
6380.65,1059.38,0.2841
6383.95,1059.926,0.2827
6387.25,1060.49,0.2813
6390.55,1061.03,0.2804
6393.85,1061.57,0.2793
6397.15,1062.13,0.2782
6400.45,1062.684,0.2771
6403.75,1063.23,0.276
6407.05,1063.79,0.2752
6410.35,1064.34,0.2748
6413.65,1064.89,0.2737
6416.95,1065.44,0.2724
6420.25,1066,0.2715
6423.55,1066.56,0.2708997
6426.85,1067.1,0.2703
6430.15,1067.65,0.2705
6433.45,1068.21,0.2697
6436.75,1068.76,0.2691
6440.05,1069.3,0.2686
6443.35,1069.85,0.2682
6446.65,1070.41,0.2678
6450,1070.96,0.2675
6483,1073.67,0.2583
6516,1073.85,0.2501
6549,1073.7,0.2439
6582,1073.63,0.234
6615,1073.61,0.2254
6648,1073.61,0.2177
6681,1073.57,0.2087
6714,1073.54,0.2037
6747,1073.49,0.198
6780,1073.46,0.1838
6813,1073.42,0.1777
6846,1073.38,0.1743
6879,1073.35,0.1664
6912,1073.314,0.1582
6945,1073.29,0.1535
6978,1073.267,0.1487
7011,1073.25,0.1401
7044,1073.228,0.136
7077,1073.23,0.1313
7110,1073.2,0.1218
7143,1073.19,0.1166
7176,1073.17,0.1126
7209,1073.17,0.1126
7242,1073.17,0.1081
7275,1073.16,0.0954997
7308,1073.155,0.0923996
7341,1073.15,0.0929997
7347,1073.14,0.0928996