File: Wood/Calibration_Data/MFSL/MFSL_Wood_TGA_N2_10K_R3.csv
Time (s),Temperature (K),Mass (mg)
0.0,293.6,4.836
9.0,293.7,4.851
18.6,293.7,4.844
28.2,293.7,4.841
37.8,293.8,4.840
47.4,293.8,4.840
57.0,294.0,4.839
66.6,294.1,4.837
76.2,294.4,4.836
85.8,294.7,4.835
116.9,296.1,4.821
164.9,299.3,4.795
212.9,302.9,4.767
260.9,306.4,4.733
308.9,309.4,4.701
356.9,311.7,4.672
404.9,313.4,4.649
452.9,314.6,4.629
500.9,315.3,4.612
548.9,315.8,4.597
596.9,315.9,4.590
644.9,315.9,4.581
692.9,315.8,4.575
740.9,315.6,4.571
788.9,315.3,4.569
836.9,315.0,4.568
884.9,314.7,4.567
932.9,314.4,4.561
980.9,314.1,4.562
1028.9,313.8,4.565
1076.9,313.6,4.564
1124.9,313.5,4.563
1172.9,313.3,4.562
1220.9,313.2,4.560
1268.9,313.1,4.559
1316.9,313.1,4.559
1364.9,313.0,4.559
1412.9,313.0,4.564
1460.9,313.0,4.562
1508.9,312.9,4.566
1556.9,312.9,4.566
1604.9,313.0,4.565
1652.9,313.0,4.566
1700.9,313.0,4.564
1748.9,313.0,4.566
1796.9,313.0,4.567
1844.9,313.0,4.567
1890.3,313.0,4.570
1895.1,313.0,4.570
1899.9,313.0,4.570
1904.7,313.1,4.571
1909.5,313.1,4.571
1914.3,313.1,4.571
1919.1,313.1,4.571
1923.9,313.1,4.571
1928.7,313.1,4.571
1933.5,313.2,4.570
1938.3,313.3,4.571
1943.1,313.3,4.572
1947.9,313.4,4.573
1952.7,313.5,4.572
1957.5,313.6,4.571
1962.3,313.7,4.571
1967.1,313.9,4.572
1971.9,314.0,4.572
1976.7,314.2,4.572
1981.5,314.4,4.572
1986.3,314.6,4.572
1991.1,314.9,4.572
1995.9,315.1,4.572
2000.7,315.4,4.572
2005.5,315.7,4.572
2010.3,316.1,4.572
2015.1,316.4,4.573
2019.9,316.8,4.573
2024.7,317.2,4.573
2029.5,317.6,4.574
2034.3,318.1,4.573
2039.1,318.5,4.572
2043.9,319.1,4.572
2048.7,319.6,4.570
2053.5,320.1,4.571
2058.3,320.7,4.571
2063.1,321.3,4.571
2067.9,321.9,4.571
2072.7,322.5,4.571
2077.5,323.2,4.570
2082.3,323.9,4.569
2087.1,324.6,4.570
2091.9,325.4,4.570
2096.7,326.1,4.571
2101.5,326.9,4.570
2106.3,327.7,4.570
2111.1,328.5,4.568
2115.9,329.3,4.568
2120.7,330.2,4.568
2125.5,331.1,4.569
2130.3,331.9,4.568
2135.1,332.9,4.568
2139.9,333.8,4.567
2144.7,334.7,4.567
2149.5,335.7,4.567
2154.3,336.6,4.567
2159.1,337.6,4.566
2163.9,338.6,4.565
2168.7,339.6,4.565
2173.5,340.6,4.566
2178.3,341.6,4.565
2183.1,342.7,4.564
2187.9,343.7,4.563
2192.7,344.7,4.562
2197.5,345.8,4.560
2202.3,346.9,4.561
2207.1,347.9,4.561
2211.9,349.0,4.560
2216.7,350.0,4.559
2221.5,351.1,4.558
2226.3,352.2,4.558
2231.1,353.3,4.557
2235.9,354.3,4.556
2240.7,355.4,4.556
2245.5,356.5,4.555
2250.3,357.6,4.555
2255.1,358.7,4.554
2259.9,359.7,4.554
2264.7,360.8,4.553
2269.5,361.9,4.552
2274.3,363.0,4.552
2279.1,364.1,4.551
2283.9,365.2,4.551
2288.7,366.3,4.550
2293.5,367.4,4.550
2298.3,368.5,4.550
2303.1,369.5,4.550
2307.9,370.6,4.550
2312.7,371.7,4.550
2317.5,372.8,4.550
2322.3,373.8,4.550
2327.1,374.9,4.550
2331.9,376.0,4.550
2336.7,377.0,4.550
2341.5,378.1,4.550
2346.3,379.1,4.550
2351.1,380.2,4.550
2355.9,381.2,4.550
2360.7,382.3,4.550
2365.5,383.3,4.550
2370.3,384.3,4.550
2375.1,385.4,4.550
2379.9,386.4,4.550
2384.7,387.4,4.550
2389.5,388.4,4.550
2394.3,389.4,4.550
2399.1,390.5,4.550
2403.9,391.4,4.550
2408.7,392.4,4.550
2413.5,393.4,4.550
2418.3,394.4,4.549
2423.1,395.4,4.549
2427.9,396.4,4.549
2432.7,397.4,4.549
2437.5,398.4,4.549
2442.3,399.4,4.549
2447.1,400.4,4.549
2451.9,401.3,4.549
2456.7,402.3,4.549
2461.5,403.3,4.549
2466.3,404.2,4.549
2471.1,405.2,4.549
2475.9,406.1,4.549
2480.7,407.1,4.549
2485.5,408.1,4.549
2490.3,409.0,4.549
2495.1,410.0,4.549
2499.9,410.9,4.549
2504.7,411.8,4.549
2509.5,412.8,4.548
2514.3,413.7,4.547
2519.1,414.7,4.547
2523.9,415.6,4.547
2528.7,416.5,4.547
2533.5,417.4,4.547
2538.3,418.4,4.546
2543.1,419.3,4.546
2547.9,420.2,4.546
2552.7,421.1,4.545
2557.5,422.0,4.545
2562.3,423.0,4.545
2567.1,423.9,4.545
2571.9,424.8,4.544
2576.7,425.7,4.544
2581.5,426.6,4.544
2586.3,427.5,4.544
2591.1,428.4,4.543
2595.9,429.3,4.542
2600.7,430.2,4.542
2605.5,431.0,4.542
2610.3,431.9,4.541
2615.1,432.8,4.541
2619.9,433.7,4.540
2624.7,434.6,4.539
2629.5,435.4,4.539
2634.3,436.3,4.538
2639.1,437.2,4.538
2643.9,438.0,4.538
2648.7,438.9,4.538
2653.5,439.7,4.537
2658.3,440.6,4.536
2663.1,441.5,4.533
2667.9,442.3,4.532
2672.7,443.2,4.533
2677.5,444.0,4.532
2682.3,444.9,4.531
2687.1,445.7,4.530
2691.9,446.5,4.531
2696.7,447.4,4.530
2701.5,448.2,4.529
2706.3,449.1,4.528
2711.1,449.9,4.527
2715.9,450.7,4.525
2720.7,451.6,4.524
2725.5,452.4,4.522
2730.3,453.2,4.520
2735.1,454.0,4.518
2739.9,454.9,4.517
2744.7,455.7,4.515
2749.5,456.5,4.514
2754.3,457.3,4.512
2759.1,458.2,4.511
2763.9,459.0,4.509
2768.7,459.8,4.507
2773.5,460.6,4.506
2778.3,461.4,4.504
2783.1,462.3,4.503
2787.9,463.1,4.501
2792.7,463.9,4.500
2797.5,464.7,4.498
2802.3,465.5,4.495
2807.1,466.3,4.493
2811.9,467.1,4.491
2816.7,467.9,4.489
2821.5,468.8,4.486
2826.3,469.6,4.483
2831.1,470.4,4.481
2835.9,471.2,4.479
2840.7,472.0,4.476
2845.5,472.8,4.473
2850.3,473.6,4.471
2855.1,474.4,4.468
2859.9,475.2,4.464
2864.7,476.0,4.461
2869.5,476.8,4.458
2874.3,477.6,4.456
2879.1,478.4,4.453
2883.9,479.2,4.451
2888.7,480.0,4.449
2893.5,480.8,4.447
2898.3,481.6,4.446
2903.1,482.4,4.444
2907.9,483.2,4.442
2912.7,484.0,4.440
2917.5,484.8,4.437
2922.3,485.6,4.434
2927.1,486.4,4.433
2931.9,487.2,4.432
2936.7,488.0,4.430
2941.5,488.8,4.428
2946.3,489.6,4.425
2951.1,490.4,4.422
2955.9,491.2,4.418
2960.7,492.0,4.416
2965.5,492.8,4.413
2970.3,493.6,4.410
2975.1,494.4,4.406
2979.9,495.2,4.404
2984.7,496.0,4.401
2989.5,496.7,4.398
2994.3,497.5,4.395
2999.1,498.3,4.391
3003.9,499.1,4.388
3008.7,499.9,4.385
3013.5,500.7,4.382
3018.3,501.5,4.378
3023.1,502.3,4.374
3027.9,503.1,4.369
3032.7,503.9,4.366
3037.5,504.7,4.362
3042.3,505.4,4.357
3047.1,506.2,4.353
3051.9,507.0,4.349
3056.7,507.8,4.344
3061.5,508.6,4.339
3066.3,509.4,4.334
3071.1,510.2,4.330
3075.9,511.0,4.324
3080.7,511.8,4.319
3085.5,512.6,4.314
3090.3,513.3,4.309
3095.1,514.1,4.303
3099.9,514.9,4.297
3104.7,515.7,4.293
3109.5,516.5,4.287
3114.3,517.3,4.281
3119.1,518.1,4.273
3123.9,518.9,4.269
3128.7,519.7,4.263
3133.5,520.5,4.256
3138.3,521.2,4.250
3143.1,522.0,4.242
3147.9,522.8,4.237
3152.7,523.6,4.230
3157.5,524.4,4.223
3162.3,525.2,4.216
3167.1,526.0,4.209
3171.9,526.8,4.202
3176.7,527.6,4.195
3181.5,528.4,4.186
3186.3,529.1,4.177
3191.1,529.9,4.169
3195.9,530.7,4.161
3200.7,531.5,4.153
3205.5,532.3,4.144
3210.3,533.1,4.136
3215.1,533.9,4.127
3219.9,534.7,4.118
3224.7,535.5,4.108
3229.5,536.3,4.100
3234.3,537.0,4.091
3239.1,537.8,4.082
3243.9,538.6,4.072
3248.7,539.4,4.063
3253.5,540.2,4.054
3258.3,541.0,4.045
3263.1,541.8,4.034
3267.9,542.5,4.024
3272.7,543.3,4.012
3277.5,544.1,4.002
3282.3,544.9,3.992
3287.1,545.7,3.982
3291.9,546.5,3.971
3296.7,547.3,3.961
3301.5,548.1,3.952
3306.3,548.9,3.942
3311.1,549.6,3.932
3315.9,550.4,3.921
3320.7,551.2,3.910
3325.5,552.0,3.898
3330.3,552.8,3.885
3335.1,553.6,3.875
3339.9,554.4,3.862
3344.7,555.2,3.851
3349.5,555.9,3.838
3354.3,556.7,3.825
3359.1,557.5,3.814
3363.9,558.3,3.801
3368.7,559.1,3.790
3373.5,559.9,3.779
3378.3,560.7,3.766
3383.1,561.5,3.755
3387.9,562.3,3.744
3392.7,563.0,3.731
3397.5,563.8,3.721
3402.3,564.6,3.709
3407.1,565.4,3.695
3411.9,566.2,3.680
3416.7,567.0,3.666
3421.5,567.8,3.653
3426.3,568.6,3.640
3431.1,569.4,3.626
3435.9,570.2,3.614
3440.7,570.9,3.601
3445.5,571.7,3.585
3450.3,572.5,3.571
3455.1,573.3,3.557
3459.9,574.1,3.543
3464.7,574.9,3.528
3469.5,575.7,3.513
3474.3,576.5,3.499
3479.1,577.3,3.484
3483.9,578.0,3.467
3488.7,578.8,3.452
3493.5,579.6,3.436
3498.3,580.4,3.419
3503.1,581.2,3.403
3507.9,582.0,3.385
3512.7,582.8,3.368
3517.5,583.6,3.351
3522.3,584.4,3.333
3527.1,585.1,3.315
3531.9,585.9,3.297
3536.7,586.7,3.278
3541.5,587.5,3.258
3546.3,588.3,3.239
3551.1,589.1,3.222
3555.9,589.9,3.202
3560.7,590.7,3.182
3565.5,591.5,3.161
3570.3,592.3,3.142
3575.1,593.0,3.123
3579.9,593.8,3.103
3584.7,594.6,3.083
3589.5,595.4,3.063
3594.3,596.2,3.042
3599.1,597.0,3.019
3603.9,597.8,2.995
3608.7,598.6,2.971
3613.5,599.4,2.948
3618.3,600.1,2.929
3623.1,600.9,2.909
3627.9,601.7,2.886
3632.7,602.5,2.855
3637.5,603.3,2.831
3642.3,604.1,2.811
3647.1,604.9,2.788
3651.9,605.7,2.763
3656.7,606.5,2.737
3661.5,607.2,2.713
3666.3,608.0,2.692
3671.1,608.8,2.670
3675.9,609.6,2.648
3680.7,610.4,2.620
3685.5,611.2,2.592
3690.3,612.0,2.569
3695.1,612.8,2.548
3699.9,613.5,2.522
3704.7,614.3,2.492
3709.5,615.1,2.467
3714.3,615.9,2.446
3719.1,616.7,2.423
3723.9,617.5,2.392
3728.7,618.3,2.364
3733.5,619.1,2.341
3738.3,619.9,2.315
3743.1,620.7,2.285
3747.9,621.5,2.258
3752.7,622.2,2.231
3757.5,623.0,2.202
3762.3,623.8,2.175
3767.1,624.6,2.145
3771.9,625.4,2.117
3776.7,626.2,2.088
3781.5,627.0,2.059
3786.3,627.8,2.029
3791.1,628.6,2.000
3795.9,629.4,1.969
3800.7,630.2,1.939
3805.5,631.0,1.909
3810.3,631.7,1.879
3815.1,632.5,1.847
3819.9,633.3,1.816
3824.7,634.1,1.785
3829.5,634.9,1.754
3834.3,635.7,1.722
3839.1,636.5,1.691
3843.9,637.3,1.660
3848.7,638.1,1.629
3853.5,638.8,1.600
3858.3,639.6,1.569
3863.1,640.4,1.542
3867.9,641.2,1.513
3872.7,642.0,1.484
3877.5,642.8,1.460
3882.3,643.6,1.435
3887.1,644.4,1.411
3891.9,645.2,1.388
3896.7,646.0,1.369
3901.5,646.8,1.351
3906.3,647.6,1.333
3911.1,648.3,1.316
3915.9,649.1,1.302
3920.7,649.9,1.289
3925.5,650.7,1.277
3930.3,651.5,1.264
3935.1,652.3,1.255
3939.9,653.1,1.247
3944.7,653.9,1.238
3949.5,654.7,1.232
3954.3,655.5,1.226
3959.1,656.3,1.223
3963.9,657.1,1.218
3968.7,657.9,1.215
3973.5,658.7,1.211
3978.3,659.5,1.209
3983.1,660.3,1.205
3987.9,661.1,1.203
3992.7,661.8,1.200
3997.5,662.7,1.196
4002.3,663.4,1.194
4007.1,664.2,1.190
4011.9,665.0,1.188
4016.7,665.8,1.185
4021.5,666.6,1.183
4026.3,667.4,1.180
4031.1,668.2,1.179
4035.9,669.0,1.178
4040.7,669.8,1.176
4045.5,670.6,1.174
4050.3,671.4,1.172
4055.1,672.2,1.170
4059.9,673.0,1.167
4064.7,673.7,1.165
4069.5,674.6,1.164
4074.3,675.3,1.163
4079.1,676.1,1.160
4083.9,676.9,1.158
4088.7,677.7,1.156
4093.5,678.5,1.152
4098.3,679.3,1.151
4103.1,680.1,1.149
4107.9,680.9,1.147
4112.7,681.7,1.145
4117.5,682.5,1.143
4122.3,683.3,1.140
4127.1,684.1,1.138
4131.9,684.9,1.135
4136.7,685.7,1.133
4141.5,686.4,1.131
4146.3,687.2,1.129
4151.1,688.0,1.127
4155.9,688.8,1.125
4160.7,689.6,1.122
4165.5,690.4,1.119
4170.3,691.2,1.117
4175.1,692.0,1.114
4179.9,692.8,1.113
4184.7,693.6,1.110
4189.5,694.4,1.108
4194.3,695.2,1.106
4199.1,696.0,1.104
4203.9,696.8,1.103
4208.7,697.6,1.101
4213.5,698.4,1.099
4218.3,699.2,1.096
4223.1,699.9,1.095
4227.9,700.7,1.094
4232.7,701.5,1.092
4237.5,702.3,1.090
4242.3,703.1,1.088
4247.1,703.9,1.086
4251.9,704.7,1.084
4256.7,705.5,1.081
4261.5,706.3,1.079
4266.3,707.1,1.077
4271.1,707.9,1.075
4275.9,708.7,1.073
4280.7,709.5,1.071
4285.5,710.3,1.069
4290.3,711.1,1.066
4295.1,711.9,1.064
4299.9,712.7,1.062
4304.7,713.5,1.061
4309.5,714.3,1.060
4314.3,715.1,1.058
4319.1,715.9,1.056
4323.9,716.6,1.054
4328.7,717.4,1.052
4333.5,718.2,1.050
4338.3,719.0,1.049
4343.1,719.8,1.047
4347.9,720.6,1.045
4352.7,721.4,1.043
4357.5,722.2,1.040
4362.3,723.0,1.038
4367.1,723.8,1.036
4371.9,724.6,1.033
4376.7,725.4,1.031
4381.5,726.2,1.029
4386.3,727.0,1.027
4391.1,727.8,1.026
4395.9,728.6,1.023
4400.7,729.4,1.021
4405.5,730.2,1.020
4410.3,731.0,1.018
4415.1,731.8,1.016
4419.9,732.6,1.013
4424.7,733.4,1.011
4429.5,734.2,1.009
4434.3,735.0,1.006
4439.1,735.8,1.004
4443.9,736.6,1.002
4448.7,737.4,0.999
4453.5,738.1,0.998
4458.3,738.9,0.997
4463.1,739.7,0.995
4467.9,740.5,0.993
4472.7,741.3,0.991
4477.5,742.1,0.990
4482.3,742.9,0.988
4487.1,743.7,0.987
4491.9,744.5,0.985
4496.7,745.3,0.982
4501.5,746.1,0.980
4506.3,746.9,0.977
4511.1,747.7,0.974
4515.9,748.5,0.972
4520.7,749.3,0.969
4525.5,750.1,0.968
4530.3,750.9,0.966
4535.1,751.7,0.963
4539.9,752.5,0.959
4544.7,753.3,0.958
4549.5,754.1,0.956
4554.3,754.9,0.955
4559.1,755.7,0.955
4563.9,756.4,0.954
4568.7,757.2,0.954
4573.5,758.0,0.953
4578.3,758.8,0.950
4583.1,759.6,0.948
4587.9,760.4,0.945
4592.7,761.2,0.942
4597.5,762.0,0.939
4602.3,762.8,0.936
4607.1,763.6,0.933
4611.9,764.4,0.931
4616.7,765.2,0.930
4621.5,766.0,0.928
4626.3,766.8,0.926
4631.1,767.6,0.924
4635.9,768.4,0.923
4640.7,769.2,0.922
4645.5,770.0,0.921
4650.3,770.8,0.918
4655.1,771.6,0.916
4659.9,772.4,0.915
4664.7,773.2,0.915
4669.5,774.0,0.912
4674.3,774.8,0.910
4679.1,775.5,0.909
4683.9,776.3,0.908
4688.7,777.1,0.905
4693.5,777.9,0.903
4698.3,778.7,0.900
4703.1,779.5,0.898
4707.9,780.3,0.896
4712.7,781.1,0.894
4717.5,781.9,0.891
4722.3,782.7,0.890
4727.1,783.5,0.888
4731.9,784.3,0.886
4736.7,785.1,0.883
4741.5,785.9,0.881
4746.3,786.7,0.878
4751.1,787.5,0.876
4755.9,788.3,0.874
4760.7,789.1,0.873
4765.5,789.9,0.871
4770.3,790.7,0.869
4775.1,791.5,0.868
4779.9,792.3,0.867
4784.7,793.1,0.865
4789.5,793.9,0.862
4794.3,794.7,0.859
4799.1,795.5,0.856
4803.9,796.3,0.854
4808.7,797.1,0.852
4813.5,797.9,0.851
4818.3,798.7,0.850
4823.1,799.5,0.847
4827.9,800.3,0.843
4832.7,801.1,0.841
4837.5,801.9,0.838
4842.3,802.7,0.837
4847.1,803.4,0.837
4851.9,804.2,0.835
4856.7,805.0,0.832
4861.5,805.8,0.830
4866.3,806.6,0.827
4871.1,807.4,0.824
4875.9,808.2,0.821
4880.7,809.0,0.818
4885.5,809.8,0.817
4890.3,810.6,0.816
4895.1,811.4,0.814
4899.9,812.2,0.813
4904.7,813.0,0.810
4909.5,813.8,0.808
4914.3,814.6,0.806
4919.1,815.4,0.803
4923.9,816.2,0.801
4928.7,817.0,0.798
4933.5,817.8,0.797
4938.3,818.6,0.796
4943.1,819.4,0.793
4947.9,820.2,0.790
4952.7,821.0,0.787
4957.5,821.8,0.784
4962.3,822.6,0.782
4967.1,823.4,0.781
4971.9,824.2,0.779
4976.7,825.0,0.775
4981.5,825.8,0.774
4986.3,826.6,0.772
4991.1,827.4,0.771
4995.9,828.2,0.771
5000.7,829.0,0.770
5005.5,829.8,0.768
5010.3,830.6,0.767
5015.1,831.4,0.763
5019.9,832.2,0.760
5024.7,833.0,0.757
5029.5,833.8,0.755
5034.3,834.6,0.754
5039.1,835.4,0.752
5043.9,836.2,0.751
5048.7,837.0,0.748
5053.5,837.8,0.746
5058.3,838.6,0.742
5063.1,839.3,0.740
5067.9,840.2,0.737
5072.7,840.9,0.735
5077.5,841.7,0.732
5082.3,842.5,0.730
5087.1,843.4,0.728
5091.9,844.2,0.726
5096.7,844.9,0.723
5101.5,845.8,0.720
5106.3,846.5,0.718
5111.1,847.3,0.717
5115.9,848.1,0.714
5120.7,848.9,0.713
5125.5,849.7,0.712
5130.3,850.5,0.709
5135.1,851.3,0.707
5139.9,852.1,0.705
5144.7,852.9,0.704
5149.5,853.7,0.702
5154.3,854.5,0.700
5159.1,855.3,0.698
5163.9,856.2,0.696
5168.7,856.9,0.695
5173.5,857.7,0.693
5178.3,858.5,0.692
5183.1,859.3,0.690
5187.9,860.2,0.689
5192.7,860.9,0.687
5197.5,861.7,0.685
5202.3,862.5,0.683
5207.1,863.3,0.680
5211.9,864.1,0.679
5216.7,864.9,0.678
5221.5,865.7,0.675
5226.3,866.5,0.672
5231.1,867.3,0.670
5235.9,868.1,0.668
5240.7,868.9,0.665
5245.5,869.7,0.661
5250.3,870.5,0.661
5255.1,871.3,0.659
5259.9,872.1,0.657
5264.7,872.9,0.654
5269.5,873.7,0.651
5274.3,874.5,0.648
5279.1,875.3,0.646
5283.9,876.1,0.644
5288.7,876.9,0.642
5293.5,877.7,0.640
5298.3,878.5,0.637
5303.1,879.3,0.635
5307.9,880.1,0.633
5312.7,880.9,0.631
5317.5,881.7,0.628
5322.3,882.5,0.626
5327.1,883.3,0.624
5331.9,884.1,0.623
5336.7,885.0,0.622
5341.5,885.7,0.620
5346.3,886.6,0.618
5351.1,887.4,0.616
5355.9,888.2,0.613
5360.7,889.0,0.612
5365.5,889.8,0.610
5370.3,890.6,0.608
5375.1,891.4,0.607
5379.9,892.2,0.605
5384.7,893.0,0.604
5389.5,893.8,0.603
5394.3,894.6,0.601
5399.1,895.4,0.599
5403.9,896.2,0.598
5408.7,897.0,0.597
5413.5,897.8,0.596
5418.3,898.6,0.595
5423.1,899.4,0.594
5427.9,900.2,0.593
5432.7,901.0,0.591
5437.5,901.8,0.589
5442.3,902.6,0.587
5447.1,903.4,0.585
5451.9,904.2,0.583
5456.7,905.0,0.581
5461.5,905.8,0.579
5466.3,906.6,0.576
5471.1,907.4,0.574
5475.9,908.2,0.571
5480.7,909.0,0.568
5485.5,909.8,0.566
5490.3,910.6,0.563
5495.1,911.4,0.561
5499.9,912.2,0.560
5504.7,913.0,0.557
5509.5,913.8,0.555
5514.3,914.6,0.552
5519.1,915.4,0.549
5523.9,916.2,0.548
5528.7,917.0,0.546
5533.5,917.8,0.544
5538.3,918.6,0.542
5543.1,919.4,0.542
5547.9,920.2,0.541
5552.7,921.0,0.540
5557.5,921.8,0.538
5562.3,922.6,0.536
5567.1,923.4,0.535
5571.9,924.2,0.534
5576.7,925.0,0.533
5581.5,925.8,0.532
5586.3,926.6,0.529
5591.1,927.4,0.527
5595.9,928.2,0.526
5600.7,929.0,0.525
5605.5,929.8,0.523
5610.3,930.6,0.522
5615.1,931.4,0.520
5619.9,932.2,0.519
5624.7,933.0,0.517
5629.5,933.8,0.514
5634.3,934.7,0.514
5639.1,935.4,0.512
5643.9,936.2,0.511
5648.7,937.0,0.509
5653.5,937.8,0.507
5658.3,938.6,0.505
5663.1,939.5,0.503
5667.9,940.2,0.501
5672.7,941.1,0.499
5677.5,941.8,0.496
5682.3,942.7,0.494
5687.1,943.5,0.492
5691.9,944.2,0.489
5696.7,945.1,0.487
5701.5,945.9,0.485
5706.3,946.7,0.483
5711.1,947.5,0.480
5715.9,948.3,0.479
5720.7,949.1,0.476
5725.5,949.9,0.475
5730.3,950.7,0.474
5735.1,951.5,0.472
5739.9,952.3,0.471
5744.7,953.1,0.470
5749.5,953.9,0.468
5754.3,954.7,0.465
5759.1,955.5,0.464
5763.9,956.3,0.462
5768.7,957.1,0.460
5773.5,957.9,0.458
5778.3,958.7,0.457
5783.1,959.5,0.456
5787.9,960.3,0.454
5792.7,961.1,0.453
5797.5,961.9,0.452
5802.3,962.7,0.449
5807.1,963.5,0.448
5811.9,964.3,0.446
5816.7,965.1,0.444
5821.5,965.9,0.442
5826.3,966.7,0.441
5831.1,967.5,0.439
5835.9,968.3,0.438
5840.7,969.1,0.436
5845.5,969.9,0.434
5850.3,970.7,0.433
5855.1,971.5,0.431
5859.9,972.3,0.430
5864.7,973.1,0.428
5869.5,973.9,0.426
5874.3,974.7,0.425
5879.1,975.5,0.423
5883.9,976.4,0.422
5888.7,977.1,0.420
5893.5,977.9,0.418
5898.3,978.8,0.417
5903.1,979.6,0.416
5907.9,980.3,0.415
5912.7,981.2,0.413
5917.5,982.0,0.411
5922.3,982.8,0.409
5927.1,983.6,0.407
5931.9,984.4,0.406
5936.7,985.2,0.405
5941.5,986.0,0.405
5946.3,986.8,0.404
5951.1,987.6,0.401
5955.9,988.4,0.399
5960.7,989.2,0.396
5965.5,990.0,0.395
5970.3,990.8,0.394
5975.1,991.6,0.392
5979.9,992.4,0.390
5984.7,993.2,0.388
5989.5,994.0,0.386
5994.3,994.8,0.384
5999.1,995.6,0.383
6003.9,996.4,0.383
6008.7,997.2,0.381
6013.5,998.0,0.380
6018.3,998.8,0.381
6023.1,999.6,0.380
6027.9,1000.4,0.379
6032.7,1001.2,0.379
6037.5,1002.0,0.378
6042.3,1002.8,0.375
6047.1,1003.6,0.374
6051.9,1004.4,0.372
6056.7,1005.2,0.371
6061.5,1006.0,0.370
6066.3,1006.8,0.369
6071.1,1007.6,0.368
6075.9,1008.4,0.367
6080.7,1009.2,0.366
6085.5,1010.0,0.365
6090.3,1010.8,0.362
6095.1,1011.6,0.361
6099.9,1012.4,0.359
6104.7,1013.2,0.358
6109.5,1014.1,0.355
6114.3,1014.9,0.354
6119.1,1015.7,0.354
6123.9,1016.5,0.353
6128.7,1017.3,0.352
6133.5,1018.1,0.351
6138.3,1018.9,0.350
6143.1,1019.7,0.349
6147.9,1020.5,0.346
6152.7,1021.3,0.345
6157.5,1022.1,0.345
6162.3,1022.9,0.343
6167.1,1023.7,0.341
6171.9,1024.5,0.339
6176.7,1025.3,0.337
6181.5,1026.1,0.335
6186.3,1026.9,0.334
6191.1,1027.7,0.333
6195.9,1028.5,0.332
6200.7,1029.3,0.330
6205.5,1030.1,0.330
6210.3,1030.9,0.328
6215.1,1031.7,0.326
6219.9,1032.5,0.324
6224.7,1033.3,0.322
6229.5,1034.1,0.321
6234.3,1034.9,0.320
6239.1,1035.7,0.319
6243.9,1036.5,0.319
6248.7,1037.3,0.319
6253.5,1038.1,0.318
6258.3,1038.9,0.317
6263.1,1039.7,0.315
6267.9,1040.5,0.315
6272.7,1041.3,0.314
6277.5,1042.1,0.313
6282.3,1042.9,0.312
6287.1,1043.7,0.310
6291.9,1044.5,0.309
6296.7,1045.3,0.307
6301.5,1046.1,0.305
6306.3,1046.9,0.304
6311.1,1047.7,0.303
6315.9,1048.5,0.300
6320.7,1049.3,0.298
6325.5,1050.2,0.298
6330.3,1050.9,0.298
6335.1,1051.7,0.296
6339.9,1052.6,0.295
6344.7,1053.4,0.293
6349.5,1054.2,0.292
6354.3,1055.0,0.291
6359.1,1055.8,0.290
6363.9,1056.6,0.289
6368.7,1057.4,0.288
6373.5,1058.2,0.286
6378.3,1059.0,0.285
6383.1,1059.8,0.283
6387.9,1060.6,0.281
6392.7,1061.4,0.280
6397.5,1062.2,0.278
6402.3,1063.0,0.276
6407.1,1063.8,0.275
6411.9,1064.6,0.274
6416.7,1065.4,0.272
6421.5,1066.2,0.271
6426.3,1067.0,0.270
6431.1,1067.8,0.270
6435.9,1068.6,0.269
6440.7,1069.4,0.268
6445.5,1070.2,0.268
6453.0,1071.5,0.267
6501.0,1073.9,0.255
6549.0,1073.7,0.244
6597.0,1073.6,0.231
6645.0,1073.6,0.218
6693.0,1073.6,0.206
6741.0,1073.5,0.199
6789.0,1073.4,0.183
6837.0,1073.4,0.175
6885.0,1073.3,0.165
6933.0,1073.3,0.154
6981.0,1073.3,0.148
7029.0,1073.3,0.135
7077.0,1073.2,0.131
7125.0,1073.2,0.120
7173.0,1073.2,0.113
7221.0,1073.2,0.112
7269.0,1073.2,0.097
7317.0,1073.2,0.092
7341.0,1073.2,0.093