File: PMMA/Calibration_Data/GIDAZE+/GIDAZE+_Cone_25kW_1.csv
Time,Mass,HRR,Temperature 1 Sample Front,Temperature 3 Inside,Temperature 4 Sample Back
[s],[g],[kW/m2],[K],[K],[K]
0,74.4,-0.372436,312.402,299.447,297.658
1,74.3997,-0.0478782,312.783,299.468,297.664
2,74.3129,-0.397403,314.066,299.551,297.662
3,74.2156,-0.0199354,318.995,299.609,297.575
4,74.3613,-0.408085,324.803,299.695,297.473
5,74.3998,-0.272656,331.538,299.761,297.415
6,74.45996,-0.537402,338.197,299.848,297.358
7,74.4136,-0.236436,345.211,299.936,297.313
8,74.31637,-0.372879,352.026,300.088,297.283
9,74.2953,-0.202886,358.756,300.262,297.256
10,74.2161,-0.504866,364.938,300.514,297.225
11,74.1985,-0.0508709,370.098,300.799,297.206
12,74.3629,-0.449731,375.931,301.202,297.181
13,74.4003,-0.510091,381.735,301.666,297.185
14,74.435,-0.593876,387.627,302.182,297.165
15,74.4091,-0.501835,392.364,302.769,297.158
16,74.3152,-0.0761478,397.232,303.453,297.148
17,74.2952,-0.399937,400.511,304.146,297.145
18,74.2953,-0.107264,405.011,304.928,297.168
19,74.2954,-0.387477,410.129,305.725,297.166
20,74.3807,-0.248454,414.601,306.602,297.177
21,74.478,-0.459024,419.963,307.491,297.177
22,74.4826,-0.51344,423.707,308.423,297.2
23,74.4921,-0.516982,426.845,309.364,297.211
24,74.3327,-0.586352,428.777,310.339,297.221
25,74.2177,-0.412226,431.158,311.334,297.242
26,74.1989,-0.244833,434.949,312.339,297.254
27,74.1992,-0.384769,438.782,313.36,297.258
28,74.2748,-0.327157,441.209,314.404,297.313
29,74.3805,-0.615399,442.752,315.467,297.324
30,74.393,0.484787,444.721,316.565,297.348
31,74.4775,0.416292,446.857,317.611,297.388
32,74.3333,0.568642,450.315,318.744,297.425
33,74.2958,0.437491,452.31,319.835,297.454
34,74.2953,0.868582,454.639,320.96,297.504
35,74.2179,0.571659,455.269,322.042,297.531
36,74.2773,0.846479,458.268,323.152,297.61
37,74.3804,0.349435,460.05,324.253,297.618
38,74.3141,0.776403,461.424,325.363,297.65
39,74.38178,1.14917,464.643,326.497,297.718
40,74.4782,1.71468,467.293,327.606,297.756
41,74.3333,1.35374,469.211,328.732,297.804
42,74.2958,1.57841,470.323,329.852,297.856
43,74.2961,1.36138,473.842,330.958,297.935
44,74.2955,1.574,477.332,332.078,297.971
45,74.3833,2.07194,479.364,333.21,298.052
46,74.4019,2.73432,481.186,334.323,298.125
47,74.4015,2.36531,481.678,335.441,298.17
48,74.4014,2.73688,481.188,336.565,298.243
49,74.3158,2.24703,483.448,337.662,298.322
50,74.2964,2.28319,483.555,338.758,298.405
51,74.296,2.19934,483.658,339.871,298.475
52,74.2189,2.25542,485.146,341.007,298.552
53,74.2773,2.10605,485.997,342.076,298.621
54,74.2934,2.19894,486.071,343.199,298.708
55,74.2966,2.59119,486.334,344.306,298.791
56,74.3827,3.14523,487.453,345.375,298.88
57,74.2382,3.66609,485.672,346.465,298.957
58,74.2003,3.22102,485.018,347.564,299.047
59,74.11578,3.58235,486.893,348.611,299.128
60,74.181,3.15809,487.455,349.715,299.222
61,74.2797,3.49914,489.441,350.761,299.323
62,74.3809,3.04115,491.982,351.804,299.388
63,74.4015,3.3836,494.771,352.897,299.508
64,74.4022,3.14421,495.138,353.921,299.569
65,74.3166,3.41913,496.418,354.963,299.671
66,74.2186,3.17021,499.081,355.989,299.762
67,74.1159,3.53065,500.714,357.05,299.875
68,74.2591,3.24294,501.868,358.08,300.02
69,74.21758,3.43819,503.015,359.08,300.143
70,74.2756,3.03177,503.166,360.101,300.278
71,74.3812,3.06031,504.562,361.139,300.43
72,74.3165,2.95155,507.384,362.152,300.553
73,74.297,3.00188,510.531,363.157,300.73
74,74.21864,2.92605,511.977,364.157,300.907
75,74.2795,3.12079,513.384,365.153,301.071
76,74.298,3.35737,514.82,366.146,301.256
77,74.2972,3.21482,515.917,367.143,301.435
78,74.3799,3.4481,516.178,368.121,301.589
79,74.3169,3.08733,516.128,369.11,301.707
80,74.2193,3.23783,514.245,370.05,301.82
81,74.11657,2.97199,515.087,371.032,301.916
82,74.1832,3.08273,516.289,371.995,302.07
83,74.2799,2.96312,513.645,372.975,302.19
84,74.3834,3.29713,511.282,373.94,302.304
85,74.4034,3.03927,510.245,374.897,302.458
86,74.4,3.40826,509.475,375.869,302.592
87,74.3161,3.09819,511.676,376.81,302.747
88,74.2189,3.22955,513.719,377.771,302.918
89,74.2017,2.86635,515.145,378.74,303.088
90,74.2811,3.11882,516.264,379.679,303.238
91,74.297,2.90603,516.558,380.632,303.401
92,74.3774,3.29191,519.459,381.603,303.715
93,74.318,3.00112,520.979,382.575,304.021
94,74.2934,3.31481,523.897,383.519,304.316
95,74.3818,2.9823,525.908,384.475,304.663
96,74.3168,4.18846,527.798,385.42,305.019
97,74.2964,3.99596,528.801,386.367,305.337
98,74.2966,4.18688,531.503,387.302,305.622
99,74.3835,3.87147,531.702,388.229,305.887
100,74.4019,4.0106,531.49,389.18,306.167
101,74.31666,3.86757,531.058,390.121,306.538
102,74.2847,4.09432,532.674,391.033,306.879
103,74.29342,3.98518,533.289,391.923,307.187
104,74.2189,4.29638,531.965,392.858,307.522
105,74.20058,3.88927,532.42,393.736,307.871
106,74.279,4.21803,532.359,394.647,308.148
107,74.2976,3.89587,532.727,395.532,308.444
108,74.3833,4.30756,533.904,396.397,308.756
109,74.31702,3.84392,533.883,397.294,309.095
110,74.2035,4.06156,534.717,398.142,309.403
111,74.198,3.86186,535.997,398.998,309.723
112,74.1164,4.20413,536.923,399.815,310.005
113,74.0204,3.95101,536.535,400.633,310.267
114,74.1669,4.19708,535.59,401.439,310.64
115,74.2015,4.19739,533.51,402.256,311.004
116,74.2795,5.04839,533.383,403.043,311.358
117,74.2193,4.77518,535.623,403.82,311.716
118,74.0962,4.94017,537.691,404.607,312.101
119,74.0936,4.7881,539.652,405.386,312.447
120,74.0977,4.91703,539.807,406.138,312.805
121,74.0971,4.95266,540.32,406.899,313.243
122,74.0976,5.14979,540.969,407.669,313.637
123,74.0977,4.9289,538.101,408.419,314.08
124,74.263,5.24549,538.224,409.159,314.525
125,74.2196,4.86478,539.207,409.9,314.973
126,74.18118,4.84125,538.913,410.657,315.456
127,74.1969,4.65221,536.831,411.408,315.799
128,74.0408,4.77138,536.405,412.131,316.286
129,73.92,5.46246,533.856,412.84,316.76
130,73.9837,5.17996,531.564,413.558,317.331
131,74.0805,4.79005,532.584,414.281,317.93
132,74.0986,51.5629,536.476,415.021,318.404
133,73.9375,77.8757,539.27,415.84,318.932
134,73.8837,106.786,578.225,416.585,319.725
135,73.89693,137.292,628.56,417.286,320.831
136,73.6526,163.04,681.769,417.963,321.925
137,73.519,190.363,713.029,418.622,322.907
138,73.5014,218.619,726.998,419.195,324.207
139,73.4169,220.07,723.901,419.831,325.987
140,73.3976,268.1,719.2,420.453,328.379
141,73.237,291.113,715.315,421.079,330.874
142,73.1032,294.596,711.34,421.731,332.728
143,72.7664,318.868,706.916,422.359,334.052
144,72.5305,334.779,704.74,423.007,335.02
145,72.4957,336.795,703.426,423.659,335.804
146,72.4955,347.554,703.013,424.333,336.506
147,72.3317,349.103,702.625,424.999,337.142
148,72.2945,352.784,700.946,425.662,337.754
149,72.13374,352.362,699.334,426.328,338.298
150,72.0441,356.734,697.913,427.013,338.801
151,71.4343,350.735,696.468,427.703,339.251
152,70.7254,369.716,695.959,428.412,339.655
153,70.7577,364.413,695.419,429.111,340.022
154,71.3657,360.736,694.414,429.806,340.368
155,71.2496,358.445,693.743,430.534,340.688
156,71.1155,359.367,693.064,431.286,341.043
157,70.9272,362.206,692.165,431.975,341.334
158,70.71739,380.196,691.214,432.717,341.704
159,70.2001,370.505,690.868,433.457,341.959
160,69.4403,383.554,690.883,434.207,342.049
161,69.616,381.406,690.37,434.943,341.918
162,69.7682,380.23,690.002,435.683,341
163,69.7861,379.922,689.447,436.438,339.459
164,69.7861,370.763,689.222,437.163,338.067
165,69.7086,377.963,688.86,437.915,336.962
166,69.541,373.674,688.902,438.699,335.449
167,69.33,370.487,688.742,439.461,333.99
168,69.1233,367.455,688.429,440.205,332.767
169,68.9202,380.285,688.198,440.963,331.751
170,68.8821,397.417,687.438,441.733,330.838
171,68.7201,376.012,686.848,442.513,330.021
172,68.6827,389.855,686.892,443.255,329.284
173,68.519,388.463,686.234,444.046,328.62
174,68.3251,396.487,686.061,444.869,327.992
175,68.1217,387.869,685.622,445.691,327.443
176,67.835,377.125,685.004,446.566,326.94
177,67.6979,384.094,684.419,447.43,326.485
178,67.7592,377.318,684.397,448.338,326.048
179,67.61256,382.617,683.859,449.223,325.646
180,67.4961,373.691,683.322,450.168,325.278
181,67.3956,376.819,682.664,451.05,324.905
182,66.8894,389.974,681.992,451.913,324.548
183,66.6897,369.658,681.531,452.815,324.241
184,66.5077,372.501,681.563,453.687,323.966
185,66.386,390.693,681.55,454.535,323.743
186,66.45,393.44,681.62,455.343,323.509
187,66.3084,387.819,681.362,456.133,323.339
188,66.1856,376.667,681.277,456.91,323.204
189,66.0047,374.449,681.38,457.744,323.079
190,65.38701,375.582,681.585,458.519,322.968
191,65.3499,378.066,680.834,459.362,322.86
192,65.2053,377.876,680.248,460.182,322.77
193,65.0071,385.242,679.997,461.023,322.713
194,65.0471,380.338,679.641,461.911,322.681
195,64.9002,390.228,679.224,462.797,322.628
196,64.78645,387.454,678.734,463.738,322.589
197,64.6075,387.136,679.097,464.635,322.585
198,64.3971,386.481,679.608,465.597,322.606
199,64.2843,383.282,679.621,466.514,322.63
200,64.1836,399.916,679.658,467.417,322.659
201,64.00357,387.818,679.907,468.305,322.736
202,63.803,399.256,679.619,469.257,322.794
203,63.6866,394.448,679.293,470.227,322.907
204,63.5864,385.97,679.597,471.224,322.996
205,63.4828,391.1,679.075,472.157,323.087
206,63.2984,392.03,678.442,473.148,323.198
207,63.1854,386.371,678.245,474.129,323.328
208,63.0066,400.203,677.779,475.062,323.464
209,62.5615,392.203,677.397,476.028,323.622
210,62.3831,382.053,676.7,476.955,323.756
211,62.2843,390.799,676.48,477.874,323.903
212,62.1057,397.764,676.765,478.822,324.064
213,62.148,381.854,676.447,479.784,324.241
214,61.9154,375.69,676.153,480.743,324.401
215,61.8652,382.501,676.102,481.686,324.58
216,61.7827,393.244,676.414,482.601,324.775
217,61.6032,398.143,676.51,483.586,324.954
218,61.2432,395.025,676.212,484.565,325.148
219,60.9164,389.937,675.837,485.534,325.403
220,60.7013,393.347,675.98,486.593,325.602
221,60.57744,397.783,676.063,487.579,325.825
222,60.3111,390.628,675.525,488.514,326.066
223,60.2621,387.844,675.525,489.482,326.314
224,60.2638,388.158,675.695,490.446,326.515
225,60.1787,388.942,675.3,491.445,326.723
226,60.1618,390.399,675.237,492.353,326.93
227,60.0817,385.841,675.126,493.358,327.143
228,59.9799,377.514,674.879,494.358,327.375
229,59.714,397.413,673.667,495.295,327.59
230,59.4017,385.138,673.127,496.281,327.771
231,58.8643,397.971,672.653,497.233,327.996
232,58.7534,391.573,672.859,498.164,328.22
233,58.5896,388.88,673.178,499.082,328.462
234,58.5527,391.872,673.204,500.05,328.677
235,58.4748,410.456,673.629,501.01,328.875
236,58.5325,401.046,673.186,501.975,329.095
237,58.4742,393.511,672.912,502.908,329.316
238,58.3473,401.885,672.866,503.857,329.552
239,58.1854,397.921,673.101,504.774,329.787
240,57.4079,400.729,672.718,505.757,330.021
241,57.2499,405.037,672.264,506.715,330.255
242,57.0048,410.785,671.835,507.713,330.466
243,56.872,403.174,671.417,508.651,330.704
244,56.929,416.209,671.375,509.632,330.902
245,56.94781,407.081,671.299,510.643,331.108
246,56.7565,402.25,671.473,511.624,331.315
247,56.7396,407.152,671.91,512.638,331.539
248,56.5854,397.721,671.956,513.637,331.752
249,56.3856,401.486,672.174,514.592,331.988
250,56.263,408.48,671.864,515.559,332.184
251,55.5109,403.821,671.502,516.556,332.403
252,55.0169,409.37,670.674,517.48,332.614
253,55.1037,410.216,670.171,518.357,332.821
254,55.374,403.03,669.412,519.267,333.038
255,55.3569,402.581,669.24,520.279,333.232
256,55.1788,410.67,669.696,521.224,333.51
257,55.0638,411.254,670.116,522.171,333.649
258,54.96012,397.323,670.411,523.129,333.869
259,54.6159,406.739,670.251,524.07,334.09
260,54.3777,389.248,669.437,524.984,334.284
261,54.092,389.927,668.933,525.905,334.499
262,54.0068,394.074,668.427,526.867,334.691
263,53.952,398.368,668.244,527.784,334.897
264,53.9403,387.385,667.981,528.712,335.085
265,53.8559,395.246,668.279,529.662,335.265
266,53.7577,395.477,668.512,530.582,335.432
267,53.0806,404.867,668.553,531.493,335.605
268,52.513,406.921,668.721,532.406,335.811
269,52.4256,407.637,668.444,533.308,336.005
270,52.3348,399.876,667.965,534.242,336.187
271,52.3255,394.515,667.289,535.17,336.37
272,52.2446,401.406,666.903,536.224,336.536
273,52.225,403.38,666.783,537.11,336.845
274,52.2254,406.503,666.958,544.844,337.024
275,52.0641,405.358,667.088,552.628,337.191
276,51.9462,396.367,667.208,582.166,337.39
277,51.76,413.777,667.522,569.695,337.575
278,51.5047,410.698,667.764,579.566,337.729
279,51.4299,403.776,668.603,576.763,337.894
280,51.0149,406.705,669.661,580.594,338.089
281,50.76122,411.587,669.338,581.92,338.239
282,50.6397,406.28,668.882,578.694,338.243
283,50.6208,413.594,668.179,573.435,338.549
284,50.5413,410.083,667.353,576.029,338.761
285,50.4403,403.767,666.999,562.271,338.802
286,50.3654,407.911,666.733,563.857,338.985
287,50.247,403.957,666.422,576.52,339.125
288,49.4926,418.872,665.898,574.297,339.279
289,49.3234,409.778,665.435,559.793,339.463
290,48.9985,416.831,665.939,554.875,339.649
291,48.9241,411.783,665.55,553.964,339.961
292,48.9244,425.489,664.715,555.422,340.013
293,48.9236,420.179,663.943,555.891,340.355
294,48.8741,416.26,663.454,561.903,340.511
295,48.8284,409.448,662.797,564.784,340.674
296,48.7434,418.512,662.855,570.758,340.833
297,48.5629,423.549,662.748,569.674,341.043
298,47.6345,437.917,663.038,568.253,341.202
299,47.5894,434.061,663.274,568.613,341.394
300,47.541,435.098,662.846,564.361,341.561
301,46.7129,431.009,662.716,569.64,341.732
302,46.6759,419.688,662.537,574.497,341.897
303,46.8848,429.722,662.496,575.103,342.081
304,46.92494,440.967,662.076,572.648,342.279
305,46.8407,434.76,661.444,574.95,342.484
306,46.8204,426.472,661.009,573.539,342.767
307,46.7423,434.067,661.009,575.077,342.837
308,46.5624,442.769,661.285,575.351,343.025
309,45.6393,442.228,660.578,576.682,343.194
310,45.4944,446.553,660.515,577.676,343.362
311,45.275,441.798,660.377,593.005,343.552
312,45.0587,434.436,659.994,596.959,343.702
313,44.8586,451.48,659.778,596.075,343.901
314,45.1454,463.709,659.702,597.664,344.09
315,45.1432,450.123,659.244,597.158,344.315
316,45.0413,431.329,658.852,598.407,344.464
317,44.9424,441.737,658.489,598.259,344.648
318,44.7546,440.914,658.633,600.269,344.811
319,44.0768,440.96,658.982,601.337,345.001
320,43.9172,457.148,659.419,603.793,345.166
321,43.9177,460.388,659.841,604.431,345.359
322,43.5935,448.609,659.37,604.982,345.526
323,43.1955,445.059,658.691,605.627,345.706
324,43.2011,461.194,658.467,606.362,345.911
325,43.2176,439.225,658.454,606.957,346.104
326,43.1288,459.803,658.212,607.778,346.314
327,42.95551,477.532,658.319,609.239,346.5
328,42.5131,468.196,658.752,609.612,346.684
329,42.4977,449.168,658.365,610.771,346.903
330,42.1905,450.217,658.113,612.047,347.085
331,41.5653,471.358,657.956,612.875,347.257
332,41.41336,480.631,657.667,613.478,347.464
333,41.2521,455.585,657.104,613.56,347.661
334,41.0423,477.409,656.399,613.899,347.856
335,40.6013,483.853,656.001,614.425,348.034
336,40.59452,454.475,655.691,614.888,348.218
337,40.6929,465.845,655.508,615.325,348.396
338,40.6316,461.176,655.165,616.102,348.615
339,40.529,454.912,654.669,616.819,348.818
340,40.4329,457.231,654.754,617.618,348.998
341,40.3326,463.972,655.01,618.547,349.196
342,40.1778,456.153,655.167,618.748,349.425
343,39.70717,468.411,655.156,619.152,349.637
344,39.3671,473.294,654.934,619.48,349.845
345,39.1456,463.994,654.801,619.301,350.055
346,38.9429,468.994,654.852,619.463,350.312
347,38.3275,459.347,654.714,619.299,350.5
348,38.5325,457.854,655.108,619.484,350.706
349,38.52346,490.141,655.18,619.521,350.903
350,38.4407,462.137,655.08,619.722,351.124
351,38.3274,466.318,655.273,620.07,351.34
352,38.3031,490.901,655.499,620.307,351.55
353,38.0561,469.286,655.851,620.64,351.786
354,37.75636,459.715,655.845,620.835,351.996
355,37.2892,470.278,656.06,620.333,352.234
356,37.0356,489.533,656.247,620.208,352.442
357,36.7479,490.829,656.336,620.465,352.682
358,36.318,499.038,656.249,621.057,352.945
359,36.2786,484.133,656.276,621.524,353.172
360,36.45228,512.407,656.434,621.977,353.374
361,36.1649,495.398,656.736,622.547,353.627
362,36.0054,487.37,656.765,622.826,353.886
363,35.9861,503.87,656.928,623.381,354.147
364,35.745,495.441,657.262,623.675,354.415
365,35.358,496.388,657.945,624.06,354.7
366,34.9518,503.216,658.228,624.461,355.034
367,34.8056,500.138,658.367,624.833,355.365
368,34.6223,504.595,658.491,625.226,355.737
369,34.25536,494.252,658.565,625.561,356.181
370,34.3409,500.316,658.684,625.883,356.661
371,34.2994,502.396,658.75,626.252,357.188
372,34.2006,498.853,658.815,626.632,357.647
373,34.0171,502.311,658.834,627.012,358.144
374,33.7399,471.418,658.852,627.332,358.637
375,33.1915,497.802,659.071,627.781,359.156
376,33.0774,486.221,659.476,628.416,360.258
377,32.8385,472.852,659.871,629.531,361.339
378,32.29951,480.347,660.148,630.153,362.183
379,32.2639,494.775,660.6,630.555,362.941
380,32.2822,487.639,660.622,630.794,363.588
381,32.1977,502.325,660.71,631.086,364.248
382,32.0154,500.913,660.835,631.317,364.863
383,31.9013,504.879,660.863,631.43,365.416
384,31.8002,488.085,660.967,631.462,365.963
385,31.2951,500.293,660.95,631.133,366.503
386,31.0208,488.037,660.872,630.828,367.054
387,30.4946,509.868,661.032,630.497,367.548
388,30.4624,511.657,660.993,629.904,368.103
389,30.4004,511.016,661.3,629.81,368.614
390,30.3022,515.085,661.485,629.64,368.962
391,30.283,498.114,661.528,629.601,369.478
392,30.1974,526.209,661.582,629.88,370
393,29.7691,531.386,663.076,629.633,369.904
394,28.689,506.889,664.822,629.585,369.803
395,28.5577,485.694,666.648,629.795,370.749
396,28.4989,512.209,667.637,630.029,371.907
397,28.4797,510.473,668.468,630.202,373.176
398,28.4803,514.968,669.703,630.532,374.377
399,28.4807,511.514,670.255,631.389,375.661
400,28.3947,507.18,670.976,632.413,377.246
401,28.2123,501.408,672.19,632.376,379.315
402,27.8501,512.942,673.334,632.224,381.097
403,26.9577,511.125,674.596,632.034,383.343
404,27.017,504.176,675.559,632.129,385.238
405,26.9082,513.858,676.364,632.488,386.954
406,26.5517,516.209,677.309,637.476,388.541
407,26.3892,517.098,678.166,637.091,389.946
408,26.3694,522.223,679.145,636.94,391.283
409,26.2857,509.066,679.804,641.027,392.622
410,26.18919,516.884,680.68,635.914,393.895
411,26.0106,510.916,681.29,639.092,394.885
412,25.8883,524.133,681.751,637.161,395.417
413,25.7075,524.514,682.251,636.775,396.243
414,25.1052,525.773,682.729,636.546,396.979
415,24.9641,536.057,682.631,637.251,397.395
416,24.72918,523.249,682.727,638.808,397.279
417,24.3407,528.572,682.847,640.246,397.316
418,23.768,542.746,682.439,642.081,397.433
419,23.9097,553.25,681.484,640.388,397.654
420,23.8817,553.417,680.964,643.528,397.874
421,23.783,524.853,680.589,647.186,398.079
422,23.6816,534.317,680.305,644.537,398.308
423,23.5838,517.112,679.654,647.921,398.628
424,23.3201,522.907,679.179,651.501,398.974
425,22.6065,526.435,678.618,648.811,399.411
426,22.4554,509.544,678.027,649.143,399.831
427,22.2941,525.634,678.038,648.646,400.319
428,21.8521,512.149,677.795,649.1,400.854
429,21.5812,477.933,677.737,649.063,401.385
430,21.7151,476.665,677.538,649.056,401.944
431,21.7573,455.016,677.198,650.265,402.489
432,21.5884,457.683,677.501,649.128,402.959
433,21.4725,454.452,677.604,648.453,403.3
434,21.4528,457.87,677.94,648.848,403.684
435,21.05057,441.732,678.463,649.627,404.041
436,20.704,433.471,678.694,650.442,404.45
437,19.9096,422.421,678.476,650.816,404.812
438,19.665,419.152,678.847,651.264,405.165
439,19.6477,415.181,679.079,650.56,405.593
440,19.7258,407.755,679.105,650.427,405.971
441,19.7449,397.434,679.002,650.293,406.343
442,19.6671,407.753,679.018,650.471,406.693
443,19.6486,410.39,679.166,651.074,407.015
444,19.5657,415.386,679.78,651.592,407.228
445,19.3025,399.338,680.145,653.289,407.61
446,18.918,393.345,680.482,653.995,407.968
447,18.6039,400.685,681.508,654.836,408.375
448,18.3881,389.945,682.197,656.408,408.759
449,18.26353,401.651,682.876,657.739,409.072
450,18.1667,387.095,683.71,658.258,409.432
451,18.1489,385.7,684.827,658.936,409.82
452,18.1493,379.646,685.663,659.532,410.264
453,18.0646,379.776,686.985,660.012,410.712
454,17.8006,378.531,688.645,661.062,411.149
455,17.8278,369.457,692.952,661.315,411.541
456,17.59902,375.932,697.402,661.432,412.109
457,17.3807,370.246,701.587,661.63,412.686
458,17.0199,366.61,704.959,661.225,413.391
459,16.8619,372.386,707.818,660.426,414.063
460,16.67845,365.951,709.86,659.928,414.77
461,16.4037,360.502,711.743,660.326,415.408
462,16.18076,374.586,713.544,660.308,415.997
463,16.3119,362.497,716.271,660.621,416.571
464,16.2638,363.204,718.652,660.326,417.154
465,16.1612,373.03,720.535,660.156,417.832
466,16.0623,378.994,722.073,660.054,418.554
467,15.9615,376.499,723.459,660.345,419.289
468,15.8631,388.217,724.467,661.113,420.05
469,15.3529,379.177,725.5,661.536,420.834
470,14.9123,385.543,726.003,662.104,421.618
471,14.7655,390.107,726.332,662.534,422.398
472,14.5005,400.092,724.878,663.345,423.167
473,14.3577,385.746,724.394,664.045,423.893
474,14.3397,385.399,723.537,700.27,424.802
475,14.3401,386.268,722.583,677.875,425.414
476,14.2603,357.579,719.533,666.107,425.926
477,14.1582,379.296,715.438,676.074,426.54
478,14.2224,369.783,711.98,671.07,427.08
479,14.0796,364.473,710.196,669.938,427.575
480,13.6336,361.858,708.864,669.134,428.082
481,13.2142,351.664,709.477,668.953,428.562
482,13.2172,368.188,709.522,668.897,429.146
483,13.0713,355.705,708.482,669.614,429.817
484,12.9576,352.411,707.909,670.494,430.461
485,12.9388,365.217,707.953,670.531,431.001
486,13.0165,356.681,708.081,670.579,431.58
487,12.8742,365.454,708.897,670.877,432.114
488,12.7571,363.474,709.43,671.93,432.677
489,12.7396,368.728,709.651,671.693,433.213
490,11.9232,368.254,709.562,671.734,433.507
491,11.6492,389.962,710.564,672.419,433.823
492,11.4214,389.984,710.396,672.44,434.219
493,11.3412,380.231,710.411,672.444,434.386
494,11.25069,383.029,710.013,672.405,434.4
495,11.3137,376.448,709.766,672.634,434.328
496,11.2517,373.982,709.539,674.096,434.186
497,11.2307,379.274,709.811,676.23,434.058
498,11.0701,377.976,710.349,679.006,433.979
499,10.9544,381.527,710.676,678.063,433.753
500,10.3824,397.276,711.685,676.395,433.749
501,10.2342,397.242,712.155,676.481,433.775
502,10.2323,390.488,712.085,677.075,433.86
503,10.0716,386.479,712.822,677.195,433.911
504,9.862298,409.594,714.529,678.336,434.031
505,9.8255,386.625,716.009,679.921,434.111
506,9.748214,388.571,717.555,681.18,434.249
507,9.645914,385.572,718.524,680.824,434.328
508,9.50969,387.773,719.293,679.36,434.283
509,9.437317,395.761,720.532,677.625,434.208
510,9.266055,396.613,721.791,677.808,434.204
511,8.264408,389.16,723.004,678.534,434.233
512,8.268278,393.714,724.174,679.1,434.328
513,8.079593,406.875,724.346,677.639,434.438
514,7.943629,399.446,724.434,678.162,434.658
515,7.84171,401.285,723.885,678.893,434.969
516,7.904021,398.234,724.353,679.314,435.349
517,7.924875,405.405,724.86,679.411,435.819
518,7.839721,385.102,726.516,681.726,436.304
519,7.661244,394.09,728.244,694.908,436.932
520,7.625096,396.907,730.49,694.386,437.596
521,7.382971,384.849,733.734,692.385,438.396
522,7.08061,398.671,733.73,691.576,439.234
523,6.774019,403.696,736.814,690.167,440.179
524,6.640992,393.623,741.901,685.059,441.247
525,6.538071,385.447,750.228,682.289,442.545
526,6.193327,385.036,757.434,682.626,444.038
527,6.117519,375.94,769.026,681.527,445.65
528,6.118111,354.021,781.768,681.444,447.464
529,6.032833,355.66,791.332,681.055,449.999
530,5.935316,345.491,787.708,681.472,453.823
531,5.918215,336.037,789.711,680.629,458.434
532,5.754616,337.139,818.376,680.024,463.6
533,5.718664,324.596,864.14,680.103,468.997
534,5.471394,322.408,886.91,680.913,474.287
535,5.089473,323.412,933.468,682.309,478.635
536,5.013964,320.486,936.654,683.408,482.468
537,4.850144,304.901,935.553,683.233,485.888
538,4.39914,296.839,937.259,683.6,488.312
539,4.148114,282.957,938.487,684.443,490.26
540,4.519988,284.108,939.055,685.531,491.934
541,4.692105,271.693,938.692,684.991,493.39
542,4.550047,279.041,940.922,685.345,494.49
543,4.511216,273.122,942.223,685.28,495.481
544,4.510952,274.636,944.186,685.297,496.263
545,4.267644,265.193,942.936,685.704,496.787
546,3.652698,259.296,938.639,685.974,497.316
547,3.512,250.756,938.27,686.726,497.485
548,3.510957,249.371,939.913,687.986,497.627
549,3.427027,253.744,939.131,689.826,497.753
550,3.245292,244.761,938.098,691.098,497.867
551,3.285772,241.003,936.093,695.18,497.871
552,3.389702,237.39,932.324,698.884,497.687
553,3.324838,234.632,927.763,702.217,497.456
554,3.225553,231.083,918.897,705.034,496.727
555,3.207133,226.508,912.81,707.761,495.885
556,3.207492,224.306,906.734,712.7,495.08
557,3.123475,217.518,897.613,713.526,494.221
558,2.862913,208.559,888.738,714.328,493.262
559,2.645529,212.748,879.756,714.565,492.329
560,2.524112,202.701,870.183,713.361,491.358
561,2.420741,199.642,861.284,715.74,490.44
562,2.322131,188.707,851.858,716.155,489.575
563,2.296846,185.344,845.796,716.887,488.733
564,2.301996,183.255,836.87,721.342,487.876
565,2.303613,172.155,827.087,724.45,486.984
566,2.219671,173.697,821.991,722.343,486.254
567,2.284162,168.52,816.706,720.452,485.668
568,2.304578,165.7,807.879,735.048,485.045
569,2.21972,165.788,797.466,738.811,484.158
570,2.038814,162.655,787.916,750.177,483.169
571,1.838401,162.346,780.02,745.671,482.1
572,1.800103,154.021,773.88,755.058,481.154
573,1.722425,149.871,770.164,743.442,480.435
574,1.461817,144.143,763.571,749.476,479.7
575,1.481709,140.212,760.405,758.384,479.032
576,1.498913,140.136,758.591,742.041,478.568
577,1.498961,139.963,756.934,743.077,478.286
578,1.583171,132.657,752.55,763.551,478.064
579,1.580552,127.386,746.85,792.184,477.745
580,1.51361,126.666,743.275,787.771,477.406
581,1.335756,117.959,739.237,797.01,477.206
582,1.219194,113.844,734.235,809.177,476.956
583,1.201236,108.548,731.003,806.079,476.762
584,1.118275,108.148,728.115,802.888,476.6
585,1.098246,102.258,726.296,800.81,476.452
586,1.098149,99.5472,723.062,982.569,476.433
587,1.098528,95.3062,719.191,835.129,476.33
588,1.098252,92.4374,716.484,851.829,476.222
589,1.098523,87.9034,713.354,918.661,476.088
590,1.099403,87.0545,710.361,886.332,475.915
591,1.021138,81.0393,707.119,840.814,475.786
592,0.917639,79.5192,705.001,850.235,475.615
593,0.898881,74.9468,703.968,910.367,475.469
594,0.820547,72.2058,700.986,829.126,475.409
595,0.801825,72.8071,697.565,790.032,475.35
596,0.881138,69.4282,695.132,798.934,475.235
597,0.898992,67.0877,692.688,753.88,475.155
598,0.899136,65.7725,690.097,713.738,475.083
599,0.899289,64.5194,688.043,688.705,475.025
600,0.819852,61.242,686.61,674.544,474.988
601,0.634957,59.8422,684.026,676.223,474.964
602,0.679528,56.1591,683.613,701.483,475.007
603,0.559225,52.6074,683.589,711.141,475.142
604,0.504589,49.7186,683.156,793.058,475.218
605,0.499577,47.891,683.143,760.978,475.416
606,0.578111,47.1402,681.675,879.345,475.652
607,0.596208,44.7337,680.165,819.705,475.901
608,0.680024,43.6914,678.807,749.166,476.168
609,0.699096,40.7727,677.217,679.851,476.464
610,0.616244,37.9947,674.967,636.594,476.713
611,0.595376,36.0629,673.49,628.197,476.892
612,0.595957,35.6198,672.396,621.505,477.065
613,0.432209,33.1544,670.142,612.276,477.198
614,0.395338,33.1334,669.052,618.232,477.375
615,0.39487,31.5809,667.972,602.455,477.577
616,0.479969,30.4792,665.855,614.4,477.729
617,0.499262,29.6002,664.898,638.086,477.887
618,0.578237,29.0053,663.649,639.898,478.101
619,0.595739,26.6755,662.824,644.733,478.308
620,0.595462,24.8042,661.998,640.5,478.527
621,0.434498,23.3069,662.057,648.653,478.833
622,0.394888,23.5031,661.876,652.99,479.121
623,0.315126,21.5811,661.368,647.115,479.398
624,0.214063,20.9008,661.455,649.712,479.721
625,0.278342,19.3253,661.361,648.488,480.03
626,0.376458,17.8429,659.942,639.237,480.365
627,0.394614,15.6375,658.716,638.032,480.574
628,0.395041,13.9645,658.585,640.181,480.887
629,0.480411,12.369,657.559,640.582,481.125
630,0.499256,10.7818,657.968,653.774,481.461
631,0.179988,9.99148,659.207,663.594,481.849
632,0.100401,9.78182,658.961,658.985,482.246
633,0.099725,8.96745,658.479,652.37,482.604
634,0.100187,8.26988,657.342,629.279,482.974
635,0.1021,7.88519,655.474,615.973,483.252
636,0.177321,6.68916,654.496,622.849,483.517
637,0.278253,6.13257,654.226,607.828,483.815
638,0.377355,6.08125,652.567,592.094,484.113
639,0.481025,6.42499,651.3,587.177,484.331
640,0.335095,6.17047,650.278,573.875,484.6
641,0.297778,6.55997,650.107,569.424,484.888
642,0.296698,6.29995,650.371,556.052,485.25
643,0.214059,6.85172,648.484,563.84,485.519
644,0.117971,6.07861,646.198,575.584,485.676
645,0.099692,6.22601,645.326,590.46,485.89
646,0.262668,4.89539,645.933,589.322,486.153
647,0.297691,4.58267,645.709,578.347,486.539
648,0.298273,3.71405,644.959,592.221,486.842
649,0.377874,4.15407,644.18,577.572,487.093
650,0.47806,3.86659,642.267,581.487,487.323
651,0.498138,4.25526,641.7,580.99,487.584
652,0.251763,3.98194,640.673,595.727,487.833
653,0.19447,4.07595,642.167,552.341,488.269
654,0.195035,3.19908,641.911,553.353,488.619
655,0.033078,1.89069,641.849,537.635,488.985
656,-0.004806,1.23098,641.408,565.062,489.295
657,0.157351,0.681286,641.285,528.89,489.629
658,0.354888,0.3255,640.282,541.491,489.908
659,0.394431,-0.303723,640.608,565.043,490.213
660,0.395348,-0.36305,641.619,580.13,490.575
661,0.395409,-0.605188,642.599,588.432,490.942
662,0.395367,-0.484118,643.003,544.741,491.307
663,0.232906,-1.26385,643.25,567.325,491.663
664,0.118544,-1.73125,642.721,582.634,491.993
665,0.100416,-2.28954,641.913,572.115,492.335
666,0.100781,-2.22816,641.783,584.464,492.655
667,0.015261,-3.126,642.341,575.006,492.969
668,0.080702,-2.97098,641.903,571.387,493.322
669,0.178177,-3.14786,640.857,577.705,493.644
670,0.195628,-2.80883,640.44,583.322,493.904
671,0.195512,-3.11044,641.23,577.261,494.237
672,0.278779,-2.87493,641.332,585.06,494.594
673,0.37723,-3.1188,641.124,604.964,494.918
674,0.417712,-3.24649,640.955,622.856,495.246
675,0.320649,-3.15629,640.656,585.918,495.582
676,0.136675,-3.09857,640.723,554.861,495.989
677,0.10062,-2.83313,640.199,579.106,496.336
678,0.10017,-3.00301,639.961,585.124,496.666
679,0.099913,-2.89295,640.799,550.021,497.044
680,0.013705,-2.91665,640.271,502.301,497.452
681,-0.00525,-2.89169,639.467,495.745,497.758
682,0.080075,-3.84104,640.435,478.749,498.169
683,0.100223,-3.8481,640.084,514.097,498.53
684,0.258953,-4.10379,640.482,522.962,498.806
685,0.298672,-3.80928,640.489,563.329,499.074
686,0.377224,-4.02566,641.5,581.558,499.417
687,0.395187,-3.74685,641.435,578.966,499.701
688,0.480977,-3.9962,640.9,563.734,500.009
689,0.415448,-4.03737,640.515,550.495,500.321
690,0.286463,-4.03156,640.621,553.413,500.598
691,0.130426,-4.80063,640.772,538.133,500.965
692,0.015599,-5.03337,639.266,551.851,501.159
693,0.07905,-4.93897,638.928,557.972,501.393
694,0.016151,-5.02768,640.21,575.641,501.702
695,-0.083185,-4.6191,641.202,565.994,502.115
696,-0.022277,-4.84168,640.944,532.473,502.492
697,-0.005087,-4.58096,640.627,542.663,502.807
698,0.08017,-4.84997,639.294,528.552,503.058
699,0.17816,-4.79211,639.287,514.78,503.318
700,0.276676,-4.96822,639.937,522.86,503.664
701,0.297211,-4.86303,639.694,544.167,503.924
702,0.375227,-4.84119,640.314,522.251,504.224
703,0.39444,-4.39726,639.731,511.525,504.533
704,0.394827,-4.59986,640.523,517.155,504.774
705,0.317067,-4.39278,640.597,502.77,505.077
706,0.140737,-4.63129,640.79,506.51,505.326
707,0.01587,-4.47168,641.317,505.288,505.626
708,-0.004453,-4.59824,641.279,503.315,505.942
709,-0.004722,-4.54096,641.668,513.23,506.236
710,-0.083684,-4.54964,642.8,487.841,506.635
711,-0.101863,-4.14159,644.315,503.409,507.025
712,-0.101841,-4.32036,644.82,508.878,507.342
713,0.05981,-4.09396,645.788,486.747,507.672
714,0.177056,-3.956,645.974,504.276,508.013
715,0.19518,-4.27213,645.86,527.888,508.251
716,0.194916,-4.30016,645.096,554.411,508.513
717,0.19485,-4.21907,643.707,528.583,508.716
718,0.278591,-4.07686,642.907,520.594,508.928
719,0.298068,-3.68651,643.03,510.759,509.191
720,0.298089,-3.957,643.609,509.985,509.456
721,0.136115,-3.57327,643.868,502.226,509.784
722,0.051282,-3.79015,644.601,515.556,510.116
723,0.088661,-3.61137,645.302,497.297,510.413
724,0.099626,-3.92413,644.223,510.099,510.693
725,0.099112,-3.52898,644.223,534.471,510.929
726,-0.061495,-3.75975,644.203,547.807,511.153
727,-0.184958,-3.51734,644.266,546.328,511.418
728,0.118128,-3.64082,644.69,560.761,511.692
729,0.437987,-3.34206,645.523,546.472,511.985
730,0.35361,-3.53313,645.362,577.599,512.31
731,0.219583,-3.1831,646.273,568.048,512.636
732,0.277496,-3.35619,646.585,534.62,512.912
733,0.297633,-3.12184,646.21,513.939,513.178
734,0.375402,-3.28151,646.273,544.781,513.468
735,0.393737,-2.92662,647.197,548.337,513.756
736,0.234378,-3.34192,647.687,560.094,514.036
737,0.117416,-3.20635,647.956,528.22,514.344
738,-0.046377,-3.37545,648.397,486.928,514.646
739,0.066234,-3.13463,647.065,498.541,514.936
740,0.099838,-3.0402,647.514,502.925,515.17
741,0.012836,-2.76855,648.249,512.277,515.424
742,-0.084593,-3.04986,648.2,514.149,515.66
743,-0.023086,-2.60976,648.312,524.938,515.911
744,0.157339,-2.90069,646.442,525.103,516.15
745,0.118794,-3.36181,645.061,520.353,516.332
746,0.176615,-3.90527,645.277,528.553,516.535
747,0.195092,-3.96565,646.123,528.31,516.8
748,0.277733,-3.43196,645.959,532.621,517.046
749,0.297475,-3.67316,646.204,551.781,517.265
750,0.374652,-3.59835,646.726,545.608,517.505
751,0.316471,-3.4673,647.536,541.913,517.822
752,0.139553,-3.5352,646.64,548.598,517.983
753,-0.147319,-3.81391,647.62,532.177,518.275
754,-0.040256,-3.56327,648.555,521.463,518.613
755,-0.005316,-3.7866,647.362,546.565,518.874
756,-0.004888,-3.65984,647.783,544.595,519.118
757,-0.083953,-3.53478,648.176,565.337,519.423
758,-0.023204,-3.42316,648.97,540.749,519.71
759,0.157656,-3.39157,648.82,553.645,519.921
760,0.195022,-3.57405,648.998,516.898,520.201
761,0.117674,-3.60989,648.037,537.641,520.531
762,0.177156,-3.69654,648.163,549.534,520.773
763,0.278184,-3.52797,648.323,515.155,521.038
764,0.298144,-3.73405,647.779,535.374,521.267
765,0.136745,-3.42542,648.327,543.051,521.524
766,0.016394,-3.2068,647.058,534.059,521.758
767,0.081662,-3.47251,647.262,550.315,521.924
768,0.013387,-3.97216,646.837,558.952,522.129
769,-0.005523,-4.5044,647.254,535,522.334
770,-0.084595,-4.36179,647.303,523.78,522.607
771,-0.102407,-4.42012,647.241,514.005,522.861
772,-0.022374,-4.39388,646.835,517.186,523.072
773,0.155589,-4.48918,646.846,513.729,523.31
774,0.194981,-3.92931,646.75,492.828,523.552
775,0.195408,-4.15688,646.293,513.51,523.801
776,0.279164,-3.94568,646.596,521.651,524.107
777,0.298621,-4.20045,646.553,533.449,524.374
778,0.297117,-4.20327,645.726,555.909,524.546
779,0.215233,-5.05398,645.334,562.288,524.714
780,0.033318,-5.08829,645.369,576.75,524.932
781,0.080033,-5.34843,644.29,594.411,525.115
782,0.014674,-4.8354,640.123,604.254,525.249
783,-0.005095,-5.07015,638.122,575.95,525.355
784,-0.005743,-4.8041,639.01,581.774,525.539
785,-0.005082,-5.01828,639.774,581.442,525.779
786,0.078757,-4.90492,641.639,567.013,526.131
787,0.099846,-5.20788,643.136,544.208,526.474
788,0.100159,-4.85382,643.579,531.066,526.78
789,0.177508,-5.0869,643.141,553.671,527.073
790,0.194864,-5.08493,643.904,555.86,527.321
791,0.195277,-5.86014,645.514,569.9,527.577
792,0.119258,-5.56435,646.124,553.24,527.852
793,0.015793,-5.9446,647.508,534.385,528.188
794,-0.081502,-5.65981,647.406,528.679,528.507
795,-0.021868,-6.02699,645.974,545.325,528.707
796,-0.170255,-5.56871,646.048,549.327,528.902
797,-0.205003,-5.95455,645.436,571.907,529.04
798,-0.204949,-5.55304,645.481,586.605,529.252
799,-0.04491,-6.00448,646.809,577.674,529.506
800,0.078179,-5.83223,647.009,585.472,529.836
801,0.258993,-6.03615,646.419,598.586,529.997
802,0.214706,-5.5964,647.212,588.957,530.275
803,0.194926,-5.96227,647.579,590.644,530.581
804,0.194648,-5.52514,647.969,593.517,530.9
805,0.194717,-5.93112,648.338,613.933,531.125
806,0.277381,-6.45262,648.788,588.345,531.36
807,0.055459,-6.97622,648.468,572.455,531.597
808,-0.082601,-6.83448,647.863,575.368,531.813
809,-0.023771,-6.93694,648.16,582.061,532.006
810,-0.005136,-6.58104,648.922,542.717,532.292
811,-0.005653,-6.77298,647.724,555.622,532.533
812,-0.084677,-6.58555,648.035,571.54,532.771
813,-0.101869,-6.83659,648.391,594.198,532.945
814,-0.101889,-6.51343,648.872,611.022,533.157
815,0.062124,-6.86676,649.614,626.352,533.35
816,0.099843,-6.95164,648.963,617.591,533.575
817,0.178323,-6.82171,647.918,604.433,533.785