File: PMMA/Calibration_Data/GIDAZE+/GIDAZE+_Cone_65kW_2.csv
Time,Mass,HRR,Temperature 1 Sample Front,Temperature 3 Inside,Temperature 4 Sample Back
[s],[g],[kW/m2],[K],[K],[K]
0,70.5,-0.395694,340.483,305.535,304.682
1,70.5885,-0.235629,348.083,305.668,304.684
2,70.5143,-0.42921,366.451,305.774,304.722
3,70.4189,-0.066608,385.934,305.943,304.741
4,70.4852,-0.292403,405.348,306.113,304.759
5,70.4181,-0.099497,424.297,306.343,304.798
6,70.3159,-0.27211,440.761,306.595,304.81
7,70.3899,-0.01487996,457.089,306.994,304.816
8,70.4869,-0.363543,475.875,307.483,304.866
9,70.5012,-0.224916,492.107,308.107,304.883
10,70.5933,-0.363992,503.947,308.883,304.897
11,70.6063,-0.127601,518.341,309.827,304.922
12,70.5154,-0.239913,532.512,310.889,304.964
13,70.5004,0.0935261,545.327,312.103,304.976
14,70.41783,-0.271062,556.902,313.447,305.026
15,70.4049,0.0855722,566.308,314.875,305.053
16,70.487,-0.280113,578.843,316.397,305.07
17,70.5005,-0.28724,590.201,318.042,305.107
18,70.591,-0.272577,617.296,319.717,305.143
19,70.6061,1.86798,662.86,321.535,305.199
20,70.6059,41.1501,700.77,323.206,305.253
21,70.2638,60.4523,715.853,325.268,305.311
22,70.1174,125.268,723.063,327.178,305.375
23,69.5053,191.506,725.517,329.113,305.428
24,69.7442,259.674,725.266,331.093,305.513
25,69.6273,329.819,723.86,333.132,305.583
26,69.5896,382.847,722.626,335.19,305.646
27,69.4243,416.255,721.252,337.272,305.735
28,69.3164,459.369,720.404,339.359,305.858
29,68.95241,497.954,719.847,341.472,305.948
30,68.8152,531.897,719.374,343.611,306.07
31,68.5388,545.123,718.827,345.752,306.168
32,67.8915,561.83,718.333,347.886,306.33
33,67.6148,544.615,717.837,350.022,306.441
34,67.2302,586.407,717.963,352.171,306.584
35,66.9288,589.467,717.887,354.307,306.769
36,66.9728,593.462,717.278,356.414,306.925
37,66.9003,631.947,717.14,358.539,307.083
38,66.7127,676.299,717.065,360.64,307.277
39,66.683,638.235,716.984,362.737,307.439
40,66.3412,657.37,716.951,364.86,307.643
41,65.5108,660.5,716.371,366.951,307.863
42,65.0242,663.392,716.55,369.057,308.06
43,64.98088,663.482,716.551,371.164,308.257
44,64.8122,675.106,716.729,373.278,308.531
45,64.5296,677.613,717.089,375.42,308.8
46,64.3933,657.369,717.177,377.629,309.118
47,64.20762,670.232,717.276,379.929,309.455
48,64.0979,672.831,717.48,382.287,309.742
49,63.2969,689.17,717.928,384.719,310.105
50,63.0437,681.832,717.948,387.151,310.423
51,62.8998,661.726,718.358,389.542,310.802
52,62.7961,688.379,718.457,391.912,311.076
53,62.3516,695.639,718.13,394.226,311.292
54,61.8436,675.565,717.967,396.468,311.461
55,61.6917,737.766,718.099,398.653,311.703
56,61.6772,681.481,718.169,400.834,311.931
57,61.5043,718.318,718.314,403.008,312.239
58,61.2085,691.973,718.433,405.153,312.508
59,61.18006,684.038,718.495,407.22,312.81
60,60.9219,693.96,718.451,409.282,313.138
61,59.9462,702.129,718.673,411.339,313.435
62,59.7764,673.743,718.686,413.414,313.791
63,59.2679,681.285,718.503,415.527,314.099
64,58.8271,730.365,718.218,417.6,314.48
65,58.5955,710.256,718.163,419.659,314.851
66,58.6432,695.403,718.114,421.712,315.232
67,58.5804,685.551,718.224,423.78,315.624
68,58.3989,673.633,718.038,425.858,315.991
69,58.1995,727.598,717.807,427.907,316.345
70,58.0789,710.465,717.719,429.891,316.756
71,56.694,688.853,717.622,431.941,317.141
72,56.46965,700.163,717.609,433.954,317.52
73,56.4697,697.577,717.279,435.896,317.914
74,56.1941,717.186,717.024,437.89,318.308
75,56.0722,717.002,716.618,439.87,318.715
76,55.88982,691.939,716.209,441.889,319.16
77,55.7795,694.859,716.005,443.912,319.539
78,55.5942,710.276,715.869,445.929,319.969
79,55.3037,722.959,715.81,447.983,320.403
80,55.09263,714.671,715.493,450.066,320.896
81,54.8894,780.351,715.355,452.165,321.412
82,53.9521,727.198,715.223,454.283,321.942
83,53.4117,763.532,714.874,456.393,322.57
84,53.2671,727.171,715.449,458.521,323.334
85,52.909,737.183,715.972,460.654,324.143
86,52.762,703.62,716.199,462.79,325.114
87,52.6606,680.316,717.13,464.979,326.238
88,52.5596,685.957,718.059,467.176,327.67
89,51.9388,738.156,718.532,469.406,329.258
90,51.9158,683.439,718.246,471.679,330.934
91,51.85379,718.647,717.932,474.012,332.368
92,51.3273,757.164,718.011,476.377,333.45
93,50.4697,721.304,717.578,478.734,334.174
94,50.5155,675.053,717.387,481.117,334.667
95,50.02,686.617,716.748,483.512,334.965
96,49.2506,718.465,716.326,485.947,334.806
97,49.3988,724.642,715.695,488.437,333.787
98,49.4998,702.857,714.804,491.087,332.507
99,49.3618,777.6,713.452,493.75,331.438
100,49.1674,759.819,712.355,496.366,330.402
101,49.0515,745.655,711.276,498.979,329.478
102,48.783,710.248,710.238,501.51,328.639
103,48.1472,747.462,709.078,504.027,327.892
104,47.2557,725.915,708.198,506.522,327.27
105,46.5454,727.564,707.845,509.115,326.755
106,46.6491,749.204,707.32,511.68,326.351
107,46.4735,737.758,706.447,514.364,326.021
108,46.4384,727.019,706.578,523.483,325.806
109,46.3494,757.786,706.636,519.879,325.663
110,45.9101,751.394,706.791,523.704,325.561
111,45.2398,727.472,706.692,526.509,325.518
112,44.9721,705.16,706.137,529.3,325.54
113,44.6788,776.567,705.732,531.563,325.597
114,44.607,782.157,705.563,534.618,325.699
115,44.4604,727.799,706.047,537.632,325.812
116,43.9313,728.347,705.98,540.831,325.968
117,43.4848,728.044,705.567,544.141,326.136
118,43.3507,736.965,705.635,549.707,326.342
119,43.1664,829.94,705.336,551.667,326.559
120,43.049,783.459,705.707,558.009,326.793
121,42.2593,781.924,705.845,558.374,327.057
122,42.1709,788.995,705.747,563.566,327.338
123,41.8849,766.352,705.85,565.976,327.579
124,41.14325,762.921,705.791,569.759,327.858
125,41.1184,774.043,705.591,574.395,328.166
126,40.7903,793.361,705.819,578.423,328.479
127,40.1309,790.501,705.872,582.83,328.786
128,40.03105,834.939,705.666,584.855,329.095
129,39.8538,814.496,705.567,588.649,329.431
130,39.717,771.272,705.742,592.19,329.761
131,39.4644,772.767,705.396,595.785,330.101
132,39.3439,793.55,705.183,599.675,330.421
133,39.1533,764.557,705.396,604.023,330.783
134,37.47713,841.826,705.356,607.595,331.144
135,37.1238,880.287,705.637,612.082,331.525
136,37.3692,800.452,705.716,616.806,331.885
137,36.8153,800.058,705.637,621.991,332.241
138,36.4261,778.459,705.411,627.702,332.598
139,36.2269,788.566,705.813,633.835,332.977
140,36.1199,792.104,706.166,640.114,333.343
141,36.017,806.532,706.284,647.46,333.688
142,35.7522,829.517,705.846,656.235,334.062
143,35.6165,902.752,705.234,665.782,334.451
144,35.5181,828.764,704.848,675.521,334.798
145,33.7993,925.756,705.076,686.071,335.182
146,32.972,864.071,704.627,695.98,335.56
147,33.3278,876.888,704.607,703.157,335.926
148,33.1369,842.465,704.48,708.784,336.303
149,32.6563,899.116,703.909,714.032,336.684
150,32.1667,889.952,704.166,719.896,337.05
151,32.0099,917.788,703.977,725.318,337.419
152,31.8288,896.805,704.003,728.504,337.783
153,31.7088,892.601,704.023,731.404,338.127
154,31.49963,952.424,704.951,733.749,338.53
155,31.1491,898.777,704.355,733.993,338.9
156,30.927,939.647,704.501,734.02,339.296
157,30.5579,949.412,703.889,739.935,339.643
158,28.9498,880.633,703.55,742.156,340.012
159,28.6071,894.861,703.312,744.666,340.37
160,28.421,940.368,703.219,747.421,340.719
161,28.137,1021.01,704.139,749.576,341.079
162,27.7352,1034.2,704.106,752.418,341.441
163,27.0849,931.521,703.982,753.437,341.814
164,27.16,946.569,703.672,754.506,342.152
165,27.0164,975.5,702.976,757.391,342.481
166,26.6511,927.246,702.37,759.419,342.853
167,26.0754,994.38,702.026,760.525,343.23
168,25.3963,942.287,702.271,758.416,343.542
169,25.0279,956.532,703.317,761.912,343.859
170,24.8062,1014.98,703.674,763.083,344.234
171,23.3999,1068.67,703.227,765.062,344.548
172,23.34986,1071.14,702.915,766.86,344.904
173,23.11926,1035.69,702.017,768.024,345.304
174,22.91,1073.6,701.671,768.711,345.856
175,22.7066,1095.38,701.049,769.815,346.673
176,22.2465,1016.74,700.219,771.784,347.587
177,22.0043,1061.6,700.289,771.921,348.584
178,21.8866,1034.66,700.865,771.94,349.588
179,20.4097,1022.33,701.041,772.671,350.709
180,20.4246,970.567,701.859,774.499,352.012
181,19.7794,1058.39,702.746,774.588,353.325
182,19.2424,1033.67,702.825,773.239,354.722
183,19.1644,997.012,703.735,774.251,357.323
184,18.7414,990.416,704.72,773.272,359.805
185,17.8919,1178.78,704.482,771.663,361.866
186,17.848,1217.85,704.513,769.971,363.12
187,17.6945,1055.84,704.525,769.39,363.913
188,17.5783,1126.31,704.586,769.578,364.233
189,16.8886,1134.59,703.068,770.481,363.172
190,16.5977,1135.8,702.993,770.953,362.599
191,16.2204,1096.51,702.571,771.099,362.371
192,15.2152,1058.17,702.236,770.08,362.463
193,14.8068,922.123,701.235,769.644,362.574
194,14.2431,1167.72,699.352,770.914,362.759
195,13.7313,1101.11,697.595,770.369,363.005
196,13.5726,1076.72,698.123,769.237,363.319
197,13.1264,1039.1,697.702,769.239,363.624
198,12.5497,1071.33,697.435,769.621,364.297
199,12.2827,1131.4,699.439,769.905,364.701
200,11.5643,1072.93,701.499,770.849,369.149
201,11.0324,1049.07,702.354,771.741,374.313
202,10.7767,1011.03,704.886,772.415,378.196
203,10.5768,1005.96,706.536,774.554,381.237
204,9.934716,1009.65,707.385,779.118,383.86
205,9.592391,1083,709.237,780.261,386.331
206,9.290323,1054.75,709.477,783.727,388.531
207,8.743038,917.897,708.728,786.112,390.566
208,8.562701,927.243,709.994,788.992,392.407
209,8.204605,884.871,710.143,791.7,394.2
210,7.044847,965.661,709.674,792.348,395.903
211,7.446081,915.386,708.912,793.724,397.508
212,7.198521,848.19,708.36,793.871,399.081
213,6.889467,824.679,707.695,794.869,400.513
214,6.843055,727.452,707.662,795.64,401.948
215,6.671126,690.347,707.432,795.496,403.368
216,6.292735,699.763,707.486,794.329,404.686
217,5.979734,655.217,707.289,795.754,406.065
218,5.937792,638.371,707.567,797.15,407.499
219,5.766764,614.673,708.454,797.735,409.018
220,4.962205,555.831,710.418,796.895,409.601
221,4.915962,534.575,712.256,796.939,410.358
222,4.931167,515.481,714.576,796.35,410.89
223,4.676279,515.274,717.253,794.992,411.299
224,4.634714,496.731,718.423,793.874,411.541
225,4.634856,485.756,719.184,793.099,412.452
226,4.464146,477.214,719.72,789.622,413.598
227,4.346395,469.099,720.493,786.521,415.095
228,4.242318,456.948,722.538,786.108,416.889
229,3.629351,470.002,725.363,785.033,419.306
230,3.270879,454.458,728.373,785.989,421.933
231,3.138812,439.516,730.565,785.833,424.538
232,2.95342,416.976,731.758,788.267,427.428
233,2.92424,388.489,735.533,791.024,430.197
234,2.841054,381.43,740.725,790.842,432.316
235,2.828056,363.469,746.108,792.892,432.933
236,2.739056,354.242,750.988,795.481,434.349
237,2.724627,369.012,756.217,798.376,437.197
238,2.641856,335.277,762.989,802.571,440.504
239,2.277894,328.128,770.144,807.058,445.177
240,1.534631,311.747,787.777,813.39,452.165
241,1.764944,286.982,807.212,831.55,461.652
242,1.562385,279.804,822.508,867.339,473.111
243,1.520752,263.601,832.912,912.558,487.686
244,1.607711,246.858,840.539,941.383,512.625
245,1.622539,236.145,848.719,954.609,520.772
246,1.622751,216.189,859.344,953.107,526.373
247,1.622807,216.359,871.469,953.206,531.945
248,1.448918,201.088,881.376,954.216,536.181
249,1.3328,187.175,894.528,961.636,542.347
250,1.237695,173.251,915.629,961.603,548.104
251,1.134257,161.701,944.783,966.465,556.855
252,0.947361,159.549,977.878,971.426,572.83
253,0.919689,150.446,1006.397,978.525,586.956
254,1.09502,141.3,1020.509,978.313,599.933
255,1.037884,132.164,1053.033,980.514,608.784
256,1.024283,114.723,1074.41,987.547,614.996
257,1.024426,116.053,1076.742,989.576,619.061
258,0.934651,110.846,1068.796,991.561,622.102
259,0.747493,101.12,1052.963,995.451,623.562
260,0.719029,94.6615,1020.648,1071.797,622.331
261,0.629698,94.0786,971.873,1141.792,619.484
262,0.616075,82.5248,929.489,1188.397,616.123
263,0.615873,76.2853,900.686,1135.111,612.855
264,0.702277,74.7824,876.362,993.171,609.269
265,0.719895,70.6356,859.454,883.155,605.614
266,0.807219,65.3102,852.148,916.869,603.37
267,0.73482,58.7789,837.952,908.829,600.694
268,0.7204,53.487,822.802,851.896,597.773
269,0.720085,46.6276,814.878,818.396,595.105
270,0.631924,44.7812,810.792,824.879,593.102
271,0.534943,43.9417,810.172,771.654,591.507
272,0.429491,41.2024,806.355,777.104,589.743
273,0.334399,36.2227,802.975,770.197,587.909
274,0.49194,32.876,804.22,746.213,587.065
275,0.519408,29.1863,805.013,716.681,586.255
276,0.603036,27.0255,807.186,732.703,585.469
277,0.704344,24.5865,809.022,694.997,585
278,0.80712,22.7595,807.853,706.108,584.481
279,0.64648,22.0554,804.253,728.164,583.481
280,0.533727,18.9391,800.456,713.516,582.823
281,0.430252,17.981,799.349,718.342,582.354
282,0.505519,16.554,799.12,720.482,582.11
283,0.430568,16.0129,798.371,718.522,581.799
284,0.244639,15.6828,800.148,700.113,582.142
285,0.305315,15.2789,799.266,693.453,582.103
286,0.489232,15.2906,798.867,702.417,582.33
287,0.520184,14.0654,800.12,697.954,582.403
288,0.52028,11.7675,800.538,679.858,582.517
289,0.603215,10.4736,804.089,683.541,583.054
290,0.705356,10.0167,803.153,711.508,583.208
291,0.630866,8.21339,802.943,702.977,583.51
292,0.532875,8.18891,800.174,673.329,583.38
293,0.520154,7.01677,798.888,691.138,583.401
294,0.43005,7.20729,797.579,699.134,583.476
295,0.332232,6.99709,795.744,673.894,583.956
296,0.400986,5.47639,797.89,675.817,584.214
297,0.331428,4.88315,795.153,655.225,584.574
298,0.490982,4.96095,794.419,662.695,584.638
299,0.602213,3.79183,797.662,663.762,585.109
300,0.533097,2.61551,798.215,671.07,585.375
301,0.691576,2.32611,799.811,684.549,585.577
302,0.630281,2.07862,803.241,678.27,586.064
303,0.44334,0.500076,804.07,654.266,587.063
304,0.414874,-0.098031,806.251,630.812,587.75
305,0.414752,-0.542308,806.051,647.476,588.237
306,0.332343,-0.0312931,807.439,656.518,588.819
307,0.231369,-0.269856,805.802,665.108,589.666
308,0.30369,-0.152723,804.918,658.864,590.126
309,0.401539,-0.143073,805.735,655.988,590.518
310,0.414608,-0.011514,800.375,675.362,590.692
311,0.414799,-0.384876,797.651,655.442,591.143
312,0.587375,-1.21483,795.676,674.179,591.34
313,0.61522,-1.36524,797.852,675.029,591.882
314,0.445517,-1.79204,801.921,695.698,592.19
315,0.331933,-2.04395,804.609,702.638,592.574
316,0.401207,-2.19841,807.739,687.494,593.12
317,0.332044,-2.04721,809.06,690.036,593.555
318,0.230433,-2.90793,811.374,703.979,593.904
319,0.304004,-2.90083,810.559,717.43,594.111
320,0.401728,-2.93714,813.818,696.52,594.844
321,0.503431,-2.49938,815.384,670.445,595.588
322,0.519428,-3.49415,811.432,657.329,596.114
323,0.51969,-3.22511,809.115,662.538,596.065
324,0.519174,-3.60165,810.045,654.374,596.699
325,0.602166,-3.10053,810.999,640.8,597.539
326,0.61533,-3.54372,812.727,648.352,598.242
327,0.615632,-2.44345,812.762,640.995,598.902
328,0.190396,-2.63516,814.294,627.897,599.581
329,0.201585,-2.43892,815.031,641.49,600.202
330,0.215545,-2.62146,814.541,676.312,600.478
331,0.215275,-2.39539,811.383,698.929,600.596
332,0.215492,-2.17886,811.745,700.079,600.639
333,0.215922,-3.10941,811.513,709.181,601.024
334,0.215227,-3.1389,810.27,673.76,601.843
335,0.389472,-2.94564,815.707,662.653,602.632
336,0.415036,-3.14936,812.646,654.589,603.22
337,0.505836,-3.31202,811.149,674.78,603.41
338,0.428875,-3.15457,809.724,698.196,603.466
339,0.415883,-3.30819,812.207,670.569,603.634
340,0.587924,-3.1472,811.438,695.082,604.153
341,0.616214,-3.24814,805.946,712.828,604.483
342,0.443987,-2.90504,802.024,739.022,604.668
343,0.415826,-3.06844,799.883,731.779,604.714
344,0.332918,-3.14781,798.013,708.861,604.974
345,0.319082,-3.28091,797.826,702.21,605.08
346,0.230605,-3.47742,798.714,684.464,605.965
347,0.216656,-4.09129,798.819,704.211,606.369
348,0.215508,-4.19654,800.112,690.991,607.16
349,0.387822,-4.08941,798.584,705.267,607.58
350,0.415619,-3.73057,796.626,708.591,607.948
351,0.505345,-4.02066,799.022,681.365,608.218
352,0.520168,-3.68057,799.363,693.715,608.591
353,0.519804,-4.08776,799.638,681.059,609.276
354,0.60418,-3.9408,803.136,655.628,609.761
355,0.617133,-4.10151,801.261,644.175,609.983
356,0.532995,-3.96817,800.667,634.552,610.22
357,0.346811,-4.14483,804.666,649.601,610.763
358,0.318214,-3.84638,806.136,647.356,611.67
359,0.319181,-4.12784,802.843,634.606,612.054
360,0.31905,-3.9014,803.603,620.437,612.451
361,0.229458,-4.14805,805.038,618.487,612.989
362,0.305054,-3.78104,808.357,622.315,613.6
363,0.402802,-4.062,808.053,655.243,613.843
364,0.415634,-3.7512,813.018,674.39,614.615
365,0.505847,-4.21934,814.386,671.909,614.804
366,0.520404,-3.96721,810.808,676.096,613.414
367,0.430868,-4.12419,806.905,685.275,612.125
368,0.333559,-4.0527,804.408,668.788,611.115
369,0.232805,-4.08788,799.158,665.168,610.047
370,0.216962,-4.01129,800.013,649.185,609.22
371,0.216885,-3.8473,800.482,657.115,608.737
372,0.216395,-3.68294,798.383,659.917,608.647
373,0.387422,-3.93389,797.93,664.268,608.341
374,0.415224,-3.6612,795.33,657.817,608.265
375,0.504998,-3.89825,795.226,672.993,608.093
376,0.602545,-3.94429,797.076,687.659,608.172
377,0.535011,-3.98449,796.617,687.842,608.213
378,0.263744,-3.96258,797.104,700.902,608.558
379,0.303958,-3.61516,794.874,709.936,608.739
380,0.230844,-3.95385,794.336,705.705,609.168
381,0.216332,-3.51264,794.233,696.597,609.507
382,0.215558,-3.95765,795.244,666.988,610.043
383,0.303746,-3.52356,789.213,666.674,610.496
384,0.399658,-3.95503,787.397,678.086,610.946
385,0.332312,-3.54226,787.742,687.575,611.224
386,0.488934,-3.97796,787.744,676.904,611.694
387,0.519881,-3.85279,786.546,669.584,612.293
388,0.346878,-3.96045,784.584,649.082,612.8
389,0.319657,-3.8818,788.654,666.339,613.196
390,0.319008,-3.86003,788.747,674.947,613.586
391,0.230267,-3.62955,792.496,697.44,614.046
392,0.216265,-3.92901,796.507,713.26,614.809
393,0.216702,-3.48073,797.051,719.764,615.46
394,0.305766,-3.82654,795.327,691.935,615.975
395,0.402342,-3.35147,798.582,671.025,616.729
396,0.50642,-3.77434,793.749,657.372,617.174
397,0.521667,-3.60895,794.323,657.878,617.519
398,0.429966,-3.84379,796.699,660.174,617.843
399,0.333977,-3.50723,792.533,638.995,618.312
400,0.319901,-3.68732,788.718,628.967,618.912
401,0.231194,-3.50272,786.13,625.389,619.399
402,0.216973,-3.63385,786.748,633.305,619.742
403,0.305157,-3.50669,784.195,609.091,620.146
404,0.49229,-3.72767,782.656,607.634,620.556
405,0.430994,-3.68301,783.456,632.327,620.742
406,0.505628,-3.79786,781.61,629.932,621.193
407,0.520481,-3.69975,782.045,645.612,621.476
408,0.521083,-3.35105,783.993,650.467,622.189