File: Wood/Calibration_Data/FSRI/FSRI_TGA_N2_30K_R2.csv
Time (s),Temperature (K),Mass (mg)
0,325.0,4.044
11.0946,325.5,4.044
17.5674,326.0,4.045
22.4322,326.5,4.045
26.5146,327.0,4.045
30.0996,327.5,4.043
33.2916,328.0,4.043
36.2526,328.5,4.043
39.0438,329.0,4.042
41.6352,329.5,4.042
44.0814,330.0,4.043
46.383,330.5,4.043
48.5784,331.0,4.045
50.7072,331.5,4.045
52.8204,332.0,4.044
54.8514,332.5,4.044
56.7996,333.0,4.044
58.6908,333.5,4.044
60.5274,334.0,4.045
62.3316,334.5,4.046
64.0896,335.0,4.044
65.8224,335.5,4.044
67.5054,336.0,4.044
69.162,336.5,4.044
70.7844,337.0,4.044
72.3954,337.5,4.045
73.9782,338.0,4.046
75.5448,338.5,4.046
77.0778,339.0,4.044
78.5694,339.5,4.045
80.0622,340.0,4.044
81.5424,340.5,4.045
83.0208,341.0,4.045
84.492,341.5,4.045
85.9284,342.0,4.045
87.3534,342.5,4.045
88.7694,343.0,4.045
90.1686,343.5,4.045
91.5594,344.0,4.044
92.9412,344.5,4.044
94.3062,345.0,4.044
95.6664,345.5,4.044
97.02,346.0,4.044
98.3526,346.5,4.044
99.6846,347.0,4.044
101.007,347.5,4.044
102.3174,348.0,4.043
103.6254,348.5,4.043
104.922,349.0,4.043
106.2126,349.5,4.043
107.5002,350.0,4.044
108.7782,350.5,4.044
110.049,351.0,4.045
111.3132,351.5,4.044
112.5684,352.0,4.044
113.8206,352.5,4.044
115.0734,353.0,4.045
116.3124,353.5,4.044
117.5532,354.0,4.043
118.776,354.5,4.043
120.0048,355.0,4.043
121.23,355.5,4.043
122.4528,356.0,4.043
123.663,356.5,4.044
124.8738,357.0,4.042
126.0756,357.5,4.042
127.2756,358.0,4.041
128.4708,358.5,4.042
129.6624,359.0,4.042
130.8498,359.5,4.042
132.0342,360.0,4.042
133.2108,360.5,4.042
134.3808,361.0,4.042
135.5472,361.5,4.042
136.7124,362.0,4.043
137.8662,362.5,4.042
139.0206,363.0,4.042
140.178,363.5,4.042
141.3342,364.0,4.042
142.4778,364.5,4.042
143.622,365.0,4.042
144.7566,365.5,4.042
145.8852,366.0,4.042
147.0114,366.5,4.042
148.1448,367.0,4.044
149.2686,367.5,4.043
150.4026,368.0,4.043
151.53,368.5,4.042
152.6562,369.0,4.042
153.7722,369.5,4.042
154.89,370.0,4.042
155.9988,370.5,4.041
157.1106,371.0,4.042
158.217,371.5,4.041
159.3276,372.0,4.041
160.4328,372.5,4.042
161.5386,373.0,4.041
162.6396,373.5,4.041
163.7388,374.0,4.041
164.8368,374.5,4.041
165.9342,375.0,4.041
167.0226,375.5,4.040
168.1128,376.0,4.041
169.1988,376.5,4.040
170.2794,377.0,4.041
171.3582,377.5,4.041
172.434,378.0,4.040
173.5158,378.5,4.041
174.5958,379.0,4.041
175.671,379.5,4.039
176.7504,380.0,4.039
177.8334,380.5,4.039
178.9032,381.0,4.039
179.9784,381.5,4.040
181.0548,382.0,4.039
182.1222,382.5,4.039
183.1884,383.0,4.038
184.2588,383.5,4.038
185.3208,384.0,4.036
186.384,384.5,4.036
187.4436,385.0,4.038
188.5026,385.5,4.037
189.5562,386.0,4.037
190.6158,386.5,4.038
191.6742,387.0,4.038
192.735,387.5,4.038
193.7934,388.0,4.038
194.8392,388.5,4.037
195.8916,389.0,4.038
196.9428,389.5,4.038
197.9892,390.0,4.038
199.0362,390.5,4.038
200.094,391.0,4.038
201.144,391.5,4.038
202.1868,392.0,4.038
203.22,392.5,4.038
204.261,393.0,4.037
205.299,393.5,4.038
206.3316,394.0,4.038
207.3654,394.5,4.038
208.4022,395.0,4.037
209.4372,395.5,4.037
210.4686,396.0,4.037
211.5012,396.5,4.037
212.529,397.0,4.037
213.5598,397.5,4.037
214.59,398.0,4.037
215.6136,398.5,4.036
216.636,399.0,4.037
217.6572,399.5,4.037
218.6754,400.0,4.037
219.6924,400.5,4.037
220.7124,401.0,4.037
221.7282,401.5,4.038
222.7452,402.0,4.037
223.7616,402.5,4.037
224.7726,403.0,4.037
225.7818,403.5,4.037
226.7916,404.0,4.037
227.7978,404.5,4.036
228.8016,405.0,4.036
229.8054,405.5,4.036
230.8068,406.0,4.037
231.81,406.5,4.037
232.8084,407.0,4.036
233.8098,407.5,4.035
234.8124,408.0,4.035
235.8048,408.5,4.035
236.8032,409.0,4.035
237.7968,409.5,4.037
238.794,410.0,4.037
239.781,410.5,4.037
240.7746,411.0,4.037
241.7646,411.5,4.037
242.754,412.0,4.037
243.744,412.5,4.037
244.7316,413.0,4.037
245.715,413.5,4.037
246.7044,414.0,4.037
247.6914,414.5,4.036
248.6742,415.0,4.037
249.6552,415.5,4.037
250.6392,416.0,4.037
251.6202,416.5,4.037
252.5946,417.0,4.037
253.5678,417.5,4.037
254.5422,418.0,4.037
255.5184,418.5,4.037
256.491,419.0,4.037
257.466,419.5,4.037
258.4404,420.0,4.037
259.4136,420.5,4.037
260.3844,421.0,4.037
261.3546,421.5,4.037
262.3254,422.0,4.037
263.2908,422.5,4.037
264.2586,423.0,4.037
265.224,423.5,4.037
266.1858,424.0,4.037
267.1446,424.5,4.037
268.1082,425.0,4.037
269.0748,425.5,4.037
270.0384,426.0,4.037
271.0038,426.5,4.037
271.968,427.0,4.037
272.9292,427.5,4.037
273.8892,428.0,4.037
274.8456,428.5,4.037
275.802,429.0,4.037
276.759,429.5,4.037
277.7178,430.0,4.037
278.6742,430.5,4.037
279.6318,431.0,4.038
280.5876,431.5,4.038
281.5422,432.0,4.038
282.4974,432.5,4.038
283.4502,433.0,4.037
284.4018,433.5,4.036
285.3516,434.0,4.036
286.305,434.5,4.036
287.2572,435.0,4.036
288.2058,435.5,4.036
289.158,436.0,4.037
290.1054,436.5,4.037
291.0558,437.0,4.037
292.0068,437.5,4.037
292.953,438.0,4.037
293.9022,438.5,4.037
294.8496,439.0,4.036
295.8012,439.5,4.036
296.7462,440.0,4.036
297.6906,440.5,4.036
298.6374,441.0,4.036
299.583,441.5,4.037
300.5262,442.0,4.037
301.4676,442.5,4.037
302.4132,443.0,4.037
303.357,443.5,4.037
304.2996,444.0,4.037
305.241,444.5,4.037
306.183,445.0,4.037
307.1244,445.5,4.037
308.0622,446.0,4.037
308.997,446.5,4.037
309.9276,447.0,4.037
310.8654,447.5,4.037
311.799,448.0,4.036
312.7314,448.5,4.034
313.6674,449.0,4.034
314.6052,449.5,4.034
315.5454,450.0,4.034
316.4778,450.5,4.034
317.4126,451.0,4.035
318.3462,451.5,4.035
319.2792,452.0,4.036
320.2122,452.5,4.037
321.1416,453.0,4.037
322.065,453.5,4.037
322.9962,454.0,4.037
323.9238,454.5,4.036
324.8526,455.0,4.035
325.7796,455.5,4.035
326.7096,456.0,4.035
327.6438,456.5,4.035
328.5666,457.0,4.035
329.4918,457.5,4.035
330.4158,458.0,4.035
331.3374,458.5,4.035
332.2614,459.0,4.034
333.1854,459.5,4.034
334.101,460.0,4.034
335.0214,460.5,4.034
335.943,461.0,4.034
336.8634,461.5,4.035
337.7814,462.0,4.035
338.7006,462.5,4.035
339.6258,463.0,4.035
340.545,463.5,4.035
341.4642,464.0,4.035
342.3816,464.5,4.035
343.2996,465.0,4.035
344.2074,465.5,4.032
345.1176,466.0,4.032
346.0254,466.5,4.030
346.9326,467.0,4.030
347.847,467.5,4.029
348.762,468.0,4.029
349.6842,468.5,4.029
350.6076,469.0,4.030
351.5304,469.5,4.031
352.4526,470.0,4.031
353.3658,470.5,4.031
354.2808,471.0,4.030
355.1928,471.5,4.029
356.1024,472.0,4.029
357.0126,472.5,4.029
357.9234,473.0,4.029
358.8354,473.5,4.029
359.7438,474.0,4.030
360.6552,474.5,4.031
361.5654,475.0,4.031
362.4726,475.5,4.030
363.3804,476.0,4.029
364.29,476.5,4.029
365.202,477.0,4.029
366.1116,477.5,4.029
367.02,478.0,4.029
367.9308,478.5,4.028
368.8404,479.0,4.028
369.7476,479.5,4.028
370.6524,480.0,4.027
371.5536,480.5,4.027
372.4608,481.0,4.027
373.3674,481.5,4.027
374.2758,482.0,4.026
375.18,482.5,4.025
376.086,483.0,4.025
376.9968,483.5,4.024
377.9046,484.0,4.024
378.8106,484.5,4.024
379.7148,485.0,4.024
380.622,485.5,4.022
381.5274,486.0,4.023
382.4328,486.5,4.023
383.3358,487.0,4.022
384.2406,487.5,4.021
385.1448,488.0,4.021
386.0478,488.5,4.021
386.9538,489.0,4.021
387.8574,489.5,4.020
388.7604,490.0,4.020
389.6616,490.5,4.019
390.5658,491.0,4.018
391.47,491.5,4.017
392.3712,492.0,4.017
393.2766,492.5,4.017
394.1814,493.0,4.016
395.085,493.5,4.017
395.9868,494.0,4.015
396.888,494.5,4.015
397.7916,495.0,4.014
398.6874,495.5,4.014
399.588,496.0,4.013
400.4886,496.5,4.012
401.3898,497.0,4.012
402.2928,497.5,4.011
403.1934,498.0,4.011
404.0976,498.5,4.010
404.9988,499.0,4.009
405.8988,499.5,4.009
406.7988,500.0,4.008
407.6982,500.5,4.008
408.5994,501.0,4.008
409.5,501.5,4.008
410.4,502.0,4.008
411.3024,502.5,4.007
412.2012,503.0,4.007
413.1,503.5,4.006
413.9964,504.0,4.004
414.8934,504.5,4.004
415.7916,505.0,4.002
416.688,505.5,4.002
417.588,506.0,4.001
418.4868,506.5,3.999
419.3862,507.0,3.999
420.288,507.5,3.998
421.1862,508.0,3.998
422.0838,508.5,3.996
422.982,509.0,3.996
423.8766,509.5,3.995
424.7742,510.0,3.994
425.6706,510.5,3.993
426.5694,511.0,3.992
427.4658,511.5,3.991
428.3622,512.0,3.990
429.2586,512.5,3.989
430.1562,513.0,3.988
431.052,513.5,3.987
431.9466,514.0,3.987
432.8436,514.5,3.986
433.7394,515.0,3.985
434.6388,515.5,3.984
435.5334,516.0,3.983
436.4292,516.5,3.982
437.325,517.0,3.981
438.2208,517.5,3.980
439.1172,518.0,3.978
440.0052,518.5,3.977
440.9016,519.0,3.976
441.798,519.5,3.976
442.695,520.0,3.975
443.5926,520.5,3.975
444.4884,521.0,3.973
445.3914,521.5,3.972
446.2854,522.0,3.971
447.18,522.5,3.969
448.0734,523.0,3.968
448.965,523.5,3.967
449.8572,524.0,3.966
450.75,524.5,3.965
451.6428,525.0,3.964
452.5332,525.5,3.962
453.4272,526.0,3.962
454.3236,526.5,3.961
455.2128,527.0,3.960
456.105,527.5,3.959
457.0026,528.0,3.958
457.8948,528.5,3.957
458.7864,529.0,3.956
459.6762,529.5,3.954
460.5708,530.0,3.953
461.4642,530.5,3.952
462.3492,531.0,3.951
463.2402,531.5,3.950
464.1276,532.0,3.949
465.0192,532.5,3.947
465.912,533.0,3.946
466.8036,533.5,3.945
467.7012,534.0,3.945
468.5964,534.5,3.945
469.494,535.0,3.945
470.3874,535.5,3.943
471.2784,536.0,3.942
472.1664,536.5,3.939
473.0598,537.0,3.936
473.9514,537.5,3.934
474.8436,538.0,3.931
475.7352,538.5,3.930
476.6292,539.0,3.928
477.5256,539.5,3.926
478.4172,540.0,3.924
479.3064,540.5,3.922
480.1962,541.0,3.920
481.086,541.5,3.919
481.9758,542.0,3.917
482.8662,542.5,3.915
483.7542,543.0,3.914
484.6458,543.5,3.912
485.5368,544.0,3.911
486.429,544.5,3.909
487.32,545.0,3.906
488.2092,545.5,3.904
489.1014,546.0,3.903
489.9906,546.5,3.901
490.8828,547.0,3.899
491.7732,547.5,3.896
492.6636,548.0,3.894
493.5552,548.5,3.892
494.4444,549.0,3.890
495.3372,549.5,3.889
496.2282,550.0,3.885
497.1162,550.5,3.884
498.006,551.0,3.881
498.8952,551.5,3.879
499.7862,552.0,3.877
500.676,552.5,3.874
501.5646,553.0,3.872
502.4592,553.5,3.870
503.3514,554.0,3.868
504.2424,554.5,3.866
505.1346,555.0,3.863
506.0256,555.5,3.861
506.9172,556.0,3.859
507.807,556.5,3.857
508.698,557.0,3.854
509.5908,557.5,3.851
510.4806,558.0,3.849
511.3734,558.5,3.846
512.2656,559.0,3.844
513.1578,559.5,3.842
514.047,560.0,3.840
514.9374,560.5,3.838
515.8326,561.0,3.835
516.723,561.5,3.832
517.6134,562.0,3.829
518.505,562.5,3.826
519.3984,563.0,3.824
520.2876,563.5,3.820
521.175,564.0,3.818
522.0654,564.5,3.815
522.9564,565.0,3.813
523.8462,565.5,3.811
524.7372,566.0,3.808
525.6324,566.5,3.805
526.5264,567.0,3.801
527.421,567.5,3.798
528.3126,568.0,3.794
529.2054,568.5,3.789
530.0988,569.0,3.787
530.9916,569.5,3.783
531.8826,570.0,3.779
532.7736,570.5,3.776
533.6688,571.0,3.773
534.558,571.5,3.769
535.449,572.0,3.765
536.34,572.5,3.761
537.2316,573.0,3.757
538.125,573.5,3.753
539.0124,574.0,3.749
539.9058,574.5,3.746
540.8022,575.0,3.742
541.6944,575.5,3.737
542.5908,576.0,3.734
543.4848,576.5,3.730
544.3812,577.0,3.725
545.2788,577.5,3.723
546.171,578.0,3.718
547.0644,578.5,3.714
547.9572,579.0,3.710
548.8512,579.5,3.706
549.7464,580.0,3.703
550.6434,580.5,3.699
551.5374,581.0,3.693
552.432,581.5,3.689
553.3248,582.0,3.683
554.2194,582.5,3.678
555.1068,583.0,3.674
555.9936,583.5,3.668
556.8822,584.0,3.664
557.7738,584.5,3.659
558.6696,585.0,3.654
559.566,585.5,3.650
560.4678,586.0,3.644
561.366,586.5,3.639
562.2678,587.0,3.635
563.1672,587.5,3.628
564.0642,588.0,3.623
564.9588,588.5,3.618
565.854,589.0,3.611
566.7504,589.5,3.606
567.645,590.0,3.600
568.5408,590.5,3.594
569.4348,591.0,3.591
570.3318,591.5,3.585
571.2258,592.0,3.580
572.1234,592.5,3.574
573.0234,593.0,3.567
573.9216,593.5,3.561
574.8198,594.0,3.554
575.7198,594.5,3.548
576.618,595.0,3.542
577.5156,595.5,3.535
578.4108,596.0,3.529
579.3096,596.5,3.523
580.2078,597.0,3.516
581.1072,597.5,3.510
582.009,598.0,3.503
582.9102,598.5,3.496
583.812,599.0,3.490
584.7108,599.5,3.482
585.6108,600.0,3.475
586.5096,600.5,3.467
587.409,601.0,3.458
588.3084,601.5,3.452
589.2102,602.0,3.444
590.106,602.5,3.436
590.9994,603.0,3.429
591.8928,603.5,3.421
592.791,604.0,3.415
593.6928,604.5,3.408
594.5928,605.0,3.399
595.5,605.5,3.392
596.4096,606.0,3.383
597.318,606.5,3.374
598.2216,607.0,3.366
599.124,607.5,3.355
600.0276,608.0,3.347
600.9312,608.5,3.337
601.8336,609.0,3.326
602.7366,609.5,3.319
603.6396,610.0,3.311
604.542,610.5,3.302
605.442,611.0,3.293
606.3456,611.5,3.282
607.248,612.0,3.273
608.1498,612.5,3.264
609.0552,613.0,3.253
609.9582,613.5,3.245
610.8624,614.0,3.234
611.7672,614.5,3.224
612.672,615.0,3.215
613.5786,615.5,3.204
614.4828,616.0,3.196
615.3882,616.5,3.185
616.2858,617.0,3.173
617.1852,617.5,3.164
618.0912,618.0,3.152
618.9972,618.5,3.142
619.9032,619.0,3.131
620.8128,619.5,3.119
621.7254,620.0,3.109
622.638,620.5,3.098
623.5422,621.0,3.086
624.4446,621.5,3.076
625.3524,622.0,3.064
626.256,622.5,3.053
627.1626,623.0,3.043
628.0692,623.5,3.030
628.98,624.0,3.019
629.892,624.5,3.007
630.7986,625.0,2.994
631.7106,625.5,2.984
632.6184,626.0,2.972
633.525,626.5,2.962
634.4316,627.0,2.950
635.3394,627.5,2.936
636.2478,628.0,2.926
637.1544,628.5,2.915
638.0634,629.0,2.904
638.9754,629.5,2.894
639.8844,630.0,2.880
640.7922,630.5,2.867
641.7018,631.0,2.853
642.6138,631.5,2.838
643.5258,632.0,2.827
644.4342,632.5,2.814
645.3438,633.0,2.801
646.2516,633.5,2.790
647.1606,634.0,2.775
648.0678,634.5,2.764
648.9768,635.0,2.751
649.89,635.5,2.737
650.8044,636.0,2.726
651.72,636.5,2.712
652.6338,637.0,2.699
653.5494,637.5,2.688
654.459,638.0,2.672
655.3704,638.5,2.661
656.2848,639.0,2.648
657.1998,639.5,2.634
658.1148,640.0,2.622
659.0316,640.5,2.607
659.9538,641.0,2.594
660.87,641.5,2.581
661.7856,642.0,2.565
662.7036,642.5,2.554
663.6198,643.0,2.539
664.536,643.5,2.524
665.454,644.0,2.512
666.3732,644.5,2.496
667.2918,645.0,2.483
668.2116,645.5,2.468
669.1326,646.0,2.451
670.0524,646.5,2.438
670.9764,647.0,2.422
671.8968,647.5,2.408
672.8208,648.0,2.394
673.7448,648.5,2.377
674.6688,649.0,2.364
675.5928,649.5,2.348
676.5126,650.0,2.333
677.4336,650.5,2.319
678.3552,651.0,2.301
679.2762,651.5,2.286
680.2014,652.0,2.270
681.12,652.5,2.252
682.0392,653.0,2.238
682.9656,653.5,2.219
683.8914,654.0,2.201
684.8154,654.5,2.185
685.7388,655.0,2.165
686.6706,655.5,2.150
687.603,656.0,2.132
688.527,656.5,2.114
689.4516,657.0,2.098
690.3768,657.5,2.078
691.3002,658.0,2.062
692.2224,658.5,2.044
693.1464,659.0,2.025
694.0674,659.5,2.009
694.9908,660.0,1.989
695.916,660.5,1.971
696.8388,661.0,1.954
697.761,661.5,1.932
698.6844,662.0,1.916
699.606,662.5,1.898
700.5246,663.0,1.879
701.4432,663.5,1.862
702.36,664.0,1.841
703.278,664.5,1.824
704.1936,665.0,1.805
705.108,665.5,1.784
706.0224,666.0,1.767
706.9344,666.5,1.747
707.8482,667.0,1.728
708.7578,667.5,1.711
709.6644,668.0,1.690
710.5734,668.5,1.675
711.4782,669.0,1.656
712.38,669.5,1.636
713.2806,670.0,1.621
714.18,670.5,1.602
715.0776,671.0,1.586
715.9704,671.5,1.570
716.8644,672.0,1.550
717.7572,672.5,1.537
718.6452,673.0,1.522
719.5332,673.5,1.505
720.4206,674.0,1.492
721.3086,674.5,1.476
722.1942,675.0,1.461
723.0762,675.5,1.448
723.9612,676.0,1.433
724.8462,676.5,1.422
725.7306,677.0,1.410
726.6132,677.5,1.396
727.4958,678.0,1.387
728.379,678.5,1.375
729.261,679.0,1.364
730.1418,679.5,1.356
731.0214,680.0,1.345
731.9016,680.5,1.337
732.7848,681.0,1.329
733.6686,681.5,1.319
734.5566,682.0,1.313
735.4446,682.5,1.306
736.3338,683.0,1.299
737.2284,683.5,1.293
738.12,684.0,1.287
739.014,684.5,1.282
739.9068,685.0,1.277
740.8014,685.5,1.273
741.7002,686.0,1.269
742.5984,686.5,1.265
743.4996,687.0,1.261
744.4038,687.5,1.257
745.3098,688.0,1.253
746.2152,688.5,1.249
747.126,689.0,1.246
748.038,689.5,1.242
748.9494,690.0,1.240
749.8632,690.5,1.237
750.78,691.0,1.235
751.698,691.5,1.233
752.6118,692.0,1.231
753.5322,692.5,1.229
754.4496,693.0,1.228
755.3658,693.5,1.227
756.2778,694.0,1.225
757.1958,694.5,1.223
758.1192,695.0,1.221
759.0342,695.5,1.219
759.9576,696.0,1.217
760.8828,696.5,1.216
761.8104,697.0,1.214
762.738,697.5,1.211
763.6638,698.0,1.209
764.5932,698.5,1.207
765.5208,699.0,1.205
766.4502,699.5,1.205
767.3784,700.0,1.204
768.3048,700.5,1.202
769.2288,701.0,1.200
770.1492,701.5,1.199
771.0744,702.0,1.198
772.0014,702.5,1.196
772.926,703.0,1.195
773.8536,703.5,1.193
774.7836,704.0,1.192
775.7142,704.5,1.189
776.6436,705.0,1.187
777.5712,705.5,1.186
778.5012,706.0,1.184
779.4288,706.5,1.183
780.3588,707.0,1.182
781.2912,707.5,1.180
782.2212,708.0,1.180
783.15,708.5,1.178
784.0806,709.0,1.177
785.0112,709.5,1.175
785.943,710.0,1.173
786.8736,710.5,1.173
787.8042,711.0,1.171
788.7366,711.5,1.170
789.6666,712.0,1.169
790.5954,712.5,1.168
791.5236,713.0,1.166
792.4566,713.5,1.165
793.389,714.0,1.164
794.3208,714.5,1.162
795.2556,715.0,1.161
796.1916,715.5,1.159
797.1258,716.0,1.158
798.057,716.5,1.156
798.9912,717.0,1.155
799.923,717.5,1.154
800.856,718.0,1.153
801.7896,718.5,1.152
802.7214,719.0,1.151
803.649,719.5,1.149
804.5778,720.0,1.147
805.5138,720.5,1.146
806.4492,721.0,1.146
807.3828,721.5,1.145
808.3206,722.0,1.143
809.2626,722.5,1.141
810.2022,723.0,1.140
811.1382,723.5,1.139
812.073,724.0,1.137
813.0108,724.5,1.136
813.9468,725.0,1.136
814.8864,725.5,1.134
815.8254,726.0,1.134
816.7626,726.5,1.133
817.7016,727.0,1.131
818.6418,727.5,1.130
819.5802,728.0,1.129
820.5168,728.5,1.127
821.4558,729.0,1.126
822.3954,729.5,1.124
823.335,730.0,1.123
824.2728,730.5,1.122
825.213,731.0,1.120
826.1538,731.5,1.119
827.0952,732.0,1.118
828.0348,732.5,1.116
828.975,733.0,1.115
829.917,733.5,1.114
830.8602,734.0,1.112
831.7998,734.5,1.111
832.7412,735.0,1.110
833.6862,735.5,1.109
834.6288,736.0,1.108
835.572,736.5,1.107
836.5122,737.0,1.105
837.4542,737.5,1.104
838.398,738.0,1.103
839.337,738.5,1.102
840.2814,739.0,1.101
841.224,739.5,1.100
842.169,740.0,1.098
843.1134,740.5,1.097
844.0566,741.0,1.096
845.0022,741.5,1.094
845.9442,742.0,1.094
846.888,742.5,1.092
847.8318,743.0,1.092
848.7756,743.5,1.090
849.72,744.0,1.089
850.6656,744.5,1.087
851.613,745.0,1.087
852.5592,745.5,1.085
853.5072,746.0,1.085
854.4516,746.5,1.085
855.396,747.0,1.085
856.344,747.5,1.084
857.2896,748.0,1.085
858.2346,748.5,1.083
859.1802,749.0,1.082
860.1312,749.5,1.081
861.0774,750.0,1.080
862.026,750.5,1.079
862.9722,751.0,1.078
863.9202,751.5,1.076
864.8712,752.0,1.076
865.8186,752.5,1.074
866.7684,753.0,1.074
867.7164,753.5,1.073
868.6686,754.0,1.073
869.6154,754.5,1.073
870.5652,755.0,1.072
871.5132,755.5,1.071
872.46,756.0,1.070
873.4068,756.5,1.068
874.3554,757.0,1.067
875.3034,757.5,1.066
876.2496,758.0,1.065
877.2018,758.5,1.064
878.151,759.0,1.063
879.1026,759.5,1.063
880.0518,760.0,1.062
881.0028,760.5,1.062
881.952,761.0,1.062
882.9036,761.5,1.060
883.854,762.0,1.061
884.8074,762.5,1.060
885.7608,763.0,1.058
886.7166,763.5,1.057
887.6682,764.0,1.056
888.6198,764.5,1.055
889.5708,765.0,1.054
890.5194,765.5,1.054
891.468,766.0,1.053
892.4184,766.5,1.052
893.3688,767.0,1.051
894.3216,767.5,1.051
895.2756,768.0,1.049
896.2302,768.5,1.049
897.183,769.0,1.047
898.137,769.5,1.047
899.0916,770.0,1.046
900.0408,770.5,1.046
900.9918,771.0,1.046
901.9428,771.5,1.045
902.8962,772.0,1.045
903.8448,772.5,1.043
904.7976,773.0,1.043
905.7516,773.5,1.042
906.7056,774.0,1.041
907.6596,774.5,1.040
908.61,775.0,1.040
909.5676,775.5,1.039
910.5204,776.0,1.039
911.475,776.5,1.039
912.4266,777.0,1.038
913.3812,777.5,1.038
914.3334,778.0,1.037
915.2862,778.5,1.037
916.2414,779.0,1.035
917.1936,779.5,1.035
918.147,780.0,1.035
919.1016,780.5,1.034
920.0556,781.0,1.034
921.0102,781.5,1.034
921.9642,782.0,1.033
922.9194,782.5,1.032
923.874,783.0,1.031
924.828,783.5,1.031
925.785,784.0,1.028
926.7378,784.5,1.028
927.6924,785.0,1.027
928.6476,785.5,1.027
929.604,786.0,1.026
930.5574,786.5,1.026
931.5048,787.0,1.026
932.4582,787.5,1.025
933.4146,788.0,1.025
934.3704,788.5,1.025
935.3238,789.0,1.025
936.2868,789.5,1.024
937.2504,790.0,1.024
938.2092,790.5,1.023
939.1644,791.0,1.022
940.1226,791.5,1.022
941.0802,792.0,1.021
942.0366,792.5,1.021
942.9924,793.0,1.019
943.9536,793.5,1.020
944.9112,794.0,1.019
945.87,794.5,1.019
946.83,795.0,1.019
947.7864,795.5,1.017
948.7452,796.0,1.017
949.7016,796.5,1.016
950.6598,797.0,1.016
951.6132,797.5,1.015
952.5708,798.0,1.014
953.5254,798.5,1.014
954.4788,799.0,1.013
955.437,799.5,1.013
956.3922,800.0,1.012
957.3516,800.5,1.011
958.3074,801.0,1.011
959.2686,801.5,1.010
960.2262,802.0,1.010
961.1856,802.5,1.010
962.1474,803.0,1.009
963.1068,803.5,1.009
964.0686,804.0,1.008
965.031,804.5,1.007
965.9922,805.0,1.005
966.9522,805.5,1.004
967.911,806.0,1.004
968.8716,806.5,1.003
969.831,807.0,1.002
970.7904,807.5,1.003
971.7492,808.0,1.003
972.7086,808.5,1.001
973.6686,809.0,1.002
974.6268,809.5,1.003
975.5862,810.0,1.003
976.5462,810.5,1.003
977.5044,811.0,1.003
978.4656,811.5,1.001
979.4292,812.0,1.002
980.3916,812.5,1.000
981.3516,813.0,1.000
982.3128,813.5,1.000
983.2746,814.0,1.000
984.2352,814.5,0.999
985.1952,815.0,0.999
986.1564,815.5,0.998
987.117,816.0,0.997
988.0794,816.5,0.998
989.0388,817.0,0.997
989.9994,817.5,0.996
990.9618,818.0,0.996
991.9242,818.5,0.996
992.886,819.0,0.996
993.8496,819.5,0.995
994.8138,820.0,0.995
995.778,820.5,0.994
996.741,821.0,0.993
997.7034,821.5,0.993
998.6682,822.0,0.993
999.6324,822.5,0.992
1000.596,823.0,0.992
1001.56,823.5,0.993
1002.52,824.0,0.993
1003.485,824.5,0.992
1004.45,825.0,0.992
1005.41,825.5,0.991
1006.37,826.0,0.990
1007.334,826.5,0.990
1008.294,827.0,0.990
1009.25,827.5,0.989
1010.22,828.0,0.989
1011.18,828.5,0.988
1012.15,829.0,0.986
1013.11,829.5,0.986
1014.08,830.0,0.986
1015.05,830.5,0.985
1016.01,831.0,0.985
1016.97,831.5,0.984
1017.939,832.0,0.984
1018.905,832.5,0.984
1019.87,833.0,0.982
1020.84,833.5,0.982
1021.806,834.0,0.982
1022.77,834.5,0.981
1023.73,835.0,0.981
1024.7,835.5,0.981
1025.67,836.0,0.981
1026.636,836.5,0.980
1027.605,837.0,0.980
1028.58,837.5,0.980
1029.549,838.0,0.980
1030.51,838.5,0.979
1031.48,839.0,0.978
1032.45,839.5,0.978
1033.41,840.0,0.977
1034.38,840.5,0.978
1035.35,841.0,0.977
1036.32,841.5,0.977
1037.28,842.0,0.977
1038.25,842.5,0.976
1039.221,843.0,0.976
1040.19,843.5,0.974
1041.16,844.0,0.973
1042.13,844.5,0.973
1043.09,845.0,0.973
1044.05,845.5,0.972
1045.02,846.0,0.972
1045.99,846.5,0.972
1046.96,847.0,0.971
1047.93,847.5,0.970
1048.9,848.0,0.970
1049.87,848.5,0.970
1050.84,849.0,0.970
1051.81,849.5,0.970
1052.781,850.0,0.969
1053.75,850.5,0.969
1054.716,851.0,0.969
1055.68,851.5,0.969
1056.65,852.0,0.968
1057.62,852.5,0.968
1058.59,853.0,0.968
1059.56,853.5,0.968
1060.54,854.0,0.967
1061.52,854.5,0.967
1062.49,855.0,0.967
1063.46,855.5,0.967
1064.43,856.0,0.966
1065.4,856.5,0.965
1066.37,857.0,0.965
1067.34,857.5,0.965
1068.32,858.0,0.964
1069.29,858.5,0.964
1070.26,859.0,0.964
1071.24,859.5,0.963
1072.21,860.0,0.963
1073.18,860.5,0.962
1074.15,861.0,0.961
1075.122,861.5,0.961
1076.09,862.0,0.960
1077.06,862.5,0.960
1078.038,863.0,0.960
1079.01,863.5,0.959
1079.98,864.0,0.959
1080.96,864.5,0.959
1081.93,865.0,0.958
1082.9,865.5,0.959
1083.87,866.0,0.959
1084.85,866.5,0.958
1085.826,867.0,0.958
1086.8,867.5,0.958
1087.77,868.0,0.957
1088.74,868.5,0.957
1089.72,869.0,0.957
1090.686,869.5,0.956
1091.661,870.0,0.956
1092.63,870.5,0.955
1093.608,871.0,0.954
1094.58,871.5,0.954
1095.56,872.0,0.954
1096.53,872.5,0.954
1097.508,873.0,0.953
1098.48,873.5,0.953
1099.458,874.0,0.954
1100.43,874.5,0.953
1101.408,875.0,0.953
1102.38,875.5,0.953
1103.36,876.0,0.953
1104.33,876.5,0.953
1105.308,877.0,0.952
1106.28,877.5,0.952
1107.26,878.0,0.952
1108.23,878.5,0.952
1109.211,879.0,0.951
1110.19,879.5,0.950
1111.16,880.0,0.950
1112.13,880.5,0.950
1113.1,881.0,0.950
1114.08,881.5,0.949
1115.05,882.0,0.949
1116.03,882.5,0.949
1117.01,883.0,0.946
1118,883.5,0.946
1118.98,884.0,0.946
1119.96,884.5,0.946
1120.932,885.0,0.945
1121.907,885.5,0.945
1122.88,886.0,0.945
1123.857,886.5,0.945
1124.83,887.0,0.945
1125.81,887.5,0.945
1126.79,888.0,0.944
1127.77,888.5,0.944
1128.75,889.0,0.944
1129.72,889.5,0.944
1130.7,890.0,0.945
1131.67,890.5,0.945
1132.65,891.0,0.945
1133.63,891.5,0.944
1134.6,892.0,0.944
1135.58,892.5,0.944
1136.559,893.0,0.944
1137.54,893.5,0.944
1138.51,894.0,0.943
1139.5,894.5,0.942
1140.477,895.0,0.942
1141.46,895.5,0.942
1142.44,896.0,0.941
1143.42,896.5,0.941
1144.4,897.0,0.941
1145.379,897.5,0.941
1146.36,898.0,0.940
1147.34,898.5,0.940
1148.32,899.0,0.940
1149.3,899.5,0.938
1150.28,900.0,0.938
1151.26,900.5,0.938
1152.23,901.0,0.938
1153.215,901.5,0.938
1154.2,902.0,0.937
1155.18,902.5,0.937
1156.16,903.0,0.937
1157.14,903.5,0.936
1158.117,904.0,0.936
1159.1,904.5,0.936
1160.08,905.0,0.936
1161.06,905.5,0.936
1162.035,906.0,0.934
1163.01,906.5,0.934
1164,907.0,0.934
1164.981,907.5,0.934
1165.96,908.0,0.934
1166.94,908.5,0.934
1167.92,909.0,0.934
1168.902,909.5,0.934
1169.88,910.0,0.934
1170.867,910.5,0.933
1171.85,911.0,0.933
1172.84,911.5,0.933
1173.82,912.0,0.932
1174.8,912.5,0.932
1175.78,913.0,0.932
1176.76,913.5,0.931
1177.74,914.0,0.930
1178.72,914.5,0.930
1179.7,915.0,0.930
1180.68,915.5,0.930
1181.67,916.0,0.929
1182.65,916.5,0.929
1183.63,917.0,0.929
1184.616,917.5,0.929
1185.59,918.0,0.928
1186.58,918.5,0.928
1187.56,919.0,0.928
1188.55,919.5,0.927
1189.53,920.0,0.928
1190.51,920.5,0.928
1191.49,921.0,0.928
1192.47,921.5,0.927
1193.454,922.0,0.926
1194.43,922.5,0.926
1195.42,923.0,0.926
1196.4,923.5,0.926
1197.38,924.0,0.925
1198.36,924.5,0.924
1199.35,925.0,0.924
1200.327,925.5,0.924
1201.31,926.0,0.923
1202.29,926.5,0.923
1203.27,927.0,0.923
1204.26,927.5,0.923
1205.24,928.0,0.922
1206.22,928.5,0.922
1207.21,929.0,0.922
1208.19,929.5,0.923
1209.17,930.0,0.922
1210.15,930.5,0.922
1211.139,931.0,0.922
1212.12,931.5,0.922
1213.1,932.0,0.922
1214.08,932.5,0.920
1215.066,933.0,0.921
1216.05,933.5,0.921
1217.03,934.0,0.921
1218.01,934.5,0.921
1218.999,935.0,0.921
1219.98,935.5,0.921
1220.97,936.0,0.919
1221.95,936.5,0.919
1222.938,937.0,0.919
1223.919,937.5,0.919
1224.9,938.0,0.920
1225.89,938.5,0.919
1226.871,939.0,0.919
1227.85,939.5,0.919
1228.84,940.0,0.919
1229.82,940.5,0.919
1230.807,941.0,0.919
1231.79,941.5,0.919
1232.77,942.0,0.917
1233.75,942.5,0.917
1234.74,943.0,0.917
1235.72,943.5,0.917
1236.708,944.0,0.916
1237.69,944.5,0.916
1238.68,945.0,0.916
1239.66,945.5,0.916
1240.65,946.0,0.916
1241.63,946.5,0.916
1242.615,947.0,0.916
1243.6,947.5,0.917
1244.58,948.0,0.916
1245.57,948.5,0.915
1246.55,949.0,0.915
1247.53,949.5,0.915
1248.52,950.0,0.914
1249.506,950.5,0.914
1250.49,951.0,0.914
1251.48,951.5,0.914
1252.47,952.0,0.913
1253.45,952.5,0.913
1254.44,953.0,0.913
1255.42,953.5,0.913
1256.41,954.0,0.913
1257.39,954.5,0.913
1258.38,955.0,0.912
1259.37,955.5,0.912
1260.36,956.0,0.912
1261.344,956.5,0.913
1262.331,957.0,0.913
1263.32,957.5,0.913
1264.29,958.0,0.912
1265.28,958.5,0.912
1266.27,959.0,0.912
1267.25,959.5,0.912
1268.238,960.0,0.910
1269.23,960.5,0.910
1270.22,961.0,0.909
1271.21,961.5,0.910
1272.19,962.0,0.910
1273.18,962.5,0.910
1274.16,963.0,0.909
1275.15,963.5,0.909
1276.14,964.0,0.910
1277.13,964.5,0.910
1278.11,965.0,0.910
1279.1,965.5,0.910
1280.09,966.0,0.909
1281.078,966.5,0.909
1282.062,967.0,0.909
1283.04,967.5,0.909
1284.03,968.0,0.909
1285.017,968.5,0.909
1286,969.0,0.909
1286.994,969.5,0.909
1287.99,970.0,0.909
1288.983,970.5,0.909
1289.97,971.0,0.908
1290.96,971.5,0.907
1291.94,972.0,0.906
1292.931,972.5,0.906
1293.915,973.0,0.906
1294.9,973.5,0.905
1295.892,974.0,0.905
1296.88,974.5,0.905
1297.87,975.0,0.905
1298.86,975.5,0.905
1299.849,976.0,0.905
1300.84,976.5,0.905
1301.82,977.0,0.905
1302.81,977.5,0.905
1303.8,978.0,0.904
1304.781,978.5,0.905
1305.768,979.0,0.905
1306.76,979.5,0.904
1307.75,980.0,0.904
1308.74,980.5,0.904
1309.73,981.0,0.904
1310.73,981.5,0.904
1311.72,982.0,0.904
1312.707,982.5,0.904
1313.7,983.0,0.905
1314.69,983.5,0.905
1315.68,984.0,0.905
1316.67,984.5,0.904
1317.657,985.0,0.904
1318.65,985.5,0.904
1319.64,986.0,0.904
1320.63,986.5,0.903
1321.62,987.0,0.902
1322.61,987.5,0.902
1323.6,988.0,0.902
1324.593,988.5,0.902
1325.59,989.0,0.902
1326.576,989.5,0.902
1327.57,990.0,0.901
1328.562,990.5,0.901
1329.56,991.0,0.902
1330.55,991.5,0.902
1331.54,992.0,0.902
1332.54,992.5,0.902
1333.53,993.0,0.901
1334.53,993.5,0.901
1335.516,994.0,0.901
1336.512,994.5,0.901
1337.5,995.0,0.901
1338.49,995.5,0.900
1339.48,996.0,0.900
1340.47,996.5,0.900
1341.46,997.0,0.900
1342.46,997.5,0.900
1343.45,998.0,0.900
1344.447,998.5,0.900
1345.44,999.0,0.900
1346.43,999.5,0.900
1347.43,1000.0,0.900
1348.42,1000.5,0.900
1349.415,1001.0,0.900
1350.41,1001.5,0.900
1351.4,1002.0,0.900
1352.4,1002.5,0.900
1353.39,1003.0,0.900
1354.38,1003.5,0.900
1355.379,1004.0,0.900
1356.375,1004.5,0.899
1357.37,1005.0,0.898
1358.36,1005.5,0.898
1359.36,1006.0,0.898
1360.35,1006.5,0.897
1361.337,1007.0,0.897
1362.33,1007.5,0.898
1363.323,1008.0,0.899
1364.32,1008.5,0.898
1365.32,1009.0,0.897
1366.32,1009.5,0.897
1367.32,1010.0,0.897
1368.32,1010.5,0.897
1369.317,1011.0,0.897
1370.316,1011.5,0.896
1371.312,1012.0,0.896
1372.31,1012.5,0.895
1373.31,1013.0,0.895
1374.3,1013.5,0.895
1375.3,1014.0,0.894
1376.29,1014.5,0.895
1377.294,1015.0,0.896
1378.29,1015.5,0.896
1379.29,1016.0,0.895
1380.29,1016.5,0.895
1381.29,1017.0,0.895
1382.289,1017.5,0.895
1383.285,1018.0,0.894
1384.28,1018.5,0.893
1385.27,1019.0,0.893
1386.27,1019.5,0.893
1387.26,1020.0,0.893
1388.26,1020.5,0.892
1389.255,1021.0,0.893
1390.25,1021.5,0.893
1391.25,1022.0,0.893
1392.252,1022.5,0.893
1393.25,1023.0,0.893
1394.25,1023.5,0.893
1395.24,1024.0,0.892
1396.24,1024.5,0.892
1397.23,1025.0,0.892
1398.23,1025.5,0.892
1399.22,1026.0,0.892
1400.22,1026.5,0.891
1401.22,1027.0,0.891
1402.22,1027.5,0.891
1403.22,1028.0,0.890
1404.21,1028.5,0.890
1405.21,1029.0,0.890
1406.2,1029.5,0.890
1407.2,1030.0,0.890
1408.194,1030.5,0.890
1409.19,1031.0,0.890
1410.192,1031.5,0.891
1411.194,1032.0,0.891
1412.19,1032.5,0.891
1413.189,1033.0,0.893
1414.185,1033.5,0.892
1415.18,1034.0,0.891
1416.18,1034.5,0.891
1417.18,1035.0,0.890
1418.18,1035.5,0.891
1419.174,1036.0,0.890
1420.17,1036.5,0.890
1421.17,1037.0,0.890
1422.168,1037.5,0.890
1423.167,1038.0,0.889
1424.16,1038.5,0.889
1425.16,1039.0,0.889
1426.161,1039.5,0.889
1427.16,1040.0,0.889
1428.15,1040.5,0.889
1429.15,1041.0,0.889
1430.15,1041.5,0.889
1431.14,1042.0,0.890
1432.14,1042.5,0.890
1433.14,1043.0,0.890
1434.138,1043.5,0.888
1435.14,1044.0,0.889
1436.13,1044.5,0.889
1437.13,1045.0,0.889
1438.12,1045.5,0.890
1439.12,1046.0,0.889
1440.12,1046.5,0.889
1441.12,1047.0,0.889
1442.12,1047.5,0.889
1443.12,1048.0,0.889
1444.12,1048.5,0.888
1445.12,1049.0,0.889
1446.12,1049.5,0.889
1447.12,1050.0,0.889
1448.115,1050.5,0.888
1449.11,1051.0,0.887
1450.104,1051.5,0.887
1451.1,1052.0,0.887
1452.1,1052.5,0.887
1453.095,1053.0,0.887
1454.09,1053.5,0.887
1455.09,1054.0,0.887
1456.09,1054.5,0.887
1457.1,1055.0,0.888
1458.09,1055.5,0.889
1459.09,1056.0,0.889
1460.091,1056.5,0.888
1461.09,1057.0,0.887
1462.09,1057.5,0.886
1463.08,1058.0,0.885
1464.08,1058.5,0.885
1465.08,1059.0,0.885
1466.07,1059.5,0.885
1467.07,1060.0,0.885
1468.07,1060.5,0.885
1469.076,1061.0,0.885
1470.07,1061.5,0.885
1471.07,1062.0,0.885
1472.07,1062.5,0.884
1473.07,1063.0,0.884