File: Wood/Calibration_Data/FSRI/FSRI_Wood_Parallel_Cone_25kW_hor_R3.csv
Time,Mass (g),HRRPUA (kW/m2)
0.0,104.35,4.0
2.0,103.94,4.4
4.0,103.96,4.5
6.0,104.0,4.4
8.0,103.96,4.5
10.0,103.92,5.7
12.0,103.89,9.0
14.0,103.86,10.5
16.0,103.84,11.1
18.0,103.82,13.1
20.0,103.81,14.3
22.0,103.83,14.9
24.0,103.82,13.9
26.0,103.79,11.8
28.0,103.76,10.0
30.0,103.74,10.8
32.0,103.75,15.4
34.0,103.73,22.2
36.0,103.71,24.5
38.0,103.67,25.2
40.0,103.68,23.3
42.0,103.64,22.0
44.0,103.6,22.0
46.0,103.57,21.9
48.0,103.51,21.5
50.0,103.47,19.4
52.0,103.45,15.8
54.0,103.41,10.6
56.0,103.35,7.8
58.0,103.21,6.7
60.0,103.1,6.2
62.0,102.9,6.2
64.0,102.7,8.3
66.0,102.52,21.5
68.0,102.33,43.1
70.0,102.11,65.7
72.0,101.96,89.6
74.0,101.78,116.7
76.0,101.57,141.7
78.0,101.38,156.1
80.0,101.2,164.3
82.0,101.03,168.3
84.0,100.83,166.7
86.0,100.66,168.6
88.0,100.41,167.4
90.0,100.23,166.3
92.0,100.04,166.3
94.0,99.9,163.0
96.0,99.76,161.9
98.0,99.61,159.5
100.0,99.46,154.4
102.0,99.31,154.4
104.0,99.19,148.1
106.0,99.04,144.6
108.0,98.9,138.2
110.0,98.71,137.3
112.0,98.55,135.5
114.0,98.43,134.4
116.0,98.29,132.3
118.0,98.14,131.7
120.0,98.0,129.5
122.0,97.85,126.7
124.0,97.7,123.4
126.0,97.55,126.0
128.0,97.39,120.3
130.0,97.24,118.8
132.0,97.08,117.8
134.0,96.95,117.6
136.0,96.84,115.1
138.0,96.74,115.1
140.0,96.63,113.0
142.0,96.55,112.3
144.0,96.4,111.1
146.0,96.34,108.4
148.0,96.2,108.1
150.0,96.07,105.2
152.0,95.96,102.8
154.0,95.82,103.2
156.0,95.7,101.3
158.0,95.6,100.8
160.0,95.48,99.6
162.0,95.4,100.0
164.0,95.28,100.3
166.0,95.15,103.3
168.0,95.03,99.8
170.0,94.9,98.6
172.0,94.78,97.4
174.0,94.63,96.9
176.0,94.54,93.7
178.0,94.44,94.3
180.0,94.42,91.6
182.0,94.33,91.1
184.0,94.22,88.7
186.0,94.1,89.0
188.0,94.0,88.4
190.0,93.9,86.6
192.0,93.8,85.5
194.0,93.72,84.3
196.0,93.61,83.8
198.0,93.5,82.7
200.0,93.39,82.6
202.0,93.29,81.7
204.0,93.2,81.2
206.0,93.1,79.7
208.0,93.01,80.8
210.0,92.89,79.6
212.0,92.76,78.9
214.0,92.64,78.1
216.0,92.54,77.6
218.0,92.46,76.8
220.0,92.41,76.9
222.0,92.33,76.8
224.0,92.23,76.0
226.0,92.15,77.7
228.0,92.06,78.1
230.0,91.99,76.9
232.0,91.89,76.5
234.0,91.82,76.3
236.0,91.71,75.6
238.0,91.63,75.9
240.0,91.53,74.2
242.0,91.44,74.3
244.0,91.37,73.5
246.0,91.29,74.0
248.0,91.18,75.0
250.0,91.06,73.6
252.0,90.97,73.2
254.0,90.81,73.2
256.0,90.7,71.5
258.0,90.62,71.1
260.0,90.56,70.6
262.0,90.55,69.7
264.0,90.46,68.8
266.0,90.36,68.1
268.0,90.28,67.5
270.0,90.19,68.6
272.0,90.12,68.9
274.0,90.02,68.8
276.0,89.94,68.3
278.0,89.86,68.5
280.0,89.77,68.0
282.0,89.68,67.7
284.0,89.62,68.0
286.0,89.52,67.8
288.0,89.44,66.7
290.0,89.35,65.9
292.0,89.27,66.0
294.0,89.17,65.1
296.0,88.95,64.7
298.0,88.89,63.9
300.0,88.81,64.3
302.0,88.82,62.7
304.0,88.76,63.5
306.0,88.68,63.1
308.0,88.59,63.3
310.0,88.52,63.0
312.0,88.44,64.0
314.0,88.36,65.3
316.0,88.26,64.5
318.0,88.2,62.9
320.0,88.07,62.5
322.0,88.06,63.1
324.0,87.95,63.4
326.0,87.87,62.4
328.0,87.74,61.3
330.0,87.65,60.1
332.0,87.57,60.0
334.0,87.49,60.5
336.0,87.39,62.6
338.0,87.33,64.1
340.0,87.18,63.1
342.0,87.11,62.5
344.0,87.01,60.8
346.0,86.94,61.2
348.0,86.95,60.8
350.0,86.86,60.0
352.0,86.77,59.7
354.0,86.69,60.8
356.0,86.64,60.8
358.0,86.55,60.4
360.0,86.46,61.0
362.0,86.4,62.6
364.0,86.31,61.3
366.0,86.23,62.5
368.0,86.12,61.5
370.0,86.07,61.6
372.0,85.99,61.5
374.0,85.9,61.8
376.0,85.81,62.7
378.0,85.65,62.0
380.0,85.55,62.1
382.0,85.48,62.1
384.0,85.39,62.3
386.0,85.32,60.5
388.0,85.3,60.1
390.0,85.24,60.8
392.0,85.16,60.0
394.0,85.07,59.8
396.0,84.99,59.0
398.0,84.92,58.3
400.0,84.83,59.1
402.0,84.76,59.3
404.0,84.66,59.3
406.0,84.6,60.5
408.0,84.52,60.4
410.0,84.43,61.4
412.0,84.34,60.6
414.0,84.26,59.9
416.0,84.18,60.4
418.0,84.09,58.5
420.0,83.99,59.4
422.0,83.84,58.5
424.0,83.8,59.0
426.0,83.72,60.1
428.0,83.68,59.3
430.0,83.6,59.5
432.0,83.58,59.7
434.0,83.49,60.3
436.0,83.4,59.5
438.0,83.32,59.8
440.0,83.23,58.8
442.0,83.16,57.9
444.0,83.09,60.0
446.0,83.01,58.4
448.0,82.92,56.9
450.0,82.83,57.5
452.0,82.77,57.9
454.0,82.69,56.9
456.0,82.61,58.1
458.0,82.52,57.3
460.0,82.35,56.9
462.0,82.27,56.6
464.0,82.18,55.9
466.0,82.1,56.1
468.0,82.04,56.2
470.0,81.97,57.3
472.0,81.97,56.7
474.0,81.89,57.0
476.0,81.82,57.9
478.0,81.72,56.8
480.0,81.65,57.3
482.0,81.57,56.4
484.0,81.5,57.6
486.0,81.4,56.3
488.0,81.33,56.4
490.0,81.26,56.1
492.0,81.19,57.8
494.0,81.11,55.9
496.0,81.02,55.8
498.0,80.94,55.4
500.0,80.84,55.3
502.0,80.73,55.9
504.0,80.6,56.1
506.0,80.53,55.5
508.0,80.46,55.5
510.0,80.41,55.8
512.0,80.34,55.0
514.0,80.27,54.4
516.0,80.22,55.2
518.0,80.13,55.9
520.0,80.06,55.3
522.0,79.96,54.9
524.0,79.9,55.7
526.0,79.82,55.9
528.0,79.76,56.0
530.0,79.66,55.2
532.0,79.55,55.7
534.0,79.5,55.9
536.0,79.41,56.5
538.0,79.32,58.7
540.0,79.23,60.4
542.0,79.15,61.8
544.0,79.06,63.4
546.0,78.88,64.1
548.0,78.79,65.3
550.0,78.71,65.5
552.0,78.68,65.2
554.0,78.62,65.2
556.0,78.56,63.0
558.0,78.47,63.9
560.0,78.37,63.4
562.0,78.3,62.5
564.0,78.2,62.3
566.0,78.11,62.0
568.0,78.03,62.2
570.0,77.97,61.8
572.0,77.88,61.5
574.0,77.81,60.9
576.0,77.72,60.5
578.0,77.62,61.0
580.0,77.54,61.5
582.0,77.38,62.2
584.0,77.28,60.8
586.0,77.2,60.9
588.0,77.14,60.9
590.0,77.09,59.6
592.0,77.01,59.6
594.0,76.97,59.3
596.0,76.88,59.2
598.0,76.81,59.5
600.0,76.73,59.2
602.0,76.64,58.9
604.0,76.56,60.6
606.0,76.48,60.2
608.0,76.4,59.6
610.0,76.31,59.4
612.0,76.24,60.6
614.0,76.16,60.1
616.0,76.06,60.2
618.0,76.0,61.7
620.0,75.89,60.6
622.0,75.72,60.9
624.0,75.66,60.5
626.0,75.56,60.8
628.0,75.56,61.1
630.0,75.5,61.3
632.0,75.42,62.0
634.0,75.34,61.7
636.0,75.24,61.4
638.0,75.14,62.3
640.0,75.06,62.2
642.0,74.98,63.4
644.0,74.9,62.7
646.0,74.82,63.1
648.0,74.75,61.4
650.0,74.68,61.6
652.0,74.6,61.2
654.0,74.51,60.7
656.0,74.39,61.0
658.0,74.3,60.7
660.0,74.23,61.0
662.0,74.14,61.0
664.0,74.02,61.9
666.0,73.94,62.7
668.0,73.87,61.4
670.0,73.77,63.0
672.0,73.77,62.1
674.0,73.7,63.1
676.0,73.62,62.5
678.0,73.56,62.0
680.0,73.46,61.3
682.0,73.39,62.1
684.0,73.3,61.0
686.0,73.21,62.0
688.0,73.13,62.9
690.0,73.04,63.1
692.0,72.98,62.7
694.0,72.9,61.3
696.0,72.81,61.4
698.0,72.67,62.3
700.0,72.58,63.0
702.0,72.47,63.1
704.0,72.4,62.0
706.0,72.31,62.4
708.0,72.3,63.4
710.0,72.24,63.3
712.0,72.16,62.3
714.0,72.08,62.5
716.0,71.99,62.5
718.0,71.9,63.2
720.0,71.83,63.2
722.0,71.75,60.8
724.0,71.68,61.9
726.0,71.59,62.1
728.0,71.54,63.2
730.0,71.44,62.2
732.0,71.35,62.6
734.0,71.29,62.6
736.0,71.21,61.9
738.0,71.13,63.4
740.0,71.04,62.1
742.0,70.92,61.2
744.0,70.81,61.2
746.0,70.73,60.6
748.0,70.64,61.2
750.0,70.59,61.0
752.0,70.52,60.9
754.0,70.48,61.0
756.0,70.45,61.2
758.0,70.36,61.4
760.0,70.27,59.7
762.0,70.21,61.1
764.0,70.13,62.1
766.0,70.03,60.6
768.0,69.94,61.4
770.0,69.88,63.3
772.0,69.81,62.2
774.0,69.7,63.5
776.0,69.65,62.5
778.0,69.56,61.5
780.0,69.4,62.3
782.0,69.33,62.6
784.0,69.26,61.5
786.0,69.16,61.3
788.0,69.1,61.0
790.0,69.0,61.0
792.0,69.02,60.5
794.0,68.94,60.7
796.0,68.86,60.4
798.0,68.79,59.6
800.0,68.72,60.9
802.0,68.63,60.6
804.0,68.55,58.6
806.0,68.5,58.9
808.0,68.38,60.3
810.0,68.32,59.6
812.0,68.24,60.9
814.0,68.16,61.7
816.0,68.08,62.0
818.0,67.94,61.7
820.0,67.85,61.3
822.0,67.76,61.0
824.0,67.69,60.4
826.0,67.65,61.5
828.0,67.59,60.9
830.0,67.53,61.5
832.0,67.46,61.1
834.0,67.38,62.7
836.0,67.3,62.6
838.0,67.24,62.6
840.0,67.15,62.3
842.0,67.09,62.4
844.0,67.0,61.5
846.0,66.92,61.7
848.0,66.83,62.8
850.0,66.76,61.7
852.0,66.73,61.1
854.0,66.63,61.2
856.0,66.55,62.4
858.0,66.46,62.9
860.0,66.32,62.9
862.0,66.23,63.5
864.0,66.13,62.9
866.0,66.06,62.6
868.0,66.07,62.3
870.0,66.0,62.1
872.0,65.92,62.6
874.0,65.85,63.2
876.0,65.77,62.2
878.0,65.69,61.2
880.0,65.61,61.2
882.0,65.55,61.7
884.0,65.48,61.6
886.0,65.4,62.2
888.0,65.32,63.5
890.0,65.22,63.7
892.0,65.15,62.9
894.0,65.09,63.8
896.0,65.01,61.8
898.0,64.89,62.9
900.0,64.79,63.0
902.0,64.69,62.4
904.0,64.6,62.5
906.0,64.52,62.9
908.0,64.5,63.3
910.0,64.48,63.6
912.0,64.36,64.0
914.0,64.31,63.6
916.0,64.25,65.2
918.0,64.18,63.7
920.0,64.09,65.0
922.0,64.04,64.7
924.0,63.95,64.8
926.0,63.84,64.8
928.0,63.78,64.2
930.0,63.69,64.7
932.0,63.64,65.7
934.0,63.55,65.9
936.0,63.47,66.9
938.0,63.38,66.6
940.0,63.25,67.4
942.0,63.16,67.4
944.0,63.14,66.6
946.0,63.07,66.8
948.0,62.99,66.8
950.0,62.92,65.8
952.0,62.86,63.8
954.0,62.78,64.7
956.0,62.7,64.9
958.0,62.63,64.7
960.0,62.54,66.1
962.0,62.46,66.6
964.0,62.39,65.7
966.0,62.33,65.6
968.0,62.23,65.4
970.0,62.17,66.1
972.0,62.08,63.4
974.0,62.02,62.8
976.0,61.92,63.4
978.0,61.82,62.8
980.0,61.73,65.3
982.0,61.64,65.0
984.0,61.54,64.7
986.0,61.48,65.5
988.0,61.42,65.5
990.0,61.38,66.3
992.0,61.28,66.6
994.0,61.23,66.7
996.0,61.16,66.7
998.0,61.09,67.0
1000.0,61.01,66.4
1002.0,60.93,67.1
1004.0,60.85,65.7
1006.0,60.75,66.2
1008.0,60.68,66.8
1010.0,60.61,67.7
1012.0,60.53,67.7
1014.0,60.44,68.3
1016.0,60.35,68.3
1018.0,60.2,69.1
1020.0,60.12,68.6
1022.0,60.06,69.2
1024.0,59.99,69.2
1026.0,59.93,69.6
1028.0,59.87,69.9
1030.0,59.83,69.8
1032.0,59.73,69.1
1034.0,59.65,68.3
1036.0,59.58,68.3
1038.0,59.51,69.2
1040.0,59.43,70.0
1042.0,59.36,70.2
1044.0,59.27,70.7
1046.0,59.2,71.4
1048.0,59.12,71.8
1050.0,59.02,72.1
1052.0,58.95,70.4
1054.0,58.88,71.6
1056.0,58.79,71.9
1058.0,58.63,73.5
1060.0,58.55,72.9
1062.0,58.47,71.9
1064.0,58.38,72.1
1066.0,58.31,72.1
1068.0,58.31,72.1
1070.0,58.24,71.6
1072.0,58.17,73.0
1074.0,58.1,72.6
1076.0,58.03,73.3
1078.0,57.95,73.3
1080.0,57.88,72.0
1082.0,57.77,73.3
1084.0,57.7,72.7
1086.0,57.62,70.3
1088.0,57.54,71.4
1090.0,57.44,71.9
1092.0,57.39,72.2
1094.0,57.3,71.3
1096.0,57.23,73.5
1098.0,57.14,72.7
1100.0,57.01,72.6
1102.0,56.88,72.0
1104.0,56.8,71.0
1106.0,56.71,72.8
1108.0,56.66,72.5
1110.0,56.62,71.0
1112.0,56.55,71.1
1114.0,56.48,72.2
1116.0,56.39,72.0
1118.0,56.33,72.4
1120.0,56.24,72.0
1122.0,56.13,72.8
1124.0,56.06,73.2
1126.0,55.98,73.5
1128.0,55.9,72.7
1130.0,55.82,71.1
1132.0,55.74,71.3
1134.0,55.67,71.9
1136.0,55.57,72.8
1138.0,55.49,72.7
1140.0,55.41,73.7
1142.0,55.19,74.7
1144.0,55.12,73.6
1146.0,55.02,73.8
1148.0,54.94,75.2
1150.0,54.86,75.7
1152.0,54.83,77.2
1154.0,54.79,76.5
1156.0,54.72,77.4
1158.0,54.65,79.5
1160.0,54.55,78.1
1162.0,54.49,77.6
1164.0,54.38,77.8
1166.0,54.31,77.2
1168.0,54.2,79.7
1170.0,54.09,78.8
1172.0,54.03,79.5
1174.0,53.95,79.0
1176.0,53.84,78.6
1178.0,53.73,79.8
1180.0,53.56,80.1
1182.0,53.49,77.6
1184.0,53.42,76.7
1186.0,53.34,76.2
1188.0,53.32,76.5
1190.0,53.27,74.7
1192.0,53.18,74.1
1194.0,53.07,76.8
1196.0,52.99,77.3
1198.0,52.89,77.4
1200.0,52.83,77.2
1202.0,52.73,78.8
1204.0,52.64,79.2
1206.0,52.55,79.6
1208.0,52.47,80.2
1210.0,52.39,79.5
1212.0,52.29,80.9
1214.0,52.21,80.5
1216.0,52.09,80.1
1218.0,51.99,79.6
1220.0,51.88,78.1
1222.0,51.76,78.3
1224.0,51.68,77.0
1226.0,51.6,80.9
1228.0,51.54,81.7
1230.0,51.48,80.2
1232.0,51.4,80.4
1234.0,51.31,80.5
1236.0,51.21,79.5
1238.0,51.13,79.2
1240.0,51.04,77.4
1242.0,50.96,79.5
1244.0,50.87,78.9
1246.0,50.76,80.1
1248.0,50.67,80.0
1250.0,50.6,80.2
1252.0,50.48,79.8
1254.0,50.4,78.7
1256.0,50.33,79.5
1258.0,50.22,80.5
1260.0,50.12,79.7
1262.0,50.01,80.9
1264.0,49.9,78.7
1266.0,49.78,83.1
1268.0,49.69,81.0
1270.0,49.65,80.9
1272.0,49.57,81.8
1274.0,49.49,82.6
1276.0,49.4,82.0
1278.0,49.31,82.9
1280.0,49.22,81.7
1282.0,49.13,82.2
1284.0,49.01,82.3
1286.0,48.94,81.7
1288.0,48.86,81.6
1290.0,48.73,83.2
1292.0,48.64,83.6
1294.0,48.53,85.2
1296.0,48.48,84.2
1298.0,48.33,83.4
1300.0,48.2,83.7
1302.0,48.09,84.3
1304.0,47.97,84.0
1306.0,47.88,83.1
1308.0,47.83,83.2
1310.0,47.75,83.5
1312.0,47.67,84.8
1314.0,47.57,84.7
1316.0,47.48,86.6
1318.0,47.38,85.3
1320.0,47.29,84.3
1322.0,47.2,84.0
1324.0,47.08,85.3
1326.0,47.01,85.8
1328.0,46.92,84.4
1330.0,46.82,86.2
1332.0,46.71,86.3
1334.0,46.63,85.4
1336.0,46.51,86.6
1338.0,46.32,85.8
1340.0,46.19,87.1
1342.0,46.12,86.6
1344.0,46.05,85.9
1346.0,46.01,85.8
1348.0,45.96,86.7
1350.0,45.85,86.5
1352.0,45.72,86.8
1354.0,45.62,88.1
1356.0,45.54,88.1
1358.0,45.44,87.8
1360.0,45.31,88.9
1362.0,45.22,90.4
1364.0,45.13,88.9
1366.0,45.02,89.7
1368.0,44.93,89.8
1370.0,44.83,89.5
1372.0,44.72,87.6
1374.0,44.62,90.2
1376.0,44.51,90.4
1378.0,44.37,89.4
1380.0,44.21,88.8
1382.0,44.12,87.0
1384.0,44.01,88.4
1386.0,43.94,89.9
1388.0,43.89,89.3
1390.0,43.78,88.5
1392.0,43.7,89.0
1394.0,43.59,88.4
1396.0,43.49,91.7
1398.0,43.38,90.3
1400.0,43.26,91.4
1402.0,43.16,92.6
1404.0,43.07,93.6
1406.0,42.99,95.6
1408.0,42.84,96.0
1410.0,42.83,94.8
1412.0,42.65,94.1
1414.0,42.6,93.4
1416.0,42.44,93.4
1418.0,42.29,92.5
1420.0,42.15,90.7
1422.0,42.04,92.0
1424.0,41.96,92.2
1426.0,41.88,93.5
1428.0,41.77,94.8
1430.0,41.7,92.8
1432.0,41.6,92.4
1434.0,41.48,93.4
1436.0,41.37,94.5
1438.0,41.27,92.2
1440.0,41.17,95.5
1442.0,41.06,94.1
1444.0,40.95,95.9
1446.0,40.85,94.2
1448.0,40.75,95.7
1450.0,40.64,94.1
1452.0,40.53,94.5
1454.0,40.44,94.7
1456.0,40.33,94.2
1458.0,40.13,95.2
1460.0,39.99,93.4
1462.0,39.93,95.5
1464.0,39.85,96.2
1466.0,39.75,94.7
1468.0,39.67,94.8
1470.0,39.56,93.1
1472.0,39.46,94.6
1474.0,39.36,95.5
1476.0,39.26,95.0
1478.0,39.14,94.5
1480.0,39.02,96.3
1482.0,38.92,94.4
1484.0,38.8,96.3
1486.0,38.69,95.4
1488.0,38.58,94.6
1490.0,38.46,95.6
1492.0,38.35,94.1
1494.0,38.28,92.4
1496.0,38.13,93.4
1498.0,37.98,94.6
1500.0,37.86,92.6
1502.0,37.75,93.9
1504.0,37.48,94.6
1506.0,37.49,95.2
1508.0,37.5,97.1
1510.0,37.43,95.4
1512.0,37.24,93.7
1514.0,37.19,95.4
1516.0,37.07,96.1
1518.0,36.95,96.5
1520.0,36.87,96.1
1522.0,36.73,93.5
1524.0,36.63,96.9
1526.0,36.52,96.6
1528.0,36.4,97.2
1530.0,36.3,96.1
1532.0,36.19,97.5
1534.0,36.08,98.5
1536.0,35.96,98.3
1538.0,35.84,99.6
1540.0,35.73,101.4
1542.0,35.54,104.9
1544.0,35.42,104.2
1546.0,35.3,103.4
1548.0,35.23,102.8
1550.0,35.19,104.9
1552.0,35.09,102.0
1554.0,34.97,102.0
1556.0,34.85,101.7
1558.0,34.75,100.6
1560.0,34.65,99.5
1562.0,34.54,100.0
1564.0,34.44,99.1
1566.0,34.3,97.7
1568.0,34.25,99.6
1570.0,34.13,98.2
1572.0,33.98,99.5
1574.0,33.85,100.2
1576.0,33.73,99.2
1578.0,33.6,97.4
1580.0,33.47,101.0
1582.0,33.33,100.4
1584.0,33.19,102.7
1586.0,33.07,102.2
1588.0,32.99,101.3
1590.0,32.93,103.1
1592.0,32.85,103.6
1594.0,32.7,102.1
1596.0,32.63,100.0
1598.0,32.52,103.1
1600.0,32.39,100.8
1602.0,32.26,99.8
1604.0,32.17,100.0
1606.0,32.03,101.5
1608.0,31.93,101.5
1610.0,31.81,104.5
1612.0,31.7,103.2
1614.0,31.57,104.1
1616.0,31.46,105.8
1618.0,31.35,107.2
1620.0,31.15,108.0
1622.0,31.02,105.2
1624.0,30.87,105.7
1626.0,30.76,105.7
1628.0,30.73,105.2
1630.0,30.65,106.0
1632.0,30.52,105.8
1634.0,30.41,106.2
1636.0,30.28,105.2
1638.0,30.15,106.9
1640.0,30.08,108.2
1642.0,29.95,108.4
1644.0,29.84,107.3
1646.0,29.72,108.1
1648.0,29.62,107.8
1650.0,29.49,105.7
1652.0,29.38,103.6
1654.0,29.28,103.0
1656.0,29.14,101.2
1658.0,29.06,101.4
1660.0,28.82,103.6
1662.0,28.73,101.8
1664.0,28.6,102.8
1666.0,28.5,104.4
1668.0,28.43,103.6
1670.0,28.36,102.1
1672.0,28.25,103.9
1674.0,28.13,103.5
1676.0,28.03,103.5
1678.0,27.92,102.5
1680.0,27.8,102.9
1682.0,27.7,103.2
1684.0,27.6,103.7
1686.0,27.49,102.7
1688.0,27.38,103.0
1690.0,27.26,102.2
1692.0,27.16,102.7
1694.0,27.05,101.8
1696.0,26.93,102.0
1698.0,26.79,101.2
1700.0,26.65,102.1
1702.0,26.53,100.6
1704.0,26.42,100.8
1706.0,26.38,100.0
1708.0,26.28,99.3
1710.0,26.22,100.5
1712.0,26.1,98.7
1714.0,25.98,97.5
1716.0,25.88,98.9
1718.0,25.77,98.5
1720.0,25.66,98.8
1722.0,25.55,97.1
1724.0,25.45,97.5
1726.0,25.33,98.9
1728.0,25.23,100.8
1730.0,25.14,102.2
1732.0,25.03,106.9
1734.0,24.93,107.3
1736.0,24.87,107.2
1738.0,24.72,107.5
1740.0,24.61,108.6
1742.0,24.43,105.2
1744.0,24.28,104.5
1746.0,24.17,103.8
1748.0,24.06,103.3
1750.0,23.96,105.0
1752.0,23.95,103.3
1754.0,23.86,103.7
1756.0,23.76,102.0
1758.0,23.65,100.1
1760.0,23.54,100.9
1762.0,23.44,98.3
1764.0,23.33,97.5
1766.0,23.22,98.5
1768.0,23.17,97.4
1770.0,23.04,97.5
1772.0,22.93,93.2
1774.0,22.87,94.6
1776.0,22.76,93.3
1778.0,22.65,94.7
1780.0,22.55,93.5
1782.0,22.45,92.2
1784.0,22.36,92.0
1786.0,22.21,94.0
1788.0,22.09,93.4
1790.0,22.03,93.4
1792.0,21.93,93.1
1794.0,21.96,90.6
1796.0,21.85,89.4
1798.0,21.74,89.2
1800.0,21.67,88.6
1802.0,21.61,86.6
1804.0,21.52,86.7
1806.0,21.45,86.0
1808.0,21.35,85.2
1810.0,21.29,83.2
1812.0,21.21,81.2
1814.0,21.11,82.3
1816.0,21.05,82.1
1818.0,20.98,80.9
1820.0,20.91,79.4
1822.0,20.8,81.1
1824.0,20.66,78.6
1826.0,20.57,79.7
1828.0,20.51,77.0
1830.0,20.44,74.2
1832.0,20.38,76.5
1834.0,20.33,74.0
1836.0,20.3,74.3
1838.0,20.21,73.7
1840.0,20.15,71.2
1842.0,20.12,71.4
1844.0,20.03,71.1
1846.0,19.95,69.6
1848.0,19.91,69.0
1850.0,19.84,66.9
1852.0,19.77,66.7
1854.0,19.73,66.4
1856.0,19.67,65.4
1858.0,19.56,67.9
1860.0,19.45,65.9
1862.0,19.35,66.6
1864.0,19.29,66.7
1866.0,19.29,65.4
1868.0,19.29,64.0
1870.0,19.23,63.8
1872.0,19.19,63.4
1874.0,19.12,63.3
1876.0,19.06,62.6
1878.0,19.0,62.9
1880.0,18.94,62.7
1882.0,18.88,62.3
1884.0,18.82,60.9
1886.0,18.77,59.8
1888.0,18.74,58.8
1890.0,18.69,57.2
1892.0,18.64,55.7
1894.0,18.6,55.3
1896.0,18.54,55.4
1898.0,18.5,55.3
1900.0,18.36,55.7
1902.0,18.3,55.2
1904.0,18.24,55.2
1906.0,18.2,55.2
1908.0,18.16,53.5
1910.0,18.2,52.6
1912.0,18.18,51.3
1914.0,18.16,50.1
1916.0,18.1,48.4
1918.0,18.07,47.7
1920.0,18.02,46.8
1922.0,17.97,46.7
1924.0,17.94,45.5
1926.0,17.9,45.5
1928.0,17.88,44.1
1930.0,17.83,44.4
1932.0,17.79,43.2
1934.0,17.76,42.2
1936.0,17.73,41.0
1938.0,17.7,41.1
1940.0,17.66,40.8
1942.0,17.65,40.4
1944.0,17.51,41.3
1946.0,17.47,39.0
1948.0,17.44,39.0
1950.0,17.42,37.6
1952.0,17.38,36.5
1954.0,17.43,36.2
1956.0,17.4,36.4
1958.0,17.39,36.2
1960.0,17.36,35.6
1962.0,17.33,35.0
1964.0,17.31,34.0
1966.0,17.27,33.4
1968.0,17.24,32.8
1970.0,17.21,32.4
1972.0,17.17,32.3
1974.0,17.16,33.2
1976.0,17.14,32.6
1978.0,17.11,32.1
1980.0,17.09,32.0
1982.0,17.05,32.3
1984.0,16.95,32.0
1986.0,16.92,32.2
1988.0,16.91,32.6
1990.0,16.94,33.0
1992.0,16.94,33.4
1994.0,16.94,33.7
1996.0,16.9,33.2
1998.0,16.88,34.4
2000.0,16.87,33.8
2002.0,16.86,33.4
2004.0,16.84,33.3
2006.0,16.82,33.3
2008.0,16.78,33.2
2010.0,16.78,33.5
2012.0,16.75,33.3
2014.0,16.73,32.0
2016.0,16.7,30.7
2018.0,16.68,29.8
2020.0,16.64,29.0
2022.0,16.59,28.0
2024.0,16.55,27.0
2026.0,16.49,26.4
2028.0,16.49,26.2
2030.0,16.49,26.0
2032.0,16.49,26.2
2034.0,16.53,26.3
2036.0,16.51,26.8
2038.0,16.48,27.3
2040.0,16.47,27.7
2042.0,16.45,27.4
2044.0,16.43,28.4
2046.0,16.4,28.1
2048.0,16.37,28.0
2050.0,16.37,28.7
2052.0,16.34,27.7
2054.0,16.32,27.3
2056.0,16.31,28.1
2058.0,16.27,28.1
2060.0,16.23,28.3
2062.0,16.19,28.5
2064.0,16.14,27.7
2066.0,16.15,27.7
2068.0,16.17,27.1
2070.0,16.15,26.1
2072.0,16.15,25.8
2074.0,16.15,24.9
2076.0,16.14,23.9
2078.0,16.11,24.3
2080.0,16.11,23.8
2082.0,16.1,23.7
2084.0,16.09,23.8
2086.0,16.07,23.7
2088.0,16.04,23.1
2090.0,16.02,22.9
2092.0,16.01,23.1
2094.0,15.99,23.9
2096.0,15.96,22.9
2098.0,15.89,23.0
2100.0,15.87,23.0
2102.0,15.83,22.7
2104.0,15.81,22.6
2106.0,15.85,21.8
2108.0,15.84,21.8
2110.0,15.84,22.0
2112.0,15.83,22.2
2114.0,15.81,22.9
2116.0,15.8,22.9
2118.0,15.77,23.0
2120.0,15.76,23.0
2122.0,15.76,23.0
2124.0,15.74,22.9
2126.0,15.72,23.1
2128.0,15.71,23.4
2130.0,15.69,23.5
2132.0,15.67,23.5
2134.0,15.65,23.1
2136.0,15.63,22.4
2138.0,15.62,22.9
2140.0,15.56,22.8
2142.0,15.48,22.8
2144.0,15.47,22.7
2146.0,15.46,22.4
2148.0,15.47,22.1
2150.0,15.52,21.9
2152.0,15.51,21.9
2154.0,15.49,22.6
2156.0,15.46,22.0
2158.0,15.45,21.8
2160.0,15.45,21.5
2162.0,15.42,21.9
2164.0,15.41,21.5
2166.0,15.41,21.1
2168.0,15.39,20.7
2170.0,15.39,20.6