File: Wood/Calibration_Data/FSRI/FSRI_Wood_Parallel_Cone_50kW_hor_R1.csv
Time,Mass (g),HRRPUA (kW/m2)
0.0,96.91,1.3
2.0,95.76,1.7
4.0,94.61,1.8
6.0,95.52,3.1
8.0,94.84,5.7
10.0,95.09,6.8
12.0,94.76,7.3
14.0,94.53,6.6
16.0,94.39,5.9
18.0,93.96,5.8
20.0,93.84,9.8
22.0,93.52,31.2
24.0,93.32,67.7
26.0,93.05,107.6
28.0,92.85,149.2
30.0,92.7,170.8
32.0,92.42,182.7
34.0,92.21,196.7
36.0,92.0,202.9
38.0,91.77,201.4
40.0,91.57,203.8
42.0,91.35,202.6
44.0,91.12,193.7
46.0,90.91,196.4
48.0,90.7,191.9
50.0,90.53,188.2
52.0,90.3,181.6
54.0,90.03,179.8
56.0,89.84,173.8
58.0,89.66,167.8
60.0,89.46,168.0
62.0,89.28,170.3
64.0,89.09,166.0
66.0,88.89,167.4
68.0,88.77,160.8
70.0,88.63,158.6
72.0,88.47,158.3
74.0,88.29,154.6
76.0,88.14,153.3
78.0,87.97,147.8
80.0,87.82,146.3
82.0,87.65,142.3
84.0,87.5,141.2
86.0,87.31,137.3
88.0,87.16,134.8
90.0,87.01,132.6
92.0,86.84,129.2
94.0,86.65,130.3
96.0,86.49,129.1
98.0,86.3,122.8
100.0,86.15,127.1
102.0,86.0,123.7
104.0,85.86,124.5
106.0,85.69,124.1
108.0,85.59,125.0
110.0,85.44,124.1
112.0,85.32,122.6
114.0,85.19,121.5
116.0,85.05,123.4
118.0,84.9,122.1
120.0,84.76,121.0
122.0,84.62,117.6
124.0,84.49,118.5
126.0,84.35,118.5
128.0,84.22,117.3
130.0,84.08,114.7
132.0,83.87,117.6
134.0,83.7,118.3
136.0,83.57,117.5
138.0,83.43,115.2
140.0,83.27,115.8
142.0,83.15,114.0
144.0,83.02,114.1
146.0,82.91,111.3
148.0,82.8,112.5
150.0,82.69,112.8
152.0,82.54,113.6
154.0,82.38,111.2
156.0,82.26,108.9
158.0,82.13,111.5
160.0,81.99,109.7
162.0,81.86,109.3
164.0,81.73,109.0
166.0,81.62,108.1
168.0,81.42,106.8
170.0,81.28,106.7
172.0,81.13,105.9
174.0,81.03,105.7
176.0,80.93,105.2
178.0,80.79,104.5
180.0,80.64,101.9
182.0,80.51,101.6
184.0,80.39,101.3
186.0,80.37,101.9
188.0,80.25,102.0
190.0,80.08,100.8
192.0,79.98,98.5
194.0,79.84,102.0
196.0,79.75,101.2
198.0,79.6,99.6
200.0,79.48,100.2
202.0,79.37,98.8
204.0,79.25,99.2
206.0,79.11,99.1
208.0,78.96,96.8
210.0,78.78,99.2
212.0,78.66,96.5
214.0,78.55,96.4
216.0,78.41,97.0
218.0,78.3,97.6
220.0,78.17,97.5
222.0,78.08,99.8
224.0,77.98,95.2
226.0,77.89,96.2
228.0,77.79,97.4
230.0,77.67,97.0
232.0,77.55,96.7
234.0,77.43,97.3
236.0,77.32,97.9
238.0,77.2,98.7
240.0,77.06,97.3
242.0,76.94,100.4
244.0,76.78,98.4
246.0,76.64,97.0
248.0,76.51,98.2
250.0,76.39,98.3
252.0,76.24,98.5
254.0,76.11,97.8
256.0,76.02,94.5
258.0,75.9,95.6
260.0,75.8,95.5
262.0,75.71,94.0
264.0,75.61,95.2
266.0,75.51,92.5
268.0,75.42,94.1
270.0,75.29,94.6
272.0,75.16,93.7
274.0,75.04,95.3
276.0,74.91,95.4
278.0,74.81,93.8
280.0,74.7,95.1
282.0,74.58,95.0
284.0,74.46,95.3
286.0,74.34,92.1
288.0,74.23,94.1
290.0,74.07,92.3
292.0,73.93,90.7
294.0,73.83,93.2
296.0,73.71,91.5
298.0,73.58,91.7
300.0,73.46,90.9
302.0,73.34,90.4
304.0,73.24,90.9
306.0,73.18,89.6
308.0,73.11,91.2
310.0,72.99,90.1
312.0,72.87,92.4
314.0,72.76,91.0
316.0,72.63,89.2
318.0,72.53,90.0
320.0,72.42,92.0
322.0,72.3,91.4
324.0,72.19,89.4
326.0,72.05,91.2
328.0,71.9,90.1
330.0,71.78,89.8
332.0,71.64,89.7
334.0,71.54,87.9
336.0,71.43,88.7
338.0,71.31,88.1
340.0,71.23,88.8
342.0,71.1,88.8
344.0,71.04,86.9
346.0,70.95,88.7
348.0,70.84,88.4
350.0,70.72,87.8
352.0,70.62,87.1
354.0,70.52,87.4
356.0,70.41,88.3
358.0,70.29,87.3
360.0,70.17,86.8
362.0,70.09,84.1
364.0,69.9,85.3
366.0,69.81,85.1
368.0,69.64,87.0
370.0,69.66,86.2
372.0,69.42,85.1
374.0,69.34,85.0
376.0,69.26,85.3
378.0,69.15,82.2
380.0,69.07,83.1
382.0,68.99,84.3
384.0,68.89,86.4
386.0,68.75,87.6
388.0,68.63,87.1
390.0,68.54,86.4
392.0,68.45,86.0
394.0,68.34,86.0
396.0,68.25,86.0
398.0,68.12,86.1
400.0,68.01,84.0
402.0,67.9,86.4
404.0,67.8,86.2
406.0,67.59,87.1
408.0,67.46,84.3
410.0,67.37,85.0
412.0,67.26,84.4
414.0,67.15,85.7
416.0,67.03,86.2
418.0,66.97,87.4
420.0,66.91,84.7
422.0,66.81,86.8
424.0,66.71,84.6
426.0,66.62,84.8
428.0,66.5,83.4
430.0,66.38,84.9
432.0,66.29,86.1
434.0,66.2,84.2
436.0,66.08,85.9
438.0,65.96,85.1
440.0,65.86,86.0
442.0,65.75,83.2
444.0,65.63,84.9
446.0,65.52,84.4
448.0,65.31,84.0
450.0,65.21,85.0
452.0,65.08,82.7
454.0,65.0,84.5
456.0,64.9,84.4
458.0,64.81,83.2
460.0,64.7,83.6
462.0,64.65,83.1
464.0,64.56,84.1
466.0,64.46,83.0
468.0,64.36,82.7
470.0,64.27,83.4
472.0,64.15,83.1
474.0,64.06,84.1
476.0,63.95,84.4
478.0,63.84,84.1
480.0,63.73,84.4
482.0,63.63,83.3
484.0,63.51,83.6
486.0,63.42,82.8
488.0,63.3,83.1
490.0,63.17,81.2
492.0,63.03,82.9
494.0,62.9,82.8
496.0,62.77,83.2
498.0,62.67,83.1
500.0,62.58,84.3
502.0,62.51,83.3
504.0,62.35,84.8
506.0,62.27,85.0
508.0,62.21,84.5
510.0,62.12,83.4
512.0,62.02,86.6
514.0,61.89,85.2
516.0,61.79,84.8
518.0,61.68,82.6
520.0,61.57,84.7
522.0,61.49,85.5
524.0,61.36,85.8
526.0,61.23,84.9
528.0,61.12,85.9
530.0,61.01,86.2
532.0,60.84,84.7
534.0,60.73,87.0
536.0,60.61,86.2
538.0,60.5,85.3
540.0,60.41,84.4
542.0,60.31,84.5
544.0,60.23,83.8
546.0,60.14,84.2
548.0,60.06,85.1
550.0,59.97,83.7
552.0,59.87,85.3
554.0,59.76,83.2
556.0,59.66,84.1
558.0,59.55,83.0
560.0,59.43,82.2
562.0,59.34,81.7
564.0,59.24,82.0
566.0,59.07,83.2
568.0,58.94,81.3
570.0,58.81,81.5
572.0,58.69,81.6
574.0,58.59,81.3
576.0,58.49,79.7
578.0,58.38,81.5
580.0,58.29,83.0
582.0,58.18,80.2
584.0,58.13,81.9
586.0,58.04,80.6
588.0,57.94,81.8
590.0,57.83,82.2
592.0,57.72,81.4
594.0,57.62,82.8
596.0,57.53,83.4
598.0,57.42,84.0
600.0,57.31,84.1
602.0,57.2,85.0
604.0,57.09,83.7
606.0,56.95,84.3
608.0,56.85,84.1
610.0,56.67,83.5
612.0,56.57,83.8
614.0,56.46,81.9
616.0,56.36,81.2
618.0,56.26,82.4
620.0,56.17,81.5
622.0,56.07,81.8
624.0,55.95,82.6
626.0,55.86,83.0
628.0,55.81,84.1
630.0,55.71,82.3
632.0,55.59,83.7
634.0,55.51,83.2
636.0,55.4,83.6
638.0,55.28,83.9
640.0,55.19,84.3
642.0,55.09,83.8
644.0,54.99,83.1
646.0,54.89,85.5
648.0,54.79,84.7
650.0,54.66,82.5
652.0,54.56,84.4
654.0,54.44,84.2
656.0,54.26,84.5
658.0,54.16,82.7
660.0,54.06,83.4
662.0,53.92,82.6
664.0,53.82,85.2
666.0,53.73,85.3
668.0,53.64,84.7
670.0,53.55,83.9
672.0,53.45,83.9
674.0,53.37,82.8
676.0,53.28,82.0
678.0,53.16,83.1
680.0,53.06,83.1
682.0,52.95,85.0
684.0,52.85,84.7
686.0,52.75,83.4
688.0,52.64,84.0
690.0,52.53,85.6
692.0,52.39,86.3
694.0,52.27,87.4
696.0,52.13,87.6
698.0,52.01,87.1
700.0,51.92,86.1
702.0,51.81,87.8
704.0,51.68,86.9
706.0,51.59,85.8
708.0,51.5,86.2
710.0,51.39,86.2
712.0,51.37,86.3
714.0,51.25,86.0
716.0,51.17,86.9
718.0,51.07,87.6
720.0,50.95,87.3
722.0,50.83,87.3
724.0,50.75,86.4
726.0,50.63,86.5
728.0,50.53,88.0
730.0,50.41,85.9
732.0,50.29,86.8
734.0,50.19,87.0
736.0,50.07,87.1
738.0,49.93,88.0
740.0,49.8,86.7
742.0,49.69,85.7
744.0,49.55,88.1
746.0,49.47,87.8
748.0,49.35,87.5
750.0,49.29,88.0
752.0,49.24,88.6
754.0,49.15,87.0
756.0,49.02,86.9
758.0,48.96,87.1
760.0,48.85,85.7
762.0,48.73,87.4
764.0,48.63,86.8
766.0,48.53,86.9
768.0,48.42,87.9
770.0,48.32,87.3
772.0,48.21,87.4
774.0,48.12,89.0
776.0,47.98,87.9
778.0,47.86,88.4
780.0,47.7,85.7
782.0,47.61,87.5
784.0,47.48,85.7
786.0,47.38,86.1
788.0,47.29,86.0
790.0,47.16,85.7
792.0,47.07,85.9
794.0,47.0,87.7
796.0,46.9,88.7
798.0,46.81,86.5
800.0,46.73,87.1
802.0,46.62,87.4
804.0,46.52,88.5
806.0,46.41,87.7
808.0,46.3,87.1
810.0,46.19,86.6
812.0,46.07,87.6
814.0,45.98,89.4
816.0,45.83,88.9
818.0,45.68,89.6
820.0,45.55,89.0
822.0,45.45,88.2
824.0,45.33,88.2
826.0,45.26,89.4
828.0,45.14,89.6
830.0,45.06,89.2
832.0,44.98,91.4
834.0,44.9,88.6
836.0,44.81,89.7
838.0,44.69,90.7
840.0,44.6,89.6
842.0,44.5,90.9
844.0,44.37,90.6
846.0,44.27,90.2
848.0,44.17,90.8
850.0,44.06,89.7
852.0,43.95,89.9
854.0,43.85,91.4
856.0,43.67,88.6
858.0,43.54,88.8
860.0,43.45,88.0
862.0,43.31,89.4
864.0,43.22,89.8
866.0,43.1,92.3
868.0,43.03,88.3
870.0,42.94,89.9
872.0,42.83,88.9
874.0,42.76,88.6
876.0,42.68,90.7
878.0,42.59,89.7
880.0,42.46,89.6
882.0,42.37,91.3
884.0,42.27,92.0
886.0,42.16,89.8
888.0,42.03,90.2
890.0,41.92,90.6
892.0,41.83,91.9
894.0,41.73,91.6
896.0,41.51,91.1
898.0,41.38,92.0
900.0,41.3,93.2
902.0,41.18,94.4
904.0,41.06,95.2
906.0,40.97,95.8
908.0,40.88,93.6
910.0,40.75,93.9
912.0,40.75,93.6
914.0,40.63,93.8
916.0,40.52,95.6
918.0,40.4,94.0
920.0,40.29,95.2
922.0,40.16,94.3
924.0,40.08,94.5
926.0,39.98,92.6
928.0,39.87,93.4
930.0,39.75,93.6
932.0,39.64,93.1
934.0,39.49,92.3
936.0,39.39,92.6
938.0,39.23,94.3
940.0,39.13,91.7
942.0,39.0,91.8
944.0,38.89,92.1
946.0,38.79,93.9
948.0,38.67,94.2
950.0,38.58,93.9
952.0,38.49,93.8
954.0,38.42,95.8
956.0,38.32,97.6
958.0,38.22,97.4
960.0,38.12,96.7
962.0,37.97,96.6
964.0,37.86,97.9
966.0,37.73,94.6
968.0,37.66,95.9
970.0,37.52,96.4
972.0,37.43,96.5
974.0,37.3,97.2
976.0,37.17,99.2
978.0,37.07,99.4
980.0,36.87,99.6
982.0,36.76,101.2
984.0,36.64,98.4
986.0,36.54,98.1
988.0,36.41,99.4
990.0,36.3,98.4
992.0,36.19,98.6
994.0,36.12,98.0
996.0,36.03,97.0
998.0,35.95,97.7
1000.0,35.82,97.9
1002.0,35.72,98.9
1004.0,35.61,98.5
1006.0,35.51,99.3
1008.0,35.36,98.7
1010.0,35.24,100.0
1012.0,35.12,98.7
1014.0,35.04,100.2
1016.0,34.88,99.4
1018.0,34.74,100.5
1020.0,34.58,102.7
1022.0,34.47,101.7
1024.0,34.36,101.9
1026.0,34.26,101.3
1028.0,34.06,101.6
1030.0,33.98,100.5
1032.0,33.89,102.8
1034.0,33.74,101.1
1036.0,33.72,102.2
1038.0,33.55,101.3
1040.0,33.51,102.2
1042.0,33.37,102.0
1044.0,33.23,101.2
1046.0,33.14,102.5
1048.0,33.04,103.2
1050.0,32.9,104.3
1052.0,32.79,105.2
1054.0,32.64,106.2
1056.0,32.55,107.2
1058.0,32.44,104.7
1060.0,32.21,106.7
1062.0,32.08,106.8
1064.0,31.95,107.0
1066.0,31.86,106.9
1068.0,31.74,107.2
1070.0,31.6,105.5
1072.0,31.5,106.1
1074.0,31.38,108.1
1076.0,31.28,107.7
1078.0,31.17,107.0
1080.0,31.09,107.4
1082.0,30.96,106.9
1084.0,30.86,108.0
1086.0,30.75,108.1
1088.0,30.63,107.5
1090.0,30.49,107.9
1092.0,30.38,107.5
1094.0,30.23,107.0
1096.0,30.1,106.8
1098.0,29.96,106.5
1100.0,29.78,105.0
1102.0,29.64,106.8
1104.0,29.53,106.9
1106.0,29.39,106.8
1108.0,29.27,106.7
1110.0,29.17,109.0
1112.0,29.06,108.6
1114.0,28.94,110.5
1116.0,28.86,108.5
1118.0,28.74,110.9
1120.0,28.61,109.5
1122.0,28.49,111.6
1124.0,28.34,108.9
1126.0,28.23,110.4
1128.0,28.08,111.9
1130.0,27.97,110.3
1132.0,27.85,109.9
1134.0,27.68,109.6
1136.0,27.56,112.0
1138.0,27.4,111.2
1140.0,27.27,111.5
1142.0,27.13,113.2
1144.0,27.01,114.5
1146.0,26.88,114.8
1148.0,26.75,113.3
1150.0,26.62,113.1
1152.0,26.48,112.7
1154.0,26.44,115.0
1156.0,26.31,114.0
1158.0,26.21,116.1
1160.0,26.05,113.9
1162.0,25.94,114.0
1164.0,25.83,113.7
1166.0,25.69,113.0
1168.0,25.55,114.6
1170.0,25.44,110.9
1172.0,25.32,112.6
1174.0,25.17,112.8
1176.0,25.01,113.2
1178.0,24.89,113.8
1180.0,24.69,110.4
1182.0,24.55,112.6
1184.0,24.44,113.9
1186.0,24.3,113.1
1188.0,24.21,113.6
1190.0,24.06,113.3
1192.0,23.93,114.8
1194.0,23.85,112.7
1196.0,23.72,113.4
1198.0,23.63,111.9
1200.0,23.5,114.1
1202.0,23.35,112.9
1204.0,23.24,114.4
1206.0,23.11,112.1
1208.0,22.99,113.3
1210.0,22.88,113.3
1212.0,22.74,117.4
1214.0,22.61,115.8
1216.0,22.48,116.0
1218.0,22.31,113.5
1220.0,22.19,115.8
1222.0,22.06,114.1
1224.0,21.93,114.2
1226.0,21.77,113.5
1228.0,21.65,113.5
1230.0,21.56,113.3
1232.0,21.51,112.9
1234.0,21.34,110.3
1236.0,21.24,111.0
1238.0,21.12,112.8
1240.0,21.0,110.8
1242.0,20.87,110.1
1244.0,20.75,111.6
1246.0,20.64,112.0
1248.0,20.5,110.5
1250.0,20.38,111.6
1252.0,20.26,113.4
1254.0,20.12,111.6
1256.0,20.0,111.9
1258.0,19.82,111.2
1260.0,19.7,111.5
1262.0,19.58,112.7
1264.0,19.43,111.3
1266.0,19.35,110.2
1268.0,19.26,110.6
1270.0,19.17,109.9
1272.0,19.06,108.8
1274.0,18.97,109.8
1276.0,18.85,107.2
1278.0,18.72,109.2
1280.0,18.62,107.9
1282.0,18.52,107.7
1284.0,18.42,107.9
1286.0,18.29,107.2
1288.0,18.17,107.2
1290.0,18.04,108.0
1292.0,17.9,110.4
1294.0,17.8,109.4
1296.0,17.67,108.7
1298.0,17.55,107.3
1300.0,17.45,104.7
1302.0,17.33,103.1
1304.0,17.24,104.2
1306.0,17.16,102.0
1308.0,17.09,102.0
1310.0,16.99,100.6
1312.0,16.91,102.0
1314.0,16.85,101.9
1316.0,16.74,100.3
1318.0,16.63,99.8
1320.0,16.53,99.4
1322.0,16.45,98.0
1324.0,16.37,98.5
1326.0,16.26,98.7
1328.0,16.13,97.3
1330.0,16.02,97.2
1332.0,15.91,94.5
1334.0,15.84,92.3
1336.0,15.73,92.6
1338.0,15.64,93.2
1340.0,15.56,91.0
1342.0,15.47,91.3
1344.0,15.39,91.0
1346.0,15.3,89.0
1348.0,15.29,88.1
1350.0,15.27,87.0
1352.0,15.2,86.1
1354.0,15.1,83.8
1356.0,15.06,85.0
1358.0,14.96,84.1
1360.0,14.88,81.8
1362.0,14.82,81.9
1364.0,14.76,80.8
1366.0,14.7,80.1
1368.0,14.65,79.4
1370.0,14.58,78.3
1372.0,14.49,77.3
1374.0,14.33,75.8
1376.0,14.3,75.3
1378.0,14.23,74.3
1380.0,14.17,72.7
1382.0,14.1,70.4
1384.0,14.05,69.0
1386.0,14.0,68.5
1388.0,13.95,68.3
1390.0,13.96,68.2
1392.0,13.9,66.5
1394.0,13.89,66.3
1396.0,13.88,65.2
1398.0,13.81,62.6
1400.0,13.78,62.2
1402.0,13.73,61.7
1404.0,13.69,59.9
1406.0,13.65,58.9
1408.0,13.64,57.4
1410.0,13.6,56.2
1412.0,13.51,55.1
1414.0,13.44,55.0
1416.0,13.4,54.3
1418.0,13.34,54.0
1420.0,13.3,53.2
1422.0,13.26,51.4
1424.0,13.24,50.3
1426.0,13.24,50.0
1428.0,13.23,49.1
1430.0,13.22,49.0
1432.0,13.2,49.3
1434.0,13.19,47.9
1436.0,13.17,47.8
1438.0,13.13,46.7
1440.0,13.13,45.7
1442.0,13.09,45.5
1444.0,13.06,45.1
1446.0,13.03,43.9
1448.0,12.99,43.1
1450.0,12.96,41.8
1452.0,12.84,40.5
1454.0,12.8,41.0
1456.0,12.78,39.7
1458.0,12.74,40.2
1460.0,12.72,39.2
1462.0,12.7,38.6
1464.0,12.66,37.6
1466.0,12.68,37.4
1468.0,12.66,36.3
1470.0,12.73,37.5
1472.0,12.67,38.2
1474.0,12.66,38.3
1476.0,12.62,38.2
1478.0,12.6,38.3
1480.0,12.6,37.8
1482.0,12.55,37.7
1484.0,12.54,37.8
1486.0,12.51,37.5
1488.0,12.41,37.7
1490.0,12.37,37.8
1492.0,12.37,37.0
1494.0,12.34,37.5
1496.0,12.34,37.1
1498.0,12.33,36.6
1500.0,12.34,35.9
1502.0,12.33,35.9
1504.0,12.31,35.5
1506.0,12.31,35.6
1508.0,12.27,36.4
1510.0,12.26,36.4
1512.0,12.24,36.6
1514.0,12.21,36.8
1516.0,12.21,36.3
1518.0,12.17,35.9
1520.0,12.12,36.4
1522.0,12.06,36.6
1524.0,12.03,37.5
1526.0,12.0,38.1
1528.0,11.96,37.6
1530.0,11.94,37.3
1532.0,11.9,38.0
1534.0,11.91,38.2
1536.0,11.89,38.6
1538.0,11.91,37.3
1540.0,11.92,38.4
1542.0,11.91,39.2
1544.0,11.87,38.5
1546.0,11.85,37.5
1548.0,11.83,37.5
1550.0,11.8,38.6
1552.0,11.77,38.4
1554.0,11.76,38.7
1556.0,11.76,37.7
1558.0,11.72,37.7
1560.0,11.64,37.6
1562.0,11.61,37.9
1564.0,11.57,38.5
1566.0,11.56,37.3
1568.0,11.53,37.0
1570.0,11.52,36.9
1572.0,11.49,36.7
1574.0,11.47,36.5
1576.0,11.45,35.5
1578.0,11.53,36.2
1580.0,11.51,35.8