File: Wood/Calibration_Data/FSRI/FSRI_Wood_Parallel_Cone_25kW_hor_R1.csv
Time,Mass (g),HRRPUA (kW/m2)
0.0,86.22,1.4
2.0,86.59,2.3
4.0,86.5,3.2
6.0,86.51,5.3
8.0,86.49,8.0
10.0,86.49,9.3
12.0,86.46,9.5
14.0,86.38,9.1
16.0,86.36,9.1
18.0,86.34,9.3
20.0,86.32,9.8
22.0,86.32,10.0
24.0,86.3,8.7
26.0,86.34,7.8
28.0,86.31,5.9
30.0,86.29,4.1
32.0,86.27,2.4
34.0,86.25,1.1
36.0,86.24,0.2
38.0,86.22,-0.2
40.0,86.21,-0.4
42.0,86.18,-0.5
44.0,86.16,-0.5
46.0,86.15,-0.6
48.0,86.13,-0.9
50.0,86.11,-1.4
52.0,86.05,-1.2
54.0,86.01,-1.1
56.0,85.97,-0.8
58.0,85.95,-0.7
60.0,85.92,-0.6
62.0,85.89,-0.6
64.0,85.87,-0.5
66.0,85.89,-0.5
68.0,85.93,-0.5
70.0,85.88,-0.5
72.0,85.86,-0.5
74.0,85.84,-0.8
76.0,85.81,-1.3
78.0,85.75,-0.9
80.0,85.75,-0.7
82.0,85.72,-1.3
84.0,85.59,-1.5
86.0,85.46,-1.5
88.0,85.2,-1.5
90.0,84.97,-0.9
92.0,84.79,0.5
94.0,84.65,7.2
96.0,84.43,20.3
98.0,84.25,52.3
100.0,84.07,86.5
102.0,83.87,118.2
104.0,83.67,135.8
106.0,83.51,148.0
108.0,83.35,156.1
110.0,83.17,159.9
112.0,82.99,161.1
114.0,82.83,159.0
116.0,82.66,156.9
118.0,82.5,155.4
120.0,82.36,151.0
122.0,82.22,150.8
124.0,81.97,143.1
126.0,81.93,141.3
128.0,81.74,134.6
130.0,81.56,133.0
132.0,81.41,131.3
134.0,81.26,128.5
136.0,81.12,123.9
138.0,81.03,120.4
140.0,80.92,120.1
142.0,80.8,120.3
144.0,80.69,116.0
146.0,80.55,115.3
148.0,80.45,111.6
150.0,80.32,108.6
152.0,80.2,103.3
154.0,80.08,101.9
156.0,79.96,100.6
158.0,79.86,100.7
160.0,79.75,97.7
162.0,79.4,95.7
164.0,79.56,93.5
166.0,79.45,92.5
168.0,79.35,89.9
170.0,79.23,89.0
172.0,79.02,85.7
174.0,78.95,84.2
176.0,78.86,84.0
178.0,78.76,81.9
180.0,78.75,81.2
182.0,78.66,80.0
184.0,78.57,79.6
186.0,78.47,78.1
188.0,78.39,76.9
190.0,78.3,76.4
192.0,78.22,74.8
194.0,78.12,73.2
196.0,78.03,71.9
198.0,77.95,70.5
200.0,77.87,68.3
202.0,77.78,69.6
204.0,77.71,68.1
206.0,77.63,68.0
208.0,77.51,67.3
210.0,77.36,65.9
212.0,77.29,65.3
214.0,77.21,64.6
216.0,77.13,63.3
218.0,77.14,62.6
220.0,77.06,62.6
222.0,76.98,61.9
224.0,76.89,62.4
226.0,76.82,62.4
228.0,76.74,61.3
230.0,76.67,61.0
232.0,76.59,61.0
234.0,76.52,60.4
236.0,76.44,61.3
238.0,76.36,59.0
240.0,76.29,60.0
242.0,76.21,58.9
244.0,76.13,59.8
246.0,75.96,59.6
248.0,75.88,57.6
250.0,75.85,60.2
252.0,75.79,59.9
254.0,75.69,59.7
256.0,75.63,60.6
258.0,75.59,59.8
260.0,75.53,59.0
262.0,75.46,59.5
264.0,75.37,57.4
266.0,75.28,56.7
268.0,75.21,56.7
270.0,75.12,58.2
272.0,75.07,57.3
274.0,74.98,59.0
276.0,74.93,58.9
278.0,74.84,57.9
280.0,74.68,58.5
282.0,74.59,57.4
284.0,74.52,58.4
286.0,74.44,60.3
288.0,74.42,61.2
290.0,74.37,62.2
292.0,74.29,62.8
294.0,74.24,63.1
296.0,74.14,63.7
298.0,74.09,60.6
300.0,74.01,60.2
302.0,73.93,59.3
304.0,73.85,59.9
306.0,73.77,60.0
308.0,73.7,60.4
310.0,73.64,60.1
312.0,73.56,59.3
314.0,73.49,58.2
316.0,73.39,55.7
318.0,73.32,54.9
320.0,73.16,54.0
322.0,73.09,54.2
324.0,73.01,54.7
326.0,73.01,55.9
328.0,72.95,55.6
330.0,72.86,55.8
332.0,72.81,55.6
334.0,72.73,55.3
336.0,72.66,54.9
338.0,72.58,53.3
340.0,72.51,53.7
342.0,72.43,52.5
344.0,72.36,52.8
346.0,72.29,51.9
348.0,72.2,52.8
350.0,72.14,52.2
352.0,72.07,52.0
354.0,71.99,51.2
356.0,71.84,51.5
358.0,71.77,51.8
360.0,71.68,52.3
362.0,71.61,53.5
364.0,71.53,52.4
366.0,71.54,53.0
368.0,71.46,53.6
370.0,71.38,52.8
372.0,71.33,51.8
374.0,71.25,54.3
376.0,71.19,53.8
378.0,71.11,53.3
380.0,71.04,52.7
382.0,70.95,54.3
384.0,70.87,53.4
386.0,70.79,55.2
388.0,70.72,56.6
390.0,70.65,57.2
392.0,70.51,58.0
394.0,70.42,58.3
396.0,70.34,57.2
398.0,70.28,57.2
400.0,70.19,55.9
402.0,70.19,54.9
404.0,70.14,54.5
406.0,70.06,54.8
408.0,69.99,53.7
410.0,69.92,55.1
412.0,69.83,54.6
414.0,69.77,54.5
416.0,69.68,54.3
418.0,69.59,53.8
420.0,69.51,54.3
422.0,69.46,54.2
424.0,69.4,53.4
426.0,69.33,53.8
428.0,69.25,53.7
430.0,69.16,53.9
432.0,69.02,52.9
434.0,68.96,51.8
436.0,68.88,52.7
438.0,68.81,52.5
440.0,68.73,51.8
442.0,68.74,51.8
444.0,68.68,50.5
446.0,68.61,49.4
448.0,68.52,50.2
450.0,68.47,49.7
452.0,68.4,50.1
454.0,68.32,49.9
456.0,68.25,49.5
458.0,68.16,50.3
460.0,68.09,49.1
462.0,68.0,50.1
464.0,67.95,50.2
466.0,67.87,50.4
468.0,67.8,50.3
470.0,67.72,49.9
472.0,67.63,50.7
474.0,67.51,50.7
476.0,67.44,50.7
478.0,67.38,50.9
480.0,67.4,50.9
482.0,67.32,51.0
484.0,67.24,50.4
486.0,67.17,50.5
488.0,67.11,50.4
490.0,67.05,50.6
492.0,66.96,51.0
494.0,66.89,51.2
496.0,66.83,51.6
498.0,66.73,51.1
500.0,66.67,51.1
502.0,66.6,52.1
504.0,66.53,52.7
506.0,66.46,52.4
508.0,66.35,52.8
510.0,66.26,52.6
512.0,66.17,53.0
514.0,66.09,53.8
516.0,66.04,53.5
518.0,66.0,53.7
520.0,65.93,53.3
522.0,65.89,51.9
524.0,65.82,51.5
526.0,65.74,52.1
528.0,65.67,50.8
530.0,65.62,51.6
532.0,65.54,52.0
534.0,65.48,53.5
536.0,65.4,53.8
538.0,65.33,54.3
540.0,65.27,55.1
542.0,65.2,54.6
544.0,65.13,54.5
546.0,65.0,56.5
548.0,64.91,54.7
550.0,64.82,55.2
552.0,64.75,54.7
554.0,64.69,54.2
556.0,64.65,54.6
558.0,64.6,54.7
560.0,64.55,54.2
562.0,64.48,53.0
564.0,64.41,53.0
566.0,64.34,52.5
568.0,64.26,52.5
570.0,64.19,52.4
572.0,64.12,51.8
574.0,64.06,51.9
576.0,63.98,52.4
578.0,63.93,51.8
580.0,63.86,52.1
582.0,63.77,52.3
584.0,63.7,54.9
586.0,63.61,54.2
588.0,63.54,55.0
590.0,63.45,55.8
592.0,63.32,56.1
594.0,63.27,56.1
596.0,63.2,55.0
598.0,63.16,54.4
600.0,63.09,54.1
602.0,63.08,54.8
604.0,63.0,54.7
606.0,62.93,54.7
608.0,62.86,54.0
610.0,62.8,54.2
612.0,62.73,55.1
614.0,62.65,55.1
616.0,62.57,54.9
618.0,62.51,54.4
620.0,62.44,55.8
622.0,62.36,55.7
624.0,62.29,56.1
626.0,62.22,55.9
628.0,62.1,56.6
630.0,62.0,57.0
632.0,61.94,56.2
634.0,61.86,55.4
636.0,61.83,54.6
638.0,61.77,53.4
640.0,61.71,53.9
642.0,61.65,54.3
644.0,61.58,55.0
646.0,61.52,53.6
648.0,61.44,54.2
650.0,61.39,52.8
652.0,61.32,52.0
654.0,61.24,51.5
656.0,61.17,51.0
658.0,61.09,51.9
660.0,61.03,50.6
662.0,60.95,51.0
664.0,60.9,52.3
666.0,60.82,52.0
668.0,60.75,53.7
670.0,60.68,53.4
672.0,60.57,54.3
674.0,60.46,53.5
676.0,60.38,54.3
678.0,60.29,55.0
680.0,60.23,55.8
682.0,60.18,54.7
684.0,60.1,55.8
686.0,60.04,55.6
688.0,60.02,55.0
690.0,59.97,54.8
692.0,59.88,54.3
694.0,59.81,53.5
696.0,59.76,53.1
698.0,59.68,52.6
700.0,59.62,53.5
702.0,59.55,52.5
704.0,59.48,53.1
706.0,59.41,52.8
708.0,59.34,53.6
710.0,59.27,53.3
712.0,59.19,54.1
714.0,59.12,54.1
716.0,59.06,55.0
718.0,58.91,56.0
720.0,58.82,54.4
722.0,58.74,54.5
724.0,58.66,53.7
726.0,58.59,55.6
728.0,58.6,55.6
730.0,58.53,55.6
732.0,58.47,57.1
734.0,58.41,55.8
736.0,58.32,55.2
738.0,58.27,54.5
740.0,58.2,55.3
742.0,58.12,55.1
744.0,58.07,54.0
746.0,57.98,53.6
748.0,57.92,54.1
750.0,57.84,54.0
752.0,57.8,53.8
754.0,57.7,53.7
756.0,57.64,53.6
758.0,57.56,53.6
760.0,57.48,54.0
762.0,57.39,53.4
764.0,57.31,54.6
766.0,57.22,54.4
768.0,57.13,56.3
770.0,57.07,56.6
772.0,57.04,56.7
774.0,56.97,57.3
776.0,56.91,57.1
778.0,56.88,56.2
780.0,56.8,56.9
782.0,56.74,57.4
784.0,56.67,54.8
786.0,56.6,55.9
788.0,56.52,55.6
790.0,56.44,55.4
792.0,56.39,55.7
794.0,56.33,56.7
796.0,56.25,57.2
798.0,56.18,57.7
800.0,56.09,58.9
802.0,56.03,59.2
804.0,55.95,58.6
806.0,55.8,58.4
808.0,55.74,56.6
810.0,55.65,56.7
812.0,55.59,55.5
814.0,55.52,56.3
816.0,55.52,54.9
818.0,55.47,54.5
820.0,55.4,54.9
822.0,55.34,54.1
824.0,55.26,55.2
826.0,55.18,56.0
828.0,55.12,54.9
830.0,55.04,55.4
832.0,54.99,56.4
834.0,54.91,56.1
836.0,54.82,55.8
838.0,54.75,55.4
840.0,54.68,56.3
842.0,54.63,56.2
844.0,54.56,55.1
846.0,54.44,55.8
848.0,54.33,55.0
850.0,54.26,55.4
852.0,54.19,56.0
854.0,54.14,54.8
856.0,54.1,53.8
858.0,54.04,53.5
860.0,53.99,53.1
862.0,53.91,54.2
864.0,53.85,53.3
866.0,53.78,54.1
868.0,53.7,53.8
870.0,53.63,54.0
872.0,53.57,53.6
874.0,53.5,53.3
876.0,53.43,53.2
878.0,53.34,52.9
880.0,53.28,53.2
882.0,53.2,54.3
884.0,53.13,55.0
886.0,53.07,53.8
888.0,52.99,55.7
890.0,52.92,55.3
892.0,52.78,55.4
894.0,52.7,55.4
896.0,52.62,55.3
898.0,52.61,55.4
900.0,52.58,55.5
902.0,52.49,54.7
904.0,52.43,56.1
906.0,52.36,54.9
908.0,52.28,55.5
910.0,52.2,56.0
912.0,52.14,55.5
914.0,52.08,56.0
916.0,52.02,57.3
918.0,51.96,57.6
920.0,51.8,57.9
922.0,51.78,57.8
924.0,51.75,57.1
926.0,51.69,58.1
928.0,51.6,56.8
930.0,51.55,55.8
932.0,51.48,55.5
934.0,51.31,56.3
936.0,51.25,57.4
938.0,51.16,58.0
940.0,51.09,59.1
942.0,51.1,59.1
944.0,51.02,59.2
946.0,50.96,58.2
948.0,50.89,57.3
950.0,50.79,55.3
952.0,50.73,56.4
954.0,50.66,55.9
956.0,50.6,54.5
958.0,50.51,54.5
960.0,50.44,54.5
962.0,50.37,54.2
964.0,50.3,55.9
966.0,50.23,55.1
968.0,50.16,55.9
970.0,50.08,55.8
972.0,49.99,53.1
974.0,49.9,54.2
976.0,49.82,54.7
978.0,49.67,55.7
980.0,49.62,55.3
982.0,49.58,55.0
984.0,49.57,55.0
986.0,49.5,54.9
988.0,49.45,55.9
990.0,49.36,55.7
992.0,49.3,55.7
994.0,49.26,56.8
996.0,49.16,57.3
998.0,49.1,58.2
1000.0,49.04,57.9
1002.0,48.96,59.4
1004.0,48.89,59.3
1006.0,48.81,60.2
1008.0,48.75,60.7
1010.0,48.68,59.9
1012.0,48.62,58.8
1014.0,48.54,59.5
1016.0,48.43,59.0
1018.0,48.33,59.6
1020.0,48.23,59.6
1022.0,48.14,61.6
1024.0,48.07,62.0
1026.0,48.02,62.4
1028.0,47.99,63.8
1030.0,47.94,64.7
1032.0,47.86,64.5
1034.0,47.78,63.7
1036.0,47.71,61.5
1038.0,47.64,61.0
1040.0,47.57,61.2
1042.0,47.5,61.7
1044.0,47.43,61.3
1046.0,47.35,61.7
1048.0,47.28,62.1
1050.0,47.2,62.8
1052.0,47.13,62.5
1054.0,47.04,62.9
1056.0,46.99,63.7
1058.0,46.9,63.6
1060.0,46.82,64.2
1062.0,46.72,63.6
1064.0,46.59,64.1
1066.0,46.52,62.9
1068.0,46.45,63.6
1070.0,46.37,64.3
1072.0,46.34,63.9
1074.0,46.28,63.7
1076.0,46.24,63.4
1078.0,46.16,63.7
1080.0,46.09,64.6
1082.0,46.01,64.1
1084.0,45.94,64.1
1086.0,45.85,63.2
1088.0,45.78,62.9
1090.0,45.7,62.9
1092.0,45.64,63.6
1094.0,45.56,64.5
1096.0,45.47,64.9
1098.0,45.41,64.3
1100.0,45.33,64.6
1102.0,45.19,63.5
1104.0,45.1,63.4
1106.0,45.02,63.3
1108.0,44.93,65.3
1110.0,44.88,65.0
1112.0,44.8,66.1
1114.0,44.81,66.5
1116.0,44.72,66.6
1118.0,44.65,66.7
1120.0,44.58,65.5
1122.0,44.49,64.2
1124.0,44.41,64.6
1126.0,44.33,65.4
1128.0,44.29,66.0
1130.0,44.22,65.8
1132.0,44.14,65.6
1134.0,44.05,65.0
1136.0,43.98,65.4
1138.0,43.89,65.3
1140.0,43.82,65.9
1142.0,43.75,67.5
1144.0,43.62,68.8
1146.0,43.53,68.7
1148.0,43.45,67.8
1150.0,43.34,68.6
1152.0,43.26,67.4
1154.0,43.25,67.5
1156.0,43.2,67.3
1158.0,43.13,68.4
1160.0,43.04,67.9
1162.0,42.96,68.3
1164.0,42.89,68.3
1166.0,42.8,69.8
1168.0,42.74,68.0
1170.0,42.66,69.6
1172.0,42.58,67.7
1174.0,42.5,67.9
1176.0,42.42,67.9
1178.0,42.36,68.1
1180.0,42.26,68.6
1182.0,42.2,68.6
1184.0,42.1,69.0
1186.0,42.01,67.5
1188.0,41.9,67.4
1190.0,41.79,68.5
1192.0,41.69,69.3
1194.0,41.64,68.5
1196.0,41.58,68.5
1198.0,41.52,68.5
1200.0,41.46,69.0
1202.0,41.39,68.8
1204.0,41.32,69.1
1206.0,41.23,69.9
1208.0,41.16,70.0
1210.0,41.09,68.9
1212.0,41.0,69.0
1214.0,40.92,70.2
1216.0,40.84,71.7
1218.0,40.75,71.6
1220.0,40.66,72.4
1222.0,40.58,72.6
1224.0,40.48,73.1
1226.0,40.41,72.9
1228.0,40.3,73.7
1230.0,40.16,71.9
1232.0,40.0,73.7
1234.0,40.01,73.5
1236.0,39.98,72.4
1238.0,39.92,73.1
1240.0,39.83,74.4
1242.0,39.76,73.9
1244.0,39.69,71.6
1246.0,39.6,72.7
1248.0,39.52,73.7
1250.0,39.42,76.6
1252.0,39.33,77.8
1254.0,39.26,77.9
1256.0,39.19,77.3
1258.0,39.1,78.4
1260.0,39.0,76.4
1262.0,38.91,76.1
1264.0,38.83,77.3
1266.0,38.74,77.0
1268.0,38.61,74.7
1270.0,38.49,75.1
1272.0,38.4,75.9
1274.0,38.33,73.9
1276.0,38.25,75.7
1278.0,38.18,76.9
1280.0,38.14,75.8
1282.0,38.07,76.8
1284.0,37.98,75.7
1286.0,37.89,77.1
1288.0,37.8,76.7
1290.0,37.74,76.4
1292.0,37.66,76.7
1294.0,37.56,77.5
1296.0,37.47,79.5
1298.0,37.35,78.4
1300.0,37.29,78.6
1302.0,37.18,79.9
1304.0,37.04,80.3
1306.0,36.93,81.3
1308.0,36.77,82.8
1310.0,36.67,82.6
1312.0,36.63,83.4
1314.0,36.56,82.9
1316.0,36.48,83.5
1318.0,36.43,81.4
1320.0,36.36,82.6
1322.0,36.25,81.0
1324.0,36.16,81.2
1326.0,36.07,82.2
1328.0,35.98,81.6
1330.0,35.89,82.5
1332.0,35.77,82.0
1334.0,35.68,82.1
1336.0,35.58,81.8
1338.0,35.48,82.0
1340.0,35.4,83.7
1342.0,35.32,81.9
1344.0,35.13,82.2
1346.0,35.02,83.3
1348.0,34.92,83.5
1350.0,34.83,83.6
1352.0,34.82,83.6
1354.0,34.74,81.6
1356.0,34.68,81.7
1358.0,34.58,81.8
1360.0,34.47,82.7
1362.0,34.38,82.8
1364.0,34.29,82.1
1366.0,34.18,83.5
1368.0,34.09,83.2
1370.0,34.02,82.7
1372.0,33.93,84.0
1374.0,33.81,83.3
1376.0,33.73,81.9
1378.0,33.62,84.1
1380.0,33.51,82.7
1382.0,33.4,80.9
1384.0,33.31,81.1
1386.0,33.18,82.4
1388.0,33.04,83.1
1390.0,32.96,83.8
1392.0,32.86,84.4
1394.0,32.83,85.4
1396.0,32.73,83.9
1398.0,32.67,84.4
1400.0,32.56,85.3
1402.0,32.48,84.3
1404.0,32.38,84.2
1406.0,32.31,83.1
1408.0,32.21,83.2
1410.0,32.11,84.1
1412.0,32.0,84.6
1414.0,31.89,85.4
1416.0,31.81,84.5
1418.0,31.71,83.3
1420.0,31.6,83.2
1422.0,31.51,83.7
1424.0,31.35,84.2
1426.0,31.23,84.6
1428.0,31.12,84.9
1430.0,31.02,83.1
1432.0,30.92,83.6
1434.0,30.9,83.1
1436.0,30.82,85.4
1438.0,30.71,83.8
1440.0,30.61,85.4
1442.0,30.53,86.9
1444.0,30.44,84.5
1446.0,30.34,85.7
1448.0,30.25,84.2
1450.0,30.13,84.4
1452.0,30.03,83.9
1454.0,29.94,82.7
1456.0,29.85,84.0
1458.0,29.75,85.4
1460.0,29.67,84.5
1462.0,29.57,85.1
1464.0,29.45,85.8
1466.0,29.36,85.6
1468.0,29.23,85.0
1470.0,29.09,83.9
1472.0,28.98,84.7
1474.0,28.91,85.5
1476.0,28.89,85.2
1478.0,28.78,85.7
1480.0,28.7,87.0
1482.0,28.6,86.6
1484.0,28.5,86.3
1486.0,28.39,87.3
1488.0,28.32,85.5
1490.0,28.23,87.9
1492.0,28.12,87.5
1494.0,28.03,85.3
1496.0,27.95,84.1
1498.0,27.81,84.2
1500.0,27.74,85.7
1502.0,27.66,83.9
1504.0,27.55,83.9
1506.0,27.45,84.6
1508.0,27.34,85.5
1510.0,27.17,85.3
1512.0,27.09,85.1
1514.0,26.99,86.8
1516.0,26.9,84.5
1518.0,26.81,84.1
1520.0,26.78,83.7
1522.0,26.7,83.2
1524.0,26.62,84.2
1526.0,26.53,83.5
1528.0,26.43,84.1
1530.0,26.35,84.6
1532.0,26.27,83.0
1534.0,26.16,82.1
1536.0,26.06,83.3
1538.0,25.96,82.7
1540.0,25.86,82.3
1542.0,25.77,81.4
1544.0,25.69,80.9
1546.0,25.6,81.7
1548.0,25.47,81.8
1550.0,25.29,82.5
1552.0,25.23,80.9
1554.0,25.13,81.3
1556.0,25.08,79.5
1558.0,24.97,80.2
1560.0,24.97,80.7
1562.0,24.89,80.8
1564.0,24.81,80.4
1566.0,24.7,81.2
1568.0,24.63,79.2
1570.0,24.55,81.4
1572.0,24.46,80.6
1574.0,24.36,79.8
1576.0,24.24,81.0
1578.0,24.17,79.0
1580.0,24.1,79.7
1582.0,24.03,80.2
1584.0,23.9,80.8
1586.0,23.61,81.4
1588.0,23.7,81.5
1590.0,23.57,82.2
1592.0,23.48,81.3
1594.0,23.41,80.9
1596.0,23.41,80.9
1598.0,23.31,79.6
1600.0,23.24,80.2
1602.0,23.14,80.1
1604.0,23.08,80.7
1606.0,23.01,81.9
1608.0,22.92,81.7
1610.0,22.83,81.5
1612.0,22.72,82.1
1614.0,22.65,82.3
1616.0,22.58,82.1
1618.0,22.5,81.7
1620.0,22.37,81.5
1622.0,22.3,81.5
1624.0,22.16,81.3
1626.0,22.06,80.9
1628.0,21.99,79.7
1630.0,21.91,80.0
1632.0,21.82,79.5
1634.0,21.74,78.1
1636.0,21.74,77.6
1638.0,21.68,76.6
1640.0,21.6,77.0
1642.0,21.53,77.5
1644.0,21.44,75.5
1646.0,21.36,75.1
1648.0,21.3,76.2
1650.0,21.21,76.2
1652.0,21.14,77.1
1654.0,21.07,75.5
1656.0,21.0,76.0
1658.0,20.91,74.8
1660.0,20.84,74.9
1662.0,20.77,73.8
1664.0,20.59,74.2
1666.0,20.53,74.5
1668.0,20.44,73.4
1670.0,20.37,73.1
1672.0,20.31,72.7
1674.0,20.32,74.4
1676.0,20.25,74.7
1678.0,20.2,74.7
1680.0,20.11,74.5
1682.0,20.04,72.3
1684.0,19.99,72.1
1686.0,19.93,72.0
1688.0,19.83,71.1
1690.0,19.78,71.4
1692.0,19.72,70.3
1694.0,19.66,70.1
1696.0,19.59,69.3
1698.0,19.5,68.1
1700.0,19.46,67.8
1702.0,19.38,67.6
1704.0,19.3,66.3
1706.0,19.19,65.3
1708.0,19.11,65.2
1710.0,19.03,64.7
1712.0,18.99,65.6
1714.0,18.92,64.6
1716.0,18.93,64.7
1718.0,18.87,64.1
1720.0,18.83,65.0
1722.0,18.76,64.0
1724.0,18.7,64.0
1726.0,18.64,64.8
1728.0,18.59,64.1
1730.0,18.54,63.6
1732.0,18.47,61.9
1734.0,18.4,61.8
1736.0,18.36,60.6
1738.0,18.31,59.8
1740.0,18.24,61.1
1742.0,18.19,59.7
1744.0,18.15,60.2
1746.0,18.08,60.1
1748.0,17.92,60.7
1750.0,17.87,60.7
1752.0,17.84,61.5
1754.0,17.78,61.9
1756.0,17.75,61.4
1758.0,17.76,61.2
1760.0,17.71,60.8
1762.0,17.66,60.5
1764.0,17.6,59.3
1766.0,17.58,58.9
1768.0,17.51,59.0
1770.0,17.46,59.7
1772.0,17.42,57.9
1774.0,17.38,57.1
1776.0,17.33,54.5
1778.0,17.28,54.1
1780.0,17.23,53.3
1782.0,17.18,53.2
1784.0,17.11,55.1
1786.0,17.04,55.2
1788.0,16.97,54.1
1790.0,16.92,52.8
1792.0,16.89,52.7
1794.0,16.87,50.8
1796.0,16.86,50.8
1798.0,16.83,49.7
1800.0,16.8,49.0
1802.0,16.76,48.5
1804.0,16.72,49.5
1806.0,16.68,48.8
1808.0,16.63,48.7
1810.0,16.59,47.9
1812.0,16.55,48.1
1814.0,16.52,46.7
1816.0,16.48,47.2
1818.0,16.44,45.9
1820.0,16.43,45.9
1822.0,16.36,46.5
1824.0,16.33,44.9
1826.0,16.22,46.4
1828.0,16.18,45.8
1830.0,16.14,45.3
1832.0,16.09,43.9
1834.0,16.12,43.6
1836.0,16.07,43.4
1838.0,16.07,43.9
1840.0,16.05,43.6
1842.0,16.02,42.8
1844.0,15.99,42.6
1846.0,15.94,42.3
1848.0,15.9,42.2
1850.0,15.89,41.8
1852.0,15.85,41.7
1854.0,15.81,42.2
1856.0,15.79,42.0
1858.0,15.75,41.9
1860.0,15.72,41.4
1862.0,15.69,41.5
1864.0,15.65,41.3
1866.0,15.61,41.0
1868.0,15.55,40.6
1870.0,15.5,40.1
1872.0,15.43,40.0
1874.0,15.4,40.1
1876.0,15.4,41.1
1878.0,15.43,40.3
1880.0,15.4,39.8
1882.0,15.36,39.4
1884.0,15.35,38.7
1886.0,15.34,38.7
1888.0,15.28,39.1
1890.0,15.26,37.9
1892.0,15.23,37.8
1894.0,15.19,37.4
1896.0,15.18,36.9
1898.0,15.15,37.0
1900.0,15.12,36.8
1902.0,15.07,36.6
1904.0,15.04,37.0
1906.0,14.98,38.0
1908.0,14.93,39.0
1910.0,14.89,38.4
1912.0,14.85,37.8
1914.0,14.83,37.9
1916.0,14.8,37.4
1918.0,14.83,36.1
1920.0,14.83,36.8
1922.0,14.8,36.3
1924.0,14.77,35.7
1926.0,14.75,35.4
1928.0,14.73,36.1
1930.0,14.71,36.2
1932.0,14.67,36.2
1934.0,14.65,36.8
1936.0,14.61,36.7
1938.0,14.58,36.3
1940.0,14.55,36.6
1942.0,14.53,37.2
1944.0,14.5,37.0
1946.0,14.47,36.6
1948.0,14.43,37.0
1950.0,14.33,36.8
1952.0,14.34,37.7
1954.0,14.3,38.3
1956.0,14.28,38.6
1958.0,14.26,37.9
1960.0,14.26,38.4
1962.0,14.26,38.6
1964.0,14.25,38.5
1966.0,14.22,38.2
1968.0,14.2,38.7
1970.0,14.16,37.7
1972.0,14.15,38.3
1974.0,14.12,36.3
1976.0,14.09,35.9
1978.0,14.07,35.4
1980.0,14.03,35.8
1982.0,14.01,35.3
1984.0,13.98,35.9
1986.0,13.98,36.1
1988.0,13.87,36.7
1990.0,13.83,36.4
1992.0,13.8,36.6
1994.0,13.78,35.9
1996.0,13.75,34.8
1998.0,13.8,35.5
2000.0,13.79,35.2
2002.0,13.77,34.5
2004.0,13.74,34.5
2006.0,13.73,33.8
2008.0,13.69,34.5
2010.0,13.67,35.2
2012.0,13.66,35.2
2014.0,13.64,34.6
2016.0,13.63,34.1
2018.0,13.58,34.1
2020.0,13.56,33.9
2022.0,13.54,33.1
2024.0,13.52,33.6
2026.0,13.41,33.5
2028.0,13.37,34.2
2030.0,13.35,33.7
2032.0,13.33,33.9
2034.0,13.36,33.9
2036.0,13.37,33.6
2038.0,13.34,33.9
2040.0,13.32,34.3
2042.0,13.29,33.9
2044.0,13.27,33.5
2046.0,13.25,33.3
2048.0,13.22,33.5
2050.0,13.2,33.3
2052.0,13.18,33.3
2054.0,13.16,33.6
2056.0,13.14,33.9
2058.0,13.12,33.4
2060.0,13.09,33.0
2062.0,13.06,32.4
2064.0,13.02,32.4
2066.0,12.98,32.8
2068.0,12.94,32.1
2070.0,12.88,32.5
2072.0,12.86,33.1
2074.0,12.92,32.3
2076.0,12.92,32.6
2078.0,12.89,32.4
2080.0,12.88,33.0
2082.0,12.86,33.1
2084.0,12.84,33.3
2086.0,12.81,33.2
2088.0,12.78,32.3
2090.0,12.76,32.6
2092.0,12.75,32.4
2094.0,12.73,31.1
2096.0,12.7,31.7
2098.0,12.67,31.3
2100.0,12.64,30.8
2102.0,12.62,31.1
2104.0,12.58,31.0
2106.0,12.53,31.3
2108.0,12.49,30.5
2110.0,12.48,30.9
2112.0,12.47,31.6
2114.0,12.47,32.0
2116.0,12.48,32.3
2118.0,12.46,32.3
2120.0,12.46,32.4
2122.0,12.44,32.2
2124.0,12.43,32.4
2126.0,12.4,32.5
2128.0,12.39,31.9
2130.0,12.36,31.9
2132.0,12.34,31.5
2134.0,12.32,30.7
2136.0,12.29,31.4
2138.0,12.27,31.9
2140.0,12.26,32.5
2142.0,12.24,32.3
2144.0,12.22,32.7
2146.0,12.11,33.4
2148.0,12.09,32.4
2150.0,12.07,32.2
2152.0,12.05,32.1
2154.0,12.1,31.9
2156.0,12.09,31.5
2158.0,12.08,31.6
2160.0,12.07,32.3
2162.0,12.05,32.5
2164.0,12.04,32.1
2166.0,12.02,31.5
2168.0,12.0,30.9
2170.0,11.98,31.1
2172.0,11.96,31.1
2174.0,11.94,31.0
2176.0,11.94,30.2
2178.0,11.91,29.9
2180.0,11.9,29.7
2182.0,11.87,29.9
2184.0,11.84,29.8
2186.0,11.81,29.4
2188.0,11.77,30.1
2190.0,11.72,29.5
2192.0,11.7,29.2
2194.0,11.68,29.7
2196.0,11.68,29.8
2198.0,11.68,28.8
2200.0,11.69,29.2
2202.0,11.67,29.5
2204.0,11.65,29.2
2206.0,11.64,29.2
2208.0,11.62,29.4
2210.0,11.62,29.4
2212.0,11.59,30.0
2214.0,11.58,30.2
2216.0,11.56,30.0
2218.0,11.53,30.5
2220.0,11.53,30.1
2222.0,11.52,30.4
2224.0,11.49,30.9
2226.0,11.47,30.3
2228.0,11.43,29.5
2230.0,11.41,29.3
2232.0,11.37,28.9
2234.0,11.33,28.7
2236.0,11.3,28.6
2238.0,11.29,28.8
2240.0,11.27,29.8
2242.0,11.3,29.6
2244.0,11.32,29.1
2246.0,11.31,29.1
2248.0,11.3,28.6
2250.0,11.27,29.2
2252.0,11.24,28.6
2254.0,11.23,28.7
2256.0,11.21,29.5
2258.0,11.2,29.8
2260.0,11.17,30.4
2262.0,11.16,30.3
2264.0,11.13,30.2
2266.0,11.12,29.3
2268.0,11.09,29.3
2270.0,10.97,28.8
2272.0,11.01,27.8
2274.0,10.99,27.9
2276.0,10.97,28.1
2278.0,10.71,28.5
2280.0,10.93,28.3
2282.0,10.96,27.9
2284.0,10.97,28.4
2286.0,10.99,28.1
2288.0,10.96,27.3
2290.0,10.94,27.4
2292.0,10.92,27.1
2294.0,10.89,28.1
2296.0,10.87,28.8
2298.0,10.86,28.4
2300.0,10.86,28.1
2302.0,10.84,27.8
2304.0,10.82,27.1
2306.0,10.8,27.3
2308.0,10.77,26.9
2310.0,10.74,26.1
2312.0,10.71,25.8
2314.0,10.68,25.3
2316.0,10.64,25.9
2318.0,10.61,27.2
2320.0,10.61,29.0
2322.0,10.64,28.8
2324.0,10.64,29.1
2326.0,10.64,29.0
2328.0,10.63,28.4
2330.0,10.62,27.9
2332.0,10.63,27.3
2334.0,10.55,26.9
2336.0,10.54,26.2
2338.0,10.55,26.4
2340.0,10.54,26.9
2342.0,10.51,26.3
2344.0,10.52,26.5
2346.0,10.51,26.4
2348.0,10.48,26.5
2350.0,10.46,26.4
2352.0,10.44,26.6
2354.0,10.4,26.3
2356.0,10.29,26.8
2358.0,10.28,26.4
2360.0,10.26,26.4
2362.0,10.24,26.6
2364.0,10.33,26.5
2366.0,10.32,26.4
2368.0,10.32,26.3
2370.0,10.29,26.5
2372.0,10.31,26.5
2374.0,10.29,26.4
2376.0,10.25,26.8
2378.0,10.22,26.3
2380.0,10.2,26.6
2382.0,10.17,26.7
2384.0,10.18,26.8
2386.0,10.17,26.6
2388.0,10.15,26.7
2390.0,10.11,26.6
2392.0,10.08,27.5
2394.0,10.05,27.8
2396.0,10.01,27.4
2398.0,10.0,27.4
2399.0,9.99,27.6