File: Wood/Calibration_Data/FSRI/FSRI_STA_N2_30K_R3.csv
Time (s),Temperature (K),Mass (mg),Heat Flow Rate (W/g)
0.0,325.5,3.9683,0.0327
7.61558,326.0,3.9707,0.0582
12.9989,326.5,3.9702,0.0818
17.3562,327.0,3.97,0.1028
21.1126,327.5,3.97,0.1231
24.463,328.0,3.9718,0.1405
27.4889,328.5,3.9721,0.1554
30.277,329.0,3.9721,0.1725
32.9954,329.5,3.9732,0.1895
35.5223,330.0,3.972,0.204
37.8791,330.5,3.9713,0.2148
40.1364,331.0,3.9728,0.2284
42.3137,331.5,3.973,0.2395
44.4119,332.0,3.9714,0.2528
46.4196,332.5,3.9713,0.2631
48.3832,333.0,3.9717,0.2749
50.3065,333.5,3.9722,0.2854
52.1609,334.0,3.9722,0.2962
53.9549,334.5,3.9723,0.3026
55.7079,335.0,3.9725,0.3153
57.4279,335.5,3.9729,0.3259
59.1227,336.0,3.9722,0.3319
60.7911,336.5,3.9728,0.3429
62.4354,337.0,3.9733,0.3491
64.061,337.5,3.9733,0.3583
65.6461,338.0,3.9726,0.3661
67.2085,338.5,3.9712,0.3742
68.7543,339.0,3.9717,0.3828
70.2755,339.5,3.9719,0.3886
71.7895,340.0,3.9717,0.3961
73.2531,340.5,3.9718,0.4014
74.7238,341.0,3.9715,0.4119
76.1754,341.5,3.9725,0.4165
77.6189,342.0,3.9722,0.4245
79.0504,342.5,3.9713,0.4315
80.4569,343.0,3.9705,0.4371
81.8544,343.5,3.9707,0.4424
83.2327,344.0,3.9711,0.449
84.614,344.5,3.9716,0.4553
85.9785,345.0,3.9716,0.4604
87.3315,345.5,3.9715,0.4671
88.6882,346.0,3.9711,0.4717
90.0073,346.5,3.9707,0.475
91.3332,347.0,3.9711,0.4816
92.6576,347.5,3.9715,0.4883
93.9609,348.0,3.9721,0.4924
95.282,348.5,3.972,0.4992
96.5878,349.0,3.9705,0.5028
97.8783,349.5,3.9701,0.5085
99.1691,350.0,3.9702,0.5144
100.445,350.5,3.9706,0.5185
101.718,351.0,3.971,0.5246
102.979,351.5,3.9709,0.5297
104.226,352.0,3.9706,0.5351
105.476,352.5,3.9707,0.5403
106.719,353.0,3.9714,0.5442
107.961,353.5,3.9714,0.5474
109.196,354.0,3.9711,0.5526
110.428,354.5,3.9713,0.5561
111.644,355.0,3.9709,0.5604
112.866,355.5,3.97,0.5637
114.088,356.0,3.9703,0.5683
115.297,356.5,3.97,0.5716
116.505,357.0,3.9692,0.577
117.709,357.5,3.9692,0.5818
118.899,358.0,3.971,0.5839
120.094,358.5,3.9696,0.59
121.281,359.0,3.9703,0.5952
122.472,359.5,3.9698,0.5991
123.655,360.0,3.9692,0.6015
124.836,360.5,3.9691,0.6066
126.008,361.0,3.9682,0.6099
127.176,361.5,3.9691,0.6148
128.338,362.0,3.9688,0.6187
129.496,362.5,3.9692,0.6209
130.646,363.0,3.9695,0.6251
131.799,363.5,3.9691,0.6289
132.945,364.0,3.9695,0.6321
134.094,364.5,3.9691,0.6345
135.241,365.0,3.9691,0.64
136.378,365.5,3.9692,0.6418
137.517,366.0,3.9681,0.6455
138.656,366.5,3.9678,0.6495
139.791,367.0,3.9681,0.6543
140.92,367.5,3.9676,0.6563
142.051,368.0,3.9668,0.6605
143.175,368.5,3.9674,0.6629
144.293,369.0,3.9674,0.6669
145.41,369.5,3.9674,0.6708
146.525,370.0,3.9674,0.6749
147.635,370.5,3.9673,0.6757
148.745,371.0,3.9657,0.6774
149.85,371.5,3.9663,0.6801
150.946,372.0,3.9655,0.684
152.051,372.5,3.9657,0.687
153.156,373.0,3.9654,0.6917
154.261,373.5,3.9655,0.6944
155.361,374.0,3.9652,0.6957
156.471,374.5,3.9655,0.6985
157.565,375.0,3.9655,0.7003
158.656,375.5,3.9649,0.7035
159.745,376.0,3.9656,0.7066
160.834,376.5,3.9655,0.7089
161.918,377.0,3.9655,0.7092
163.005,377.5,3.9658,0.7112
164.085,378.0,3.9669,0.7135
165.166,378.5,3.9663,0.7155
166.25,379.0,3.9655,0.7187
167.332,379.5,3.9655,0.7192
168.398,380.0,3.9647,0.7215
169.474,380.5,3.9657,0.7239
170.555,381.0,3.9656,0.7245
171.63,381.5,3.9643,0.7259
172.702,382.0,3.9656,0.728
173.785,382.5,3.9656,0.7299
174.858,383.0,3.9655,0.7325
175.924,383.5,3.9643,0.7336
176.989,384.0,3.9649,0.7356
178.046,384.5,3.9658,0.7361
179.112,385.0,3.9644,0.7353
180.174,385.5,3.9642,0.7356
181.235,386.0,3.9631,0.7378
182.297,386.5,3.964,0.7396
183.354,387.0,3.9627,0.7415
184.406,387.5,3.9627,0.7402
185.464,388.0,3.9634,0.7413
186.52,388.5,3.9641,0.742
187.574,389.0,3.9641,0.7417
188.638,389.5,3.9641,0.7416
189.698,390.0,3.9641,0.7426
190.749,390.5,3.9641,0.7425
191.799,391.0,3.964,0.7429
192.846,391.5,3.9652,0.7431
193.889,392.0,3.9641,0.7442
194.933,392.5,3.9641,0.7447
195.981,393.0,3.9642,0.745
197.026,393.5,3.9655,0.7456
198.062,394.0,3.9644,0.746
199.104,394.5,3.9644,0.7467
200.142,395.0,3.9644,0.7466
201.179,395.5,3.9644,0.7489
202.214,396.0,3.965,0.7463
203.252,396.5,3.9658,0.7468
204.288,397.0,3.9654,0.7471
205.317,397.5,3.9654,0.7471
206.347,398.0,3.9654,0.7499
207.377,398.5,3.9645,0.7491
208.411,399.0,3.964,0.7496
209.436,399.5,3.964,0.749
210.467,400.0,3.9629,0.7488
211.493,400.5,3.9627,0.7482
212.514,401.0,3.9627,0.7501
213.533,401.5,3.9622,0.7514
214.552,402.0,3.9613,0.7515
215.567,402.5,3.9613,0.7528
216.582,403.0,3.9613,0.7522
217.594,403.5,3.9619,0.7536
218.605,404.0,3.9627,0.7548
219.617,404.5,3.9617,0.7561
220.628,405.0,3.9613,0.7576
221.638,405.5,3.9613,0.7566
222.65,406.0,3.962,0.756
223.662,406.5,3.9614,0.7578
224.669,407.0,3.9613,0.7581
225.675,407.5,3.9613,0.76
226.678,408.0,3.9613,0.7607
227.68,408.5,3.9613,0.7623
228.679,409.0,3.9613,0.7619
229.677,409.5,3.9602,0.7628
230.677,410.0,3.96,0.7637
231.678,410.5,3.9612,0.7653
232.675,411.0,3.9612,0.7671
233.672,411.5,3.9612,0.7676
234.667,412.0,3.9612,0.7704
235.658,412.5,3.9611,0.7714
236.639,413.0,3.9599,0.7704
237.632,413.5,3.9612,0.7728
238.623,414.0,3.9612,0.7751
239.609,414.5,3.9612,0.7751
240.587,415.0,3.9612,0.7759
241.584,415.5,3.9612,0.7789
242.576,416.0,3.9611,0.7805
243.557,416.5,3.96,0.7813
244.54,417.0,3.9599,0.7824
245.528,417.5,3.9599,0.7833
246.514,418.0,3.9599,0.7861
247.49,418.5,3.9599,0.7871
248.468,419.0,3.9599,0.7888
249.447,419.5,3.96,0.7904
250.427,420.0,3.9613,0.792
251.404,420.5,3.9606,0.7928
252.38,421.0,3.9599,0.7932
253.357,421.5,3.9599,0.7984
254.335,422.0,3.9599,0.7982
255.308,422.5,3.9601,0.7987
256.281,423.0,3.9599,0.8017
257.255,423.5,3.9599,0.8027
258.225,424.0,3.9599,0.8045
259.192,424.5,3.9599,0.8056
260.159,425.0,3.9599,0.8089
261.127,425.5,3.9599,0.8125
262.097,426.0,3.9599,0.814
263.06,426.5,3.9599,0.8143
264.026,427.0,3.9599,0.8174
264.994,427.5,3.9599,0.8156
265.96,428.0,3.9598,0.8179
266.923,428.5,3.9592,0.8186
267.886,429.0,3.9592,0.82
268.853,429.5,3.9593,0.8223
269.812,430.0,3.9593,0.8266
270.763,430.5,3.9593,0.8277
271.717,431.0,3.9592,0.83
272.678,431.5,3.9593,0.8324
273.64,432.0,3.9592,0.8348
274.599,432.5,3.9592,0.8349
275.564,433.0,3.9592,0.8355
276.533,433.5,3.9593,0.8391
277.491,434.0,3.958,0.8374
278.445,434.5,3.9579,0.8389
279.4,435.0,3.9579,0.8406
280.354,435.5,3.9584,0.8432
281.31,436.0,3.9593,0.8466
282.262,436.5,3.9593,0.8461
283.217,437.0,3.9592,0.8484
284.173,437.5,3.9593,0.8488
285.124,438.0,3.9593,0.8515
286.069,438.5,3.9592,0.854
287.022,439.0,3.959,0.856
287.971,439.5,3.9579,0.8584
288.925,440.0,3.9579,0.8607
289.875,440.5,3.9579,0.8618
290.828,441.0,3.9579,0.8629
291.784,441.5,3.9579,0.8645
292.735,442.0,3.9579,0.8675
293.683,442.5,3.9579,0.8697
294.627,443.0,3.9579,0.8727
295.565,443.5,3.9579,0.8745
296.509,444.0,3.9579,0.8766
297.452,444.5,3.9579,0.8781
298.395,445.0,3.958,0.8805
299.339,445.5,3.9575,0.8814
300.289,446.0,3.9566,0.8846
301.241,446.5,3.9566,0.8861
302.183,447.0,3.9566,0.8887
303.127,447.5,3.9566,0.8905
304.067,448.0,3.9566,0.8928
305.004,448.5,3.9566,0.8938
305.94,449.0,3.9566,0.8962
306.881,449.5,3.9566,0.8991
307.819,450.0,3.9566,0.9002
308.756,450.5,3.9566,0.9032
309.695,451.0,3.957,0.9057
310.635,451.5,3.9569,0.9095
311.568,452.0,3.9569,0.9086
312.503,452.5,3.957,0.9108
313.438,453.0,3.957,0.9121
314.373,453.5,3.9569,0.9148
315.305,454.0,3.957,0.9185
316.238,454.5,3.957,0.92
317.173,455.0,3.957,0.9215
318.102,455.5,3.9569,0.9232
319.029,456.0,3.9569,0.9265
319.957,456.5,3.9569,0.9271
320.883,457.0,3.957,0.9294
321.807,457.5,3.957,0.9308
322.73,458.0,3.9568,0.9324
323.656,458.5,3.9555,0.9345
324.581,459.0,3.9556,0.9366
325.506,459.5,3.9556,0.9392
326.433,460.0,3.9556,0.9417
327.36,460.5,3.9557,0.9426
328.284,461.0,3.9557,0.9453
329.211,461.5,3.9567,0.9463
330.127,462.0,3.9566,0.9482
331.041,462.5,3.9566,0.9522
331.95,463.0,3.9566,0.9522
332.86,463.5,3.9566,0.9541
333.78,464.0,3.9566,0.9575
334.697,464.5,3.9566,0.9604
335.62,465.0,3.9566,0.9616
336.544,465.5,3.9567,0.9637
337.472,466.0,3.9554,0.9657
338.396,466.5,3.9553,0.9675
339.311,467.0,3.9553,0.9691
340.229,467.5,3.9553,0.971
341.146,468.0,3.9553,0.9747
342.062,468.5,3.9553,0.9765
342.979,469.0,3.9553,0.9792
343.899,469.5,3.9553,0.9803
344.815,470.0,3.9553,0.9825
345.732,470.5,3.9549,0.9861
346.649,471.0,3.9539,0.9883
347.566,471.5,3.954,0.9913
348.477,472.0,3.954,0.9913
349.388,472.5,3.954,0.9934
350.301,473.0,3.9533,0.996
351.207,473.5,3.9527,1.0
352.112,474.0,3.9527,1.0024
353.018,474.5,3.9527,1.0026
353.926,475.0,3.9527,1.0058
354.83,475.5,3.9527,1.0089
355.736,476.0,3.9519,1.0118
356.645,476.5,3.9513,1.0126
357.56,477.0,3.9513,1.0162
358.475,477.5,3.9512,1.0187
359.392,478.0,3.9501,1.0206
360.302,478.5,3.95,1.0225
361.213,479.0,3.95,1.0249
362.132,479.5,3.95,1.0272
363.042,480.0,3.9497,1.0279
363.95,480.5,3.9476,1.0313
364.86,481.0,3.9474,1.0358
365.771,481.5,3.9474,1.037
366.684,482.0,3.9474,1.0371
367.589,482.5,3.9473,1.041
368.498,483.0,3.9461,1.0438
369.406,483.5,3.9461,1.0438
370.31,484.0,3.9461,1.0441
371.218,484.5,3.9455,1.0447
372.123,485.0,3.9448,1.0475
373.031,485.5,3.9446,1.0487
373.934,486.0,3.9458,1.0524
374.843,486.5,3.9448,1.0574
375.747,487.0,3.9448,1.0593
376.653,487.5,3.9449,1.061
377.558,488.0,3.9437,1.0623
378.462,488.5,3.9434,1.0636
379.364,489.0,3.943,1.0652
380.266,489.5,3.9421,1.0685
381.172,490.0,3.9416,1.0694
382.077,490.5,3.9408,1.0713
382.982,491.0,3.9397,1.0709
383.886,491.5,3.9395,1.0745
384.794,492.0,3.9394,1.0789
385.698,492.5,3.9383,1.0817
386.602,493.0,3.9382,1.083
387.496,493.5,3.9374,1.0839
388.393,494.0,3.9366,1.0866
389.293,494.5,3.9362,1.0861
390.196,495.0,3.9351,1.0865
391.097,495.5,3.9353,1.0879
391.997,496.0,3.9339,1.0903
392.905,496.5,3.9338,1.0922
393.806,497.0,3.9324,1.0939
394.706,497.5,3.9321,1.0958
395.605,498.0,3.9319,1.0992
396.505,498.5,3.9308,1.1012
397.405,499.0,3.9309,1.1041
398.305,499.5,3.93,1.1036
399.211,500.0,3.9298,1.1051
400.112,500.5,3.9289,1.1122
401.011,501.0,3.9282,1.1123
401.908,501.5,3.9277,1.112
402.809,502.0,3.9268,1.1156
403.708,502.5,3.9276,1.1171
404.604,503.0,3.9263,1.1183
405.5,503.5,3.926,1.1202
406.397,504.0,3.9246,1.1227
407.297,504.5,3.9234,1.1251
408.196,505.0,3.923,1.1272
409.094,505.5,3.9215,1.1288
409.993,506.0,3.9205,1.132
410.893,506.5,3.9199,1.1332
411.793,507.0,3.9184,1.1322
412.691,507.5,3.918,1.1356
413.587,508.0,3.9162,1.137
414.485,508.5,3.9159,1.1398
415.382,509.0,3.9146,1.1407
416.278,509.5,3.9148,1.1414
417.174,510.0,3.9135,1.1426
418.069,510.5,3.9135,1.1438
418.965,511.0,3.912,1.145
419.862,511.5,3.9108,1.1462
420.757,512.0,3.9097,1.1474
421.654,512.5,3.9081,1.1498
422.552,513.0,3.9071,1.1527
423.451,513.5,3.9062,1.1532
424.347,514.0,3.9054,1.1543
425.232,514.5,3.9045,1.1539
426.123,515.0,3.9029,1.1531
427.018,515.5,3.9017,1.1529
427.91,516.0,3.9014,1.1543
428.802,516.5,3.9,1.1552
429.697,517.0,3.8992,1.1583
430.6,517.5,3.8981,1.1588
431.5,518.0,3.8964,1.1606
432.393,518.5,3.8953,1.1616
433.285,519.0,3.8947,1.163
434.179,519.5,3.893,1.1631
435.071,520.0,3.8929,1.1621
435.963,520.5,3.8917,1.1648
436.857,521.0,3.8916,1.1665
437.741,521.5,3.89,1.167
438.628,522.0,3.8896,1.1685
439.516,522.5,3.8882,1.167
440.41,523.0,3.8881,1.1671
441.304,523.5,3.8865,1.1688
442.198,524.0,3.8865,1.1697
443.099,524.5,3.8848,1.1716
444.001,525.0,3.8844,1.1729
444.9,525.5,3.8834,1.1739
445.792,526.0,3.8828,1.1754
446.686,526.5,3.8818,1.1753
447.579,527.0,3.8801,1.1749
448.47,527.5,3.8791,1.1763
449.36,528.0,3.8783,1.1763
450.252,528.5,3.8766,1.1744
451.142,529.0,3.8758,1.1753
452.03,529.5,3.8745,1.1756
452.92,530.0,3.8732,1.1781
453.813,530.5,3.8727,1.1764
454.705,531.0,3.8713,1.177
455.598,531.5,3.8696,1.179
456.489,532.0,3.8679,1.1796
457.386,532.5,3.8671,1.1784
458.276,533.0,3.8665,1.1797
459.168,533.5,3.8647,1.1793
460.058,534.0,3.8633,1.1805
460.948,534.5,3.862,1.1837
461.838,535.0,3.8601,1.1823
462.726,535.5,3.8581,1.1817
463.618,536.0,3.8566,1.1822
464.508,536.5,3.8552,1.1839
465.399,537.0,3.8536,1.1823
466.291,537.5,3.8519,1.181
467.179,538.0,3.8499,1.1812
468.072,538.5,3.8482,1.1808
468.959,539.0,3.8461,1.1821
469.848,539.5,3.8446,1.1813
470.738,540.0,3.8423,1.1807
471.621,540.5,3.8409,1.1822
472.506,541.0,3.8391,1.1805
473.389,541.5,3.8371,1.1818
474.271,542.0,3.836,1.1825
475.155,542.5,3.8356,1.1817
476.038,543.0,3.8338,1.1806
476.925,543.5,3.8316,1.1811
477.814,544.0,3.8313,1.1802
478.704,544.5,3.8296,1.179
479.596,545.0,3.8276,1.1794
480.495,545.5,3.826,1.1801
481.393,546.0,3.8234,1.1788
482.294,546.5,3.8218,1.179
483.19,547.0,3.8197,1.1795
484.086,547.5,3.8174,1.178
484.981,548.0,3.8158,1.1782
485.869,548.5,3.8134,1.1785
486.758,549.0,3.8116,1.1756
487.647,549.5,3.8094,1.1757
488.538,550.0,3.8075,1.1742
489.429,550.5,3.8053,1.173
490.318,551.0,3.8026,1.173
491.206,551.5,3.8017,1.1742
492.094,552.0,3.7995,1.1735
492.984,552.5,3.7969,1.1742
493.871,553.0,3.7949,1.1719
494.761,553.5,3.7924,1.1709
495.652,554.0,3.7904,1.173
496.545,554.5,3.7877,1.1713
497.436,555.0,3.7858,1.1716
498.325,555.5,3.7832,1.1712
499.218,556.0,3.7803,1.1693
500.11,556.5,3.7786,1.1697
501.001,557.0,3.7761,1.1688
501.885,557.5,3.7737,1.168
502.766,558.0,3.7712,1.1686
503.649,558.5,3.7687,1.169
504.54,559.0,3.7663,1.1676
505.427,559.5,3.7629,1.1673
506.316,560.0,3.7609,1.1681
507.212,560.5,3.7579,1.1664
508.111,561.0,3.7547,1.1664
509.008,561.5,3.7526,1.1656
509.898,562.0,3.7496,1.1649
510.792,562.5,3.7472,1.1644
511.682,563.0,3.744,1.1639
512.572,563.5,3.7402,1.165
513.457,564.0,3.7367,1.1642
514.347,564.5,3.7333,1.1636
515.236,565.0,3.7298,1.1635
516.124,565.5,3.727,1.1629
517.012,566.0,3.7238,1.1616
517.9,566.5,3.7209,1.1625
518.795,567.0,3.7169,1.1622
519.684,567.5,3.714,1.16
520.575,568.0,3.711,1.159
521.463,568.5,3.7068,1.1584
522.356,569.0,3.7042,1.1586
523.253,569.5,3.7003,1.1594
524.144,570.0,3.697,1.161
525.037,570.5,3.694,1.1614
525.93,571.0,3.6899,1.1607
526.826,571.5,3.6869,1.1599
527.716,572.0,3.6839,1.1595
528.605,572.5,3.6802,1.1575
529.497,573.0,3.6773,1.159
530.388,573.5,3.6736,1.1587
531.278,574.0,3.6695,1.158
532.167,574.5,3.6663,1.1574
533.057,575.0,3.6624,1.1582
533.947,575.5,3.6585,1.1588
534.837,576.0,3.655,1.1585
535.729,576.5,3.6504,1.1589
536.62,577.0,3.647,1.1597
537.515,577.5,3.6431,1.1591
538.408,578.0,3.6383,1.1591
539.301,578.5,3.6346,1.1583
540.195,579.0,3.63,1.1581
541.086,579.5,3.6253,1.1568
541.978,580.0,3.621,1.1572
542.869,580.5,3.6157,1.1572
543.763,581.0,3.6119,1.1589
544.656,581.5,3.6076,1.1589
545.549,582.0,3.6027,1.1591
546.441,582.5,3.5994,1.1591
547.334,583.0,3.5947,1.1591
548.227,583.5,3.5899,1.1608
549.12,584.0,3.5859,1.1615
550.014,584.5,3.5808,1.1623
550.903,585.0,3.5762,1.1629
551.79,585.5,3.5712,1.1635
552.676,586.0,3.5648,1.1633
553.567,586.5,3.5604,1.1657
554.46,587.0,3.5552,1.1668
555.352,587.5,3.5499,1.1667
556.244,588.0,3.5456,1.1676
557.141,588.5,3.5397,1.1695
558.04,589.0,3.5347,1.1709
558.934,589.5,3.5295,1.1727
559.827,590.0,3.5229,1.1738
560.719,590.5,3.518,1.1757
561.616,591.0,3.5124,1.1787
562.509,591.5,3.5061,1.1818
563.403,592.0,3.5012,1.1848
564.298,592.5,3.4949,1.1864
565.19,593.0,3.4879,1.1873
566.085,593.5,3.4815,1.1886
566.979,594.0,3.4741,1.1899
567.877,594.5,3.4688,1.194
568.773,595.0,3.463,1.1937
569.668,595.5,3.4562,1.1958
570.564,596.0,3.4507,1.199
571.456,596.5,3.4445,1.2009
572.349,597.0,3.4375,1.2034
573.241,597.5,3.431,1.2077
574.135,598.0,3.4229,1.2082
575.031,598.5,3.4168,1.2115
575.924,599.0,3.41,1.2143
576.821,599.5,3.4023,1.2154
577.718,600.0,3.3964,1.2196
578.616,600.5,3.3886,1.2219
579.511,601.0,3.3807,1.2261
580.407,601.5,3.3734,1.2311
581.303,602.0,3.3645,1.2296
582.201,602.5,3.3576,1.2331
583.096,603.0,3.3501,1.2331
583.991,603.5,3.3415,1.2389
584.889,604.0,3.3349,1.2406
585.785,604.5,3.3268,1.2429
586.681,605.0,3.3186,1.2451
587.577,605.5,3.3122,1.2488
588.475,606.0,3.303,1.252
589.373,606.5,3.2957,1.2549
590.27,607.0,3.2875,1.2582
591.17,607.5,3.2779,1.2621
592.069,608.0,3.2709,1.2646
592.968,608.5,3.2615,1.269
593.86,609.0,3.2523,1.2724
594.751,609.5,3.2443,1.2743
595.643,610.0,3.2339,1.2804
596.544,610.5,3.2255,1.2845
597.445,611.0,3.216,1.2872
598.346,611.5,3.2049,1.2895
599.255,612.0,3.197,1.294
600.162,612.5,3.1876,1.2973
601.067,613.0,3.1784,1.3001
601.965,613.5,3.1702,1.3038
602.864,614.0,3.1593,1.31
603.763,614.5,3.1504,1.3137
604.66,615.0,3.1405,1.3166
605.559,615.5,3.1292,1.3209
606.458,616.0,3.1206,1.3251
607.357,616.5,3.1086,1.3285
608.256,617.0,3.098,1.3327
609.156,617.5,3.0884,1.3378
610.059,618.0,3.0764,1.34
610.963,618.5,3.0671,1.3453
611.863,619.0,3.057,1.3495
612.764,619.5,3.045,1.3534
613.665,620.0,3.0362,1.3539
614.568,620.5,3.0248,1.36
615.467,621.0,3.0136,1.3629
616.367,621.5,3.0045,1.3645
617.268,622.0,2.992,1.3666
618.172,622.5,2.9825,1.3681
619.075,623.0,2.9719,1.3701
619.976,623.5,2.9595,1.3691
620.88,624.0,2.9496,1.3726
621.781,624.5,2.9373,1.3773
622.684,625.0,2.9254,1.3805
623.584,625.5,2.9149,1.384
624.488,626.0,2.9013,1.3865
625.393,626.5,2.891,1.3883
626.294,627.0,2.8797,1.3905
627.193,627.5,2.8672,1.3949
628.096,628.0,2.8575,1.3959
629.002,628.5,2.8452,1.3988
629.903,629.0,2.8331,1.4042
630.805,629.5,2.8221,1.407
631.71,630.0,2.8082,1.4098
632.623,630.5,2.7973,1.4148
633.529,631.0,2.7854,1.4172
634.435,631.5,2.7719,1.4201
635.339,632.0,2.7616,1.4232
636.247,632.5,2.7484,1.4257
637.152,633.0,2.736,1.431
638.059,633.5,2.7245,1.4341
638.966,634.0,2.7105,1.4384
639.873,634.5,2.6998,1.4441
640.782,635.0,2.6875,1.4449
641.689,635.5,2.6733,1.4525
642.602,636.0,2.6618,1.4607
643.51,636.5,2.6477,1.464
644.42,637.0,2.6352,1.4689
645.328,637.5,2.6231,1.4763
646.239,638.0,2.6083,1.4832
647.15,638.5,2.5965,1.4888
648.059,639.0,2.5827,1.494
648.97,639.5,2.5685,1.5008
649.879,640.0,2.5571,1.5092
650.789,640.5,2.5425,1.5152
651.701,641.0,2.53,1.5226
652.613,641.5,2.5168,1.5318
653.525,642.0,2.501,1.5401
654.44,642.5,2.4894,1.5507
655.358,643.0,2.475,1.5601
656.275,643.5,2.4609,1.5691
657.193,644.0,2.4484,1.5792
658.103,644.5,2.4327,1.5885
659.019,645.0,2.4202,1.6011
659.934,645.5,2.4059,1.6092
660.85,646.0,2.3894,1.6205
661.766,646.5,2.3765,1.6333
662.682,647.0,2.3607,1.6455
663.606,647.5,2.3467,1.6574
664.526,648.0,2.3334,1.6694
665.447,648.5,2.3165,1.6818
666.369,649.0,2.3035,1.6958
667.293,649.5,2.2875,1.709
668.217,650.0,2.2705,1.7235
669.138,650.5,2.2562,1.7393
670.061,651.0,2.2382,1.7534
670.979,651.5,2.2238,1.7659
671.901,652.0,2.2081,1.7797
672.822,652.5,2.1901,1.7953
673.745,653.0,2.1763,1.8115
674.667,653.5,2.1597,1.8252
675.594,654.0,2.1442,1.8413
676.525,654.5,2.1283,1.8561
677.451,655.0,2.1086,1.8731
678.377,655.5,2.0938,1.8853
679.305,656.0,2.0761,1.8981
680.229,656.5,2.058,1.9128
681.155,657.0,2.0424,1.9255
682.079,657.5,2.0229,1.937
683.001,658.0,2.0075,1.9507
683.925,658.5,1.9902,1.9627
684.851,659.0,1.9699,1.9757
685.778,659.5,1.9539,1.9851
686.703,660.0,1.934,1.9971
687.629,660.5,1.9163,2.0047
688.551,661.0,1.8989,2.0116
689.476,661.5,1.8777,2.0188
690.396,662.0,1.8612,2.0235
691.313,662.5,1.8423,2.0263
692.234,663.0,1.8231,2.0336
693.152,663.5,1.8067,2.0334
694.073,664.0,1.7856,2.0345
694.988,664.5,1.7689,2.0333
695.906,665.0,1.7505,2.0276
696.822,665.5,1.7298,2.0197
697.736,666.0,1.7142,2.0104
698.65,666.5,1.6946,1.9982
699.551,667.0,1.6763,1.9853
700.453,667.5,1.6592,1.9702
701.36,668.0,1.6381,1.9518
702.265,668.5,1.6224,1.9313
703.169,669.0,1.6048,1.9093
704.069,669.5,1.5853,1.8842
704.977,670.0,1.5704,1.8541
705.884,670.5,1.5517,1.8243
706.784,671.0,1.5355,1.7901
707.683,671.5,1.5203,1.7529
708.572,672.0,1.5018,1.7139
709.467,672.5,1.488,1.6725
710.361,673.0,1.4726,1.627
711.25,673.5,1.4554,1.5805
712.134,674.0,1.4424,1.5338
713.02,674.5,1.4271,1.4852
713.91,675.0,1.413,1.4306
714.795,675.5,1.4007,1.3774
715.677,676.0,1.3863,1.3219
716.56,676.5,1.3752,1.2663
717.445,677.0,1.3633,1.2103
718.327,677.5,1.3498,1.1512
719.209,678.0,1.3407,1.0937
720.091,678.5,1.33,1.0368
720.975,679.0,1.3194,0.9797
721.859,679.5,1.311,0.9216
722.745,680.0,1.3003,0.8628
723.628,680.5,1.2916,0.8036
724.513,681.0,1.2835,0.754
725.398,681.5,1.2745,0.6999
726.285,682.0,1.2685,0.6457
727.171,682.5,1.2614,0.595
728.058,683.0,1.2538,0.5454
728.947,683.5,1.2483,0.4994
729.834,684.0,1.2423,0.4546
730.725,684.5,1.2368,0.4132
731.618,685.0,1.2321,0.3693
732.514,685.5,1.2263,0.3293
733.411,686.0,1.2221,0.291
734.314,686.5,1.2175,0.2598
735.219,687.0,1.2138,0.2303
736.125,687.5,1.2124,0.2003
737.032,688.0,1.2085,0.172
737.94,688.5,1.2061,0.1478
738.847,689.0,1.2028,0.1248
739.757,689.5,1.1988,0.1071
740.668,690.0,1.1967,0.0903
741.58,690.5,1.1939,0.0787
742.495,691.0,1.1915,0.0657
743.411,691.5,1.1894,0.0517
744.33,692.0,1.1869,0.04
745.251,692.5,1.1855,0.0316
746.172,693.0,1.1835,0.0227
747.093,693.5,1.1825,0.0118
748.012,694.0,1.1809,0.005
748.935,694.5,1.179,-0.0041
749.856,695.0,1.1772,-0.0116
750.777,695.5,1.1741,-0.0173
751.698,696.0,1.1724,-0.0213
752.619,696.5,1.171,-0.027
753.542,697.0,1.1693,-0.0371
754.463,697.5,1.1673,-0.0451
755.384,698.0,1.165,-0.0506
756.306,698.5,1.1633,-0.0567
757.233,699.0,1.1618,-0.0602
758.157,699.5,1.1604,-0.0618
759.078,700.0,1.159,-0.0637
760.006,700.5,1.1572,-0.065
760.934,701.0,1.1557,-0.0681
761.856,701.5,1.154,-0.0767
762.776,702.0,1.1521,-0.0808
763.701,702.5,1.1506,-0.0849
764.634,703.0,1.1476,-0.088
765.56,703.5,1.1463,-0.093
766.486,704.0,1.1445,-0.0955
767.417,704.5,1.1432,-0.0976
768.35,705.0,1.1419,-0.0996
769.278,705.5,1.142,-0.1027
770.203,706.0,1.1403,-0.1065
771.13,706.5,1.139,-0.1097
772.057,707.0,1.1376,-0.1137
772.988,707.5,1.1363,-0.1159
773.912,708.0,1.1347,-0.1193
774.843,708.5,1.1333,-0.1232
775.771,709.0,1.1324,-0.1263
776.7,709.5,1.1305,-0.1324
777.63,710.0,1.1287,-0.134
778.557,710.5,1.1272,-0.1382
779.489,711.0,1.1262,-0.1405
780.417,711.5,1.1259,-0.1451
781.346,712.0,1.1244,-0.1468
782.275,712.5,1.1226,-0.1488
783.202,713.0,1.1204,-0.1508
784.134,713.5,1.1177,-0.1557
785.063,714.0,1.1157,-0.1608
785.993,714.5,1.1142,-0.1644
786.924,715.0,1.1122,-0.1626
787.854,715.5,1.1111,-0.1642
788.785,716.0,1.1099,-0.1662
789.715,716.5,1.1092,-0.173
790.645,717.0,1.108,-0.1729
791.575,717.5,1.108,-0.1741
792.505,718.0,1.107,-0.1784
793.437,718.5,1.1066,-0.1766
794.367,719.0,1.1055,-0.1791
795.296,719.5,1.1043,-0.1816
796.226,720.0,1.103,-0.1829
797.159,720.5,1.1014,-0.1856
798.089,721.0,1.1003,-0.1883
799.022,721.5,1.0994,-0.1914
799.955,722.0,1.0978,-0.1899
800.889,722.5,1.0965,-0.1908
801.822,723.0,1.0955,-0.1921
802.754,723.5,1.0945,-0.192
803.687,724.0,1.0929,-0.1915
804.615,724.5,1.0925,-0.1948
805.55,725.0,1.09,-0.1968
806.482,725.5,1.089,-0.1996
807.418,726.0,1.0882,-0.2
808.353,726.5,1.0867,-0.1941
809.286,727.0,1.0854,-0.1918
810.225,727.5,1.0842,-0.1919
811.159,728.0,1.0827,-0.1941
812.094,728.5,1.0814,-0.1977
813.029,729.0,1.0806,-0.1961
813.965,729.5,1.0791,-0.1942
814.902,730.0,1.0779,-0.1954
815.838,730.5,1.0783,-0.1973
816.776,731.0,1.0769,-0.195
817.714,731.5,1.0759,-0.1912
818.649,732.0,1.0763,-0.1872
819.586,732.5,1.0751,-0.1899
820.522,733.0,1.0742,-0.1897
821.46,733.5,1.0726,-0.1902
822.396,734.0,1.0712,-0.189
823.332,734.5,1.0697,-0.187
824.272,735.0,1.0685,-0.1852
825.212,735.5,1.0667,-0.1823
826.151,736.0,1.0657,-0.1812
827.087,736.5,1.0649,-0.1797
828.028,737.0,1.0634,-0.1763
828.966,737.5,1.0632,-0.175
829.903,738.0,1.0618,-0.1702
830.844,738.5,1.0604,-0.1685
831.784,739.0,1.0589,-0.1667
832.725,739.5,1.0572,-0.162
833.665,740.0,1.0555,-0.1596
834.601,740.5,1.0538,-0.1567
835.545,741.0,1.0524,-0.1532
836.487,741.5,1.051,-0.1523
837.431,742.0,1.0493,-0.1471
838.373,742.5,1.0478,-0.1423
839.317,743.0,1.0464,-0.1374
840.267,743.5,1.0442,-0.133
841.207,744.0,1.0433,-0.13
842.146,744.5,1.0424,-0.1265
843.091,745.0,1.0418,-0.1226
844.035,745.5,1.0406,-0.1216
844.979,746.0,1.0402,-0.115
845.919,746.5,1.0386,-0.1123
846.862,747.0,1.0377,-0.1084
847.805,747.5,1.0369,-0.1036
848.746,748.0,1.0354,-0.0977
849.69,748.5,1.0349,-0.0958
850.634,749.0,1.0337,-0.0933
851.58,749.5,1.0332,-0.089
852.526,750.0,1.0324,-0.0857
853.473,750.5,1.0325,-0.0819
854.417,751.0,1.0337,-0.0763
855.361,751.5,1.0338,-0.0742
856.304,752.0,1.0327,-0.0685
857.244,752.5,1.0313,-0.0642
858.182,753.0,1.0301,-0.0631
859.115,753.5,1.0291,-0.0605
860.055,754.0,1.0266,-0.0569
860.997,754.5,1.0262,-0.0527
861.943,755.0,1.0246,-0.0488
862.885,755.5,1.0233,-0.0384
863.836,756.0,1.022,-0.0343
864.79,756.5,1.0209,-0.0311
865.744,757.0,1.0194,-0.0302
866.694,757.5,1.0176,-0.0283
867.646,758.0,1.0184,-0.0245
868.601,758.5,1.0177,-0.0233
869.55,759.0,1.0177,-0.0178
870.496,759.5,1.0166,-0.015
871.441,760.0,1.0164,-0.0124
872.388,760.5,1.0164,-0.0089
873.334,761.0,1.0154,-0.0064
874.282,761.5,1.0151,-0.0038
875.23,762.0,1.0136,-0.0013
876.178,762.5,1.0124,-0.0016
877.127,763.0,1.0113,0.0014
878.076,763.5,1.0096,0.0063
879.024,764.0,1.0086,0.009
879.972,764.5,1.0079,0.0132
880.921,765.0,1.0062,0.0165
881.871,765.5,1.0063,0.0211
882.822,766.0,1.0057,0.0241
883.771,766.5,1.0048,0.0258
884.721,767.0,1.0045,0.0254
885.668,767.5,1.0034,0.0316
886.615,768.0,1.0033,0.0318
887.561,768.5,1.0018,0.0342
888.508,769.0,1.002,0.0366
889.458,769.5,1.0007,0.0374
890.409,770.0,1.0005,0.0412
891.36,770.5,0.9992,0.0449
892.308,771.0,0.9992,0.0469
893.258,771.5,0.9988,0.0496
894.207,772.0,0.9977,0.0509
895.148,772.5,0.9961,0.0545
896.091,773.0,0.995,0.0556
897.033,773.5,0.995,0.0586
897.988,774.0,0.9941,0.0594
898.936,774.5,0.9937,0.0592
899.893,775.0,0.9932,0.0608
900.851,775.5,0.993,0.0629
901.813,776.0,0.9935,0.0632
902.77,776.5,0.9924,0.0625
903.723,777.0,0.9922,0.0644
904.675,777.5,0.992,0.0636
905.627,778.0,0.9907,0.0617
906.578,778.5,0.9909,0.0635
907.53,779.0,0.9895,0.0629
908.48,779.5,0.9894,0.0643
909.433,780.0,0.9882,0.0633
910.386,780.5,0.988,0.0659
911.335,781.0,0.9872,0.0668
912.285,781.5,0.9866,0.0679
913.24,782.0,0.9856,0.0688
914.196,782.5,0.9851,0.0674
915.145,783.0,0.9847,0.0696
916.098,783.5,0.9838,0.0747
917.058,784.0,0.9838,0.0744
918.012,784.5,0.9839,0.0737
918.963,785.0,0.9826,0.0772
919.915,785.5,0.9825,0.076
920.866,786.0,0.9832,0.0757
921.814,786.5,0.9833,0.0759
922.764,787.0,0.9822,0.0777
923.717,787.5,0.9822,0.0792
924.67,788.0,0.9822,0.0797
925.621,788.5,0.9807,0.0795
926.577,789.0,0.9806,0.0822
927.533,789.5,0.9793,0.0846
928.492,790.0,0.9792,0.0833
929.448,790.5,0.9789,0.0832
930.404,791.0,0.9767,0.0859
931.364,791.5,0.9766,0.088
932.319,792.0,0.9752,0.0886
933.274,792.5,0.975,0.0887
934.227,793.0,0.9734,0.0887
935.181,793.5,0.9734,0.0881
936.137,794.0,0.9733,0.0858
937.094,794.5,0.9721,0.0865
938.053,795.0,0.9721,0.0874
939.007,795.5,0.9721,0.0875
939.954,796.0,0.9721,0.0884
940.909,796.5,0.9721,0.0911
941.863,797.0,0.9734,0.0945
942.816,797.5,0.9734,0.0943
943.77,798.0,0.9729,0.095
944.732,798.5,0.972,0.0944
945.693,799.0,0.9708,0.0911
946.648,799.5,0.9695,0.0916
947.605,800.0,0.9683,0.09
948.565,800.5,0.9666,0.0911
949.522,801.0,0.9653,0.0905
950.479,801.5,0.9648,0.0913
951.436,802.0,0.9636,0.0925
952.391,802.5,0.9634,0.0956
953.346,803.0,0.9626,0.0961
954.303,803.5,0.9621,0.0986
955.258,804.0,0.9621,0.096
956.218,804.5,0.9611,0.0942
957.177,805.0,0.9608,0.0977
958.135,805.5,0.9608,0.0986
959.092,806.0,0.96,0.1013
960.05,806.5,0.9594,0.1022
961.008,807.0,0.9591,0.1001
961.963,807.5,0.958,0.1004
962.92,808.0,0.958,0.1024
963.881,808.5,0.9577,0.1041
964.839,809.0,0.9567,0.1044
965.797,809.5,0.9566,0.1056
966.757,810.0,0.9552,0.1035
967.713,810.5,0.9553,0.1028
968.665,811.0,0.9551,0.1052
969.616,811.5,0.954,0.1049
970.572,812.0,0.954,0.1048
971.524,812.5,0.9539,0.1056
972.477,813.0,0.9538,0.1036
973.435,813.5,0.9534,0.1037
974.395,814.0,0.954,0.1038
975.358,814.5,0.954,0.1035
976.322,815.0,0.954,0.1051
977.286,815.5,0.9535,0.1054
978.25,816.0,0.9526,0.1072
979.213,816.5,0.9526,0.1061
980.176,817.0,0.9524,0.1021
981.136,817.5,0.9513,0.0995
982.094,818.0,0.9513,0.1017
983.053,818.5,0.9514,0.104
984.01,819.0,0.9505,0.1043
984.969,819.5,0.9487,0.1067
985.928,820.0,0.9486,0.107
986.885,820.5,0.9473,0.1048
987.842,821.0,0.9473,0.1059
988.804,821.5,0.9463,0.1057
989.762,822.0,0.9459,0.1071
990.721,822.5,0.9459,0.105
991.672,823.0,0.9453,0.1059
992.631,823.5,0.9446,0.1018
993.59,824.0,0.9446,0.1025
994.552,824.5,0.9446,0.1021
995.513,825.0,0.9442,0.0974
996.478,825.5,0.9432,0.0999
997.447,826.0,0.9433,0.1054
998.408,826.5,0.9446,0.105
999.369,827.0,0.9446,0.1043
1000.33,827.5,0.9446,0.1055
1001.29,828.0,0.9447,0.1033
1002.26,828.5,0.9437,0.1039
1003.23,829.0,0.9433,0.1041
1004.19,829.5,0.9434,0.1049
1005.15,830.0,0.9421,0.1054
1006.11,830.5,0.9418,0.1034
1007.07,831.0,0.9404,0.1042
1008.03,831.5,0.9403,0.1039
1008.99,832.0,0.9388,0.1052
1009.95,832.5,0.9382,0.1067
1010.91,833.0,0.9371,0.1058
1011.88,833.5,0.937,0.1038
1012.84,834.0,0.9359,0.1017
1013.8,834.5,0.9359,0.1005
1014.76,835.0,0.9358,0.1022
1015.73,835.5,0.9357,0.1034
1016.69,836.0,0.9343,0.1044
1017.65,836.5,0.9341,0.1055
1018.61,837.0,0.9327,0.1042
1019.58,837.5,0.9327,0.1045
1020.54,838.0,0.9314,0.1031
1021.51,838.5,0.9313,0.1041
1022.47,839.0,0.9313,0.1037
1023.44,839.5,0.9303,0.1024
1024.4,840.0,0.93,0.1041
1025.36,840.5,0.9288,0.1032
1026.32,841.0,0.9287,0.1012
1027.29,841.5,0.9287,0.1008
1028.25,842.0,0.9287,0.1005
1029.21,842.5,0.9287,0.0991
1030.18,843.0,0.9275,0.0972
1031.14,843.5,0.9274,0.0972
1032.11,844.0,0.9273,0.097
1033.07,844.5,0.926,0.097
1034.03,845.0,0.9258,0.0974
1034.99,845.5,0.9245,0.0956
1035.95,846.0,0.9244,0.0958
1036.91,846.5,0.9244,0.0951
1037.87,847.0,0.9232,0.097
1038.84,847.5,0.9231,0.0977
1039.8,848.0,0.9231,0.0981
1040.77,848.5,0.9231,0.0967
1041.73,849.0,0.9231,0.0953
1042.69,849.5,0.922,0.095
1043.66,850.0,0.9218,0.0949
1044.62,850.5,0.9218,0.0952
1045.58,851.0,0.9219,0.0942
1046.55,851.5,0.9228,0.0941
1047.51,852.0,0.9228,0.0928
1048.47,852.5,0.9221,0.0933
1049.44,853.0,0.9214,0.0914
1050.4,853.5,0.9215,0.0921
1051.37,854.0,0.9202,0.0935
1052.33,854.5,0.9205,0.0943
1053.29,855.0,0.9207,0.0926
1054.26,855.5,0.9201,0.0929
1055.23,856.0,0.9202,0.092
1056.2,856.5,0.919,0.0914
1057.16,857.0,0.9188,0.092
1058.12,857.5,0.9188,0.093
1059.09,858.0,0.9188,0.0918
1060.05,858.5,0.9175,0.0916
1061.02,859.0,0.9175,0.0901
1061.98,859.5,0.9175,0.0887
1062.95,860.0,0.9167,0.0889
1063.92,860.5,0.9162,0.089
1064.89,861.0,0.9161,0.0911
1065.85,861.5,0.9174,0.0897
1066.81,862.0,0.9175,0.0893
1067.78,862.5,0.9164,0.0905
1068.74,863.0,0.9162,0.0907
1069.71,863.5,0.9162,0.0913
1070.68,864.0,0.9162,0.093
1071.64,864.5,0.9162,0.0888
1072.61,865.0,0.9152,0.0911
1073.58,865.5,0.9149,0.0908
1074.55,866.0,0.9149,0.0901
1075.51,866.5,0.9149,0.0889
1076.48,867.0,0.9138,0.0903
1077.45,867.5,0.9124,0.0905
1078.42,868.0,0.9122,0.0911
1079.38,868.5,0.912,0.0895
1080.34,869.0,0.9108,0.0902
1081.31,869.5,0.9109,0.0897
1082.27,870.0,0.9098,0.0885
1083.23,870.5,0.9095,0.0878
1084.2,871.0,0.9089,0.0875
1085.18,871.5,0.9081,0.0889
1086.15,872.0,0.9082,0.0889
1087.12,872.5,0.9084,0.0884
1088.09,873.0,0.9085,0.0889
1089.06,873.5,0.9085,0.0885
1090.02,874.0,0.9079,0.0861
1090.99,874.5,0.9072,0.0874
1091.96,875.0,0.9072,0.0871
1092.93,875.5,0.9071,0.0871
1093.9,876.0,0.9058,0.0891
1094.86,876.5,0.9059,0.0855
1095.83,877.0,0.9056,0.0876
1096.79,877.5,0.9046,0.0873
1097.76,878.0,0.9045,0.0869
1098.73,878.5,0.9031,0.0865
1099.7,879.0,0.9031,0.085
1100.67,879.5,0.9028,0.0834
1101.64,880.0,0.9017,0.0843
1102.62,880.5,0.9014,0.0824
1103.59,881.0,0.9001,0.0846
1104.55,881.5,0.9002,0.0843
1105.52,882.0,0.8992,0.0811
1106.49,882.5,0.8988,0.0805
1107.45,883.0,0.8988,0.0816
1108.42,883.5,0.8989,0.0794
1109.4,884.0,0.8982,0.0803
1110.37,884.5,0.8986,0.0793
1111.34,885.0,0.8985,0.0774
1112.32,885.5,0.8985,0.0773
1113.29,886.0,0.8985,0.0751
1114.26,886.5,0.8979,0.0741
1115.23,887.0,0.8972,0.0748
1116.2,887.5,0.8972,0.0734
1117.17,888.0,0.8963,0.0721
1118.14,888.5,0.8959,0.0725
1119.11,889.0,0.8959,0.0702
1120.09,889.5,0.896,0.071
1121.06,890.0,0.8948,0.0679
1122.03,890.5,0.8946,0.0667
1123,891.0,0.8935,0.0649
1123.98,891.5,0.8936,0.0682
1124.95,892.0,0.8934,0.0661
1125.92,892.5,0.8921,0.0673
1126.89,893.0,0.8923,0.0664
1127.87,893.5,0.8924,0.0654
1128.84,894.0,0.8936,0.0663
1129.81,894.5,0.8923,0.0648
1130.78,895.0,0.8923,0.065
1131.76,895.5,0.8923,0.0652
1132.73,896.0,0.8923,0.0637
1133.7,896.5,0.8913,0.0624
1134.67,897.0,0.8909,0.0613
1135.65,897.5,0.8909,0.0607
1136.62,898.0,0.8909,0.0612
1137.59,898.5,0.8909,0.0581
1138.57,899.0,0.8909,0.0589
1139.54,899.5,0.8905,0.0599
1140.51,900.0,0.8896,0.0588
1141.48,900.5,0.8896,0.0576
1142.46,901.0,0.8896,0.0583
1143.43,901.5,0.889,0.0587
1144.4,902.0,0.8881,0.0579
1145.37,902.5,0.8891,0.0561
1146.35,903.0,0.8889,0.0554
1147.32,903.5,0.8878,0.054
1148.3,904.0,0.8879,0.0548
1149.28,904.5,0.8878,0.0554
1150.25,905.0,0.8865,0.0561
1151.22,905.5,0.8866,0.0537
1152.2,906.0,0.8864,0.0521
1153.17,906.5,0.8853,0.0565
1154.15,907.0,0.8852,0.0499
1155.13,907.5,0.8852,0.0529
1156.1,908.0,0.884,0.0547
1157.08,908.5,0.8839,0.0562
1158.06,909.0,0.8839,0.0574
1159.03,909.5,0.8839,0.06
1160.01,910.0,0.8838,0.0587
1160.98,910.5,0.8826,0.0549
1161.96,911.0,0.8826,0.0536
1162.94,911.5,0.8826,0.0497
1163.91,912.0,0.8826,0.0478
1164.89,912.5,0.8819,0.0484
1165.86,913.0,0.8812,0.0466
1166.84,913.5,0.8808,0.0486
1167.81,914.0,0.8798,0.0485
1168.79,914.5,0.8798,0.0432
1169.77,915.0,0.8798,0.0411
1170.75,915.5,0.8798,0.0427
1171.73,916.0,0.8798,0.0425
1172.7,916.5,0.8798,0.0424
1173.68,917.0,0.8798,0.0461
1174.66,917.5,0.8792,0.0458
1175.64,918.0,0.8789,0.0453
1176.62,918.5,0.8789,0.0421
1177.6,919.0,0.8789,0.0414
1178.57,919.5,0.8789,0.0416
1179.55,920.0,0.8789,0.0423
1180.53,920.5,0.8788,0.0391
1181.51,921.0,0.8775,0.0389
1182.49,921.5,0.8776,0.0386
1183.47,922.0,0.8777,0.0363
1184.44,922.5,0.8785,0.0345
1185.42,923.0,0.8776,0.0353
1186.4,923.5,0.8772,0.0325
1187.38,924.0,0.8772,0.0305
1188.36,924.5,0.8772,0.0297
1189.34,925.0,0.8772,0.0263
1190.31,925.5,0.8768,0.025
1191.29,926.0,0.8758,0.0223
1192.27,926.5,0.8759,0.0232
1193.25,927.0,0.8755,0.0233
1194.22,927.5,0.8745,0.0229
1195.2,928.0,0.8746,0.0222
1196.18,928.5,0.8745,0.021
1197.16,929.0,0.8732,0.0186
1198.13,929.5,0.8733,0.0206
1199.11,930.0,0.8733,0.0198
1200.09,930.5,0.8733,0.016
1201.07,931.0,0.8731,0.0131
1202.04,931.5,0.8719,0.0152
1203.03,932.0,0.8719,0.0122
1204,932.5,0.8719,0.0099
1204.98,933.0,0.8719,0.0081
1205.95,933.5,0.8719,0.0065
1206.94,934.0,0.8719,0.0047
1207.92,934.5,0.8719,0.0045
1208.91,935.0,0.8706,0.0029
1209.88,935.5,0.8706,0.0031
1210.86,936.0,0.8706,0.0014
1211.84,936.5,0.8708,0.0018
1212.82,937.0,0.8709,-0.0005
1213.8,937.5,0.8707,-0.0016
1214.79,938.0,0.8696,-0.0009
1215.78,938.5,0.8697,-0.0004
1216.77,939.0,0.8706,-0.0048
1217.75,939.5,0.8708,-0.0067
1218.73,940.0,0.8709,-0.0084
1219.72,940.5,0.871,-0.0138
1220.7,941.0,0.8702,-0.015
1221.69,941.5,0.8696,-0.0121
1222.68,942.0,0.8696,-0.0115
1223.66,942.5,0.8696,-0.0108
1224.64,943.0,0.8683,-0.009
1225.63,943.5,0.8683,-0.0166
1226.6,944.0,0.8683,-0.0174
1227.58,944.5,0.8683,-0.0175
1228.56,945.0,0.8673,-0.0175
1229.55,945.5,0.867,-0.0189
1230.53,946.0,0.867,-0.0218
1231.51,946.5,0.867,-0.0234
1232.5,947.0,0.867,-0.0229
1233.48,947.5,0.8665,-0.0214
1234.47,948.0,0.867,-0.0212
1235.45,948.5,0.867,-0.0232
1236.43,949.0,0.866,-0.0223
1237.42,949.5,0.8657,-0.0246
1238.4,950.0,0.8657,-0.0272
1239.39,950.5,0.8657,-0.0282
1240.37,951.0,0.8649,-0.0292
1241.36,951.5,0.8643,-0.0312
1242.34,952.0,0.8644,-0.0331
1243.33,952.5,0.8644,-0.0336
1244.31,953.0,0.8644,-0.0377
1245.3,953.5,0.8643,-0.0376
1246.28,954.0,0.863,-0.0381
1247.26,954.5,0.8631,-0.0379
1248.25,955.0,0.8631,-0.0397
1249.23,955.5,0.8628,-0.0395
1250.22,956.0,0.8616,-0.0411
1251.21,956.5,0.8617,-0.0406
1252.19,957.0,0.8618,-0.0403
1253.18,957.5,0.8607,-0.043
1254.16,958.0,0.8604,-0.0454
1255.13,958.5,0.8604,-0.0469
1256.11,959.0,0.8604,-0.0466
1257.09,959.5,0.86,-0.0479
1258.08,960.0,0.859,-0.0485
1259.07,960.5,0.8591,-0.0522
1260.06,961.0,0.8591,-0.0543
1261.05,961.5,0.8595,-0.0556
1262.03,962.0,0.8597,-0.059
1263.02,962.5,0.8598,-0.0614
1264,963.0,0.8597,-0.0643
1264.98,963.5,0.8597,-0.0635
1265.97,964.0,0.8598,-0.0638
1266.96,964.5,0.8597,-0.0625
1267.95,965.0,0.8597,-0.0627
1268.94,965.5,0.8591,-0.0697
1269.92,966.0,0.8592,-0.0703
1270.91,966.5,0.8584,-0.0667
1271.9,967.0,0.8585,-0.0668
1272.88,967.5,0.8584,-0.0671
1273.86,968.0,0.8584,-0.0659
1274.85,968.5,0.8574,-0.071
1275.84,969.0,0.8571,-0.0727
1276.83,969.5,0.8571,-0.0736
1277.82,970.0,0.8571,-0.073
1278.81,970.5,0.8571,-0.0736
1279.8,971.0,0.8569,-0.0738
1280.78,971.5,0.8557,-0.0764
1281.77,972.0,0.8558,-0.0794
1282.76,972.5,0.8558,-0.082
1283.75,973.0,0.8558,-0.0821
1284.73,973.5,0.8558,-0.0853
1285.73,974.0,0.8558,-0.0888
1286.72,974.5,0.8558,-0.0861
1287.71,975.0,0.8558,-0.086
1288.69,975.5,0.8546,-0.0898
1289.68,976.0,0.8552,-0.0917
1290.66,976.5,0.8551,-0.0913
1291.64,977.0,0.8552,-0.0925
1292.62,977.5,0.854,-0.0966
1293.62,978.0,0.8538,-0.0988
1294.61,978.5,0.8538,-0.0983
1295.61,979.0,0.8536,-0.0993
1296.61,979.5,0.8525,-0.1003
1297.61,980.0,0.8525,-0.103
1298.6,980.5,0.8525,-0.1031
1299.59,981.0,0.8525,-0.1039
1300.58,981.5,0.8528,-0.1073
1301.57,982.0,0.8539,-0.1078
1302.56,982.5,0.8526,-0.1118
1303.55,983.0,0.8525,-0.1143
1304.54,983.5,0.8525,-0.113
1305.53,984.0,0.8525,-0.117
1306.52,984.5,0.8525,-0.1201
1307.52,985.0,0.8525,-0.1241
1308.51,985.5,0.8538,-0.1252
1309.5,986.0,0.8528,-0.1258
1310.49,986.5,0.8525,-0.126
1311.48,987.0,0.8525,-0.1278
1312.47,987.5,0.8525,-0.1273
1313.46,988.0,0.8525,-0.1286
1314.45,988.5,0.8525,-0.1318
1315.45,989.0,0.8525,-0.1302
1316.44,989.5,0.8525,-0.1307
1317.43,990.0,0.8525,-0.1311
1318.43,990.5,0.8525,-0.1326
1319.42,991.0,0.8525,-0.1332
1320.41,991.5,0.8525,-0.1347
1321.41,992.0,0.8524,-0.1366
1322.4,992.5,0.8512,-0.1406
1323.39,993.0,0.8512,-0.144
1324.38,993.5,0.8512,-0.1456
1325.38,994.0,0.8518,-0.1453
1326.37,994.5,0.8511,-0.1464
1327.36,995.0,0.8512,-0.147
1328.35,995.5,0.8504,-0.1474
1329.34,996.0,0.8499,-0.1472
1330.34,996.5,0.8499,-0.1468
1331.33,997.0,0.8502,-0.1501
1332.32,997.5,0.8498,-0.1509
1333.32,998.0,0.8499,-0.1529
1334.31,998.5,0.8499,-0.1559
1335.3,999.0,0.8489,-0.156
1336.29,999.5,0.8485,-0.1579
1337.28,1000.0,0.8482,-0.1593
1338.27,1000.5,0.8482,-0.1599
1339.26,1001.0,0.8482,-0.1624
1340.26,1001.5,0.8476,-0.1648
1341.25,1002.0,0.8469,-0.1668
1342.25,1002.5,0.8469,-0.1696
1343.24,1003.0,0.8469,-0.1701
1344.23,1003.5,0.8469,-0.1716
1345.23,1004.0,0.8469,-0.1735
1346.22,1004.5,0.8456,-0.1766
1347.21,1005.0,0.8456,-0.1786
1348.2,1005.5,0.8456,-0.1802
1349.2,1006.0,0.8456,-0.1826
1350.19,1006.5,0.8456,-0.1834
1351.19,1007.0,0.8465,-0.1854
1352.18,1007.5,0.8469,-0.1857
1353.17,1008.0,0.8469,-0.1839
1354.17,1008.5,0.8464,-0.1827
1355.16,1009.0,0.8451,-0.1881
1356.15,1009.5,0.8441,-0.1891
1357.15,1010.0,0.8442,-0.1919
1358.14,1010.5,0.8442,-0.1965
1359.13,1011.0,0.8437,-0.2004
1360.12,1011.5,0.8428,-0.1998
1361.12,1012.0,0.8429,-0.1977
1362.11,1012.5,0.8442,-0.1998
1363.1,1013.0,0.8441,-0.2027
1364.1,1013.5,0.8442,-0.2026
1365.09,1014.0,0.8442,-0.2048
1366.08,1014.5,0.8442,-0.2071
1367.08,1015.0,0.8442,-0.2104
1368.08,1015.5,0.8442,-0.211
1369.07,1016.0,0.8442,-0.2144
1370.06,1016.5,0.8432,-0.2127
1371.06,1017.0,0.8428,-0.2135
1372.05,1017.5,0.8429,-0.2154
1373.04,1018.0,0.843,-0.2123
1374.04,1018.5,0.8442,-0.2139
1375.03,1019.0,0.8442,-0.2144
1376.03,1019.5,0.8442,-0.2131
1377.02,1020.0,0.8442,-0.2132
1378.01,1020.5,0.8442,-0.2141
1379.01,1021.0,0.8443,-0.216
1380.01,1021.5,0.8448,-0.217
1381.01,1022.0,0.8448,-0.2177
1382,1022.5,0.8448,-0.2178
1383.01,1023.0,0.8436,-0.2174
1384,1023.5,0.8435,-0.2183
1384.99,1024.0,0.8435,-0.2217
1385.99,1024.5,0.8435,-0.224
1386.98,1025.0,0.8432,-0.225
1387.97,1025.5,0.8421,-0.2284
1388.96,1026.0,0.8428,-0.232
1389.96,1026.5,0.8428,-0.2323
1390.96,1027.0,0.8428,-0.231
1391.95,1027.5,0.8428,-0.2317
1392.95,1028.0,0.8428,-0.2297
1393.95,1028.5,0.8428,-0.231
1394.94,1029.0,0.8429,-0.2334
1395.94,1029.5,0.842,-0.2354
1396.94,1030.0,0.8415,-0.2333
1397.94,1030.5,0.8415,-0.2348
1398.94,1031.0,0.8416,-0.2357
1399.94,1031.5,0.8429,-0.2377
1400.93,1032.0,0.8428,-0.2381
1401.93,1032.5,0.8429,-0.24
1402.93,1033.0,0.8418,-0.2391
1403.93,1033.5,0.8415,-0.237
1404.92,1034.0,0.8415,-0.2376
1405.92,1034.5,0.8415,-0.2393
1406.91,1035.0,0.8415,-0.2393
1407.91,1035.5,0.8413,-0.2426
1408.9,1036.0,0.8402,-0.2436
1409.9,1036.5,0.8402,-0.2475
1410.9,1037.0,0.8402,-0.2501
1411.89,1037.5,0.8402,-0.2476
1412.89,1038.0,0.839,-0.253
1413.89,1038.5,0.8389,-0.2516
1414.88,1039.0,0.8389,-0.2515
1415.88,1039.5,0.8389,-0.2517
1416.87,1040.0,0.8389,-0.2463
1417.87,1040.5,0.8389,-0.2466
1418.86,1041.0,0.8389,-0.2484
1419.86,1041.5,0.8389,-0.2501
1420.86,1042.0,0.8389,-0.2492
1421.86,1042.5,0.8389,-0.2504
1422.85,1043.0,0.8389,-0.2524
1423.85,1043.5,0.8389,-0.2493
1424.85,1044.0,0.8389,-0.248
1425.85,1044.5,0.8389,-0.2495
1426.85,1045.0,0.8389,-0.2526
1427.85,1045.5,0.839,-0.2503
1428.84,1046.0,0.838,-0.2503
1429.84,1046.5,0.8376,-0.251
1430.84,1047.0,0.8379,-0.2542
1431.83,1047.5,0.839,-0.2547
1432.83,1048.0,0.838,-0.2547
1433.83,1048.5,0.8376,-0.2583
1434.83,1049.0,0.8376,-0.257
1435.83,1049.5,0.8376,-0.2596
1436.83,1050.0,0.8376,-0.2578
1437.83,1050.5,0.8376,-0.2555
1438.83,1051.0,0.8376,-0.2547
1439.83,1051.5,0.8365,-0.2545
1440.83,1052.0,0.8366,-0.2567
1441.83,1052.5,0.8363,-0.2534
1442.82,1053.0,0.8363,-0.259
1443.82,1053.5,0.8363,-0.2614
1444.82,1054.0,0.8357,-0.2628
1445.81,1054.5,0.8349,-0.2614
1446.81,1055.0,0.8349,-0.2603
1447.81,1055.5,0.8349,-0.2619
1448.81,1056.0,0.835,-0.2646
1449.81,1056.5,0.835,-0.2669
1450.81,1057.0,0.834,-0.2669
1451.8,1057.5,0.8336,-0.2676
1452.8,1058.0,0.8336,-0.2678
1453.81,1058.5,0.8336,-0.2647
1454.81,1059.0,0.8336,-0.2667
1455.81,1059.5,0.8336,-0.2686
1456.81,1060.0,0.834,-0.2689
1457.81,1060.5,0.8336,-0.2715
1458.81,1061.0,0.8336,-0.2714
1459.81,1061.5,0.8336,-0.2701
1460.8,1062.0,0.8336,-0.2712
1461.8,1062.5,0.8336,-0.2695
1462.8,1063.0,0.8336,-0.2689
1463.79,1063.5,0.8336,-0.27
1464.79,1064.0,0.8336,-0.2719
1465.87,1064.5,0.8336,-0.273