File: Wood/Calibration_Data/FSRI/FSRI_Wood_Parallel_Cone_25kW_hor_R2.csv
Time,Mass (g),HRRPUA (kW/m2)
0.0,89.95,1.0
2.0,89.83,0.9
4.0,89.74,1.5
6.0,89.67,2.6
8.0,89.64,4.3
10.0,89.62,6.3
12.0,89.6,7.3
14.0,89.57,8.5
16.0,89.58,9.2
18.0,89.6,9.9
20.0,89.55,10.7
22.0,89.57,13.2
24.0,89.55,15.0
26.0,89.51,13.3
28.0,89.52,10.8
30.0,89.48,8.4
32.0,89.47,7.2
34.0,89.43,7.8
36.0,89.41,10.4
38.0,89.39,11.3
40.0,89.37,10.5
42.0,89.33,9.1
44.0,89.3,8.2
46.0,89.22,8.1
48.0,89.2,8.1
50.0,89.18,7.4
52.0,89.15,6.4
54.0,89.18,5.9
56.0,89.18,4.9
58.0,89.16,4.0
60.0,89.1,3.8
62.0,89.13,3.7
64.0,89.1,4.0
66.0,89.07,4.5
68.0,89.05,5.2
70.0,89.02,4.9
72.0,88.99,4.7
74.0,88.96,4.6
76.0,88.95,4.9
78.0,88.92,7.0
80.0,88.89,9.0
82.0,88.8,9.8
84.0,88.78,9.2
86.0,88.75,8.0
88.0,88.73,6.8
90.0,88.68,5.9
92.0,88.62,5.3
94.0,88.45,4.5
96.0,88.27,4.1
98.0,88.0,3.3
100.0,87.77,3.0
102.0,87.43,4.1
104.0,87.32,20.8
106.0,86.99,57.3
108.0,86.88,106.2
110.0,86.7,138.4
112.0,86.49,166.6
114.0,86.3,177.5
116.0,86.13,186.4
118.0,85.98,189.6
120.0,85.73,179.7
122.0,85.56,183.2
124.0,85.43,173.8
126.0,85.32,160.5
128.0,85.23,152.1
130.0,85.11,145.5
132.0,84.98,141.0
134.0,84.84,134.1
136.0,84.73,131.8
138.0,84.58,124.9
140.0,84.44,120.6
142.0,84.32,115.4
144.0,84.21,113.2
146.0,84.09,110.2
148.0,83.98,107.7
150.0,83.86,105.6
152.0,83.71,102.7
154.0,83.53,97.3
156.0,83.46,96.6
158.0,83.36,94.4
160.0,83.33,92.1
162.0,83.23,91.7
164.0,83.12,91.1
166.0,83.03,89.5
168.0,82.93,89.7
170.0,82.85,86.8
172.0,82.76,84.0
174.0,82.66,80.7
176.0,82.58,81.5
178.0,82.49,77.5
180.0,82.42,75.5
182.0,82.34,72.8
184.0,82.2,72.2
186.0,82.13,70.2
188.0,81.98,68.1
190.0,81.88,68.4
192.0,81.81,65.3
194.0,81.75,65.4
196.0,81.68,65.3
198.0,81.64,63.9
200.0,81.57,63.9
202.0,81.5,63.8
204.0,81.42,62.7
206.0,81.34,63.5
208.0,81.27,61.5
210.0,81.18,61.7
212.0,81.11,61.7
214.0,81.04,60.7
216.0,80.95,60.1
218.0,80.89,59.8
220.0,80.85,58.8
222.0,80.46,58.2
224.0,80.64,58.2
226.0,80.51,57.0
228.0,80.4,56.7
230.0,80.32,57.1
232.0,80.29,56.6
234.0,80.22,55.8
236.0,80.18,55.4
238.0,80.1,55.6
240.0,80.04,54.8
242.0,79.96,55.9
244.0,79.88,55.6
246.0,79.78,55.8
248.0,79.74,55.6
250.0,79.66,55.3
252.0,79.56,57.0
254.0,79.5,56.4
256.0,79.43,56.3
258.0,79.31,56.8
260.0,79.24,57.0
262.0,79.12,56.3
264.0,79.03,57.5
266.0,78.96,57.3
268.0,78.92,56.4
270.0,78.85,57.1
272.0,78.79,57.1
274.0,78.74,57.9
276.0,78.64,58.2
278.0,78.56,58.4
280.0,78.48,58.4
282.0,78.4,56.8
284.0,78.34,58.6
286.0,78.26,59.1
288.0,78.19,60.4
290.0,78.11,59.5
292.0,78.01,59.7
294.0,77.93,60.4
296.0,77.86,60.3
298.0,77.77,59.9
300.0,77.68,59.3
302.0,77.59,59.1
304.0,77.48,59.7
306.0,77.37,60.7
308.0,77.27,61.3
310.0,77.2,61.3
312.0,77.11,60.5
314.0,77.05,59.6
316.0,77.0,59.0
318.0,76.95,58.0
320.0,76.88,57.6
322.0,76.79,58.9
324.0,76.72,59.1
326.0,76.64,59.6
328.0,76.55,59.2
330.0,76.47,59.9
332.0,76.4,59.4
334.0,76.31,59.6
336.0,76.23,59.9
338.0,76.17,58.5
340.0,76.09,58.0
342.0,76.02,57.2
344.0,75.93,56.6
346.0,75.86,57.1
348.0,75.69,58.2
350.0,75.61,58.1
352.0,75.51,56.7
354.0,75.45,57.6
356.0,75.44,56.9
358.0,75.39,55.5
360.0,75.31,55.4
362.0,75.22,55.1
364.0,75.14,54.8
366.0,75.09,54.2
368.0,74.99,54.5
370.0,74.9,54.2
372.0,74.83,53.2
374.0,74.76,54.0
376.0,74.68,52.7
378.0,74.61,54.4
380.0,74.52,53.1
382.0,74.46,52.9
384.0,74.3,53.0
386.0,74.22,53.5
388.0,74.14,53.3
390.0,74.06,53.0
392.0,73.99,54.2
394.0,73.94,54.3
396.0,73.86,54.2
398.0,73.86,54.6
400.0,73.78,54.4
402.0,73.72,53.8
404.0,73.63,53.8
406.0,73.54,53.6
408.0,73.49,53.7
410.0,73.39,52.7
412.0,73.32,51.9
414.0,73.24,52.5
416.0,73.19,52.9
418.0,73.1,52.5
420.0,73.04,52.6
422.0,72.96,51.6
424.0,72.89,51.2
426.0,72.81,51.1
428.0,72.73,50.2
430.0,72.65,50.8
432.0,72.6,50.4
434.0,72.48,50.4
436.0,72.4,50.6
438.0,72.3,50.5
440.0,72.22,50.6
442.0,72.17,50.2
444.0,72.14,49.8
446.0,72.09,50.6
448.0,72.01,50.3
450.0,71.94,51.1
452.0,71.86,49.5
454.0,71.78,49.7
456.0,71.73,49.9
458.0,71.64,51.0
460.0,71.57,52.0
462.0,71.51,51.0
464.0,71.43,50.7
466.0,71.34,50.2
468.0,71.28,50.0
470.0,71.19,49.0
472.0,71.04,48.8
474.0,70.99,47.8
476.0,70.92,48.8
478.0,70.92,49.0
480.0,70.84,49.3
482.0,70.75,49.7
484.0,70.71,49.7
486.0,70.63,50.4
488.0,70.55,51.4
490.0,70.48,51.2
492.0,70.4,51.5
494.0,70.32,51.2
496.0,70.26,52.7
498.0,70.18,52.9
500.0,70.1,52.6
502.0,70.05,52.9
504.0,69.95,52.6
506.0,69.88,52.0
508.0,69.73,51.0
510.0,69.65,51.0
512.0,69.59,50.1
514.0,69.51,51.1
516.0,69.52,50.5
518.0,69.45,51.9
520.0,69.38,50.7
522.0,69.32,50.6
524.0,69.24,50.3
526.0,69.2,50.0
528.0,69.1,50.5
530.0,69.02,50.3
532.0,68.96,51.2
534.0,68.89,51.8
536.0,68.81,51.0
538.0,68.73,50.4
540.0,68.65,50.4
542.0,68.6,51.2
544.0,68.5,50.9
546.0,68.36,49.6
548.0,68.29,49.8
550.0,68.21,49.3
552.0,68.16,49.4
554.0,68.16,48.9
556.0,68.09,48.7
558.0,68.01,49.4
560.0,67.95,48.5
562.0,67.88,48.9
564.0,67.78,50.0
566.0,67.74,51.0
568.0,67.65,51.6
570.0,67.56,51.4
572.0,67.49,52.6
574.0,67.41,53.0
576.0,67.36,52.3
578.0,67.28,52.8
580.0,67.19,53.2
582.0,67.07,52.8
584.0,67.01,52.8
586.0,66.92,53.2
588.0,66.94,53.0
590.0,66.89,52.7
592.0,66.82,52.5
594.0,66.74,51.4
596.0,66.66,51.3
598.0,66.6,50.8
600.0,66.5,50.2
602.0,66.43,50.2
604.0,66.34,50.8
606.0,66.3,50.7
608.0,66.2,50.1
610.0,66.15,49.7
612.0,66.09,49.7
614.0,66.02,49.8
616.0,65.87,49.1
618.0,65.77,50.6
620.0,65.7,50.0
622.0,65.63,50.2
624.0,65.63,50.1
626.0,65.56,50.0
628.0,65.49,50.4
630.0,65.44,50.7
632.0,65.37,51.2
634.0,65.3,51.0
636.0,65.24,51.3
638.0,65.16,51.3
640.0,65.09,51.7
642.0,65.03,51.1
644.0,64.95,50.6
646.0,64.88,50.6
648.0,64.8,51.9
650.0,64.73,51.9
652.0,64.6,50.6
654.0,64.5,50.3
656.0,64.44,50.1
658.0,64.42,50.8
660.0,64.37,51.3
662.0,64.29,51.6
664.0,64.24,50.9
666.0,64.17,49.8
668.0,64.11,50.2
670.0,64.05,51.2
672.0,63.96,50.7
674.0,63.91,50.8
676.0,63.85,50.3
678.0,63.78,50.4
680.0,63.72,49.1
682.0,63.63,50.3
684.0,63.57,50.1
686.0,63.49,49.6
688.0,63.41,49.5
690.0,63.27,49.8
692.0,63.2,49.6
694.0,63.11,48.6
696.0,63.05,48.1
698.0,63.03,48.6
700.0,62.98,48.8
702.0,62.89,47.6
704.0,62.84,48.9
706.0,62.78,48.9
708.0,62.7,48.7
710.0,62.64,48.4
712.0,62.56,47.4
714.0,62.5,48.4
716.0,62.43,48.3
718.0,62.35,48.0
720.0,62.3,48.1
722.0,62.21,47.9
724.0,62.14,48.5
726.0,62.02,47.9
728.0,61.94,48.1
730.0,61.86,47.8
732.0,61.79,47.2
734.0,61.77,47.4
736.0,61.72,47.8
738.0,61.66,46.7
740.0,61.61,46.8
742.0,61.53,46.6
744.0,61.46,46.5
746.0,61.41,48.2
748.0,61.32,48.8
750.0,61.27,48.2
752.0,61.18,48.0
754.0,61.13,48.6
756.0,61.05,48.0
758.0,60.99,47.4
760.0,60.86,46.6
762.0,60.81,46.8
764.0,60.72,47.2
766.0,60.65,47.4
768.0,60.59,47.6
770.0,60.48,47.4
772.0,60.53,47.1
774.0,60.47,47.5
776.0,60.41,46.7
778.0,60.37,46.0
780.0,60.26,46.0
782.0,60.2,45.4
784.0,60.13,44.9
786.0,60.05,46.5
788.0,59.99,45.9
790.0,59.92,45.6
792.0,59.85,45.7
794.0,59.79,46.3
796.0,59.69,45.9
798.0,59.6,45.9
800.0,59.51,46.4
802.0,59.43,46.4
804.0,59.38,46.6
806.0,59.33,47.1
808.0,59.3,48.0
810.0,59.25,47.4
812.0,59.18,47.4
814.0,59.08,47.1
816.0,59.04,46.9
818.0,58.97,46.5
820.0,58.91,46.5
822.0,58.85,47.0
824.0,58.78,47.8
826.0,58.7,47.5
828.0,58.63,47.7
830.0,58.59,47.1
832.0,58.5,46.8
834.0,58.41,46.8
836.0,58.3,47.8
838.0,58.23,47.7
840.0,58.15,48.1
842.0,58.16,47.5
844.0,58.08,48.1
846.0,58.0,48.9
848.0,57.95,49.2
850.0,57.88,47.7
852.0,57.81,48.8
854.0,57.74,49.5
856.0,57.68,49.6
858.0,57.62,49.4
860.0,57.53,50.4
862.0,57.48,50.0
864.0,57.42,50.6
866.0,57.36,49.6
868.0,57.27,49.2
870.0,57.12,48.2
872.0,57.07,49.5
874.0,57.01,50.0
876.0,57.02,49.7
878.0,56.96,49.0
880.0,56.88,49.8
882.0,56.82,49.1
884.0,56.73,48.5
886.0,56.66,48.4
888.0,56.6,48.9
890.0,56.53,50.1
892.0,56.45,51.3
894.0,56.39,52.5
896.0,56.33,53.5
898.0,56.25,53.5
900.0,56.2,54.2
902.0,56.11,55.0
904.0,55.97,54.4
906.0,55.88,55.5
908.0,55.82,54.5
910.0,55.77,55.0
912.0,55.74,54.4
914.0,55.68,54.5
916.0,55.62,56.1
918.0,55.53,57.1
920.0,55.47,57.4
922.0,55.4,57.3
924.0,55.34,57.4
926.0,55.24,57.0
928.0,55.23,57.8
930.0,55.15,57.8
932.0,55.04,58.3
934.0,54.95,58.8
936.0,54.84,57.9
938.0,54.76,57.2
940.0,54.7,56.4
942.0,54.61,56.3
944.0,54.57,56.9
946.0,54.46,57.3
948.0,54.41,58.8
950.0,54.39,58.3
952.0,54.34,57.7
954.0,54.25,58.0
956.0,54.19,57.5
958.0,54.12,57.5
960.0,54.03,59.1
962.0,53.98,58.4
964.0,53.89,58.1
966.0,53.84,58.0
968.0,53.77,57.4
970.0,53.69,57.9
972.0,53.59,57.6
974.0,53.49,57.9
976.0,53.39,57.7
978.0,53.33,57.8
980.0,53.26,58.2
982.0,53.19,58.7
984.0,53.13,57.3
986.0,53.09,58.0
988.0,53.06,57.9
990.0,52.98,57.0
992.0,52.88,56.6
994.0,52.83,56.7
996.0,52.74,57.5
998.0,52.68,57.1
1000.0,52.62,57.2
1002.0,52.53,56.8
1004.0,52.48,57.7
1006.0,52.42,57.3
1008.0,52.35,58.1
1010.0,52.27,57.4
1012.0,52.12,58.3
1014.0,52.03,56.9
1016.0,51.98,58.4
1018.0,51.97,58.8
1020.0,51.92,58.6
1022.0,51.83,58.2
1024.0,51.75,59.1
1026.0,51.69,59.3
1028.0,51.56,58.2
1030.0,51.54,58.8
1032.0,51.47,57.6
1034.0,51.42,57.3
1036.0,51.33,58.4
1038.0,51.26,58.6
1040.0,51.2,58.3
1042.0,51.13,58.0
1044.0,51.05,57.9
1046.0,50.97,58.8
1048.0,50.89,57.8
1050.0,50.79,58.2
1052.0,50.67,58.1
1054.0,50.62,57.6
1056.0,50.57,59.5
1058.0,50.55,58.4
1060.0,50.5,58.8
1062.0,50.43,60.0
1064.0,50.37,58.7
1066.0,50.3,59.5
1068.0,50.22,59.5
1070.0,50.13,59.5
1072.0,50.08,59.0
1074.0,50.02,59.2
1076.0,49.96,60.5
1078.0,49.86,59.2
1080.0,49.79,61.0
1082.0,49.71,59.8
1084.0,49.63,60.1
1086.0,49.55,61.3
1088.0,49.42,61.6
1090.0,49.34,60.9
1092.0,49.26,61.7
1094.0,49.27,59.6
1096.0,49.2,59.5
1098.0,49.13,58.9
1100.0,49.07,58.6
1102.0,49.0,60.3
1104.0,48.94,59.6
1106.0,48.87,60.1
1108.0,48.78,60.4
1110.0,48.7,60.9
1112.0,48.64,60.9
1114.0,48.61,60.0
1116.0,48.52,60.5
1118.0,48.45,60.3
1120.0,48.36,60.5
1122.0,48.27,62.0
1124.0,48.13,61.9
1126.0,48.05,62.0
1128.0,48.0,62.7
1130.0,47.98,63.4
1132.0,47.93,61.8
1134.0,47.84,61.2
1136.0,47.78,61.2
1138.0,47.7,62.0
1140.0,47.63,61.6
1142.0,47.55,61.6
1144.0,47.49,63.0
1146.0,47.42,62.2
1148.0,47.34,62.4
1150.0,47.27,61.8
1152.0,47.18,61.0
1154.0,47.13,62.1
1156.0,47.05,62.5
1158.0,46.9,62.1
1160.0,46.85,62.8
1162.0,46.77,63.7
1164.0,46.74,65.2
1166.0,46.68,64.9
1168.0,46.61,64.8
1170.0,46.57,64.4
1172.0,46.46,62.8
1174.0,46.39,64.1
1176.0,46.33,62.7
1178.0,46.27,63.2
1180.0,46.16,63.5
1182.0,46.08,65.6
1184.0,46.01,64.0
1186.0,45.95,63.0
1188.0,45.88,63.4
1190.0,45.81,65.7
1192.0,45.73,65.8
1194.0,45.65,67.3
1196.0,45.48,66.6
1198.0,45.4,67.1
1200.0,45.34,67.7
1202.0,45.3,67.0
1204.0,45.23,67.7
1206.0,45.18,67.2
1208.0,45.11,66.8
1210.0,45.05,65.3
1212.0,44.97,67.5
1214.0,44.87,66.1
1216.0,44.79,67.3
1218.0,44.71,67.0
1220.0,44.65,66.8
1222.0,44.57,66.7
1224.0,44.5,66.5
1226.0,44.42,66.9
1228.0,44.32,67.9
1230.0,44.26,67.2
1232.0,44.11,66.4
1234.0,44.02,67.4
1236.0,43.94,66.4
1238.0,43.92,66.9
1240.0,43.83,66.7
1242.0,43.78,67.6
1244.0,43.73,67.3
1246.0,43.63,67.9
1248.0,43.56,67.4
1250.0,43.46,67.3
1252.0,43.38,66.9
1254.0,43.29,67.9
1256.0,43.26,67.0
1258.0,43.15,67.8
1260.0,43.09,68.0
1262.0,43.01,67.7
1264.0,42.91,69.3
1266.0,42.82,70.0
1268.0,42.69,69.6
1270.0,42.6,70.7
1272.0,42.5,72.3
1274.0,42.42,71.9
1276.0,42.43,72.4
1278.0,42.34,72.3
1280.0,42.29,73.8
1282.0,42.19,73.4
1284.0,42.11,72.5
1286.0,42.03,73.8
1288.0,41.94,73.1
1290.0,41.88,73.7
1292.0,41.78,74.5
1294.0,41.68,73.6
1296.0,41.63,74.1
1298.0,41.54,73.9
1300.0,41.45,72.9
1302.0,41.38,72.8
1304.0,41.22,71.2
1306.0,41.13,73.3
1308.0,41.05,73.2
1310.0,40.96,73.6
1312.0,40.88,74.2
1314.0,40.86,73.4
1316.0,40.76,72.4
1318.0,40.68,73.5
1320.0,40.59,73.5
1322.0,40.51,74.0
1324.0,40.43,75.0
1326.0,40.35,74.0
1328.0,40.27,75.5
1330.0,40.19,76.8
1332.0,40.09,76.5
1334.0,40.01,76.5
1336.0,39.89,75.2
1338.0,39.82,77.0
1340.0,39.72,76.8
1342.0,39.59,77.4
1344.0,39.48,78.4
1346.0,39.41,78.7
1348.0,39.34,79.0
1350.0,39.33,79.4
1352.0,39.25,79.3
1354.0,39.16,76.9
1356.0,39.05,78.2
1358.0,38.98,80.4
1360.0,38.88,79.9
1362.0,38.81,80.1
1364.0,38.72,80.8
1366.0,38.63,80.2
1368.0,38.53,78.6
1370.0,38.44,78.5
1372.0,38.35,76.8
1374.0,38.24,78.2
1376.0,38.17,77.2
1378.0,38.01,78.5
1380.0,37.93,77.5
1382.0,37.85,76.7
1384.0,37.77,75.4
1386.0,37.76,78.2
1388.0,37.64,78.2
1390.0,37.55,78.2
1392.0,37.48,79.3
1394.0,37.39,79.7
1396.0,37.32,81.5
1398.0,37.2,80.4
1400.0,37.1,81.0
1402.0,37.03,81.9
1404.0,36.93,81.0
1406.0,36.84,82.7
1408.0,36.76,81.5
1410.0,36.67,81.9
1412.0,36.58,80.8
1414.0,36.4,80.4
1416.0,36.34,79.8
1418.0,36.24,78.7
1420.0,36.21,77.4
1422.0,36.13,77.7
1424.0,36.07,78.5
1426.0,35.98,80.0
1428.0,35.85,80.1
1430.0,35.75,80.9
1432.0,35.68,81.8
1434.0,35.58,80.8
1436.0,35.48,81.4
1438.0,35.38,83.0
1440.0,35.29,82.7
1442.0,35.22,81.9
1444.0,35.11,83.1
1446.0,35.03,82.2
1448.0,34.84,82.2
1450.0,34.76,83.3
1452.0,34.63,84.5
1454.0,34.58,85.1
1456.0,34.56,85.4
1458.0,34.47,85.4
1460.0,34.36,86.1
1462.0,34.32,85.9
1464.0,34.21,85.0
1466.0,34.11,85.1
1468.0,34.0,85.7
1470.0,33.91,84.7
1472.0,33.82,85.9
1474.0,33.73,87.7
1476.0,33.65,85.1
1478.0,33.53,86.7
1480.0,33.44,87.6
1482.0,33.34,84.9
1484.0,33.18,83.3
1486.0,33.09,83.0
1488.0,33.0,83.6
1490.0,32.92,83.4
1492.0,32.82,82.4
1494.0,32.78,84.5
1496.0,32.71,83.3
1498.0,32.6,82.2
1500.0,32.52,83.5
1502.0,32.4,84.3
1504.0,32.32,84.8
1506.0,32.24,84.0
1508.0,32.14,83.4
1510.0,32.04,83.7
1512.0,31.95,81.0
1514.0,31.83,82.1
1516.0,31.75,83.6
1518.0,31.68,82.8
1520.0,31.57,83.5
1522.0,31.42,83.8
1524.0,31.31,83.7
1526.0,31.23,83.3
1528.0,31.14,82.6
1530.0,31.11,81.2
1532.0,31.02,81.3
1534.0,30.95,83.3
1536.0,30.85,83.2
1538.0,30.75,81.0
1540.0,30.69,84.2
1542.0,30.57,84.7
1544.0,30.5,82.0
1546.0,30.39,84.1
1548.0,30.27,83.0
1550.0,30.2,82.0
1552.0,30.1,84.6
1554.0,30.03,82.2
1556.0,29.87,83.6
1558.0,29.75,82.4
1560.0,29.66,83.9
1562.0,29.56,84.2
1564.0,29.48,84.6
1566.0,29.43,84.9
1568.0,29.35,83.8
1570.0,29.27,83.7
1572.0,29.17,83.8
1574.0,29.07,83.3
1576.0,28.98,84.0
1578.0,28.9,82.8
1580.0,28.82,82.3
1582.0,28.74,81.9
1584.0,28.65,82.9
1586.0,28.54,83.6
1588.0,28.45,82.3
1590.0,28.37,82.2
1592.0,28.24,83.4
1594.0,28.11,82.6
1596.0,28.03,81.1
1598.0,27.93,82.3
1600.0,27.85,81.1
1602.0,27.79,80.1
1604.0,27.75,81.2
1606.0,27.67,81.9
1608.0,27.56,81.4
1610.0,27.48,82.9
1612.0,27.39,82.8
1614.0,27.32,82.0
1616.0,27.22,81.5
1618.0,27.13,82.8
1620.0,27.02,84.5
1622.0,26.93,83.6
1624.0,26.88,83.8
1626.0,26.76,82.8
1628.0,26.66,83.1
1630.0,26.56,82.2
1632.0,26.41,83.1
1634.0,26.33,82.7
1636.0,26.28,81.3
1638.0,26.19,81.3
1640.0,26.15,80.4
1642.0,26.07,80.3
1644.0,25.98,78.8
1646.0,25.88,79.2
1648.0,25.81,79.2
1650.0,25.72,80.4
1652.0,25.65,81.7
1654.0,25.57,81.4
1656.0,25.48,82.3
1658.0,25.4,80.4
1660.0,25.3,80.6
1662.0,25.24,79.5
1664.0,25.13,80.1
1666.0,25.04,79.7
1668.0,24.92,79.7
1670.0,24.81,78.9
1672.0,24.72,78.2
1674.0,24.62,77.9
1676.0,24.58,77.2
1678.0,24.57,77.5
1680.0,24.48,77.4
1682.0,24.4,76.2
1684.0,24.33,77.1
1686.0,24.26,74.8
1688.0,24.18,75.0
1690.0,24.09,76.5
1692.0,24.01,76.5
1694.0,23.98,77.0
1696.0,23.85,77.7
1698.0,23.76,76.8
1700.0,23.67,75.3
1702.0,23.57,75.4
1704.0,23.49,76.4
1706.0,23.38,75.1
1708.0,23.27,75.1
1710.0,23.21,75.1
1712.0,23.15,73.7
1714.0,23.13,73.8
1716.0,23.07,72.4
1718.0,23.02,72.7
1720.0,22.96,72.1
1722.0,22.85,72.7
1724.0,22.78,71.2
1726.0,22.71,71.7
1728.0,22.64,71.2
1730.0,22.57,71.0
1732.0,22.47,72.1
1734.0,22.39,71.2
1736.0,22.3,71.2
1738.0,22.21,71.7
1740.0,22.14,70.9
1742.0,22.0,71.0
1744.0,21.93,71.4
1746.0,21.87,70.4
1748.0,21.88,70.8
1750.0,21.81,70.4
1752.0,21.75,69.6
1754.0,21.69,69.3
1756.0,21.63,69.4
1758.0,21.52,69.7
1760.0,21.42,71.2
1762.0,21.38,69.9
1764.0,21.32,70.1
1766.0,21.28,71.2
1768.0,21.19,71.1
1770.0,21.13,70.1
1772.0,21.05,70.1
1774.0,20.97,70.9
1776.0,20.87,70.4
1778.0,20.77,69.8
1780.0,20.72,68.6
1782.0,20.64,69.2
1784.0,20.57,67.5
1786.0,20.57,67.1
1788.0,20.52,67.0
1790.0,20.44,66.9
1792.0,20.4,67.3
1794.0,20.35,66.8
1796.0,20.29,66.3
1798.0,20.21,66.0
1800.0,20.14,64.9
1802.0,20.08,65.7
1804.0,20.04,64.0
1806.0,19.97,64.8
1808.0,19.9,64.3
1810.0,19.84,66.4
1812.0,19.7,65.3
1814.0,19.65,65.7
1816.0,19.56,66.1
1818.0,19.59,65.3
1820.0,19.56,65.9
1822.0,19.49,65.7
1824.0,19.43,63.2
1826.0,19.37,60.4
1828.0,19.32,62.8
1830.0,19.27,61.6
1832.0,19.21,59.6
1834.0,19.17,59.4
1836.0,19.1,58.1
1838.0,19.04,57.8
1840.0,18.97,57.4
1842.0,18.9,56.4
1844.0,18.81,54.0
1846.0,18.73,54.3
1848.0,18.69,55.0
1850.0,18.61,55.5
1852.0,18.64,56.3
1854.0,18.6,55.1
1856.0,18.56,53.4
1858.0,18.51,52.7
1860.0,18.47,52.3
1862.0,18.41,51.7
1864.0,18.37,50.5
1866.0,18.32,50.2
1868.0,18.27,50.3
1870.0,18.22,50.0
1872.0,18.19,49.5
1874.0,18.12,50.5
1876.0,18.06,49.3
1878.0,18.02,49.7
1880.0,17.96,49.9
1882.0,17.84,48.7
1884.0,17.8,48.5
1886.0,17.76,48.2
1888.0,17.73,47.0
1890.0,17.76,46.0
1892.0,17.73,45.7
1894.0,17.67,45.2
1896.0,17.63,44.7
1898.0,17.59,44.8
1900.0,17.54,43.5
1902.0,17.5,43.1
1904.0,17.47,42.3
1906.0,17.43,41.9
1908.0,17.38,40.7
1910.0,17.35,40.0
1912.0,17.3,39.0
1914.0,17.25,37.7
1916.0,17.19,37.1
1918.0,17.08,36.5
1920.0,17.04,36.6
1922.0,17.01,35.5
1924.0,17.0,34.9
1926.0,17.02,35.2
1928.0,17.0,34.7
1930.0,16.94,32.5
1932.0,16.92,31.9
1934.0,16.89,31.5
1936.0,16.85,32.8
1938.0,16.82,33.2
1940.0,16.77,34.1
1942.0,16.73,34.4
1944.0,16.69,35.6
1946.0,16.67,35.4
1948.0,16.63,35.9
1950.0,16.58,36.2
1952.0,16.54,36.2
1954.0,16.49,35.4
1956.0,16.43,35.2
1958.0,16.36,35.2
1960.0,16.36,34.8
1962.0,16.38,35.3
1964.0,16.35,34.4
1966.0,16.34,33.8
1968.0,16.28,33.9
1970.0,16.26,33.8
1972.0,16.23,33.1
1974.0,16.19,32.5
1976.0,16.13,32.7
1978.0,16.11,32.4
1980.0,16.07,31.8
1982.0,16.03,31.9
1984.0,16.05,31.7
1986.0,15.98,31.6
1988.0,15.94,31.9
1990.0,15.91,32.7
1992.0,15.81,33.6
1994.0,15.77,34.6
1996.0,15.75,34.8
1998.0,15.79,34.7
2000.0,15.76,33.8
2002.0,15.74,33.6
2004.0,15.71,33.7
2006.0,15.66,32.8
2008.0,15.63,32.0
2010.0,15.61,30.6
2012.0,15.58,30.4
2014.0,15.56,31.0
2016.0,15.53,30.8
2018.0,15.5,31.1
2020.0,15.47,30.1
2022.0,15.43,29.7
2024.0,15.42,30.1
2026.0,15.35,30.4
2028.0,15.32,30.5
2030.0,15.25,31.1
2032.0,15.21,31.3
2034.0,15.2,31.3
2036.0,15.23,31.5
2038.0,15.23,31.1
2040.0,15.18,30.7
2042.0,15.16,30.1
2044.0,15.13,30.5
2046.0,15.12,31.1
2048.0,15.02,31.2
2050.0,15.09,30.9
2052.0,15.04,30.7
2054.0,15.01,30.2
2056.0,14.98,30.3
2058.0,14.94,30.1
2060.0,14.91,29.9
2062.0,14.82,29.8
2064.0,14.78,30.5
2066.0,14.76,30.5
2068.0,14.73,31.5
2070.0,14.75,31.5
2072.0,14.74,31.7
2074.0,14.72,31.3
2076.0,14.7,31.6
2078.0,14.7,31.0
2080.0,14.65,30.7
2082.0,14.64,30.7
2084.0,14.61,30.9
2086.0,14.58,31.1
2088.0,14.56,31.9
2090.0,14.55,31.8
2092.0,14.53,32.0
2094.0,14.5,32.8
2096.0,14.47,34.0
2098.0,14.38,34.4
2100.0,14.35,36.0
2102.0,14.32,36.2
2104.0,14.29,36.8
2106.0,14.29,36.5
2108.0,14.28,34.9
2110.0,14.26,33.5
2112.0,14.26,32.0
2114.0,14.26,30.4
2116.0,14.23,28.8
2118.0,14.21,27.3
2120.0,14.21,26.9
2122.0,14.2,26.2
2124.0,14.17,25.9
2126.0,14.12,25.8
2128.0,14.09,26.8
2130.0,14.06,26.7
2132.0,14.02,26.8
2134.0,13.99,26.4
2136.0,13.94,25.7
2138.0,13.88,25.6
2140.0,13.92,25.6
2142.0,13.88,25.9
2144.0,13.9,26.2
2146.0,13.94,26.5
2148.0,13.9,27.4
2150.0,13.88,27.5
2152.0,13.86,28.1
2154.0,13.84,28.1
2156.0,13.82,29.2
2158.0,13.8,29.5
2160.0,13.76,29.0
2162.0,13.75,28.8
2164.0,13.72,27.6
2166.0,13.69,26.4
2168.0,13.65,26.3
2170.0,13.61,25.6
2172.0,13.58,25.3
2174.0,13.54,25.2
2176.0,13.52,25.0
2178.0,13.52,24.9
2180.0,13.58,25.6
2182.0,13.56,25.8
2184.0,13.52,25.8
2186.0,13.52,25.9
2188.0,13.51,25.1
2190.0,13.46,25.2
2192.0,13.45,25.0
2194.0,13.45,24.9
2196.0,13.41,24.9
2198.0,13.41,25.1
2200.0,13.38,23.8
2202.0,13.34,22.7
2204.0,13.27,22.3
2206.0,13.24,22.5
2208.0,13.2,23.2
2210.0,13.2,23.5
2212.0,13.23,25.0
2214.0,13.24,25.6
2216.0,13.22,26.0
2218.0,13.21,25.6
2220.0,13.17,26.0
2222.0,13.14,25.9
2224.0,13.11,25.1
2226.0,13.11,25.6
2228.0,13.1,25.2
2230.0,13.11,25.2
2232.0,13.06,25.2
2234.0,13.05,24.4
2236.0,13.03,23.1
2238.0,13.0,22.3
2240.0,12.98,22.0
2242.0,12.95,21.7
2244.0,12.93,21.9
2246.0,12.89,22.4
2248.0,12.84,22.3
2250.0,12.8,22.4
2251.0,12.8,22.7