File: Wood/Calibration_Data/FSRI/FSRI_Wood_Perpendicular_Cone_25kW_hor_R3.csv
Time,Mass (g),HRRPUA (kW/m2)
0.0,103.1,5.4
2.0,103.13,8.1
4.0,103.05,8.5
6.0,103.04,8.7
8.0,103.01,7.9
10.0,102.98,6.9
12.0,102.93,5.8
14.0,102.87,4.8
16.0,102.83,3.9
18.0,102.78,3.4
20.0,102.74,3.2
22.0,102.75,3.2
24.0,102.73,3.1
26.0,102.73,3.1
28.0,102.7,3.1
30.0,102.67,3.1
32.0,102.63,2.6
34.0,102.61,1.9
36.0,102.57,1.3
38.0,102.55,1.6
40.0,102.52,1.7
42.0,102.49,3.4
44.0,102.48,4.8
46.0,102.45,5.1
48.0,102.42,4.1
50.0,102.37,3.6
52.0,102.35,3.2
54.0,102.28,3.2
56.0,102.24,3.6
58.0,102.2,4.8
60.0,102.17,6.0
62.0,102.15,6.5
64.0,102.15,6.4
66.0,102.14,7.8
68.0,102.12,9.5
70.0,102.12,10.3
72.0,102.08,11.4
74.0,102.05,11.7
76.0,102.04,11.9
78.0,102.02,12.1
80.0,101.99,11.4
82.0,101.96,10.3
84.0,101.94,9.7
86.0,101.9,9.9
88.0,101.88,10.9
90.0,101.84,11.9
92.0,101.81,13.1
94.0,101.72,13.9
96.0,101.68,13.7
98.0,101.65,13.6
100.0,101.62,13.6
102.0,101.64,14.2
104.0,101.63,14.8
106.0,101.6,15.1
108.0,101.58,16.3
110.0,101.54,16.5
112.0,101.52,16.5
114.0,101.48,16.0
116.0,101.45,15.7
118.0,101.42,15.1
120.0,101.39,14.2
122.0,101.35,13.0
124.0,101.32,12.3
126.0,101.27,11.6
128.0,101.23,10.6
130.0,101.18,9.6
132.0,101.13,8.8
134.0,101.05,8.4
136.0,100.9,8.7
138.0,100.77,9.0
140.0,100.64,9.1
142.0,100.45,9.1
144.0,100.24,9.0
146.0,100.02,13.3
148.0,99.79,31.0
150.0,99.6,58.8
152.0,99.41,89.3
154.0,99.19,119.7
156.0,99.0,145.9
158.0,98.77,164.3
160.0,98.57,175.0
162.0,98.37,176.9
164.0,98.17,177.9
166.0,97.99,177.0
168.0,97.79,176.5
170.0,97.6,172.6
172.0,97.41,170.0
174.0,97.14,165.1
176.0,96.95,160.8
178.0,96.78,157.2
180.0,96.62,156.6
182.0,96.52,151.4
184.0,96.37,151.8
186.0,96.21,147.1
188.0,96.05,144.8
190.0,95.87,141.3
192.0,95.73,140.7
194.0,95.58,135.6
196.0,95.42,130.6
198.0,95.28,128.0
200.0,95.14,126.8
202.0,94.99,124.3
204.0,94.86,119.5
206.0,94.72,117.5
208.0,94.57,114.3
210.0,94.38,112.1
212.0,94.25,110.5
214.0,94.1,107.6
216.0,93.99,101.3
218.0,93.87,100.6
220.0,93.75,100.4
222.0,93.69,99.0
224.0,93.57,98.0
226.0,93.44,97.7
228.0,93.33,99.0
230.0,93.2,97.9
232.0,93.08,96.1
234.0,92.97,95.5
236.0,92.86,92.8
238.0,92.72,92.6
240.0,92.6,89.7
242.0,92.51,89.0
244.0,92.37,87.7
246.0,92.25,88.0
248.0,92.13,85.0
250.0,92.0,83.3
252.0,91.86,80.3
254.0,91.72,78.6
256.0,91.62,78.9
258.0,91.52,77.9
260.0,91.46,77.0
262.0,91.35,76.3
264.0,91.27,76.9
266.0,91.17,75.0
268.0,91.07,75.4
270.0,90.97,76.3
272.0,90.85,74.6
274.0,90.75,74.8
276.0,90.65,73.8
278.0,90.54,74.6
280.0,90.43,72.2
282.0,90.34,72.8
284.0,90.23,73.5
286.0,90.12,73.7
288.0,90.01,71.8
290.0,89.83,71.2
292.0,89.74,71.5
294.0,89.62,69.4
296.0,89.51,69.9
298.0,89.41,68.9
300.0,89.3,69.0
302.0,89.28,68.9
304.0,89.2,68.3
306.0,89.1,67.3
308.0,88.98,66.1
310.0,88.88,66.2
312.0,88.78,64.7
314.0,88.69,63.3
316.0,88.57,62.5
318.0,88.48,63.3
320.0,88.36,62.0
322.0,88.28,61.3
324.0,88.17,59.4
326.0,88.07,59.8
328.0,87.96,60.1
330.0,87.85,59.8
332.0,87.72,59.6
334.0,87.59,59.9
336.0,87.48,60.9
338.0,87.36,60.8
340.0,87.27,61.0
342.0,87.18,59.6
344.0,87.09,60.1
346.0,87.07,60.8
348.0,86.96,60.8
350.0,86.86,60.4
352.0,86.75,61.2
354.0,86.65,61.1
356.0,86.56,61.3
358.0,86.46,61.7
360.0,86.35,63.6
362.0,86.25,65.4
364.0,86.17,65.8
366.0,86.06,67.8
368.0,85.96,66.0
370.0,85.87,65.3
372.0,85.77,63.5
374.0,85.58,61.1
376.0,85.48,60.0
378.0,85.37,58.6
380.0,85.28,56.7
382.0,85.24,56.0
384.0,85.16,54.2
386.0,85.08,53.2
388.0,84.99,53.2
390.0,84.91,51.8
392.0,84.8,51.6
394.0,84.68,50.7
396.0,84.62,50.1
398.0,84.51,49.8
400.0,84.42,49.8
402.0,84.33,48.8
404.0,84.24,49.7
406.0,84.14,49.1
408.0,84.04,49.3
410.0,83.95,49.5
412.0,83.85,49.7
414.0,83.71,49.4
416.0,83.61,48.4
418.0,83.48,48.5
420.0,83.39,48.9
422.0,83.29,49.1
424.0,83.22,48.4
426.0,83.12,48.2
428.0,83.08,48.1
430.0,83.03,48.1
432.0,82.92,47.6
434.0,82.85,46.6
436.0,82.77,46.6
438.0,82.68,46.9
440.0,82.58,46.5
442.0,82.49,47.0
444.0,82.39,47.2
446.0,82.29,46.9
448.0,82.21,47.3
450.0,82.13,47.5
452.0,82.03,48.0
454.0,81.92,47.7
456.0,81.84,47.3
458.0,81.75,47.6
460.0,81.64,47.4
462.0,81.53,47.4
464.0,81.41,47.3
466.0,81.34,46.8
468.0,81.25,46.7
470.0,81.19,46.1
472.0,81.13,45.2
474.0,81.02,45.2
476.0,80.96,44.8
478.0,80.88,44.0
480.0,80.77,45.1
482.0,80.69,44.8
484.0,80.62,44.7
486.0,80.55,44.5
488.0,80.44,44.6
490.0,80.36,44.7
492.0,80.27,44.4
494.0,80.18,42.9
496.0,80.09,43.0
498.0,79.99,43.3
500.0,79.9,45.0
502.0,79.74,45.4
504.0,79.66,46.4
506.0,79.58,47.6
508.0,79.51,46.4
510.0,79.48,46.4
512.0,79.42,45.8
514.0,79.32,45.2
516.0,79.23,45.5
518.0,79.14,44.6
520.0,79.06,43.6
522.0,78.98,43.7
524.0,78.9,42.6
526.0,78.81,41.3
528.0,78.72,40.7
530.0,78.64,40.3
532.0,78.55,40.0
534.0,78.47,40.5
536.0,78.39,40.3
538.0,78.3,39.6
540.0,78.22,39.0
542.0,78.11,39.4
544.0,77.97,38.9
546.0,77.88,38.4
548.0,77.81,39.1
550.0,77.74,39.8
552.0,77.66,40.5
554.0,77.64,40.6
556.0,77.56,41.1
558.0,77.49,41.6
560.0,77.4,40.5
562.0,77.31,41.5
564.0,77.24,40.1
566.0,77.16,40.3
568.0,77.05,39.9
570.0,76.99,39.2
572.0,76.9,38.3
574.0,76.81,38.0
576.0,76.75,38.2
578.0,76.66,38.4
580.0,76.58,38.5
582.0,76.51,38.6
584.0,76.34,38.6
586.0,76.26,38.4
588.0,76.18,37.8
590.0,76.1,37.2
592.0,76.01,37.4
594.0,75.93,37.1
596.0,75.91,36.4
598.0,75.84,36.8
600.0,75.78,36.1
602.0,75.7,36.1
604.0,75.61,35.1
606.0,75.54,35.1
608.0,75.46,34.9
610.0,75.38,33.8
612.0,75.3,32.7
614.0,75.21,31.9
616.0,75.14,31.2
618.0,75.06,30.9
620.0,74.98,30.8
622.0,74.89,31.1
624.0,74.8,29.8
626.0,74.69,29.8
628.0,74.59,29.8
630.0,74.51,29.8
632.0,74.46,29.9
634.0,74.39,30.5
636.0,74.32,30.7
638.0,74.28,30.6
640.0,74.21,30.8
642.0,74.14,30.6
644.0,74.06,30.4
646.0,73.98,31.6
648.0,73.9,31.8
650.0,73.84,32.0
652.0,73.76,33.0
654.0,73.68,33.8
656.0,73.6,33.6
658.0,73.52,33.7
660.0,73.46,33.6
662.0,73.38,33.7
664.0,73.32,34.2
666.0,73.2,33.0
668.0,73.05,33.1
670.0,72.98,32.6
672.0,72.91,33.0
674.0,72.84,32.3
676.0,72.85,32.8
678.0,72.77,33.7
680.0,72.7,34.3
682.0,72.63,34.9
684.0,72.55,34.2
686.0,72.47,34.2
688.0,72.4,33.6
690.0,72.31,32.8
692.0,72.24,32.8
694.0,72.18,32.7
696.0,72.1,32.8
698.0,72.02,33.2
700.0,71.97,33.6
702.0,71.89,33.7
704.0,71.84,33.8
706.0,71.7,34.3
708.0,71.6,34.8
710.0,71.51,34.9
712.0,71.44,35.6
714.0,71.39,35.6
716.0,71.32,35.2
718.0,71.27,35.2
720.0,71.22,34.2
722.0,71.16,34.0
724.0,71.09,33.1
726.0,71.01,33.7
728.0,70.95,32.4
730.0,70.88,32.4
732.0,70.8,32.6
734.0,70.72,32.1
736.0,70.67,31.2
738.0,70.59,31.4
740.0,70.52,30.9
742.0,70.45,31.1
744.0,70.37,30.7
746.0,70.29,30.5
748.0,70.21,30.5
750.0,70.13,31.6
752.0,70.04,31.7
754.0,69.93,31.8
756.0,69.88,31.2
758.0,69.82,30.9
760.0,69.78,31.6
762.0,69.75,32.4
764.0,69.68,32.5
766.0,69.61,32.3
768.0,69.54,32.4
770.0,69.48,31.4
772.0,69.41,31.5
774.0,69.34,30.7
776.0,69.27,30.9
778.0,69.2,30.5
780.0,69.13,30.2
782.0,69.06,30.0
784.0,68.99,29.5
786.0,68.91,29.2
788.0,68.81,29.3
790.0,68.73,29.5
792.0,68.62,28.9
794.0,68.57,30.0
796.0,68.52,30.2
798.0,68.47,30.4
800.0,68.44,30.9
802.0,68.39,30.6
804.0,68.31,30.6
806.0,68.24,30.7
808.0,68.18,31.6
810.0,68.11,33.6
812.0,68.04,34.0
814.0,67.98,34.4
816.0,67.92,35.0
818.0,67.84,34.3
820.0,67.79,33.3
822.0,67.72,32.1
824.0,67.66,30.3
826.0,67.53,29.3
828.0,67.46,28.4
830.0,67.37,28.1
832.0,67.3,28.1
834.0,67.24,28.2
836.0,67.15,28.0
838.0,67.15,27.4
840.0,67.11,26.8
842.0,67.04,27.5
844.0,66.96,27.8
846.0,66.91,28.0
848.0,66.85,27.4
850.0,66.78,27.4
852.0,66.73,27.2
854.0,66.66,27.0
856.0,66.58,26.2
858.0,66.52,25.7
860.0,66.44,24.8
862.0,66.39,25.7
864.0,66.32,25.6
866.0,66.25,27.0
868.0,66.16,29.5
870.0,66.08,31.4
872.0,65.97,31.7
874.0,65.91,31.4
876.0,65.83,31.4
878.0,65.79,31.4
880.0,65.75,31.9
882.0,65.71,31.0
884.0,65.65,31.1
886.0,65.58,30.8
888.0,65.51,30.3
890.0,65.44,30.1
892.0,65.4,29.9
894.0,65.32,29.4
896.0,65.25,29.4
898.0,65.19,29.0
900.0,65.11,29.1
902.0,65.03,29.1
904.0,64.98,29.2
906.0,64.9,29.8
908.0,64.84,30.4
910.0,64.69,31.0
912.0,64.62,31.2
914.0,64.54,31.4
916.0,64.5,31.3
918.0,64.42,31.7
920.0,64.4,31.8
922.0,64.35,30.9
924.0,64.28,31.8
926.0,64.23,31.3
928.0,64.16,31.6
930.0,64.1,31.9
932.0,64.04,31.4
934.0,63.95,31.9
936.0,63.89,31.5
938.0,63.82,32.7
940.0,63.75,33.0
942.0,63.68,33.2
944.0,63.59,33.5
946.0,63.53,34.8
948.0,63.46,35.3
950.0,63.39,36.5
952.0,63.32,36.8
954.0,63.24,37.5
956.0,63.11,37.5
958.0,63.04,37.9
960.0,62.96,37.9
962.0,62.89,39.0
964.0,62.89,40.3
966.0,62.82,40.7
968.0,62.75,40.5
970.0,62.68,40.8
972.0,62.61,40.0
974.0,62.55,40.0
976.0,62.47,40.0
978.0,62.4,39.7
980.0,62.32,39.2
982.0,62.24,39.8
984.0,62.16,39.8
986.0,62.11,39.9
988.0,62.02,40.1
990.0,61.95,40.2
992.0,61.87,41.1
994.0,61.79,41.7
996.0,61.64,42.2
998.0,61.56,42.9
1000.0,61.49,42.7
1002.0,61.42,43.5
1004.0,61.33,43.6
1006.0,61.32,44.7
1008.0,61.27,44.6
1010.0,61.2,45.2
1012.0,61.11,46.5
1014.0,61.04,47.0
1016.0,60.96,46.7
1018.0,60.88,46.8
1020.0,60.79,47.0
1022.0,60.71,45.9
1024.0,60.65,45.9
1026.0,60.56,47.1
1028.0,60.49,47.5
1030.0,60.4,47.5
1032.0,60.32,48.3
1034.0,60.21,47.8
1036.0,60.1,48.2
1038.0,59.99,47.7
1040.0,59.89,48.0
1042.0,59.82,47.9
1044.0,59.79,47.7
1046.0,59.74,49.0
1048.0,59.67,51.1
1050.0,59.59,51.2
1052.0,59.49,51.4
1054.0,59.42,50.9
1056.0,59.34,51.0
1058.0,59.25,51.9
1060.0,59.18,51.3
1062.0,59.08,52.7
1064.0,59.0,52.7
1066.0,58.91,53.0
1068.0,58.82,52.7
1070.0,58.72,53.5
1072.0,58.65,54.5
1074.0,58.56,53.4
1076.0,58.47,56.0
1078.0,58.38,55.7
1080.0,58.21,55.2
1082.0,58.13,55.1
1084.0,58.03,56.1
1086.0,57.96,55.6
1088.0,57.89,55.0
1090.0,57.8,56.9
1092.0,57.74,58.6
1094.0,57.67,59.3
1096.0,57.59,59.3
1098.0,57.42,57.8
1100.0,57.32,59.0
1102.0,57.28,59.2
1104.0,57.2,58.9
1106.0,57.11,60.0
1108.0,57.01,60.3
1110.0,56.92,61.1
1112.0,56.82,61.3
1114.0,56.73,63.5
1116.0,56.64,65.5
1118.0,56.54,65.8
1120.0,56.36,65.7
1122.0,56.26,67.8
1124.0,56.16,67.0
1126.0,56.06,67.5
1128.0,55.96,67.9
1130.0,55.85,66.8
1132.0,55.79,65.8
1134.0,55.75,66.2
1136.0,55.64,65.8
1138.0,55.56,66.7
1140.0,55.46,65.1
1142.0,55.34,66.2
1144.0,55.25,68.2
1146.0,55.14,68.2
1148.0,55.05,69.1
1150.0,54.94,70.1
1152.0,54.83,69.9
1154.0,54.71,72.0
1156.0,54.61,70.2
1158.0,54.5,72.2
1160.0,54.41,71.5
1162.0,54.28,72.3
1164.0,54.14,72.1
1166.0,53.99,72.6
1168.0,53.89,74.4
1170.0,53.79,75.3
1172.0,53.71,76.1
1174.0,53.64,74.9
1176.0,53.54,75.2
1178.0,53.44,76.4
1180.0,53.34,75.9
1182.0,53.22,76.4
1184.0,53.11,76.9
1186.0,53.0,78.8
1188.0,52.9,79.4
1190.0,52.8,79.7
1192.0,52.67,79.4
1194.0,52.56,80.4
1196.0,52.46,81.6
1198.0,52.35,81.6
1200.0,52.22,80.9
1202.0,52.1,81.7
1204.0,51.99,81.7
1206.0,51.8,82.7
1208.0,51.67,81.1
1210.0,51.56,82.9
1212.0,51.47,82.9
1214.0,51.36,81.4
1216.0,51.3,82.9
1218.0,51.2,82.5
1220.0,51.06,82.3
1222.0,50.95,82.6
1224.0,50.82,82.1
1226.0,50.71,83.8
1228.0,50.59,83.5
1230.0,50.48,84.8
1232.0,50.36,85.0
1234.0,50.22,86.2
1236.0,50.1,87.1
1238.0,49.98,87.3
1240.0,49.85,86.8
1242.0,49.75,86.3
1244.0,49.57,85.6
1246.0,49.39,88.4
1248.0,49.28,85.8
1250.0,49.2,88.2
1252.0,49.09,87.3
1254.0,49.0,88.9
1256.0,48.9,89.8
1258.0,48.74,88.9
1260.0,48.64,88.6
1262.0,48.49,87.6
1264.0,48.4,90.8
1266.0,48.29,91.3
1268.0,48.11,90.3
1270.0,47.96,92.8
1272.0,47.87,91.5
1274.0,47.75,91.7
1276.0,47.59,90.7
1278.0,47.48,91.3
1280.0,47.34,90.1
1282.0,47.15,91.4
1284.0,47.01,91.0
1286.0,46.87,89.7
1288.0,46.71,89.3
1290.0,46.62,91.2
1292.0,46.51,89.2
1294.0,46.39,90.2
1296.0,46.25,89.9
1298.0,46.12,93.3
1300.0,46.0,94.9
1302.0,45.85,93.8
1304.0,45.69,94.0
1306.0,45.58,93.2
1308.0,45.44,93.2
1310.0,45.29,95.1
1312.0,45.17,94.0
1314.0,45.01,93.7
1316.0,44.87,95.6
1318.0,44.75,96.4
1320.0,44.59,97.4
1322.0,44.4,96.8
1324.0,44.25,96.1
1326.0,44.08,94.9
1328.0,44.0,95.5
1330.0,43.88,95.2
1332.0,43.74,97.2
1334.0,43.6,97.5
1336.0,43.47,97.2
1338.0,43.3,99.3
1340.0,43.15,98.1
1342.0,43.03,98.7
1344.0,42.86,99.0
1346.0,42.72,99.0
1348.0,42.56,100.1
1350.0,42.43,99.6
1352.0,42.29,101.6
1354.0,42.15,100.5
1356.0,42.0,102.4
1358.0,41.85,101.6
1360.0,41.61,104.3
1362.0,41.45,104.0
1364.0,41.29,104.8
1366.0,41.22,103.6
1368.0,41.07,105.0
1370.0,40.94,104.3
1372.0,40.82,105.6
1374.0,40.65,107.2
1376.0,40.51,106.8
1378.0,40.35,106.6
1380.0,40.22,105.0
1382.0,40.07,104.9
1384.0,39.91,105.5
1386.0,39.75,106.7
1388.0,39.58,107.2
1390.0,39.43,107.8
1392.0,39.3,109.8
1394.0,39.16,108.6
1396.0,38.99,108.6
1398.0,38.84,110.1
1400.0,38.65,110.2
1402.0,38.48,111.2
1404.0,38.31,109.5
1406.0,38.15,112.4
1408.0,38.04,109.6
1410.0,37.94,109.8
1412.0,37.8,111.6
1414.0,37.65,109.7
1416.0,37.49,110.5
1418.0,37.32,112.4
1420.0,37.18,110.6
1422.0,37.04,112.1
1424.0,36.86,112.4
1426.0,36.73,111.9
1428.0,36.58,112.3
1430.0,36.42,113.6
1432.0,36.26,114.1
1434.0,36.1,113.8
1436.0,35.96,110.9
1438.0,35.82,111.5
1440.0,35.66,110.7
1442.0,35.5,109.5
1444.0,35.34,112.7
1446.0,35.18,113.8
1448.0,34.96,110.7
1450.0,34.82,111.6
1452.0,34.7,113.2
1454.0,34.59,113.1
1456.0,34.47,109.6
1458.0,34.34,112.5
1460.0,34.18,112.0
1462.0,34.04,110.9
1464.0,33.91,110.8
1466.0,33.71,108.3
1468.0,33.6,106.3
1470.0,33.45,111.0
1472.0,33.29,109.4
1474.0,33.18,110.1
1476.0,33.03,109.5
1478.0,32.86,109.9
1480.0,32.75,107.4
1482.0,32.57,108.2
1484.0,32.4,110.6
1486.0,32.28,109.1
1488.0,32.14,109.4
1490.0,31.99,109.1
1492.0,31.87,108.8
1494.0,31.75,109.2
1496.0,31.63,109.5
1498.0,31.48,111.3
1500.0,31.36,111.3
1502.0,31.23,112.6
1504.0,31.1,110.1
1506.0,30.97,108.2
1508.0,30.84,109.2
1510.0,30.7,109.4
1512.0,30.57,107.0
1514.0,30.42,104.9
1516.0,30.28,105.2
1518.0,30.17,105.8
1520.0,30.05,105.5
1522.0,29.93,103.4
1524.0,29.8,103.9
1526.0,29.6,102.1
1528.0,29.49,101.0
1530.0,29.33,101.4
1532.0,29.22,100.7
1534.0,29.11,100.0
1536.0,29.06,98.0
1538.0,28.93,98.6
1540.0,28.83,98.2
1542.0,28.72,96.0
1544.0,28.59,96.5
1546.0,28.48,97.5
1548.0,28.37,96.8
1550.0,28.26,98.3
1552.0,28.15,97.5
1554.0,28.04,95.1
1556.0,27.91,93.6
1558.0,27.81,94.7
1560.0,27.71,93.0
1562.0,27.59,91.3
1564.0,27.47,90.4
1566.0,27.36,91.1
1568.0,27.25,90.3
1570.0,27.13,88.9
1572.0,27.01,89.0
1574.0,26.95,87.5
1576.0,26.85,87.3
1578.0,26.79,85.9
1580.0,26.69,87.0
1582.0,26.58,85.5
1584.0,26.51,84.8
1586.0,26.44,83.6
1588.0,26.34,83.3
1590.0,26.23,82.3
1592.0,26.14,82.6
1594.0,26.06,81.2
1596.0,25.98,81.2
1598.0,25.88,79.4
1600.0,25.81,78.9
1602.0,25.73,78.3
1604.0,25.66,76.2
1606.0,25.54,76.6
1608.0,25.44,74.0
1610.0,25.35,73.0
1612.0,25.26,72.4
1614.0,25.18,71.6
1616.0,25.1,71.7
1618.0,25.05,68.7
1620.0,25.02,67.6
1622.0,24.96,65.3
1624.0,24.88,65.4
1626.0,24.8,65.4
1628.0,24.76,62.8
1630.0,24.69,62.5
1632.0,24.62,62.1
1634.0,24.57,61.5
1636.0,24.48,60.8
1638.0,24.42,59.2
1640.0,24.38,59.7
1642.0,24.33,59.0
1644.0,24.23,56.4
1646.0,24.16,55.0
1648.0,24.08,53.6
1650.0,24.01,54.1
1652.0,23.94,52.4
1654.0,23.92,51.4
1656.0,23.9,50.8
1658.0,23.87,48.8
1660.0,23.79,48.2
1662.0,23.78,47.9
1664.0,23.71,47.2
1666.0,23.66,47.7
1668.0,23.64,47.1
1670.0,23.58,45.8
1672.0,23.55,44.9
1674.0,23.49,43.5
1676.0,23.44,42.6
1678.0,23.38,41.4
1680.0,23.33,41.5
1682.0,23.3,40.0
1684.0,23.27,40.2
1686.0,23.15,38.4
1688.0,23.09,38.7
1690.0,23.05,38.1
1692.0,23.01,37.3
1694.0,22.97,36.7
1696.0,23.0,35.7
1698.0,22.98,35.2
1700.0,22.94,34.8
1702.0,22.9,34.1
1704.0,22.87,32.9
1706.0,22.83,31.4
1708.0,22.79,31.6
1710.0,22.76,31.6
1712.0,22.73,30.6
1714.0,22.7,30.0
1716.0,22.66,29.8
1718.0,22.63,28.9
1720.0,22.58,28.7
1722.0,22.55,27.5
1724.0,22.51,26.8
1726.0,22.48,25.3
1728.0,22.42,25.1
1730.0,22.35,24.9
1732.0,22.33,25.1
1734.0,22.3,24.8
1736.0,22.3,24.6
1738.0,22.3,24.1
1740.0,22.3,23.3
1742.0,22.26,22.2
1744.0,22.24,22.2
1746.0,22.23,22.2
1748.0,22.19,21.5
1750.0,22.17,20.9
1752.0,22.13,19.7
1754.0,22.11,18.3
1756.0,22.08,18.1
1758.0,22.05,17.7
1760.0,22.03,17.2
1762.0,22.01,16.6
1764.0,21.98,16.5
1766.0,21.95,15.6
1768.0,21.93,14.4
1770.0,21.88,13.6
1772.0,21.81,13.0
1774.0,21.77,12.8
1776.0,21.75,12.4
1778.0,21.8,12.2
1780.0,21.77,12.3
1782.0,21.74,12.2
1784.0,21.72,12.2
1786.0,21.7,11.5
1788.0,21.69,11.4
1790.0,21.67,11.7
1792.0,21.63,11.9
1794.0,21.59,11.8
1796.0,21.56,11.6
1798.0,21.54,11.2
1800.0,21.52,12.5
1802.0,21.51,13.1
1804.0,21.48,13.2
1806.0,21.45,12.6
1808.0,21.4,12.5
1810.0,21.35,12.3
1812.0,21.3,11.6
1814.0,21.31,10.7
1816.0,21.3,10.1
1818.0,21.29,9.4
1820.0,21.29,8.8
1822.0,21.28,8.9
1824.0,21.27,8.8
1826.0,21.25,8.6
1828.0,21.23,8.6
1830.0,21.2,8.7
1832.0,21.17,8.7
1834.0,21.15,8.6
1836.0,21.14,8.7
1838.0,21.11,8.5
1840.0,21.09,8.6
1842.0,21.07,8.7
1844.0,21.06,8.6
1846.0,21.03,9.2
1848.0,21.01,9.2
1850.0,20.91,9.4
1852.0,20.88,10.1
1854.0,20.88,10.4
1856.0,20.91,10.7
1858.0,20.9,10.6
1860.0,20.89,10.8
1862.0,20.88,10.8
1864.0,20.86,10.3
1866.0,20.83,9.6
1868.0,20.81,9.5
1870.0,20.79,9.9
1872.0,20.78,10.1
1874.0,20.77,10.1
1876.0,20.76,9.7
1878.0,20.72,9.1
1880.0,20.71,8.7
1882.0,20.69,8.8
1884.0,20.68,9.6
1886.0,20.65,10.6
1888.0,20.6,11.2
1890.0,20.53,11.3
1892.0,20.49,11.3
1894.0,20.48,11.3
1896.0,20.48,11.3
1898.0,20.46,11.3
1900.0,20.47,11.1
1902.0,20.48,10.8
1904.0,20.46,10.4
1906.0,20.44,9.9
1908.0,20.43,10.0
1910.0,20.41,9.8
1912.0,20.39,9.9
1914.0,20.38,10.0
1916.0,20.36,9.8
1918.0,20.35,9.3
1920.0,20.34,8.6
1922.0,20.3,8.4
1924.0,20.29,8.1
1926.0,20.28,8.1
1928.0,20.24,8.9
1930.0,20.21,9.2
1932.0,20.12,8.8
1934.0,20.1,8.3
1936.0,20.08,8.3
1938.0,20.05,8.6
1940.0,20.04,8.9