File: Wood/Calibration_Data/FSRI/FSRI_Wood_Perpendicular_Cone_75kW_hor_R3.csv
Time,Mass (g),HRRPUA (kW/m2)
0.0,97.21,1.3
1.0,97.13,1.4
2.0,97.17,1.4
3.0,97.17,1.5
4.0,97.17,1.5
5.0,97.2,1.5
6.0,97.19,1.6
7.0,97.16,1.5
8.0,97.22,1.7
9.0,97.13,1.5
10.0,97.06,1.3
11.0,97.1,1.1
12.0,96.85,0.8
13.0,96.69,0.4
14.0,96.54,0.2
15.0,96.35,-0.0
16.0,96.14,-0.1
17.0,95.94,-0.2
18.0,95.75,-0.2
19.0,95.52,-0.2
20.0,95.35,0.3
21.0,95.13,1.9
22.0,94.87,11.8
23.0,94.68,33.0
24.0,94.46,57.5
25.0,94.24,91.2
26.0,94.04,126.8
27.0,93.9,154.4
28.0,93.66,185.4
29.0,93.52,211.7
30.0,93.31,234.8
31.0,93.15,248.4
32.0,92.96,279.8
33.0,92.79,301.6
34.0,92.6,312.2
35.0,92.46,326.8
36.0,92.26,326.7
37.0,92.08,334.8
38.0,91.91,335.2
39.0,91.67,331.7
40.0,91.53,338.5
41.0,91.32,337.3
42.0,91.16,331.0
43.0,91.0,328.5
44.0,90.88,325.4
45.0,90.67,314.8
46.0,90.53,310.7
47.0,90.41,307.0
48.0,90.23,298.6
49.0,90.03,293.4
50.0,89.94,294.9
51.0,89.79,284.4
52.0,89.67,288.1
53.0,89.52,273.7
54.0,89.35,271.8
55.0,89.23,268.9
56.0,89.04,262.8
57.0,88.94,260.8
58.0,88.81,254.8
59.0,88.69,251.3
60.0,88.54,247.0
61.0,88.43,244.3
62.0,88.29,245.3
63.0,88.19,238.5
64.0,88.09,234.5
65.0,87.94,234.2
66.0,87.82,231.8
67.0,87.7,229.0
68.0,87.59,230.3
69.0,87.44,221.5
70.0,87.29,220.1
71.0,87.19,213.3
72.0,87.05,212.8
73.0,86.91,214.7
74.0,86.79,212.9
75.0,86.7,210.3
76.0,86.56,204.2
77.0,86.45,205.0
78.0,86.32,200.4
79.0,86.18,202.1
80.0,86.07,201.1
81.0,85.87,197.5
82.0,85.76,195.0
83.0,85.68,193.3
84.0,85.56,190.0
85.0,85.45,193.9
86.0,85.34,191.1
87.0,85.24,187.0
88.0,85.09,187.3
89.0,84.98,185.9
90.0,84.86,184.7
91.0,84.76,183.7
92.0,84.63,182.7
93.0,84.55,183.0
94.0,84.41,179.8
95.0,84.33,180.5
96.0,84.21,178.1
97.0,84.09,178.3
98.0,83.99,174.6
99.0,83.88,175.9
100.0,83.79,172.9
101.0,83.65,172.2
102.0,83.62,171.1
103.0,83.47,173.5
104.0,83.38,168.1
105.0,83.25,168.2
106.0,83.15,169.2
107.0,83.04,166.2
108.0,82.91,161.2
109.0,82.83,164.4
110.0,82.69,162.4
111.0,82.61,156.6
112.0,82.49,161.0
113.0,82.38,158.8
114.0,82.23,161.3
115.0,82.14,162.5
116.0,82.04,161.2
117.0,81.94,159.1
118.0,81.82,156.1
119.0,81.69,154.9
120.0,81.62,155.4
121.0,81.5,156.7
122.0,81.38,152.6
123.0,81.27,153.3
124.0,81.16,151.7
125.0,81.07,151.3
126.0,80.97,149.6
127.0,80.84,153.6
128.0,80.73,151.6
129.0,80.62,151.4
130.0,80.54,148.3
131.0,80.43,151.2
132.0,80.32,148.8
133.0,80.24,149.2
134.0,80.13,146.1
135.0,80.02,147.6
136.0,79.91,146.5
137.0,79.87,145.0
138.0,79.73,145.3
139.0,79.64,144.3
140.0,79.53,144.9
141.0,79.48,145.3
142.0,79.33,142.9
143.0,79.23,143.1
144.0,79.14,143.6
145.0,79.05,145.5
146.0,78.95,141.0
147.0,78.83,142.0
148.0,78.71,140.1
149.0,78.57,140.6
150.0,78.49,142.5
151.0,78.39,138.3
152.0,78.29,139.7
153.0,78.18,138.2
154.0,78.12,139.2
155.0,77.95,137.2
156.0,77.9,137.7
157.0,77.81,139.4
158.0,77.72,134.9
159.0,77.63,135.5
160.0,77.51,137.1
161.0,77.42,134.6
162.0,77.33,134.2
163.0,77.22,132.9
164.0,77.08,133.0
165.0,77.04,132.7
166.0,76.89,133.3
167.0,76.79,130.8
168.0,76.7,131.3
169.0,76.6,130.5
170.0,76.51,131.3
171.0,76.42,131.8
172.0,76.33,133.0
173.0,76.21,129.0
174.0,76.13,130.1
175.0,76.04,129.0
176.0,75.92,127.5
177.0,75.84,129.6
178.0,75.74,128.3
179.0,75.67,126.7
180.0,75.55,124.8
181.0,75.45,127.0
182.0,75.35,126.3
183.0,75.26,124.7
184.0,75.16,124.7
185.0,75.07,125.7
186.0,74.97,123.8
187.0,74.88,122.5
188.0,74.78,121.9
189.0,74.65,123.3
190.0,74.58,123.4
191.0,74.48,123.2
192.0,74.4,121.8
193.0,74.29,122.0
194.0,74.21,120.9
195.0,74.14,121.1
196.0,74.01,120.5
197.0,73.91,121.1
198.0,73.86,120.9
199.0,73.73,119.5
200.0,73.65,122.4
201.0,73.57,121.5
202.0,73.44,117.7
203.0,73.36,118.8
204.0,73.23,118.8
205.0,73.14,117.0
206.0,73.03,117.8
207.0,72.97,118.4
208.0,72.88,116.5
209.0,72.77,117.7
210.0,72.69,116.0
211.0,72.63,116.7
212.0,72.52,114.6
213.0,72.41,112.1
214.0,72.32,112.5
215.0,72.25,112.3
216.0,72.14,112.6
217.0,72.06,112.1
218.0,71.96,110.9
219.0,71.88,110.9
220.0,71.77,111.2
221.0,71.66,110.3
222.0,71.58,112.6
223.0,71.49,111.6
224.0,71.4,111.5
225.0,71.31,111.4
226.0,71.21,109.6
227.0,71.15,110.3
228.0,71.05,110.1
229.0,70.95,110.6
230.0,70.86,109.4
231.0,70.77,109.2
232.0,70.68,108.1
233.0,70.6,108.5
234.0,70.47,109.2
235.0,70.43,107.1
236.0,70.33,107.3
237.0,70.24,108.4
238.0,70.15,106.2
239.0,70.03,106.8
240.0,69.97,107.7
241.0,69.91,104.7
242.0,69.82,106.7
243.0,69.73,108.4
244.0,69.65,106.8
245.0,69.55,108.1
246.0,69.46,106.0
247.0,69.41,107.3
248.0,69.32,108.0
249.0,69.23,109.2
250.0,69.12,109.1
251.0,69.06,106.4
252.0,68.95,109.3
253.0,68.85,109.1
254.0,68.77,109.2
255.0,68.68,108.5
256.0,68.57,106.0
257.0,68.49,103.9
258.0,68.39,105.2
259.0,68.31,106.8
260.0,68.26,104.5
261.0,68.16,104.7
262.0,68.06,105.4
263.0,67.98,105.1
264.0,67.89,105.3
265.0,67.79,107.4
266.0,67.72,104.7
267.0,67.66,105.1
268.0,67.54,106.6
269.0,67.45,105.2
270.0,67.4,105.1
271.0,67.3,105.7
272.0,67.25,104.9
273.0,67.15,106.0
274.0,67.05,102.6
275.0,66.99,103.0
276.0,66.91,104.0
277.0,66.81,102.0
278.0,66.74,104.2
279.0,66.62,104.8
280.0,66.56,102.6
281.0,66.47,103.3
282.0,66.38,105.0
283.0,66.3,103.6
284.0,66.21,103.2
285.0,66.16,103.6
286.0,66.06,103.1
287.0,66.0,103.1
288.0,65.93,103.1
289.0,65.83,103.5
290.0,65.72,104.0
291.0,65.64,103.9
292.0,65.53,104.2
293.0,65.44,103.9
294.0,65.36,99.7
295.0,65.29,103.2
296.0,65.2,102.3
297.0,65.12,101.7
298.0,65.04,100.4
299.0,64.94,101.1
300.0,64.87,102.3
301.0,64.81,101.3
302.0,64.73,101.4
303.0,64.63,102.6
304.0,64.53,102.0
305.0,64.45,101.9
306.0,64.38,102.6
307.0,64.28,103.0
308.0,64.2,101.4
309.0,64.13,102.5
310.0,64.05,102.8
311.0,63.97,100.8
312.0,63.9,101.9
313.0,63.82,102.2
314.0,63.74,100.9
315.0,63.66,101.6
316.0,63.61,100.5
317.0,63.55,101.6
318.0,63.43,101.8
319.0,63.33,102.6
320.0,63.27,101.9
321.0,63.21,103.7
322.0,63.12,104.0
323.0,63.03,102.5
324.0,62.94,102.7
325.0,62.86,103.6
326.0,62.77,106.1
327.0,62.68,103.4
328.0,62.59,105.6
329.0,62.49,104.4
330.0,62.42,104.8
331.0,62.35,105.7
332.0,62.28,104.5
333.0,62.2,102.5
334.0,62.07,102.5
335.0,62.02,104.2
336.0,61.93,101.6
337.0,61.85,104.1
338.0,61.74,102.4
339.0,61.64,103.2
340.0,61.61,103.8
341.0,61.53,104.6
342.0,61.43,102.4
343.0,61.36,104.2
344.0,61.27,102.5
345.0,61.18,102.0
346.0,61.13,102.0
347.0,61.07,101.0
348.0,60.95,102.8
349.0,60.87,101.7
350.0,60.82,101.0
351.0,60.71,101.8
352.0,60.66,102.5
353.0,60.61,100.8
354.0,60.48,104.4
355.0,60.42,102.5
356.0,60.33,103.0
357.0,60.24,102.7
358.0,60.17,102.3
359.0,60.1,103.5
360.0,60.04,103.7
361.0,59.94,103.8
362.0,59.82,104.4
363.0,59.74,101.5
364.0,59.66,103.4
365.0,59.58,100.4
366.0,59.5,103.1
367.0,59.42,105.1
368.0,59.3,103.1
369.0,59.24,102.3
370.0,59.15,102.6
371.0,59.07,100.8
372.0,59.01,101.0
373.0,58.92,100.9
374.0,58.84,99.7
375.0,58.8,101.9
376.0,58.72,101.0
377.0,58.63,103.3
378.0,58.52,101.9
379.0,58.44,103.9
380.0,58.38,102.4
381.0,58.29,102.0
382.0,58.22,104.0
383.0,58.12,104.1
384.0,58.01,105.4
385.0,57.97,104.4
386.0,57.89,101.3
387.0,57.81,105.2
388.0,57.73,103.1
389.0,57.65,103.7
390.0,57.59,103.5
391.0,57.51,105.5
392.0,57.43,102.4
393.0,57.34,104.6
394.0,57.28,105.9
395.0,57.19,105.7
396.0,57.11,106.1
397.0,57.05,105.8
398.0,56.95,103.5
399.0,56.86,105.2
400.0,56.75,105.4
401.0,56.68,106.8
402.0,56.59,105.4
403.0,56.52,104.6
404.0,56.42,106.9
405.0,56.33,104.4
406.0,56.26,106.7
407.0,56.17,105.8
408.0,56.09,106.6
409.0,56.03,106.1
410.0,55.94,105.9
411.0,55.86,106.0
412.0,55.75,107.2
413.0,55.68,105.1
414.0,55.58,108.4
415.0,55.54,106.3
416.0,55.43,105.2
417.0,55.35,106.0
418.0,55.29,107.7
419.0,55.19,110.5
420.0,55.13,107.9
421.0,55.05,107.3
422.0,54.98,107.7
423.0,54.9,107.5
424.0,54.82,107.9
425.0,54.73,109.2
426.0,54.66,108.5
427.0,54.61,107.9
428.0,54.51,108.9
429.0,54.4,108.2
430.0,54.33,107.7
431.0,54.27,107.4
432.0,54.18,106.2
433.0,54.09,107.8
434.0,53.99,106.5
435.0,53.96,108.8
436.0,53.87,108.5
437.0,53.78,107.5
438.0,53.7,107.3
439.0,53.63,107.0
440.0,53.56,109.1
441.0,53.43,109.1
442.0,53.36,113.3
443.0,53.26,108.9
444.0,53.2,110.4
445.0,53.09,110.0
446.0,53.03,112.4
447.0,52.96,109.1
448.0,52.89,110.1
449.0,52.79,108.7
450.0,52.73,111.4
451.0,52.66,107.4
452.0,52.56,110.1
453.0,52.49,110.2
454.0,52.37,111.2
455.0,52.3,112.0
456.0,52.24,113.1
457.0,52.17,113.9
458.0,52.09,113.0
459.0,51.99,112.6
460.0,51.94,113.3
461.0,51.81,115.5
462.0,51.75,113.2
463.0,51.68,115.6
464.0,51.6,114.0
465.0,51.52,114.1
466.0,51.46,115.8
467.0,51.36,114.0
468.0,51.29,115.8
469.0,51.23,113.6
470.0,51.14,115.6
471.0,51.05,114.6
472.0,50.97,113.6
473.0,50.83,115.9
474.0,50.72,113.4
475.0,50.67,113.6
476.0,50.59,117.3
477.0,50.52,116.5
478.0,50.41,115.0
479.0,50.34,115.0
480.0,50.21,114.5
481.0,50.17,115.0
482.0,50.06,112.4
483.0,49.96,115.5
484.0,49.89,117.3
485.0,49.82,117.0
486.0,49.75,117.9
487.0,49.65,118.2
488.0,49.57,120.2
489.0,49.5,118.4
490.0,49.43,120.1
491.0,49.36,120.0
492.0,49.3,120.4
493.0,49.21,121.9
494.0,49.11,122.0
495.0,49.07,119.2
496.0,49.0,120.5
497.0,48.91,121.8
498.0,48.82,119.6
499.0,48.7,120.0
500.0,48.64,120.4
501.0,48.56,121.6
502.0,48.46,121.3
503.0,48.39,121.6
504.0,48.32,122.5
505.0,48.25,119.7
506.0,48.18,123.5
507.0,48.07,123.3
508.0,48.0,124.1
509.0,47.86,122.2
510.0,47.8,124.6
511.0,47.7,122.3
512.0,47.61,121.2
513.0,47.51,124.7
514.0,47.5,124.6
515.0,47.4,122.4
516.0,47.32,122.3
517.0,47.22,123.1
518.0,47.16,121.1
519.0,47.04,121.4
520.0,46.96,123.3
521.0,46.9,119.2
522.0,46.78,122.4
523.0,46.72,120.3
524.0,46.63,122.2
525.0,46.55,123.6
526.0,46.47,122.4
527.0,46.39,124.6
528.0,46.31,121.8
529.0,46.24,124.3
530.0,46.15,124.2
531.0,46.07,125.8
532.0,45.96,123.8
533.0,45.9,124.7
534.0,45.82,125.2
535.0,45.74,124.4
536.0,45.65,127.0
537.0,45.6,126.1
538.0,45.5,127.3
539.0,45.43,128.3
540.0,45.35,124.5
541.0,45.25,126.0
542.0,45.17,126.5
543.0,45.05,125.1
544.0,44.97,125.4
545.0,44.9,126.1
546.0,44.82,125.6
547.0,44.74,126.6
548.0,44.68,127.4
549.0,44.53,129.6
550.0,44.44,130.2
551.0,44.37,131.3
552.0,44.28,129.7
553.0,44.19,130.6
554.0,44.1,130.0
555.0,44.01,130.0
556.0,43.93,130.9
557.0,43.84,130.2
558.0,43.75,130.0
559.0,43.65,128.9
560.0,43.58,127.8
561.0,43.51,129.7
562.0,43.42,130.1
563.0,43.29,130.2
564.0,43.23,131.8
565.0,43.19,131.9
566.0,43.07,128.8
567.0,42.99,133.3
568.0,42.91,131.7
569.0,42.82,134.8
570.0,42.74,133.9
571.0,42.67,132.7
572.0,42.57,134.2
573.0,42.51,130.4
574.0,42.41,133.8
575.0,42.33,132.0
576.0,42.21,135.1
577.0,42.14,134.7
578.0,42.02,134.9
579.0,41.96,136.3
580.0,41.85,133.1
581.0,41.77,133.7
582.0,41.65,136.7
583.0,41.6,135.4
584.0,41.52,137.9
585.0,41.39,137.6
586.0,41.27,139.0
587.0,41.2,139.8
588.0,41.1,139.7
589.0,41.0,136.0
590.0,40.92,142.1
591.0,40.81,140.3
592.0,40.69,142.4
593.0,40.61,142.0
594.0,40.53,145.4
595.0,40.44,143.4
596.0,40.34,142.2
597.0,40.24,143.1
598.0,40.14,143.1
599.0,40.08,142.9
600.0,40.0,145.0
601.0,39.89,144.6
602.0,39.77,144.1
603.0,39.7,143.5
604.0,39.6,144.6
605.0,39.53,145.4
606.0,39.42,144.4
607.0,39.36,146.3
608.0,39.24,145.6
609.0,39.16,146.4
610.0,39.03,143.7
611.0,38.93,141.8
612.0,38.87,146.9
613.0,38.76,147.5
614.0,38.64,149.7
615.0,38.56,149.6
616.0,38.45,149.8
617.0,38.35,150.7
618.0,38.23,153.4
619.0,38.16,152.9
620.0,38.07,153.4
621.0,37.95,152.2
622.0,37.81,154.6
623.0,37.76,150.8
624.0,37.64,152.5
625.0,37.53,152.9
626.0,37.45,151.4
627.0,37.36,155.0
628.0,37.24,152.2
629.0,37.16,154.5
630.0,37.05,156.9
631.0,36.93,154.8
632.0,36.83,156.8
633.0,36.76,156.1
634.0,36.64,154.0
635.0,36.5,150.6
636.0,36.45,158.3
637.0,36.34,157.5
638.0,36.27,157.3
639.0,36.16,160.6
640.0,36.07,157.2
641.0,35.97,158.3
642.0,35.88,161.2
643.0,35.79,161.9
644.0,35.68,160.2
645.0,35.58,160.8
646.0,35.48,160.0
647.0,35.33,161.8
648.0,35.28,156.8
649.0,35.16,161.0
650.0,35.06,160.6
651.0,34.98,160.0
652.0,34.87,162.5
653.0,34.74,162.3
654.0,34.65,161.9
655.0,34.56,161.7
656.0,34.41,162.7
657.0,34.3,164.3
658.0,34.23,164.2
659.0,34.12,162.2
660.0,34.01,162.4
661.0,33.91,162.1
662.0,33.81,162.6
663.0,33.71,164.1
664.0,33.58,164.4
665.0,33.53,162.2
666.0,33.4,164.5
667.0,33.34,164.3
668.0,33.19,163.0
669.0,33.12,164.7
670.0,33.03,162.6
671.0,32.9,165.8
672.0,32.78,166.1
673.0,32.69,168.3
674.0,32.57,166.9
675.0,32.49,162.9
676.0,32.36,166.9
677.0,32.31,167.1
678.0,32.23,163.2
679.0,32.14,166.0
680.0,32.03,162.6
681.0,31.93,162.0
682.0,31.82,165.7
683.0,31.73,165.4
684.0,31.57,166.7
685.0,31.5,165.8
686.0,31.38,166.9
687.0,31.27,167.7
688.0,31.17,159.5
689.0,31.08,168.4
690.0,30.97,167.1
691.0,30.85,164.9
692.0,30.75,164.3
693.0,30.66,168.0
694.0,30.55,163.6
695.0,30.48,163.0
696.0,30.35,164.4
697.0,30.27,164.3
698.0,30.15,169.0
699.0,30.04,165.5
700.0,29.93,165.2
701.0,29.84,167.5
702.0,29.72,163.8
703.0,29.61,166.4
704.0,29.53,167.0
705.0,29.44,165.0
706.0,29.34,163.7
707.0,29.23,166.8
708.0,29.12,165.7
709.0,29.03,164.5
710.0,28.94,163.0
711.0,28.85,165.5
712.0,28.75,163.0
713.0,28.68,161.7
714.0,28.57,162.4
715.0,28.52,162.1
716.0,28.41,165.9
717.0,28.3,162.7
718.0,28.21,161.7
719.0,28.1,164.0
720.0,28.01,160.7
721.0,27.97,163.6
722.0,27.85,162.9
723.0,27.71,162.8
724.0,27.6,160.0
725.0,27.49,159.7
726.0,27.46,159.3
727.0,27.32,161.4
728.0,27.22,159.7
729.0,27.12,156.4
730.0,27.02,162.0
731.0,26.88,159.1
732.0,26.83,161.3
733.0,26.71,157.9
734.0,26.63,160.5
735.0,26.58,160.4
736.0,26.46,159.1
737.0,26.39,159.0
738.0,26.32,158.2
739.0,26.22,159.6
740.0,26.12,159.2
741.0,26.04,156.3
742.0,25.95,155.8
743.0,25.85,157.8
744.0,25.73,156.4
745.0,25.65,155.3
746.0,25.56,156.6
747.0,25.47,157.3
748.0,25.39,157.2
749.0,25.3,150.4
750.0,25.25,153.6
751.0,25.17,153.4
752.0,25.11,152.6
753.0,25.0,154.2
754.0,24.93,152.3
755.0,24.86,151.3
756.0,24.76,150.9
757.0,24.68,148.4
758.0,24.59,148.1
759.0,24.51,150.1
760.0,24.42,149.8
761.0,24.32,148.8
762.0,24.21,150.0
763.0,24.15,146.6
764.0,24.04,147.7
765.0,23.96,146.0
766.0,23.85,148.6
767.0,23.77,146.3
768.0,23.69,147.4
769.0,23.6,145.4
770.0,23.54,145.5
771.0,23.45,145.3
772.0,23.39,143.5
773.0,23.3,145.8
774.0,23.23,144.5
775.0,23.15,144.3
776.0,23.06,143.2
777.0,23.01,139.9
778.0,22.95,140.7
779.0,22.92,139.8
780.0,22.84,138.4
781.0,22.77,137.0
782.0,22.7,138.5
783.0,22.63,136.6
784.0,22.56,137.7
785.0,22.49,135.1
786.0,22.39,134.3
787.0,22.35,134.2
788.0,22.26,134.9
789.0,22.2,132.2
790.0,22.16,132.9
791.0,22.04,130.3
792.0,21.98,128.1
793.0,21.9,129.4
794.0,21.85,129.1
795.0,21.8,126.2
796.0,21.74,127.3
797.0,21.69,126.4
798.0,21.62,124.1
799.0,21.54,126.9
800.0,21.46,125.9
801.0,21.4,123.9
802.0,21.34,123.7
803.0,21.31,125.8
804.0,21.24,124.6
805.0,21.15,122.0
806.0,21.08,123.7
807.0,21.03,124.2
808.0,20.98,121.8
809.0,20.94,122.1
810.0,20.86,121.1
811.0,20.79,119.5
812.0,20.74,117.5
813.0,20.71,117.7
814.0,20.65,115.7
815.0,20.56,115.9
816.0,20.48,115.0
817.0,20.42,114.2
818.0,20.4,113.2
819.0,20.38,111.8
820.0,20.32,110.7
821.0,20.26,111.9
822.0,20.25,111.4
823.0,20.27,109.9
824.0,20.19,107.1
825.0,20.14,108.2
826.0,20.11,106.6
827.0,20.05,105.6
828.0,19.96,104.5
829.0,19.92,105.4
830.0,19.85,103.0
831.0,19.79,104.6
832.0,19.75,101.8
833.0,19.71,101.5
834.0,19.68,100.1
835.0,19.61,99.4
836.0,19.58,97.8
837.0,19.51,97.3
838.0,19.48,96.6
839.0,19.43,94.8
840.0,19.39,95.2
841.0,19.35,93.7
842.0,19.32,94.3
843.0,19.27,93.2
844.0,19.24,93.5
845.0,19.21,91.6
846.0,19.18,88.6
847.0,19.13,86.9
848.0,19.12,85.9
849.0,19.1,85.1
850.0,19.06,83.7
851.0,19.02,84.2
852.0,18.98,82.0
853.0,18.93,82.1
854.0,18.9,82.5
855.0,18.86,81.8
856.0,18.84,82.0
857.0,18.81,80.7
858.0,18.8,80.2
859.0,18.77,77.3
860.0,18.79,76.4
861.0,18.75,76.6
862.0,18.73,74.9
863.0,18.73,74.7
864.0,18.67,73.9
865.0,18.68,72.9
866.0,18.62,71.3
867.0,18.59,69.6
868.0,18.59,68.1
869.0,18.57,67.8
870.0,18.58,66.8
871.0,18.54,65.1
872.0,18.53,65.4
873.0,18.49,64.8
874.0,18.47,62.8
875.0,18.42,62.5
876.0,18.41,61.7
877.0,18.39,60.2
878.0,18.36,58.9
879.0,18.34,59.0
880.0,18.34,59.0
881.0,18.31,57.9
882.0,18.31,56.8
883.0,18.31,56.7
884.0,18.3,55.1
885.0,18.26,55.3
886.0,18.27,55.7
887.0,18.26,54.3
888.0,18.23,54.7
889.0,18.23,53.7
890.0,18.21,53.2
891.0,18.2,51.4
892.0,18.18,51.3
893.0,18.2,50.3
894.0,18.17,49.6
895.0,18.12,48.0
896.0,18.15,47.5
897.0,18.13,46.7
898.0,18.19,46.0
899.0,18.18,46.1
900.0,18.13,45.2
901.0,18.12,44.5
902.0,18.08,44.2
903.0,18.07,42.7
904.0,18.09,43.1
905.0,18.05,42.5
906.0,18.07,41.9
907.0,18.05,41.9
908.0,17.99,41.4
909.0,17.97,41.2
910.0,17.96,40.7
911.0,17.89,41.0
912.0,17.89,41.2
913.0,17.87,42.0
914.0,17.88,41.4
915.0,17.86,42.2
916.0,17.87,42.8
917.0,17.85,42.5
918.0,17.84,42.9
919.0,17.82,42.8
920.0,17.82,42.6
921.0,17.78,42.9
922.0,17.77,42.3
923.0,17.75,42.2
924.0,17.75,42.4
925.0,17.71,41.6
926.0,17.71,42.3
927.0,17.69,42.0
928.0,17.68,41.6
929.0,17.65,41.6
930.0,17.64,41.7
931.0,17.65,40.9
932.0,17.67,41.0
933.0,17.65,40.8
934.0,17.68,40.4
935.0,17.69,40.8
936.0,17.67,41.6
937.0,17.66,41.0
938.0,17.65,41.1
939.0,17.62,40.5
940.0,17.64,40.9
941.0,17.62,41.1
942.0,17.63,40.5
943.0,17.59,40.7
944.0,17.55,41.2
945.0,17.53,41.0
946.0,17.5,41.1
947.0,17.48,41.1
948.0,17.47,41.0
949.0,17.45,41.5
950.0,17.41,41.0
951.0,17.42,41.0
952.0,17.41,40.6
953.0,17.38,40.8
954.0,17.37,41.6
955.0,17.37,40.3
956.0,17.35,39.8
957.0,17.37,39.7
958.0,17.34,39.3
959.0,17.36,39.3
960.0,17.35,38.8
961.0,17.35,38.4
962.0,17.34,38.0
963.0,17.33,38.4
964.0,17.32,38.8
965.0,17.31,38.5
966.0,17.31,38.6
967.0,17.3,38.6
968.0,17.26,38.7
969.0,17.26,38.6
970.0,17.29,38.5
971.0,17.28,39.3
972.0,17.27,38.7
973.0,17.28,38.9
974.0,17.26,38.9
975.0,17.29,38.4
976.0,17.29,38.4
977.0,17.25,38.6
978.0,17.22,39.3
979.0,17.25,38.2
980.0,17.25,38.2
981.0,17.19,38.0
982.0,17.17,38.7
983.0,17.14,39.1
984.0,17.09,40.3
985.0,17.07,40.0
986.0,17.06,40.6
987.0,17.04,40.4
988.0,17.03,40.3
989.0,17.0,39.4
990.0,16.98,39.6
991.0,16.98,39.3
992.0,16.96,38.8
993.0,16.97,38.6
994.0,16.95,38.6
995.0,16.94,38.4
996.0,16.9,38.4
997.0,16.94,37.9
998.0,16.95,37.8
999.0,16.95,38.0
1000.0,16.94,38.2
1001.0,16.92,38.8
1002.0,16.97,39.2
1003.0,16.96,39.4
1004.0,16.96,39.4
1005.0,16.95,38.8
1006.0,16.97,39.0
1007.0,16.95,39.0
1008.0,16.95,38.8
1009.0,16.89,39.3
1010.0,16.89,38.4