File: Wood/Calibration_Data/FSRI/FSRI_Wood_STA_N2_30K_R1.csv
Time (s),Temperature (K),Mass (mg),Heat Flow Rate (W/g)
0.0,325.0,4.0427,-0.0048
19.9798,325.5,4.0433,0.0238
27.1453,326.0,4.0349,0.0501
32.3766,326.5,4.0431,0.0731
36.6778,327.0,4.0417,0.0937
40.3744,327.5,4.0425,0.1133
43.6456,328.0,4.0419,0.1298
46.6673,328.5,4.0422,0.1479
49.5369,329.0,4.0429,0.165
52.1533,329.5,4.0438,0.1808
54.6348,330.0,4.0441,0.1956
57.0035,330.5,4.0435,0.2086
59.2649,331.0,4.0424,0.2196
61.4381,331.5,4.0418,0.2353
63.5339,332.0,4.0419,0.2465
65.554,332.5,4.043,0.2583
67.5228,333.0,4.0421,0.2702
69.4248,333.5,4.0447,0.2805
71.2932,334.0,4.0462,0.2925
73.0984,334.5,4.0447,0.3031
74.8754,335.0,4.0423,0.3125
76.5924,335.5,4.0419,0.3211
78.3022,336.0,4.0421,0.331
79.969,336.5,4.0423,0.3401
81.6234,337.0,4.042,0.3492
83.2322,337.5,4.0413,0.3592
84.8316,338.0,4.0408,0.3667
86.395,338.5,4.0415,0.3731
87.9558,339.0,4.0416,0.3818
89.4886,339.5,4.0412,0.3896
91.0056,340.0,4.0414,0.3963
92.4988,340.5,4.0417,0.4072
93.9776,341.0,4.0417,0.4139
95.4362,341.5,4.0419,0.4191
96.8851,342.0,4.0421,0.4266
98.32,342.5,4.0422,0.4332
99.7397,343.0,4.0414,0.442
101.151,343.5,4.0408,0.4473
102.551,344.0,4.0409,0.4533
103.936,344.5,4.0405,0.4595
105.317,345.0,4.0394,0.4663
106.683,345.5,4.0391,0.472
108.044,346.0,4.0395,0.4792
109.399,346.5,4.0398,0.4843
110.738,347.0,4.0396,0.4903
112.071,347.5,4.0399,0.4959
113.39,348.0,4.0401,0.5024
114.705,348.5,4.0402,0.5097
116.009,349.0,4.0405,0.5145
117.308,349.5,4.0407,0.5202
118.603,350.0,4.041,0.5262
119.892,350.5,4.0408,0.5307
121.175,351.0,4.0401,0.5354
122.451,351.5,4.0397,0.5419
123.721,352.0,4.0394,0.547
124.979,352.5,4.039,0.5533
126.241,353.0,4.0399,0.5574
127.493,353.5,4.0401,0.5636
128.737,354.0,4.0396,0.5664
129.983,354.5,4.038,0.5715
131.22,355.0,4.0378,0.5773
132.446,355.5,4.0366,0.5812
133.667,356.0,4.0349,0.5882
134.879,356.5,4.0334,0.5923
136.088,357.0,4.0325,0.5976
137.288,357.5,4.0353,0.5995
138.492,358.0,4.0371,0.6063
139.693,358.5,4.0384,0.6113
140.885,359.0,4.0398,0.6178
142.071,359.5,4.0399,0.6217
143.261,360.0,4.0398,0.6239
144.442,360.5,4.0392,0.6299
145.619,361.0,4.0383,0.6346
146.8,361.5,4.0386,0.6384
147.971,362.0,4.0389,0.6419
149.138,362.5,4.0375,0.6453
150.305,363.0,4.0379,0.6509
151.465,363.5,4.0373,0.6538
152.619,364.0,4.0375,0.6586
153.766,364.5,4.036,0.6649
154.917,365.0,4.0366,0.6673
156.054,365.5,4.0358,0.6716
157.199,366.0,4.0371,0.6745
158.339,366.5,4.0365,0.6787
159.479,367.0,4.0373,0.6824
160.607,367.5,4.0361,0.6871
161.74,368.0,4.0373,0.6908
162.868,368.5,4.0368,0.6949
163.989,369.0,4.0362,0.699
165.111,369.5,4.0362,0.7009
166.232,370.0,4.0348,0.7046
167.348,370.5,4.0361,0.7072
168.463,371.0,4.035,0.7133
169.571,371.5,4.0361,0.7159
170.678,372.0,4.0351,0.7198
171.782,372.5,4.036,0.7231
172.889,373.0,4.0348,0.7257
173.986,373.5,4.0361,0.7303
175.086,374.0,4.0361,0.7325
176.186,374.5,4.0361,0.7353
177.276,375.0,4.0359,0.7388
178.368,375.5,4.0355,0.7416
179.463,376.0,4.0343,0.7462
180.556,376.5,4.0351,0.7482
181.646,377.0,4.0344,0.7482
182.74,377.5,4.0344,0.7521
183.83,378.0,4.0334,0.7563
184.914,378.5,4.0338,0.7586
185.992,379.0,4.0342,0.7589
187.07,379.5,4.0331,0.7612
188.146,380.0,4.0331,0.7615
189.213,380.5,4.033,0.7645
190.29,381.0,4.0316,0.7653
191.371,381.5,4.033,0.7687
192.441,382.0,4.0317,0.7674
193.519,382.5,4.0317,0.7711
194.603,383.0,4.0316,0.772
195.672,383.5,4.0313,0.7713
196.736,384.0,4.0314,0.773
197.807,384.5,4.0317,0.7748
198.873,385.0,4.0317,0.7749
199.925,385.5,4.0309,0.7774
200.979,386.0,4.0304,0.778
202.04,386.5,4.0303,0.7788
203.102,387.0,4.0316,0.7797
204.159,387.5,4.0317,0.7836
205.223,388.0,4.0311,0.7824
206.285,388.5,4.0303,0.782
207.34,389.0,4.0303,0.7811
208.393,389.5,4.0315,0.7834
209.441,390.0,4.0305,0.7855
210.49,390.5,4.0304,0.7815
211.537,391.0,4.0304,0.7865
212.581,391.5,4.0304,0.7851
213.622,392.0,4.0304,0.7841
214.668,392.5,4.0294,0.7835
215.711,393.0,4.0291,0.785
216.759,393.5,4.03,0.7837
217.803,394.0,4.029,0.7852
218.847,394.5,4.029,0.783
219.881,395.0,4.0294,0.7828
220.905,395.5,4.0304,0.7835
221.925,396.0,4.0296,0.7839
222.943,396.5,4.029,0.7846
223.966,397.0,4.029,0.7829
224.996,397.5,4.029,0.7822
226.03,398.0,4.029,0.7821
227.059,398.5,4.029,0.7843
228.094,399.0,4.0288,0.7843
229.126,399.5,4.0287,0.7828
230.15,400.0,4.029,0.7836
231.167,400.5,4.029,0.7846
232.191,401.0,4.029,0.7848
233.215,401.5,4.0291,0.7846
234.227,402.0,4.0279,0.7826
235.239,402.5,4.0277,0.7844
236.255,403.0,4.0283,0.7847
237.271,403.5,4.0291,0.784
238.282,404.0,4.0289,0.7829
239.29,404.5,4.0277,0.7842
240.302,405.0,4.0277,0.7855
241.308,405.5,4.0277,0.7844
242.316,406.0,4.0277,0.7864
243.318,406.5,4.0277,0.7873
244.32,407.0,4.0277,0.7858
245.321,407.5,4.0281,0.7885
246.317,408.0,4.0286,0.7898
247.312,408.5,4.0277,0.7905
248.307,409.0,4.0277,0.7912
249.303,409.5,4.0277,0.7898
250.302,410.0,4.0277,0.7906
251.298,410.5,4.0277,0.7909
252.296,411.0,4.0279,0.792
253.294,411.5,4.0291,0.7939
254.282,412.0,4.0277,0.7946
255.268,412.5,4.0277,0.7951
256.255,413.0,4.0277,0.7951
257.242,413.5,4.0277,0.796
258.231,414.0,4.0277,0.7979
259.217,414.5,4.0277,0.7983
260.208,415.0,4.0279,0.7997
261.192,415.5,4.0288,0.8004
262.175,416.0,4.0277,0.8014
263.152,416.5,4.0277,0.8016
264.129,417.0,4.0277,0.8027
265.109,417.5,4.0277,0.8047
266.085,418.0,4.0277,0.8075
267.059,418.5,4.0277,0.8084
268.034,419.0,4.0277,0.811
269.011,419.5,4.0286,0.8112
269.987,420.0,4.029,0.8138
270.958,420.5,4.029,0.8163
271.935,421.0,4.029,0.8157
272.906,421.5,4.029,0.8165
273.877,422.0,4.029,0.8189
274.846,422.5,4.029,0.8178
275.815,423.0,4.0291,0.8183
276.782,423.5,4.028,0.8203
277.748,424.0,4.0277,0.8231
278.717,424.5,4.0277,0.8231
279.678,425.0,4.0277,0.826
280.643,425.5,4.0277,0.8282
281.609,426.0,4.029,0.8297
282.575,426.5,4.029,0.8313
283.537,427.0,4.0291,0.8321
284.496,427.5,4.0281,0.8352
285.461,428.0,4.0277,0.8369
286.423,428.5,4.0277,0.8393
287.38,429.0,4.0277,0.8407
288.34,429.5,4.0277,0.841
289.299,430.0,4.0274,0.8434
290.26,430.5,4.0264,0.8446
291.22,431.0,4.0264,0.8465
292.177,431.5,4.0264,0.8488
293.136,432.0,4.0264,0.8502
294.094,432.5,4.0264,0.8528
295.052,433.0,4.0264,0.8546
296.007,433.5,4.0264,0.8568
296.962,434.0,4.0265,0.86
297.917,434.5,4.0277,0.8628
298.869,435.0,4.0276,0.8645
299.819,435.5,4.0264,0.863
300.77,436.0,4.0264,0.8664
301.719,436.5,4.0264,0.8695
302.669,437.0,4.0264,0.8714
303.615,437.5,4.0264,0.8734
304.566,438.0,4.0264,0.8757
305.517,438.5,4.0264,0.8773
306.464,439.0,4.0264,0.877
307.411,439.5,4.0264,0.8803
308.359,440.0,4.0263,0.8836
309.307,440.5,4.0251,0.8858
310.252,441.0,4.0251,0.8887
311.197,441.5,4.0251,0.8908
312.147,442.0,4.0251,0.8926
313.092,442.5,4.0251,0.8946
314.038,443.0,4.0251,0.896
314.982,443.5,4.0247,0.8984
315.927,444.0,4.0244,0.9017
316.87,444.5,4.0244,0.9033
317.811,445.0,4.0244,0.9033
318.756,445.5,4.0244,0.9051
319.698,446.0,4.0244,0.9097
320.641,446.5,4.0244,0.9122
321.583,447.0,4.0244,0.9146
322.519,447.5,4.0244,0.9178
323.459,448.0,4.0244,0.9189
324.394,448.5,4.0244,0.9213
325.324,449.0,4.0256,0.9244
326.255,449.5,4.0257,0.926
327.184,450.0,4.0257,0.9287
328.119,450.5,4.0257,0.9295
329.053,451.0,4.0257,0.9311
329.988,451.5,4.0257,0.9329
330.93,452.0,4.0257,0.9376
331.865,452.5,4.0257,0.939
332.805,453.0,4.0257,0.9392
333.738,453.5,4.0257,0.9421
334.67,454.0,4.0267,0.9429
335.605,454.5,4.027,0.948
336.538,455.0,4.027,0.9512
337.469,455.5,4.0256,0.9516
338.397,456.0,4.0256,0.9537
339.321,456.5,4.0248,0.9554
340.25,457.0,4.0242,0.9581
341.177,457.5,4.0242,0.9606
342.105,458.0,4.0242,0.9622
343.03,458.5,4.0242,0.9661
343.957,459.0,4.0232,0.9681
344.883,459.5,4.0229,0.9696
345.808,460.0,4.0229,0.9722
346.732,460.5,4.0229,0.9756
347.652,461.0,4.0228,0.9764
348.575,461.5,4.0237,0.9791
349.497,462.0,4.0242,0.9799
350.418,462.5,4.0242,0.9835
351.334,463.0,4.0242,0.9848
352.255,463.5,4.024,0.9867
353.176,464.0,4.0229,0.9891
354.092,464.5,4.0229,0.9896
355.011,465.0,4.0229,0.9918
355.93,465.5,4.0229,0.9961
356.849,466.0,4.0229,0.9955
357.764,466.5,4.0229,0.999
358.678,467.0,4.0229,1.0017
359.594,467.5,4.0229,1.0025
360.511,468.0,4.0229,1.0036
361.422,468.5,4.0228,1.0079
362.338,469.0,4.0215,1.0088
363.251,469.5,4.0216,1.0123
364.165,470.0,4.0212,1.0146
365.077,470.5,4.0209,1.0173
365.989,471.0,4.0209,1.0194
366.9,471.5,4.0209,1.0205
367.812,472.0,4.0209,1.0229
368.726,472.5,4.0209,1.0259
369.639,473.0,4.0209,1.029
370.552,473.5,4.0209,1.0322
371.462,474.0,4.0209,1.0348
372.375,474.5,4.0197,1.0354
373.29,475.0,4.0196,1.0374
374.198,475.5,4.0196,1.0401
375.107,476.0,4.0196,1.0433
376.016,476.5,4.0196,1.0449
376.926,477.0,4.0196,1.0445
377.838,477.5,4.0196,1.0458
378.745,478.0,4.0196,1.0516
379.653,478.5,4.0196,1.0535
380.563,479.0,4.0196,1.0563
381.475,479.5,4.0196,1.0569
382.384,480.0,4.0183,1.0608
383.29,480.5,4.0183,1.0634
384.197,481.0,4.018,1.0639
385.105,481.5,4.0169,1.0659
386.01,482.0,4.017,1.07
386.913,482.5,4.0166,1.0731
387.817,483.0,4.0156,1.0762
388.717,483.5,4.0156,1.0778
389.624,484.0,4.0157,1.0806
390.529,484.5,4.0149,1.0827
391.437,485.0,4.0143,1.084
392.345,485.5,4.0143,1.0873
393.254,486.0,4.0143,1.0889
394.163,486.5,4.0143,1.0907
395.068,487.0,4.0143,1.0929
395.976,487.5,4.0143,1.0957
396.882,488.0,4.0131,1.0979
397.783,488.5,4.013,1.1002
398.689,489.0,4.0134,1.1034
399.595,489.5,4.0142,1.1062
400.5,490.0,4.013,1.1068
401.403,490.5,4.013,1.1082
402.303,491.0,4.0123,1.1119
403.21,491.5,4.0108,1.1157
404.113,492.0,4.0102,1.1168
405.016,492.5,4.0097,1.117
405.919,493.0,4.0087,1.1203
406.822,493.5,4.0088,1.1217
407.726,494.0,4.008,1.1253
408.626,494.5,4.0074,1.127
409.525,495.0,4.0075,1.1276
410.427,495.5,4.0062,1.1298
411.33,496.0,4.006,1.1316
412.23,496.5,4.0054,1.1331
413.134,497.0,4.0056,1.1351
414.033,497.5,4.0059,1.1376
414.929,498.0,4.0051,1.1403
415.827,498.5,4.0045,1.1423
416.721,499.0,4.0039,1.1441
417.621,499.5,4.0027,1.1467
418.522,500.0,4.0026,1.149
419.425,500.5,4.0014,1.1507
420.335,501.0,4.0016,1.1518
421.242,501.5,4.0002,1.1546
422.147,502.0,3.9999,1.1583
423.048,502.5,3.9997,1.1599
423.943,503.0,3.9985,1.1619
424.846,503.5,3.9972,1.1638
425.742,504.0,3.996,1.1679
426.64,504.5,3.9958,1.172
427.541,505.0,3.995,1.1722
428.44,505.5,3.9944,1.1753
429.344,506.0,3.9935,1.1787
430.243,506.5,3.9928,1.1791
431.144,507.0,3.9925,1.1816
432.04,507.5,3.9925,1.1832
432.933,508.0,3.9925,1.1851
433.831,508.5,3.9925,1.1884
434.725,509.0,3.9925,1.1906
435.622,509.5,3.9918,1.1924
436.517,510.0,3.9907,1.1948
437.414,510.5,3.9887,1.1966
438.313,511.0,3.9871,1.1992
439.209,511.5,3.986,1.2014
440.107,512.0,3.9845,1.2017
441.003,512.5,3.9828,1.2033
441.9,513.0,3.9827,1.2041
442.798,513.5,3.9823,1.2052
443.695,514.0,3.9808,1.2076
444.595,514.5,3.9801,1.2083
445.493,515.0,3.9792,1.2113
446.39,515.5,3.9766,1.211
447.286,516.0,3.9759,1.2125
448.184,516.5,3.9743,1.2132
449.082,517.0,3.974,1.2136
449.972,517.5,3.9726,1.2141
450.867,518.0,3.9719,1.2169
451.76,518.5,3.9708,1.2181
452.657,519.0,3.9697,1.2181
453.552,519.5,3.9693,1.2194
454.447,520.0,3.9678,1.2203
455.347,520.5,3.967,1.2212
456.239,521.0,3.9657,1.2223
457.136,521.5,3.9645,1.2239
458.029,522.0,3.9637,1.2253
458.921,522.5,3.9625,1.2247
459.812,523.0,3.9613,1.2253
460.705,523.5,3.9603,1.2246
461.601,524.0,3.9585,1.2256
462.493,524.5,3.9567,1.2275
463.387,525.0,3.9556,1.2297
464.28,525.5,3.9549,1.229
465.179,526.0,3.9536,1.2296
466.073,526.5,3.9533,1.2317
466.966,527.0,3.9518,1.2323
467.858,527.5,3.9509,1.2315
468.752,528.0,3.9498,1.2315
469.644,528.5,3.948,1.232
470.531,529.0,3.9469,1.2311
471.422,529.5,3.9458,1.2323
472.315,530.0,3.944,1.2328
473.211,530.5,3.9423,1.2345
474.104,531.0,3.9412,1.2329
474.997,531.5,3.9398,1.2336
475.893,532.0,3.9386,1.2342
476.785,532.5,3.9376,1.2334
477.675,533.0,3.9364,1.2324
478.563,533.5,3.9348,1.2328
479.451,534.0,3.9331,1.2305
480.345,534.5,3.9322,1.2308
481.236,535.0,3.9309,1.2322
482.128,535.5,3.9294,1.2328
483.021,536.0,3.9277,1.2331
483.912,536.5,3.9263,1.2335
484.806,537.0,3.925,1.2332
485.695,537.5,3.9231,1.2324
486.582,538.0,3.9212,1.231
487.473,538.5,3.9195,1.2329
488.358,539.0,3.9182,1.2331
489.249,539.5,3.9165,1.2327
490.139,540.0,3.9145,1.2318
491.03,540.5,3.9131,1.2302
491.923,541.0,3.9118,1.2313
492.813,541.5,3.9099,1.2309
493.704,542.0,3.9082,1.2305
494.589,542.5,3.9068,1.2302
495.476,543.0,3.9052,1.2305
496.368,543.5,3.903,1.2284
497.257,544.0,3.9005,1.2287
498.148,544.5,3.899,1.2292
499.042,545.0,3.8963,1.2268
499.931,545.5,3.8945,1.2264
500.819,546.0,3.8925,1.2262
501.704,546.5,3.8905,1.226
502.596,547.0,3.8889,1.2247
503.485,547.5,3.8865,1.2238
504.374,548.0,3.8852,1.2233
505.269,548.5,3.8833,1.2226
506.163,549.0,3.8806,1.2224
507.059,549.5,3.8791,1.2199
507.945,550.0,3.8767,1.2196
508.836,550.5,3.8747,1.2188
509.726,551.0,3.8721,1.2185
510.615,551.5,3.8703,1.2181
511.509,552.0,3.8679,1.2143
512.397,552.5,3.8657,1.2146
513.29,553.0,3.864,1.2137
514.18,553.5,3.8625,1.2123
515.072,554.0,3.8599,1.2099
515.964,554.5,3.8573,1.2101
516.854,555.0,3.854,1.208
517.744,555.5,3.8516,1.2064
518.634,556.0,3.8493,1.2072
519.527,556.5,3.8463,1.2072
520.418,557.0,3.8445,1.2045
521.309,557.5,3.8421,1.2062
522.198,558.0,3.84,1.2063
523.088,558.5,3.8391,1.2062
523.982,559.0,3.8366,1.2067
524.866,559.5,3.8343,1.2074
525.757,560.0,3.8309,1.2057
526.648,560.5,3.8287,1.2032
527.54,561.0,3.8261,1.2048
528.431,561.5,3.8226,1.2018
529.322,562.0,3.8206,1.2007
530.217,562.5,3.8175,1.2002
531.109,563.0,3.815,1.1993
531.999,563.5,3.8124,1.1979
532.89,564.0,3.8092,1.1945
533.783,564.5,3.8064,1.195
534.674,565.0,3.8027,1.1965
535.563,565.5,3.8003,1.1931
536.449,566.0,3.7971,1.1951
537.34,566.5,3.7931,1.1962
538.234,567.0,3.7905,1.1975
539.129,567.5,3.7867,1.1953
540.022,568.0,3.7828,1.1934
540.915,568.5,3.7797,1.1925
541.808,569.0,3.7774,1.1909
542.703,569.5,3.7748,1.1906
543.594,570.0,3.7708,1.191
544.481,570.5,3.7678,1.1912
545.373,571.0,3.7634,1.1914
546.266,571.5,3.7589,1.1907
547.161,572.0,3.7556,1.1889
548.053,572.5,3.752,1.1893
548.943,573.0,3.7491,1.1891
549.835,573.5,3.7459,1.1869
550.726,574.0,3.7418,1.1857
551.62,574.5,3.7387,1.1854
552.513,575.0,3.7355,1.1862
553.406,575.5,3.7322,1.1869
554.299,576.0,3.7293,1.1849
555.194,576.5,3.7251,1.1832
556.086,577.0,3.7213,1.1816
556.977,577.5,3.7171,1.1819
557.87,578.0,3.7122,1.1826
558.76,578.5,3.7089,1.1811
559.652,579.0,3.7047,1.1806
560.546,579.5,3.7003,1.1803
561.44,580.0,3.6966,1.1814
562.336,580.5,3.6919,1.1803
563.229,581.0,3.6881,1.181
564.125,581.5,3.6842,1.1787
565.02,582.0,3.679,1.1769
565.913,582.5,3.675,1.1763
566.806,583.0,3.6702,1.1761
567.701,583.5,3.6652,1.1764
568.595,584.0,3.6612,1.177
569.492,584.5,3.6563,1.1772
570.385,585.0,3.6517,1.1769
571.281,585.5,3.6471,1.1768
572.179,586.0,3.6415,1.1776
573.07,586.5,3.6383,1.1774
573.963,587.0,3.6331,1.1783
574.855,587.5,3.6272,1.1792
575.749,588.0,3.6226,1.1798
576.644,588.5,3.6169,1.1788
577.535,589.0,3.6116,1.179
578.431,589.5,3.6069,1.1775
579.328,590.0,3.6006,1.1794
580.223,590.5,3.5956,1.1824
581.122,591.0,3.5902,1.1821
582.017,591.5,3.584,1.1826
582.916,592.0,3.5793,1.1831
583.812,592.5,3.5736,1.184
584.71,593.0,3.5679,1.1853
585.606,593.5,3.5628,1.1869
586.502,594.0,3.5562,1.1889
587.397,594.5,3.5508,1.1897
588.288,595.0,3.5445,1.1907
589.183,595.5,3.5366,1.1927
590.082,596.0,3.5306,1.1933
590.98,596.5,3.5234,1.1954
591.878,597.0,3.518,1.1946
592.779,597.5,3.5123,1.1972
593.682,598.0,3.5046,1.1982
594.583,598.5,3.4984,1.2007
595.479,599.0,3.4919,1.2042
596.378,599.5,3.4841,1.2077
597.275,600.0,3.4785,1.2101
598.173,600.5,3.4713,1.2113
599.072,601.0,3.4638,1.2122
599.972,601.5,3.457,1.2145
600.874,602.0,3.4484,1.2161
601.772,602.5,3.4416,1.2196
602.672,603.0,3.4339,1.2225
603.57,603.5,3.4251,1.2249
604.469,604.0,3.4186,1.2288
605.369,604.5,3.4104,1.2291
606.268,605.0,3.4023,1.232
607.17,605.5,3.3947,1.2351
608.071,606.0,3.3854,1.2384
608.974,606.5,3.3782,1.2428
609.878,607.0,3.3704,1.244
610.778,607.5,3.3609,1.2477
611.678,608.0,3.3535,1.2489
612.579,608.5,3.3438,1.2512
613.473,609.0,3.3345,1.2543
614.374,609.5,3.3265,1.2565
615.274,610.0,3.3165,1.2594
616.175,610.5,3.3088,1.2632
617.078,611.0,3.3001,1.2652
617.98,611.5,3.2895,1.267
618.888,612.0,3.2815,1.2712
619.79,612.5,3.2716,1.2728
620.692,613.0,3.2617,1.2752
621.593,613.5,3.253,1.2793
622.495,614.0,3.2419,1.283
623.395,614.5,3.2331,1.2847
624.297,615.0,3.2234,1.2861
625.2,615.5,3.2119,1.2904
626.104,616.0,3.2032,1.2925
627.008,616.5,3.1925,1.2938
627.908,617.0,3.182,1.2973
628.812,617.5,3.1724,1.3035
629.714,618.0,3.1605,1.3048
630.617,618.5,3.1511,1.3081
631.52,619.0,3.1407,1.3106
632.424,619.5,3.1286,1.3144
633.331,620.0,3.1196,1.3188
634.239,620.5,3.1083,1.3209
635.145,621.0,3.098,1.3232
636.049,621.5,3.0884,1.3244
636.952,622.0,3.076,1.3276
637.856,622.5,3.0663,1.3295
638.761,623.0,3.0549,1.3318
639.665,623.5,3.0417,1.3343
640.569,624.0,3.0317,1.3375
641.475,624.5,3.0191,1.3403
642.382,625.0,3.008,1.3412
643.287,625.5,2.9976,1.3454
644.191,626.0,2.9851,1.3484
645.095,626.5,2.9755,1.3509
646,627.0,2.9642,1.3528
646.904,627.5,2.9513,1.3562
647.808,628.0,2.9409,1.3581
648.714,628.5,2.9285,1.3596
649.618,629.0,2.9173,1.3601
650.52,629.5,2.9063,1.3626
651.424,630.0,2.8928,1.3672
652.328,630.5,2.8829,1.3704
653.234,631.0,2.8708,1.3746
654.141,631.5,2.8575,1.3772
655.048,632.0,2.8463,1.3793
655.958,632.5,2.8325,1.3824
656.867,633.0,2.8209,1.3878
657.777,633.5,2.8091,1.3909
658.686,634.0,2.7948,1.394
659.591,634.5,2.784,1.3977
660.502,635.0,2.7715,1.4023
661.411,635.5,2.7585,1.4076
662.321,636.0,2.7474,1.4116
663.233,636.5,2.7329,1.4146
664.142,637.0,2.7207,1.4197
665.058,637.5,2.708,1.4236
665.967,638.0,2.6933,1.4297
666.879,638.5,2.6827,1.4343
667.79,639.0,2.6693,1.4393
668.7,639.5,2.6559,1.4455
669.614,640.0,2.6436,1.4511
670.525,640.5,2.6283,1.4559
671.44,641.0,2.6165,1.4638
672.355,641.5,2.6032,1.4702
673.27,642.0,2.5879,1.4785
674.186,642.5,2.576,1.4854
675.1,643.0,2.5606,1.492
676.017,643.5,2.5467,1.5014
676.931,644.0,2.5333,1.5091
677.848,644.5,2.5173,1.5171
678.767,645.0,2.5053,1.5262
679.683,645.5,2.4912,1.536
680.602,646.0,2.4761,1.5439
681.52,646.5,2.463,1.5545
682.436,647.0,2.4463,1.5671
683.346,647.5,2.4326,1.5773
684.262,648.0,2.4169,1.5877
685.176,648.5,2.3995,1.5998
686.097,649.0,2.3867,1.6116
687.019,649.5,2.3708,1.6236
687.944,650.0,2.3556,1.6389
688.872,650.5,2.3426,1.6521
689.798,651.0,2.3247,1.6635
690.722,651.5,2.3109,1.6773
691.642,652.0,2.2955,1.6928
692.567,652.5,2.2774,1.7024
693.488,653.0,2.2623,1.7161
694.41,653.5,2.2436,1.7296
695.333,654.0,2.2283,1.7422
696.258,654.5,2.2124,1.754
697.18,655.0,2.1938,1.7661
698.101,655.5,2.1793,1.7795
699.025,656.0,2.1607,1.7894
699.949,656.5,2.1427,1.8018
700.873,657.0,2.1266,1.8135
701.793,657.5,2.1069,1.824
702.714,658.0,2.0918,1.8329
703.635,658.5,2.0741,1.8456
704.554,659.0,2.0543,1.8549
705.476,659.5,2.0374,1.8613
706.393,660.0,2.0161,1.8702
707.304,660.5,1.9983,1.8766
708.213,661.0,1.9802,1.8845
709.13,661.5,1.9593,1.8869
710.046,662.0,1.945,1.8911
710.959,662.5,1.9268,1.8916
711.877,663.0,1.9087,1.8928
712.801,663.5,1.8917,1.8903
713.724,664.0,1.8712,1.89
714.64,664.5,1.8549,1.8862
715.55,665.0,1.8366,1.8771
716.462,665.5,1.8155,1.867
717.369,666.0,1.7997,1.8571
718.274,666.5,1.7803,1.8413
719.177,667.0,1.7623,1.8239
720.077,667.5,1.7442,1.809
720.978,668.0,1.7235,1.7873
721.879,668.5,1.708,1.7637
722.778,669.0,1.6905,1.7388
723.675,669.5,1.6712,1.7104
724.571,670.0,1.6564,1.6823
725.466,670.5,1.6382,1.6482
726.36,671.0,1.6219,1.6136
727.251,671.5,1.6072,1.5776
728.141,672.0,1.5902,1.5371
729.031,672.5,1.5767,1.4968
729.918,673.0,1.5616,1.4567
730.802,673.5,1.5448,1.4127
731.688,674.0,1.5326,1.3652
732.571,674.5,1.5184,1.3128
733.453,675.0,1.5053,1.2694
734.336,675.5,1.4941,1.2184
735.219,676.0,1.4801,1.1681
736.098,676.5,1.469,1.1161
736.981,677.0,1.4575,1.0629
737.862,677.5,1.4439,1.0107
738.743,678.0,1.4344,0.96
739.625,678.5,1.4235,0.9091
740.505,679.0,1.4115,0.8586
741.394,679.5,1.4033,0.8064
742.278,680.0,1.3941,0.7545
743.16,680.5,1.3861,0.7065
744.044,681.0,1.3788,0.66
744.93,681.5,1.3703,0.6125
745.817,682.0,1.3643,0.5674
746.702,682.5,1.3579,0.527
747.587,683.0,1.3507,0.4845
748.478,683.5,1.3454,0.4435
749.372,684.0,1.3395,0.4062
750.266,684.5,1.334,0.3727
751.158,685.0,1.3304,0.3375
752.053,685.5,1.3254,0.3082
752.95,686.0,1.3216,0.2789
753.848,686.5,1.318,0.2529
754.746,687.0,1.3137,0.2252
755.648,687.5,1.3107,0.2035
756.558,688.0,1.3072,0.1843
757.465,688.5,1.3042,0.1646
758.374,689.0,1.3013,0.15
759.282,689.5,1.2989,0.1352
760.192,690.0,1.2955,0.1204
761.101,690.5,1.2937,0.1095
762.012,691.0,1.2914,0.0987
762.927,691.5,1.2893,0.0861
763.84,692.0,1.2878,0.0782
764.758,692.5,1.2853,0.07
765.675,693.0,1.2829,0.064
766.588,693.5,1.2806,0.056
767.497,694.0,1.2784,0.049
768.404,694.5,1.2763,0.0424
769.317,695.0,1.2738,0.0384
770.228,695.5,1.271,0.033
771.142,696.0,1.2684,0.0302
772.061,696.5,1.2645,0.0264
772.987,697.0,1.263,0.0192
773.916,697.5,1.2608,0.0154
774.842,698.0,1.2604,0.0124
775.77,698.5,1.2595,0.0099
776.697,699.0,1.2591,0.002
777.621,699.5,1.2584,0.0009
778.544,700.0,1.2572,-0.0009
779.468,700.5,1.2567,-0.006
780.39,701.0,1.256,-0.0095
781.314,701.5,1.2543,-0.0138
782.239,702.0,1.2526,-0.019
783.165,702.5,1.2508,-0.0198
784.087,703.0,1.2483,-0.024
785.005,703.5,1.2469,-0.0272
785.928,704.0,1.2454,-0.0291
786.851,704.5,1.2437,-0.0321
787.772,705.0,1.2418,-0.0369
788.694,705.5,1.24,-0.04
789.619,706.0,1.2386,-0.0424
790.544,706.5,1.2372,-0.0455
791.468,707.0,1.236,-0.0481
792.391,707.5,1.2342,-0.0487
793.314,708.0,1.2331,-0.0525
794.24,708.5,1.2318,-0.0556
795.164,709.0,1.2297,-0.0574
796.091,709.5,1.2278,-0.0634
797.018,710.0,1.2265,-0.0644
797.946,710.5,1.2253,-0.066
798.873,711.0,1.224,-0.0702
799.799,711.5,1.2226,-0.0729
800.725,712.0,1.2216,-0.0739
801.652,712.5,1.2199,-0.0783
802.577,713.0,1.2183,-0.0825
803.504,713.5,1.217,-0.0836
804.431,714.0,1.2161,-0.0875
805.355,714.5,1.2145,-0.0892
806.285,715.0,1.2127,-0.0928
807.21,715.5,1.2112,-0.0951
808.136,716.0,1.2098,-0.0986
809.065,716.5,1.2077,-0.1002
809.993,717.0,1.2054,-0.1029
810.922,717.5,1.2039,-0.1048
811.85,718.0,1.2033,-0.1051
812.781,718.5,1.2018,-0.1082
813.711,719.0,1.2007,-0.111
814.637,719.5,1.1994,-0.1121
815.568,720.0,1.1979,-0.1153
816.498,720.5,1.1963,-0.1153
817.422,721.0,1.1948,-0.1196
818.352,721.5,1.1934,-0.121
819.281,722.0,1.1922,-0.1221
820.215,722.5,1.1905,-0.123
821.143,723.0,1.1904,-0.1253
822.076,723.5,1.19,-0.1265
823.01,724.0,1.1886,-0.1278
823.94,724.5,1.1875,-0.1277
824.871,725.0,1.1866,-0.1293
825.802,725.5,1.185,-0.129
826.734,726.0,1.1836,-0.1305
827.666,726.5,1.1812,-0.1338
828.599,727.0,1.18,-0.1331
829.532,727.5,1.1784,-0.1333
830.465,728.0,1.1774,-0.134
831.4,728.5,1.1765,-0.1334
832.334,729.0,1.1751,-0.134
833.269,729.5,1.1741,-0.1337
834.207,730.0,1.173,-0.1322
835.142,730.5,1.171,-0.1316
836.077,731.0,1.1698,-0.1294
837.012,731.5,1.1693,-0.1289
837.945,732.0,1.1681,-0.1293
838.88,732.5,1.168,-0.1297
839.815,733.0,1.169,-0.1298
840.75,733.5,1.1691,-0.1289
841.689,734.0,1.1667,-0.1266
842.627,734.5,1.1637,-0.1262
843.567,735.0,1.1596,-0.123
844.504,735.5,1.158,-0.1205
845.44,736.0,1.157,-0.1189
846.38,736.5,1.1564,-0.1193
847.319,737.0,1.1563,-0.118
848.256,737.5,1.1546,-0.1147
849.195,738.0,1.1532,-0.1133
850.133,738.5,1.152,-0.1115
851.074,739.0,1.1506,-0.1088
852.013,739.5,1.1502,-0.1059
852.954,740.0,1.149,-0.1036
853.896,740.5,1.1477,-0.101
854.839,741.0,1.1468,-0.0964
855.78,741.5,1.1454,-0.0968
856.722,742.0,1.1447,-0.0944
857.658,742.5,1.1438,-0.0912
858.593,743.0,1.1421,-0.0877
859.534,743.5,1.1407,-0.0839
860.475,744.0,1.1388,-0.08
861.41,744.5,1.1375,-0.078
862.347,745.0,1.1374,-0.0751
863.29,745.5,1.137,-0.0704
864.231,746.0,1.1357,-0.0667
865.168,746.5,1.1351,-0.0621
866.111,747.0,1.1335,-0.0598
867.062,747.5,1.1324,-0.0587
868.014,748.0,1.1319,-0.0529
868.965,748.5,1.1303,-0.0487
869.918,749.0,1.1297,-0.0485
870.869,749.5,1.1283,-0.0434
871.816,750.0,1.1267,-0.0382
872.761,750.5,1.1258,-0.0325
873.705,751.0,1.1246,-0.0282
874.651,751.5,1.1237,-0.024
875.595,752.0,1.1232,-0.0206
876.54,752.5,1.1224,-0.0167
877.488,753.0,1.1216,-0.018
878.434,753.5,1.121,-0.0152
879.376,754.0,1.1202,-0.0094
880.322,754.5,1.119,-0.005
881.268,755.0,1.1182,-0.0014
882.214,755.5,1.1165,0.0027
883.16,756.0,1.1161,0.0064
884.107,756.5,1.116,0.01
885.053,757.0,1.1142,0.0132
885.998,757.5,1.1137,0.0176
886.945,758.0,1.1126,0.0169
887.891,758.5,1.1114,0.021
888.839,759.0,1.111,0.0233
889.787,759.5,1.1105,0.0256
890.733,760.0,1.1096,0.0289
891.681,760.5,1.1094,0.0332
892.625,761.0,1.1083,0.0376
893.573,761.5,1.1083,0.0422
894.524,762.0,1.1083,0.0443
895.474,762.5,1.1083,0.0482
896.421,763.0,1.1083,0.0486
897.37,763.5,1.1081,0.05
898.313,764.0,1.1065,0.0544
899.258,764.5,1.1047,0.056
900.205,765.0,1.1034,0.0574
901.151,765.5,1.1022,0.0596
902.101,766.0,1.1009,0.0652
903.051,766.5,1.0994,0.0664
904.007,767.0,1.0989,0.0668
904.954,767.5,1.0976,0.0707
905.904,768.0,1.0977,0.0741
906.854,768.5,1.0962,0.0765
907.803,769.0,1.096,0.0792
908.754,769.5,1.0947,0.0807
909.703,770.0,1.0936,0.0816
910.655,770.5,1.0927,0.0836
911.605,771.0,1.0911,0.0829
912.554,771.5,1.0902,0.0845
913.505,772.0,1.0894,0.0874
914.457,772.5,1.0895,0.0877
915.407,773.0,1.0889,0.0923
916.356,773.5,1.0881,0.0955
917.306,774.0,1.0882,0.094
918.256,774.5,1.0869,0.0957
919.204,775.0,1.0867,0.0952
920.156,775.5,1.0853,0.095
921.109,776.0,1.0853,0.0964
922.06,776.5,1.0842,0.1003
923.012,777.0,1.0839,0.1016
923.966,777.5,1.0831,0.1024
924.919,778.0,1.0824,0.1027
925.87,778.5,1.0812,0.1048
926.823,779.0,1.0807,0.1039
927.777,779.5,1.0795,0.1049
928.731,780.0,1.0792,0.1091
929.682,780.5,1.0781,0.109
930.638,781.0,1.0782,0.1085
931.592,781.5,1.0782,0.1088
932.545,782.0,1.0783,0.1111
933.5,782.5,1.0772,0.111
934.453,783.0,1.0769,0.1109
935.405,783.5,1.0769,0.1147
936.359,784.0,1.0768,0.1158
937.312,784.5,1.0781,0.1138
938.267,785.0,1.0782,0.1139
939.222,785.5,1.077,0.1156
940.18,786.0,1.0765,0.1161
941.134,786.5,1.0748,0.1157
942.089,787.0,1.0738,0.117
943.043,787.5,1.0729,0.1175
944.001,788.0,1.0715,0.1168
944.957,788.5,1.0709,0.1168
945.911,789.0,1.0698,0.1176
946.867,789.5,1.0696,0.1205
947.821,790.0,1.0685,0.1187
948.778,790.5,1.0685,0.119
949.732,791.0,1.0681,0.1196
950.685,791.5,1.067,0.1205
951.64,792.0,1.0669,0.1222
952.596,792.5,1.0658,0.1221
953.554,793.0,1.0662,0.1196
954.508,793.5,1.0673,0.1203
955.465,794.0,1.0674,0.1223
956.423,794.5,1.0663,0.1232
957.382,795.0,1.0648,0.1249
958.34,795.5,1.0631,0.1254
959.297,796.0,1.0617,0.1252
960.255,796.5,1.0611,0.1266
961.213,797.0,1.0602,0.1254
962.17,797.5,1.0597,0.1275
963.127,798.0,1.0586,0.1305
964.083,798.5,1.0586,0.1342
965.042,799.0,1.0577,0.138
966.005,799.5,1.0574,0.1398
966.966,800.0,1.0573,0.1447
967.926,800.5,1.0571,0.1426
968.886,801.0,1.056,0.1438
969.849,801.5,1.056,0.1452
970.809,802.0,1.0558,0.1474
971.767,802.5,1.0547,0.1488
972.727,803.0,1.0547,0.1446
973.689,803.5,1.0547,0.1499
974.65,804.0,1.0541,0.149
975.608,804.5,1.0534,0.1492
976.568,805.0,1.0531,0.1495
977.528,805.5,1.0529,0.15
978.488,806.0,1.0529,0.1513
979.448,806.5,1.0523,0.1534
980.41,807.0,1.0516,0.1545
981.373,807.5,1.0516,0.1548
982.335,808.0,1.0514,0.1539
983.295,808.5,1.0503,0.1531
984.256,809.0,1.0502,0.1535
985.22,809.5,1.0488,0.1544
986.179,810.0,1.0493,0.1566
987.142,810.5,1.0482,0.1568
988.102,811.0,1.0478,0.1577
989.069,811.5,1.0471,0.1607
990.032,812.0,1.0464,0.1594
990.995,812.5,1.0462,0.1564
991.957,813.0,1.0449,0.1591
992.916,813.5,1.045,0.1604
993.88,814.0,1.0444,0.1595
994.839,814.5,1.0437,0.159
995.799,815.0,1.0437,0.1603
996.762,815.5,1.0433,0.1616
997.726,816.0,1.0424,0.1607
998.692,816.5,1.0424,0.1598
999.655,817.0,1.0421,0.1612
1000.62,817.5,1.0411,0.1618
1001.59,818.0,1.0412,0.1615
1002.56,818.5,1.04,0.1593
1003.52,819.0,1.0396,0.1622
1004.48,819.5,1.039,0.1629
1005.45,820.0,1.0383,0.1665
1006.42,820.5,1.0383,0.1663
1007.38,821.0,1.0383,0.1671
1008.35,821.5,1.0383,0.1664
1009.32,822.0,1.0384,0.1669
1010.29,822.5,1.0376,0.1658
1011.26,823.0,1.0367,0.1657
1012.22,823.5,1.0368,0.1666
1013.19,824.0,1.0362,0.1663
1014.16,824.5,1.0354,0.1666
1015.13,825.0,1.0355,0.1657
1016.09,825.5,1.0353,0.1664
1017.06,826.0,1.0343,0.1684
1018.02,826.5,1.0338,0.1686
1018.99,827.0,1.0333,0.1681
1019.96,827.5,1.0323,0.1682
1020.93,828.0,1.0321,0.1695
1021.91,828.5,1.0309,0.165
1022.88,829.0,1.031,0.1651
1023.86,829.5,1.0298,0.1662
1024.84,830.0,1.0296,0.1675
1025.8,830.5,1.0296,0.1698
1026.77,831.0,1.0284,0.1681
1027.75,831.5,1.0275,0.1692
1028.73,832.0,1.0273,0.1697
1029.7,832.5,1.0262,0.168
1030.67,833.0,1.0251,0.1683
1031.64,833.5,1.023,0.1679
1032.61,834.0,1.0231,0.1673
1033.59,834.5,1.0244,0.171
1034.56,835.0,1.0244,0.1702
1035.53,835.5,1.0252,0.1703
1036.51,836.0,1.0264,0.167
1037.49,836.5,1.0264,0.1688
1038.46,837.0,1.0253,0.1697
1039.43,837.5,1.0253,0.1705
1040.41,838.0,1.0244,0.1721
1041.38,838.5,1.0237,0.1707
1042.35,839.0,1.0237,0.1703
1043.33,839.5,1.0224,0.1684
1044.3,840.0,1.0227,0.1714
1045.28,840.5,1.0228,0.1685
1046.25,841.0,1.0218,0.1731
1047.23,841.5,1.0214,0.1714
1048.2,842.0,1.0214,0.1697
1049.18,842.5,1.0202,0.169
1050.15,843.0,1.0201,0.1703
1051.13,843.5,1.0201,0.1693
1052.1,844.0,1.0213,0.1682
1053.08,844.5,1.0216,0.1692
1054.06,845.0,1.0216,0.1692
1055.03,845.5,1.0217,0.1716
1056.01,846.0,1.0204,0.169
1056.99,846.5,1.0191,0.1705
1057.96,847.0,1.0183,0.171
1058.94,847.5,1.0167,0.1709
1059.91,848.0,1.0169,0.1715
1060.89,848.5,1.0163,0.1715
1061.87,849.0,1.0163,0.1717
1062.85,849.5,1.0157,0.1734
1063.82,850.0,1.0149,0.1726
1064.8,850.5,1.0149,0.1737
1065.78,851.0,1.0147,0.175
1066.76,851.5,1.0132,0.1755
1067.73,852.0,1.0133,0.1789
1068.7,852.5,1.0134,0.1771
1069.67,853.0,1.0123,0.1752
1070.65,853.5,1.012,0.1746
1071.62,854.0,1.0118,0.1757
1072.59,854.5,1.0107,0.1762
1073.57,855.0,1.0107,0.1743
1074.55,855.5,1.0107,0.1735
1075.53,856.0,1.0099,0.1728
1076.51,856.5,1.0093,0.1742
1077.49,857.0,1.0094,0.1747
1078.47,857.5,1.0094,0.1749
1079.45,858.0,1.0094,0.1734
1080.43,858.5,1.0084,0.1716
1081.4,859.0,1.008,0.1716
1082.37,859.5,1.008,0.1726
1083.34,860.0,1.0068,0.1746
1084.32,860.5,1.0067,0.1747
1085.29,861.0,1.0067,0.1735
1086.27,861.5,1.0057,0.1744
1087.24,862.0,1.0054,0.1738
1088.22,862.5,1.0054,0.171
1089.2,863.0,1.0041,0.1725
1090.18,863.5,1.0041,0.1759
1091.15,864.0,1.0041,0.1744
1092.13,864.5,1.0041,0.1752
1093.1,865.0,1.0041,0.1753
1094.08,865.5,1.0041,0.1752
1095.05,866.0,1.0032,0.1752
1096.03,866.5,1.0028,0.1738
1097,867.0,1.0028,0.1741
1097.98,867.5,1.002,0.1749
1098.95,868.0,1.0014,0.1752
1099.93,868.5,1.001,0.1752
1100.9,869.0,0.9999,0.1758
1101.88,869.5,0.9992,0.1756
1102.86,870.0,0.9984,0.1748
1103.83,870.5,0.9984,0.1755
1104.81,871.0,0.9989,0.1753
1105.78,871.5,0.999,0.1789
1106.76,872.0,0.9991,0.1781
1107.74,872.5,0.998,0.1789
1108.71,873.0,0.9977,0.1795
1109.69,873.5,0.9976,0.178
1110.67,874.0,0.9962,0.1765
1111.64,874.5,0.9966,0.1771
1112.62,875.0,0.997,0.1762
1113.6,875.5,0.9961,0.1761
1114.57,876.0,0.9956,0.1753
1115.54,876.5,0.9956,0.1755
1116.51,877.0,0.9956,0.1751
1117.49,877.5,0.9946,0.1744
1118.47,878.0,0.9943,0.1731
1119.44,878.5,0.9943,0.1728
1120.42,879.0,0.9944,0.1728
1121.4,879.5,0.9932,0.1738
1122.38,880.0,0.993,0.1757
1123.35,880.5,0.9929,0.1737
1124.32,881.0,0.9916,0.1773
1125.3,881.5,0.9917,0.1765
1126.28,882.0,0.9917,0.1746
1127.25,882.5,0.9917,0.1743
1128.23,883.0,0.9904,0.1738
1129.2,883.5,0.9904,0.1729
1130.18,884.0,0.9903,0.171
1131.16,884.5,0.9899,0.1708
1132.14,885.0,0.9893,0.1716
1133.11,885.5,0.9896,0.1706
1134.08,886.0,0.9886,0.1724
1135.05,886.5,0.9883,0.1735
1136.02,887.0,0.9887,0.1745
1136.99,887.5,0.9889,0.1736
1137.97,888.0,0.9889,0.1731
1138.94,888.5,0.9881,0.1765
1139.93,889.0,0.9876,0.1738
1140.91,889.5,0.9876,0.173
1141.89,890.0,0.9869,0.1738
1142.87,890.5,0.9863,0.1749
1143.84,891.0,0.9863,0.1735
1144.82,891.5,0.9863,0.1733
1145.8,892.0,0.9851,0.1725
1146.78,892.5,0.9839,0.1713
1147.76,893.0,0.984,0.1725
1148.74,893.5,0.9829,0.1709
1149.71,894.0,0.9827,0.1721
1150.69,894.5,0.983,0.1737
1151.66,895.0,0.984,0.1731
1152.64,895.5,0.9838,0.1718
1153.61,896.0,0.9827,0.1713
1154.59,896.5,0.9827,0.1719
1155.56,897.0,0.9819,0.1714
1156.54,897.5,0.9813,0.1699
1157.52,898.0,0.9813,0.1725
1158.5,898.5,0.9813,0.1737
1159.48,899.0,0.9803,0.1703
1160.46,899.5,0.9801,0.1686
1161.43,900.0,0.98,0.1678
1162.41,900.5,0.9801,0.1687
1163.39,901.0,0.9792,0.1705
1164.36,901.5,0.9787,0.1716
1165.34,902.0,0.9787,0.1709
1166.32,902.5,0.9783,0.169
1167.3,903.0,0.9773,0.1699
1168.27,903.5,0.9774,0.1685
1169.25,904.0,0.9768,0.1669
1170.22,904.5,0.9758,0.1672
1171.2,905.0,0.9759,0.1675
1172.18,905.5,0.9759,0.1651
1173.16,906.0,0.9759,0.1661
1174.14,906.5,0.9759,0.1665
1175.11,907.0,0.9759,0.1646
1176.09,907.5,0.9759,0.1649
1177.07,908.0,0.9759,0.163
1178.05,908.5,0.9759,0.1621
1179.02,909.0,0.9757,0.162
1180,909.5,0.9751,0.1631
1180.98,910.0,0.9743,0.1644
1181.96,910.5,0.9743,0.1613
1182.94,911.0,0.9743,0.16
1183.92,911.5,0.9743,0.161
1184.9,912.0,0.9743,0.1623
1185.87,912.5,0.9734,0.1608
1186.85,913.0,0.9721,0.1602
1187.82,913.5,0.9717,0.1578
1188.8,914.0,0.9717,0.1558
1189.78,914.5,0.9717,0.1551
1190.76,915.0,0.972,0.1532
1191.74,915.5,0.9719,0.1522
1192.71,916.0,0.9717,0.1524
1193.69,916.5,0.9713,0.1517
1194.67,917.0,0.9703,0.1494
1195.65,917.5,0.9704,0.1472
1196.63,918.0,0.9698,0.1479
1197.61,918.5,0.9691,0.1458
1198.59,919.0,0.9691,0.1455
1199.56,919.5,0.9691,0.1448
1200.54,920.0,0.9691,0.144
1201.52,920.5,0.969,0.1431
1202.5,921.0,0.9687,0.1437
1203.48,921.5,0.9677,0.1423
1204.46,922.0,0.9677,0.1397
1205.44,922.5,0.9677,0.1418
1206.42,923.0,0.9677,0.1448
1207.4,923.5,0.9677,0.1457
1208.38,924.0,0.9677,0.145
1209.35,924.5,0.9677,0.145
1210.33,925.0,0.9677,0.1432
1211.31,925.5,0.9664,0.1418
1212.29,926.0,0.9664,0.1414
1213.27,926.5,0.9663,0.1444
1214.25,927.0,0.9651,0.1451
1215.23,927.5,0.9651,0.1432
1216.21,928.0,0.9651,0.142
1217.19,928.5,0.9651,0.1432
1218.17,929.0,0.9651,0.1424
1219.14,929.5,0.9651,0.143
1220.12,930.0,0.9652,0.1423
1221.1,930.5,0.9642,0.1398
1222.08,931.0,0.9645,0.1388
1223.06,931.5,0.9644,0.1353
1224.03,932.0,0.9643,0.1361
1225.01,932.5,0.9632,0.1324
1225.99,933.0,0.9631,0.1317
1226.97,933.5,0.9631,0.1312
1227.95,934.0,0.963,0.1331
1228.93,934.5,0.9617,0.1313
1229.91,935.0,0.9618,0.1303
1230.89,935.5,0.9618,0.1337
1231.87,936.0,0.9618,0.1314
1232.85,936.5,0.9618,0.1285
1233.82,937.0,0.9609,0.129
1234.8,937.5,0.9605,0.1274
1235.78,938.0,0.9605,0.1264
1236.76,938.5,0.9605,0.1246
1237.74,939.0,0.9604,0.1231
1238.72,939.5,0.9592,0.1203
1239.7,940.0,0.9592,0.1195
1240.68,940.5,0.9592,0.1181
1241.66,941.0,0.9607,0.1173
1242.64,941.5,0.9609,0.1161
1243.62,942.0,0.962,0.1148
1244.6,942.5,0.9613,0.1144
1245.57,943.0,0.9608,0.1142
1246.55,943.5,0.9592,0.1113
1247.52,944.0,0.9581,0.1122
1248.5,944.5,0.9576,0.1119
1249.47,945.0,0.9573,0.1118
1250.45,945.5,0.9563,0.1109
1251.44,946.0,0.9563,0.1085
1252.41,946.5,0.9563,0.1085
1253.4,947.0,0.9559,0.1071
1254.39,947.5,0.9557,0.1063
1255.37,948.0,0.9556,0.108
1256.35,948.5,0.9556,0.1097
1257.33,949.0,0.9551,0.1066
1258.31,949.5,0.9553,0.1078
1259.28,950.0,0.9553,0.1067
1260.26,950.5,0.955,0.108
1261.24,951.0,0.955,0.1019
1262.22,951.5,0.955,0.103
1263.2,952.0,0.9541,0.1024
1264.18,952.5,0.9537,0.1014
1265.17,953.0,0.9537,0.1003
1266.15,953.5,0.9537,0.098
1267.14,954.0,0.9537,0.0967
1268.12,954.5,0.9537,0.0951
1269.1,955.0,0.9537,0.0949
1270.08,955.5,0.9537,0.0939
1271.06,956.0,0.9537,0.0942
1272.04,956.5,0.9537,0.0933
1273.02,957.0,0.9524,0.0901
1274,957.5,0.9524,0.088
1274.98,958.0,0.9524,0.0893
1275.96,958.5,0.9516,0.0884
1276.95,959.0,0.951,0.0867
1277.93,959.5,0.951,0.0885
1278.91,960.0,0.951,0.0899
1279.89,960.5,0.9511,0.0889
1280.88,961.0,0.9511,0.0859
1281.86,961.5,0.9504,0.086
1282.85,962.0,0.9497,0.0855
1283.83,962.5,0.9497,0.0835
1284.81,963.0,0.9497,0.0844
1285.79,963.5,0.9497,0.0826
1286.77,964.0,0.9487,0.0798
1287.76,964.5,0.9499,0.0778
1288.74,965.0,0.9497,0.0786
1289.72,965.5,0.9497,0.0786
1290.71,966.0,0.9497,0.0775
1291.7,966.5,0.9497,0.0746
1292.67,967.0,0.9497,0.0747
1293.66,967.5,0.9497,0.0745
1294.65,968.0,0.9485,0.0748
1295.63,968.5,0.9473,0.0736
1296.61,969.0,0.9471,0.0691
1297.6,969.5,0.9471,0.0705
1298.58,970.0,0.9473,0.07
1299.56,970.5,0.9471,0.0684
1300.55,971.0,0.9471,0.0674
1301.54,971.5,0.9471,0.0649
1302.52,972.0,0.9471,0.0638
1303.51,972.5,0.9471,0.0675
1304.49,973.0,0.947,0.0643
1305.48,973.5,0.9481,0.0651
1306.47,974.0,0.9484,0.0637
1307.45,974.5,0.9485,0.0611
1308.45,975.0,0.9475,0.0583
1309.43,975.5,0.9471,0.0585
1310.41,976.0,0.9471,0.0593
1311.39,976.5,0.9471,0.0593
1312.37,977.0,0.9471,0.0583
1313.35,977.5,0.9467,0.0579
1314.34,978.0,0.9457,0.056
1315.32,978.5,0.9458,0.0513
1316.32,979.0,0.9458,0.05
1317.31,979.5,0.9457,0.0474
1318.3,980.0,0.9469,0.0482
1319.29,980.5,0.9458,0.049
1320.28,981.0,0.9454,0.0452
1321.26,981.5,0.9454,0.0415
1322.25,982.0,0.9455,0.0426
1323.24,982.5,0.9445,0.0414
1324.22,983.0,0.9442,0.0405
1325.21,983.5,0.9441,0.0385
1326.2,984.0,0.9443,0.0367
1327.19,984.5,0.9445,0.0358
1328.17,985.0,0.9443,0.0357
1329.17,985.5,0.9431,0.0342
1330.16,986.0,0.9431,0.032
1331.15,986.5,0.9432,0.0295
1332.14,987.0,0.9431,0.0271
1333.13,987.5,0.9432,0.0276
1334.12,988.0,0.9427,0.0254
1335.11,988.5,0.9418,0.0253
1336.1,989.0,0.9418,0.0241
1337.09,989.5,0.9418,0.0212
1338.08,990.0,0.9417,0.0197
1339.07,990.5,0.9405,0.0195
1340.06,991.0,0.9405,0.0189
1341.06,991.5,0.9405,0.0202
1342.05,992.0,0.9405,0.0175
1343.04,992.5,0.9404,0.0157
1344.03,993.0,0.9417,0.0131
1345.02,993.5,0.9418,0.0112
1346,994.0,0.9418,0.0105
1347,994.5,0.9418,0.0084
1347.99,995.0,0.9418,0.0061
1348.98,995.5,0.9418,0.0047
1349.97,996.0,0.9418,0.0062
1350.96,996.5,0.9416,0.0034
1351.96,997.0,0.9404,0.0046
1352.95,997.5,0.9405,0.0016
1353.94,998.0,0.9405,-0.0009
1354.93,998.5,0.9405,-0.0018
1355.93,999.0,0.9405,-0.0031
1356.92,999.5,0.9393,-0.0049
1357.91,1000.0,0.9392,-0.0058
1358.91,1000.5,0.9392,-0.0088
1359.9,1001.0,0.9385,-0.0098
1360.89,1001.5,0.9379,-0.0092
1361.88,1002.0,0.9379,-0.0093
1362.88,1002.5,0.9379,-0.0134
1363.87,1003.0,0.9379,-0.0153
1364.86,1003.5,0.9379,-0.017
1365.85,1004.0,0.9379,-0.0171
1366.85,1004.5,0.9379,-0.0183
1367.84,1005.0,0.9379,-0.0186
1368.84,1005.5,0.9368,-0.0193
1369.83,1006.0,0.9366,-0.0194
1370.83,1006.5,0.9366,-0.0197
1371.82,1007.0,0.9354,-0.0227
1372.81,1007.5,0.9351,-0.023
1373.8,1008.0,0.9337,-0.0243
1374.8,1008.5,0.9334,-0.0266
1375.79,1009.0,0.9324,-0.0261
1376.79,1009.5,0.9337,-0.0267
1377.78,1010.0,0.9338,-0.029
1378.77,1010.5,0.9338,-0.031
1379.76,1011.0,0.935,-0.0346
1380.75,1011.5,0.9351,-0.0354
1381.74,1012.0,0.9351,-0.0387
1382.73,1012.5,0.9351,-0.0385
1383.73,1013.0,0.9364,-0.0392
1384.72,1013.5,0.9365,-0.0412
1385.73,1014.0,0.9365,-0.0402
1386.73,1014.5,0.9355,-0.0399
1387.73,1015.0,0.9351,-0.0406
1388.72,1015.5,0.9352,-0.0411
1389.71,1016.0,0.9342,-0.0433
1390.7,1016.5,0.9338,-0.045
1391.69,1017.0,0.9337,-0.0468
1392.69,1017.5,0.9351,-0.0451
1393.68,1018.0,0.9341,-0.0484
1394.68,1018.5,0.9338,-0.0501
1395.68,1019.0,0.9338,-0.0486
1396.68,1019.5,0.9338,-0.0506
1397.68,1020.0,0.9337,-0.0537
1398.67,1020.5,0.9324,-0.0557
1399.67,1021.0,0.9325,-0.0558
1400.67,1021.5,0.9325,-0.0574
1401.66,1022.0,0.9325,-0.0585
1402.66,1022.5,0.9325,-0.0608
1403.65,1023.0,0.9326,-0.0628
1404.65,1023.5,0.9337,-0.0652
1405.65,1024.0,0.9325,-0.0683
1406.64,1024.5,0.9325,-0.0676
1407.64,1025.0,0.9318,-0.0712
1408.62,1025.5,0.931,-0.0694
1409.61,1026.0,0.9296,-0.0717
1410.6,1026.5,0.9293,-0.0725
1411.59,1027.0,0.9293,-0.0739
1412.58,1027.5,0.9301,-0.0768
1413.58,1028.0,0.9303,-0.0784
1414.58,1028.5,0.9312,-0.0801
1415.58,1029.0,0.9309,-0.0842
1416.57,1029.5,0.9299,-0.0876
1417.57,1030.0,0.9311,-0.09
1418.57,1030.5,0.9312,-0.0895
1419.57,1031.0,0.9312,-0.0875
1420.57,1031.5,0.9312,-0.0903
1421.57,1032.0,0.9312,-0.0914
1422.56,1032.5,0.9312,-0.0928
1423.56,1033.0,0.9312,-0.0958
1424.55,1033.5,0.9312,-0.0996
1425.55,1034.0,0.9312,-0.0991
1426.54,1034.5,0.931,-0.0974
1427.54,1035.0,0.9298,-0.0989
1428.54,1035.5,0.9299,-0.1024
1429.53,1036.0,0.9299,-0.1023
1430.53,1036.5,0.9298,-0.1038
1431.52,1037.0,0.9298,-0.1061
1432.52,1037.5,0.9286,-0.1094
1433.51,1038.0,0.9285,-0.1114
1434.51,1038.5,0.9286,-0.1105
1435.51,1039.0,0.9286,-0.1131
1436.5,1039.5,0.9285,-0.1112
1437.5,1040.0,0.9286,-0.1113
1438.5,1040.5,0.9286,-0.1141
1439.49,1041.0,0.9288,-0.1183
1440.49,1041.5,0.9285,-0.1215
1441.49,1042.0,0.9286,-0.123
1442.48,1042.5,0.9285,-0.1226
1443.48,1043.0,0.9286,-0.1254
1444.48,1043.5,0.9286,-0.1229
1445.47,1044.0,0.9285,-0.1262
1446.47,1044.5,0.9285,-0.1275
1447.47,1045.0,0.9274,-0.1301
1448.46,1045.5,0.9272,-0.1301
1449.46,1046.0,0.9272,-0.1305
1450.46,1046.5,0.9272,-0.1324
1451.45,1047.0,0.927,-0.1318
1452.45,1047.5,0.9259,-0.1327
1453.45,1048.0,0.9259,-0.1344
1454.44,1048.5,0.9257,-0.1375
1455.44,1049.0,0.9246,-0.1355
1456.44,1049.5,0.9246,-0.1356
1457.43,1050.0,0.9246,-0.1368
1458.43,1050.5,0.9246,-0.1371
1459.43,1051.0,0.9242,-0.1384
1460.43,1051.5,0.9246,-0.1399
1461.42,1052.0,0.9246,-0.1424
1462.42,1052.5,0.9246,-0.143
1463.42,1053.0,0.9246,-0.1442
1464.42,1053.5,0.9252,-0.1446
1465.41,1054.0,0.9252,-0.1468
1466.41,1054.5,0.9251,-0.1501
1467.41,1055.0,0.9239,-0.1519
1468.41,1055.5,0.9245,-0.1516
1469.41,1056.0,0.9246,-0.1525
1470.41,1056.5,0.9246,-0.152
1471.41,1057.0,0.9241,-0.1535
1472.41,1057.5,0.9233,-0.1566
1473.41,1058.0,0.9233,-0.161
1474.41,1058.5,0.9233,-0.1606
1475.41,1059.0,0.9238,-0.1609
1476.41,1059.5,0.9246,-0.1626
1477.41,1060.0,0.9246,-0.1644
1478.41,1060.5,0.9246,-0.1681
1479.4,1061.0,0.9237,-0.1678
1480.4,1061.5,0.9233,-0.1699
1481.4,1062.0,0.9233,-0.1701
1482.4,1062.5,0.9233,-0.1724
1483.4,1063.0,0.9233,-0.1735
1484.4,1063.5,0.9233,-0.1748