File: Wood/Calibration_Data/FSRI/FSRI_Wood_STA_N2_10K_R1.csv
Time (s),Temperature (K),Mass (mg),Heat Flow Rate (W/g)
0.0,324.5,3.9592,0.017
18.4698,325.0,3.9606,0.0429
29.1802,325.5,3.9609,0.0603
37.569,326.0,3.9599,0.0747
44.8223,326.5,3.9604,0.0877
51.2904,327.0,3.9595,0.0999
57.1359,327.5,3.9596,0.1077
62.6104,328.0,3.9594,0.1166
67.8028,328.5,3.9589,0.1247
72.777,329.0,3.9579,0.1301
77.5735,329.5,3.9588,0.1366
82.2018,330.0,3.9595,0.1424
86.7097,330.5,3.9603,0.1469
91.0782,331.0,3.96,0.1526
95.3113,331.5,3.9592,0.1579
99.5244,332.0,3.9594,0.16
103.641,332.5,3.9587,0.1638
107.735,333.0,3.958,0.1676
111.723,333.5,3.9575,0.1707
115.662,334.0,3.958,0.1732
119.543,334.5,3.9588,0.1757
123.396,335.0,3.9599,0.1803
127.207,335.5,3.9588,0.1824
130.953,336.0,3.9571,0.1855
134.701,336.5,3.9583,0.1878
138.43,337.0,3.9576,0.1896
142.144,337.5,3.9575,0.1909
145.796,338.0,3.9584,0.1945
149.391,338.5,3.9581,0.1965
152.984,339.0,3.9577,0.1968
156.588,339.5,3.9584,0.2005
160.168,340.0,3.9591,0.2029
163.718,340.5,3.9586,0.2053
167.186,341.0,3.9598,0.2058
170.672,341.5,3.9592,0.2077
174.157,342.0,3.9586,0.2095
177.623,342.5,3.9583,0.2113
181.142,343.0,3.9585,0.213
184.574,343.5,3.9586,0.2131
187.994,344.0,3.9586,0.2163
191.409,344.5,3.9571,0.2176
194.805,345.0,3.9572,0.2197
198.189,345.5,3.9573,0.2219
201.567,346.0,3.9581,0.2223
204.918,346.5,3.9568,0.2271
208.268,347.0,3.9573,0.2272
211.578,347.5,3.9574,0.2294
214.904,348.0,3.9565,0.2335
218.232,348.5,3.9558,0.2344
221.54,349.0,3.9559,0.2347
224.858,349.5,3.9573,0.2348
228.138,350.0,3.9559,0.2361
231.409,350.5,3.956,0.238
234.665,351.0,3.9559,0.2396
237.923,351.5,3.9574,0.2411
241.163,352.0,3.9558,0.2441
244.381,352.5,3.9558,0.2452
247.617,353.0,3.9572,0.2468
250.82,353.5,3.9559,0.2485
254.027,354.0,3.9545,0.2489
257.231,354.5,3.9557,0.2482
260.419,355.0,3.9545,0.2513
263.603,355.5,3.9553,0.253
266.759,356.0,3.9559,0.2538
269.902,356.5,3.9558,0.2544
273.015,357.0,3.9557,0.2548
276.16,357.5,3.9557,0.2584
279.306,358.0,3.9545,0.2587
282.415,358.5,3.9532,0.2592
285.577,359.0,3.9532,0.2602
288.676,359.5,3.9545,0.2625
291.792,360.0,3.9537,0.2608
294.937,360.5,3.9532,0.2616
298.028,361.0,3.9532,0.2651
301.123,361.5,3.9532,0.2622
304.199,362.0,3.9533,0.2648
307.271,362.5,3.9518,0.265
310.328,363.0,3.9532,0.2637
313.394,363.5,3.9518,0.2658
316.446,364.0,3.9532,0.2654
319.478,364.5,3.9528,0.265
322.507,365.0,3.9522,0.267
325.546,365.5,3.9519,0.2655
328.578,366.0,3.9516,0.2673
331.611,366.5,3.9505,0.2687
334.641,367.0,3.9519,0.2684
337.655,367.5,3.9519,0.2683
340.646,368.0,3.9519,0.2673
343.642,368.5,3.9519,0.2675
346.637,369.0,3.9516,0.2686
349.623,369.5,3.9518,0.2683
352.617,370.0,3.9506,0.2676
355.606,370.5,3.9506,0.2675
358.599,371.0,3.9506,0.269
361.574,371.5,3.9488,0.2684
364.552,372.0,3.9475,0.2674
367.514,372.5,3.9488,0.2669
370.474,373.0,3.9502,0.2692
373.437,373.5,3.9501,0.2676
376.405,374.0,3.9514,0.2689
379.395,374.5,3.9501,0.2703
382.348,375.0,3.9502,0.267
385.303,375.5,3.9501,0.2675
388.248,376.0,3.9501,0.2685
391.183,376.5,3.9488,0.2681
394.119,377.0,3.9472,0.2686
397.058,377.5,3.9481,0.2683
399.996,378.0,3.9497,0.2679
402.936,378.5,3.9499,0.2692
405.868,379.0,3.9499,0.2689
408.803,379.5,3.95,0.2687
411.728,380.0,3.951,0.268
414.654,380.5,3.9499,0.2684
417.568,381.0,3.9507,0.2674
420.487,381.5,3.9496,0.2663
423.407,382.0,3.9496,0.2673
426.332,382.5,3.9483,0.2657
429.262,383.0,3.9486,0.2673
432.202,383.5,3.9473,0.2677
435.126,384.0,3.9486,0.2662
438.052,384.5,3.9499,0.2678
440.975,385.0,3.9486,0.2671
443.884,385.5,3.9485,0.2664
446.792,386.0,3.9473,0.2668
449.683,386.5,3.9486,0.2666
452.569,387.0,3.9486,0.2671
455.458,387.5,3.9486,0.2668
458.357,388.0,3.9473,0.2653
461.265,388.5,3.9456,0.2676
464.199,389.0,3.9456,0.2675
467.116,389.5,3.9457,0.2685
470.018,390.0,3.9485,0.2682
472.925,390.5,3.9484,0.2691
475.833,391.0,3.9486,0.268
478.736,391.5,3.9497,0.2674
481.634,392.0,3.9494,0.2672
484.508,392.5,3.9484,0.2662
487.405,393.0,3.9484,0.2687
490.309,393.5,3.9474,0.2687
493.208,394.0,3.947,0.2705
496.137,394.5,3.9484,0.2709
499.038,395.0,3.9484,0.2698
501.928,395.5,3.9477,0.2688
504.809,396.0,3.9479,0.2698
507.697,396.5,3.948,0.2702
510.578,397.0,3.9484,0.2721
513.468,397.5,3.9484,0.2727
516.354,398.0,3.9484,0.2731
519.247,398.5,3.9484,0.2722
522.134,399.0,3.9486,0.2728
525.031,399.5,3.9483,0.2717
527.909,400.0,3.9481,0.2739
530.78,400.5,3.9465,0.2736
533.665,401.0,3.945,0.2743
536.547,401.5,3.9464,0.2745
539.43,402.0,3.9464,0.2752
542.318,402.5,3.9466,0.2736
545.16,403.0,3.9466,0.2761
547.998,403.5,3.9479,0.2762
550.867,404.0,3.9479,0.2769
553.723,404.5,3.9475,0.2768
556.615,405.0,3.9466,0.2771
559.509,405.5,3.9453,0.2768
562.373,406.0,3.9453,0.277
565.249,406.5,3.9466,0.2792
568.115,407.0,3.9479,0.2793
570.988,407.5,3.9479,0.2785
573.861,408.0,3.9465,0.2791
576.72,408.5,3.9466,0.2801
579.576,409.0,3.9466,0.2792
582.428,409.5,3.9466,0.2807
585.286,410.0,3.9467,0.2808
588.147,410.5,3.9466,0.2794
591.004,411.0,3.9466,0.2828
593.867,411.5,3.9453,0.2825
596.711,412.0,3.9466,0.2827
599.556,412.5,3.9466,0.2847
602.404,413.0,3.9466,0.2828
605.254,413.5,3.9475,0.2846
608.102,414.0,3.9466,0.2848
610.953,414.5,3.9466,0.2843
613.8,415.0,3.9467,0.2863
616.635,415.5,3.9453,0.285
619.458,416.0,3.9453,0.2857
622.304,416.5,3.9453,0.286
625.148,417.0,3.9452,0.285
627.99,417.5,3.9466,0.285
630.862,418.0,3.9465,0.2861
633.71,418.5,3.9453,0.2871
636.545,419.0,3.9453,0.2875
639.388,419.5,3.9453,0.2886
642.21,420.0,3.9466,0.2893
645.028,420.5,3.9453,0.2891
647.867,421.0,3.9453,0.2888
650.713,421.5,3.9453,0.2888
653.56,422.0,3.9445,0.2899
656.41,422.5,3.9453,0.2912
659.259,423.0,3.9453,0.2904
662.102,423.5,3.9427,0.2927
664.923,424.0,3.944,0.2917
667.765,424.5,3.944,0.2936
670.614,425.0,3.944,0.2964
673.443,425.5,3.944,0.2954
676.281,426.0,3.944,0.2949
679.125,426.5,3.9453,0.2957
681.961,427.0,3.944,0.295
684.803,427.5,3.944,0.2962
687.644,428.0,3.944,0.2967
690.482,428.5,3.944,0.2981
693.315,429.0,3.944,0.2986
696.144,429.5,3.9438,0.2995
698.974,430.0,3.944,0.3007
701.798,430.5,3.944,0.3017
704.62,431.0,3.944,0.3017
707.445,431.5,3.9441,0.3029
710.27,432.0,3.9443,0.3022
713.099,432.5,3.9427,0.3018
715.926,433.0,3.9426,0.304
718.751,433.5,3.9445,0.3061
721.58,434.0,3.9453,0.3058
724.401,434.5,3.9453,0.3052
727.221,435.0,3.9453,0.3057
730.04,435.5,3.9433,0.3065
732.858,436.0,3.9423,0.3081
735.69,436.5,3.9437,0.3088
738.519,437.0,3.9436,0.3086
741.342,437.5,3.945,0.3099
744.17,438.0,3.9437,0.3091
746.993,438.5,3.9437,0.3106
749.814,439.0,3.9436,0.3114
752.62,439.5,3.943,0.3106
755.449,440.0,3.942,0.3118
758.275,440.5,3.942,0.3103
761.093,441.0,3.9428,0.3107
763.917,441.5,3.943,0.3123
766.73,442.0,3.9417,0.3138
769.556,442.5,3.9417,0.3131
772.385,443.0,3.9417,0.3156
775.216,443.5,3.9417,0.3134
778.071,444.0,3.9417,0.3171
780.899,444.5,3.9427,0.3175
783.725,445.0,3.943,0.3173
786.552,445.5,3.943,0.317
789.384,446.0,3.9427,0.318
792.204,446.5,3.9413,0.318
795.012,447.0,3.9413,0.3186
797.832,447.5,3.9413,0.3198
800.644,448.0,3.9406,0.3187
803.463,448.5,3.9408,0.3207
806.285,449.0,3.9413,0.322
809.109,449.5,3.9413,0.3213
811.92,450.0,3.9406,0.3226
814.751,450.5,3.9387,0.3239
817.582,451.0,3.9387,0.3252
820.41,451.5,3.9387,0.3268
823.225,452.0,3.9387,0.3276
826.036,452.5,3.9387,0.3289
828.849,453.0,3.9378,0.3286
831.679,453.5,3.9377,0.329
834.511,454.0,3.9377,0.3296
837.335,454.5,3.9377,0.3304
840.171,455.0,3.9377,0.3295
842.993,455.5,3.9376,0.3312
845.814,456.0,3.9374,0.332
848.641,456.5,3.9368,0.3301
851.469,457.0,3.9361,0.3322
854.267,457.5,3.9361,0.3334
857.092,458.0,3.9361,0.3342
859.913,458.5,3.9361,0.3363
862.727,459.0,3.9361,0.336
865.553,459.5,3.9354,0.3354
868.378,460.0,3.9342,0.3369
871.199,460.5,3.9341,0.3376
874.016,461.0,3.9341,0.3388
876.824,461.5,3.9334,0.3375
879.621,462.0,3.9334,0.3392
882.441,462.5,3.9334,0.3391
885.233,463.0,3.9326,0.3398
888.053,463.5,3.9321,0.3413
890.89,464.0,3.9321,0.3416
893.701,464.5,3.932,0.3416
896.533,465.0,3.9295,0.3421
899.359,465.5,3.9295,0.3447
902.18,466.0,3.9307,0.3452
905.012,466.5,3.9308,0.3447
907.828,467.0,3.9308,0.3451
910.638,467.5,3.9295,0.3466
913.453,468.0,3.9295,0.3473
916.271,468.5,3.9281,0.3459
919.086,469.0,3.9272,0.3452
921.903,469.5,3.9269,0.3466
924.714,470.0,3.9269,0.3471
927.513,470.5,3.9267,0.3492
930.328,471.0,3.9259,0.3504
933.14,471.5,3.9258,0.3499
935.955,472.0,3.9254,0.3496
938.795,472.5,3.9246,0.3501
941.626,473.0,3.9233,0.3515
944.449,473.5,3.9232,0.3511
947.272,474.0,3.9229,0.3512
950.087,474.5,3.9217,0.3522
952.9,475.0,3.9216,0.3534
955.716,475.5,3.9211,0.3535
958.538,476.0,3.9192,0.3556
961.347,476.5,3.919,0.3547
964.17,477.0,3.9163,0.3544
966.984,477.5,3.9163,0.3556
969.804,478.0,3.915,0.3576
972.611,478.5,3.915,0.3577
975.435,479.0,3.915,0.3578
978.261,479.5,3.915,0.3583
981.086,480.0,3.9136,0.3553
983.91,480.5,3.9125,0.3547
986.742,481.0,3.911,0.3547
989.57,481.5,3.9124,0.3561
992.393,482.0,3.9115,0.3566
995.214,482.5,3.9097,0.3583
998.039,483.0,3.9088,0.3605
1000.86,483.5,3.9084,0.362
1003.67,484.0,3.9081,0.3613
1006.5,484.5,3.907,0.3619
1009.33,485.0,3.9071,0.3622
1012.15,485.5,3.9058,0.3643
1014.98,486.0,3.905,0.3628
1017.82,486.5,3.9042,0.3664
1020.65,487.0,3.9018,0.3679
1023.48,487.5,3.9004,0.3674
1026.31,488.0,3.9005,0.3685
1029.14,488.5,3.8997,0.3671
1031.96,489.0,3.8991,0.3673
1034.8,489.5,3.8976,0.3682
1037.65,490.0,3.8966,0.3695
1040.48,490.5,3.8963,0.3707
1043.31,491.0,3.8943,0.3715
1046.14,491.5,3.893,0.372
1048.96,492.0,3.8917,0.3721
1051.78,492.5,3.8916,0.3725
1054.61,493.0,3.8903,0.3714
1057.43,493.5,3.8903,0.3742
1060.26,494.0,3.8889,0.375
1063.08,494.5,3.8869,0.3741
1065.9,495.0,3.8862,0.3746
1068.71,495.5,3.8863,0.3735
1071.54,496.0,3.8846,0.3748
1074.36,496.5,3.8832,0.3761
1077.18,497.0,3.8828,0.3769
1080.02,497.5,3.8814,0.3784
1082.86,498.0,3.8793,0.3781
1085.69,498.5,3.8794,0.3803
1088.52,499.0,3.8781,0.3791
1091.35,499.5,3.8766,0.3819
1094.17,500.0,3.8754,0.3821
1096.99,500.5,3.8728,0.3819
1099.82,501.0,3.8716,0.3809
1102.64,501.5,3.8714,0.381
1105.48,502.0,3.8701,0.3814
1108.31,502.5,3.8686,0.3808
1111.15,503.0,3.8674,0.381
1113.98,503.5,3.8662,0.3827
1116.81,504.0,3.8651,0.3815
1119.64,504.5,3.8646,0.3809
1122.46,505.0,3.864,0.3815
1125.29,505.5,3.8627,0.3818
1128.11,506.0,3.8612,0.3811
1130.93,506.5,3.8594,0.3813
1133.76,507.0,3.8574,0.383
1136.59,507.5,3.8572,0.3812
1139.42,508.0,3.8557,0.3828
1142.25,508.5,3.8547,0.3836
1145.09,509.0,3.8533,0.383
1147.93,509.5,3.852,0.3838
1150.75,510.0,3.8518,0.3847
1153.59,510.5,3.8507,0.3844
1156.43,511.0,3.8494,0.3846
1159.27,511.5,3.8493,0.3854
1162.1,512.0,3.8494,0.3837
1164.93,512.5,3.8466,0.3863
1167.77,513.0,3.8438,0.3869
1170.59,513.5,3.8421,0.3875
1173.4,514.0,3.8404,0.3864
1176.23,514.5,3.8381,0.3866
1179.07,515.0,3.8369,0.3877
1181.9,515.5,3.8369,0.3904
1184.75,516.0,3.8366,0.3884
1187.59,516.5,3.8354,0.3901
1190.42,517.0,3.8338,0.3904
1193.25,517.5,3.8306,0.3908
1196.09,518.0,3.8293,0.3911
1198.93,518.5,3.8274,0.3904
1201.76,519.0,3.8263,0.391
1204.6,519.5,3.8256,0.3891
1207.44,520.0,3.8251,0.3907
1210.28,520.5,3.8237,0.3898
1213.11,521.0,3.8218,0.3911
1215.94,521.5,3.8193,0.391
1218.77,522.0,3.8167,0.3911
1221.61,522.5,3.8152,0.3882
1224.44,523.0,3.8138,0.3908
1227.28,523.5,3.8121,0.3922
1230.11,524.0,3.8103,0.394
1232.93,524.5,3.8087,0.3933
1235.76,525.0,3.8062,0.3925
1238.58,525.5,3.8049,0.3906
1241.39,526.0,3.8036,0.3913
1244.21,526.5,3.8017,0.3934
1247.04,527.0,3.8002,0.3942
1249.88,527.5,3.7973,0.3934
1252.71,528.0,3.7953,0.3926
1255.56,528.5,3.7926,0.3921
1258.38,529.0,3.7901,0.3937
1261.21,529.5,3.7884,0.3923
1264.05,530.0,3.7862,0.3939
1266.91,530.5,3.7838,0.3933
1269.77,531.0,3.7805,0.3924
1272.61,531.5,3.7794,0.3925
1275.46,532.0,3.7775,0.3916
1278.28,532.5,3.7758,0.3939
1281.12,533.0,3.7734,0.393
1283.95,533.5,3.7718,0.3931
1286.79,534.0,3.7678,0.3916
1289.62,534.5,3.766,0.3919
1292.46,535.0,3.7631,0.3918
1295.3,535.5,3.7618,0.3908
1298.14,536.0,3.7596,0.3917
1300.98,536.5,3.7569,0.3918
1303.83,537.0,3.7545,0.3893
1306.68,537.5,3.7532,0.3903
1309.53,538.0,3.7503,0.3888
1312.38,538.5,3.7469,0.3905
1315.22,539.0,3.7424,0.3907
1318.07,539.5,3.74,0.3901
1320.91,540.0,3.7383,0.3892
1323.75,540.5,3.7355,0.3893
1326.59,541.0,3.7327,0.3889
1329.43,541.5,3.7294,0.389
1332.27,542.0,3.7249,0.3892
1335.11,542.5,3.721,0.3904
1337.94,543.0,3.718,0.3906
1340.77,543.5,3.7151,0.3911
1343.62,544.0,3.7123,0.3898
1346.44,544.5,3.7105,0.3903
1349.29,545.0,3.7073,0.3919
1352.16,545.5,3.7026,0.3912
1355,546.0,3.6992,0.3909
1357.87,546.5,3.6973,0.3912
1360.71,547.0,3.6953,0.3927
1363.56,547.5,3.6903,0.3915
1366.4,548.0,3.6872,0.3918
1369.24,548.5,3.6847,0.3915
1372.09,549.0,3.6814,0.3921
1374.93,549.5,3.6751,0.3915
1377.79,550.0,3.6715,0.3925
1380.64,550.5,3.669,0.3915
1383.49,551.0,3.6648,0.3922
1386.34,551.5,3.6612,0.3936
1389.21,552.0,3.6587,0.3916
1392.04,552.5,3.6548,0.3912
1394.89,553.0,3.6514,0.3903
1397.74,553.5,3.6486,0.391
1400.59,554.0,3.645,0.3916
1403.46,554.5,3.6414,0.3932
1406.31,555.0,3.6366,0.3919
1409.17,555.5,3.6316,0.3918
1412.02,556.0,3.6277,0.3941
1414.88,556.5,3.6239,0.3907
1417.74,557.0,3.62,0.3915
1420.57,557.5,3.6151,0.3908
1423.43,558.0,3.6103,0.3929
1426.29,558.5,3.6065,0.3934
1429.16,559.0,3.6023,0.3925
1432.02,559.5,3.5979,0.3938
1434.9,560.0,3.5937,0.3945
1437.76,560.5,3.5887,0.3957
1440.62,561.0,3.5837,0.3948
1443.49,561.5,3.5791,0.3942
1446.35,562.0,3.5747,0.3966
1449.21,562.5,3.5703,0.3968
1452.06,563.0,3.5653,0.3968
1454.92,563.5,3.5613,0.3953
1457.76,564.0,3.5564,0.3982
1460.61,564.5,3.5505,0.398
1463.48,565.0,3.5457,0.3989
1466.34,565.5,3.5396,0.4009
1469.2,566.0,3.5338,0.4003
1472.08,566.5,3.5291,0.4004
1474.93,567.0,3.5228,0.4022
1477.79,567.5,3.5173,0.4019
1480.65,568.0,3.512,0.4024
1483.51,568.5,3.5059,0.4031
1486.37,569.0,3.5011,0.4026
1489.23,569.5,3.4956,0.4036
1492.08,570.0,3.4899,0.4056
1494.94,570.5,3.4838,0.4058
1497.77,571.0,3.4779,0.4057
1500.63,571.5,3.4717,0.4086
1503.5,572.0,3.4651,0.4084
1506.36,572.5,3.4581,0.4081
1509.24,573.0,3.4528,0.4088
1512.11,573.5,3.4478,0.4079
1514.97,574.0,3.4417,0.4084
1517.83,574.5,3.4347,0.4098
1520.69,575.0,3.4287,0.4123
1523.55,575.5,3.4215,0.4136
1526.41,576.0,3.4136,0.4156
1529.27,576.5,3.4076,0.4158
1532.13,577.0,3.4004,0.4147
1535,577.5,3.3946,0.4188
1537.87,578.0,3.3867,0.4192
1540.74,578.5,3.3791,0.4213
1543.6,579.0,3.3715,0.4217
1546.46,579.5,3.364,0.4217
1549.33,580.0,3.3568,0.4217
1552.19,580.5,3.3502,0.4248
1555.06,581.0,3.3414,0.4258
1557.92,581.5,3.334,0.4269
1560.8,582.0,3.3269,0.428
1563.66,582.5,3.3187,0.4298
1566.53,583.0,3.311,0.4291
1569.41,583.5,3.301,0.4302
1572.27,584.0,3.2923,0.4315
1575.13,584.5,3.2834,0.4344
1578.01,585.0,3.2775,0.4358
1580.89,585.5,3.2698,0.437
1583.77,586.0,3.2588,0.4355
1586.64,586.5,3.2503,0.4389
1589.52,587.0,3.2419,0.4413
1592.4,587.5,3.2331,0.4421
1595.28,588.0,3.2226,0.4446
1598.16,588.5,3.2141,0.4481
1601.03,589.0,3.2061,0.4489
1603.91,589.5,3.1965,0.4495
1606.78,590.0,3.1871,0.4521
1609.66,590.5,3.1779,0.4528
1612.55,591.0,3.1679,0.4555
1615.43,591.5,3.1584,0.4587
1618.28,592.0,3.1491,0.4604
1621.16,592.5,3.138,0.4616
1624.05,593.0,3.1282,0.4628
1626.92,593.5,3.1181,0.4649
1629.81,594.0,3.1083,0.4669
1632.69,594.5,3.0979,0.4678
1635.56,595.0,3.0883,0.4691
1638.43,595.5,3.0778,0.4719
1641.31,596.0,3.0672,0.4738
1644.19,596.5,3.0564,0.4735
1647.06,597.0,3.0452,0.4737
1649.94,597.5,3.0333,0.4766
1652.82,598.0,3.0223,0.4773
1655.71,598.5,3.0119,0.4791
1658.6,599.0,3.0009,0.48
1661.49,599.5,2.9898,0.4824
1664.38,600.0,2.9795,0.4829
1667.27,600.5,2.9679,0.4851
1670.16,601.0,2.9561,0.4875
1673.03,601.5,2.9449,0.4887
1675.91,602.0,2.9347,0.4885
1678.8,602.5,2.9234,0.4899
1681.68,603.0,2.9121,0.4931
1684.57,603.5,2.8991,0.4954
1687.46,604.0,2.886,0.4973
1690.34,604.5,2.8744,0.4988
1693.24,605.0,2.8627,0.4986
1696.13,605.5,2.8506,0.502
1699.01,606.0,2.8384,0.5017
1701.88,606.5,2.8266,0.5034
1704.76,607.0,2.8145,0.5048
1707.64,607.5,2.802,0.506
1710.52,608.0,2.7898,0.511
1713.42,608.5,2.7778,0.5131
1716.32,609.0,2.7648,0.5154
1719.21,609.5,2.7523,0.5166
1722.09,610.0,2.7396,0.5194
1724.97,610.5,2.727,0.5203
1727.86,611.0,2.7147,0.5247
1730.75,611.5,2.7022,0.5246
1733.66,612.0,2.6892,0.5276
1736.56,612.5,2.676,0.5314
1739.44,613.0,2.6623,0.5333
1742.33,613.5,2.6492,0.5346
1745.22,614.0,2.637,0.5378
1748.11,614.5,2.6244,0.5394
1751,615.0,2.6106,0.5431
1753.88,615.5,2.5972,0.5436
1756.77,616.0,2.5843,0.5454
1759.66,616.5,2.5706,0.5485
1762.55,617.0,2.5562,0.5523
1765.44,617.5,2.5425,0.5554
1768.33,618.0,2.5284,0.5569
1771.21,618.5,2.5153,0.562
1774.11,619.0,2.5027,0.5655
1777,619.5,2.4877,0.5665
1779.89,620.0,2.4731,0.5672
1782.78,620.5,2.4597,0.573
1785.66,621.0,2.4447,0.573
1788.54,621.5,2.43,0.582
1791.43,622.0,2.4151,0.5852
1794.33,622.5,2.4,0.5878
1797.22,623.0,2.3858,0.5922
1800.12,623.5,2.3725,0.5942
1803,624.0,2.3582,0.6001
1805.88,624.5,2.3429,0.605
1808.77,625.0,2.3272,0.6075
1811.65,625.5,2.3112,0.6152
1814.57,626.0,2.2969,0.6182
1817.48,626.5,2.2811,0.6215
1820.38,627.0,2.2656,0.6294
1823.3,627.5,2.2498,0.6344
1826.2,628.0,2.2346,0.6425
1829.11,628.5,2.2186,0.6478
1832.01,629.0,2.2022,0.6539
1834.91,629.5,2.1865,0.6548
1837.82,630.0,2.1698,0.6614
1840.72,630.5,2.153,0.6655
1843.62,631.0,2.1364,0.6704
1846.54,631.5,2.1191,0.6769
1849.44,632.0,2.1002,0.6806
1852.34,632.5,2.0832,0.6886
1855.25,633.0,2.067,0.6935
1858.16,633.5,2.05,0.6998
1861.08,634.0,2.0326,0.7038
1864.01,634.5,2.0143,0.7078
1866.93,635.0,1.9967,0.7142
1869.84,635.5,1.9788,0.7197
1872.75,636.0,1.9612,0.7265
1875.67,636.5,1.942,0.7285
1878.59,637.0,1.923,0.7358
1881.52,637.5,1.9044,0.7423
1884.47,638.0,1.8854,0.7458
1887.42,638.5,1.8662,0.7491
1890.36,639.0,1.8462,0.753
1893.32,639.5,1.8281,0.7582
1896.28,640.0,1.8101,0.7588
1899.24,640.5,1.7921,0.758
1902.18,641.0,1.7725,0.7592
1905.14,641.5,1.7541,0.7604
1908.1,642.0,1.7337,0.7621
1911.07,642.5,1.7111,0.7635
1914.04,643.0,1.6875,0.7615
1917.01,643.5,1.671,0.7597
1919.96,644.0,1.6495,0.7561
1922.91,644.5,1.6309,0.7506
1925.87,645.0,1.6131,0.7486
1928.82,645.5,1.5956,0.7418
1931.76,646.0,1.5767,0.7346
1934.7,646.5,1.5567,0.7275
1937.63,647.0,1.5375,0.718
1940.57,647.5,1.5177,0.7046
1943.5,648.0,1.499,0.6919
1946.44,648.5,1.4812,0.6803
1949.37,649.0,1.4621,0.6673
1952.29,649.5,1.4438,0.6495
1955.2,650.0,1.4278,0.6342
1958.1,650.5,1.4119,0.6157
1960.99,651.0,1.3964,0.5971
1963.88,651.5,1.3811,0.577
1966.78,652.0,1.3664,0.5572
1969.67,652.5,1.3467,0.5382
1972.57,653.0,1.3345,0.5148
1975.46,653.5,1.3224,0.4921
1978.35,654.0,1.3075,0.4695
1981.21,654.5,1.295,0.4442
1984.1,655.0,1.2838,0.4209
1986.98,655.5,1.2728,0.3965
1989.85,656.0,1.263,0.3738
1992.74,656.5,1.2527,0.3479
1995.6,657.0,1.2434,0.324
1998.46,657.5,1.2334,0.3001
2001.33,658.0,1.2252,0.2777
2004.19,658.5,1.2175,0.2565
2007.06,659.0,1.2104,0.2322
2009.93,659.5,1.2053,0.2134
2012.79,660.0,1.2041,0.1939
2015.66,660.5,1.1939,0.1709
2018.53,661.0,1.1879,0.152
2021.4,661.5,1.1819,0.1376
2024.28,662.0,1.1771,0.1234
2027.16,662.5,1.1739,0.1079
2030.05,663.0,1.1703,0.0971
2032.93,663.5,1.1667,0.0872
2035.82,664.0,1.1635,0.0745
2038.72,664.5,1.1605,0.0686
2041.6,665.0,1.1577,0.0613
2044.48,665.5,1.1557,0.0529
2047.37,666.0,1.1533,0.0478
2050.26,666.5,1.1513,0.044
2053.16,667.0,1.1489,0.0378
2056.05,667.5,1.1467,0.0364
2058.95,668.0,1.145,0.0316
2061.85,668.5,1.1431,0.0319
2064.75,669.0,1.1417,0.0265
2067.65,669.5,1.1395,0.0248
2070.56,670.0,1.1374,0.0231
2073.48,670.5,1.1357,0.0211
2076.39,671.0,1.1338,0.0194
2079.3,671.5,1.1317,0.0163
2082.21,672.0,1.1309,0.0157
2085.11,672.5,1.1291,0.0139
2088.01,673.0,1.1279,0.0132
2090.92,673.5,1.1261,0.0135
2093.83,674.0,1.1239,0.0112
2096.74,674.5,1.1226,0.0083
2099.65,675.0,1.1213,0.008
2102.57,675.5,1.1199,0.0045
2105.48,676.0,1.1182,0.003
2108.39,676.5,1.1167,0.0033
2111.3,677.0,1.1154,0.0027
2114.21,677.5,1.1141,0.0006
2117.11,678.0,1.1128,0.0007
2120,678.5,1.1115,-0.0016
2122.92,679.0,1.1101,-0.0038
2125.83,679.5,1.1087,-0.0061
2128.75,680.0,1.1063,-0.0048
2131.69,680.5,1.1037,-0.0072
2134.63,681.0,1.1021,-0.0087
2137.55,681.5,1.1008,-0.0122
2140.48,682.0,1.0994,-0.012
2143.39,682.5,1.0969,-0.013
2146.31,683.0,1.0952,-0.0166
2149.24,683.5,1.0938,-0.0184
2152.15,684.0,1.093,-0.0211
2155.07,684.5,1.0911,-0.0185
2157.99,685.0,1.0889,-0.0221
2160.91,685.5,1.088,-0.0228
2163.84,686.0,1.0873,-0.0262
2166.77,686.5,1.0846,-0.0268
2169.69,687.0,1.0834,-0.0302
2172.61,687.5,1.0834,-0.0332
2175.53,688.0,1.0821,-0.0326
2178.46,688.5,1.0805,-0.0355
2181.41,689.0,1.0791,-0.0361
2184.34,689.5,1.0777,-0.0369
2187.28,690.0,1.0765,-0.0401
2190.2,690.5,1.0754,-0.0402
2193.11,691.0,1.0739,-0.0394
2196.04,691.5,1.0724,-0.0415
2198.96,692.0,1.071,-0.0405
2201.89,692.5,1.0696,-0.0427
2204.82,693.0,1.0682,-0.0468
2207.75,693.5,1.0667,-0.0498
2210.68,694.0,1.0654,-0.0493
2213.61,694.5,1.0641,-0.0493
2216.54,695.0,1.0622,-0.0518
2219.46,695.5,1.0614,-0.0519
2222.38,696.0,1.06,-0.0552
2225.3,696.5,1.0587,-0.0552
2228.22,697.0,1.057,-0.0544
2231.14,697.5,1.0553,-0.0547
2234.06,698.0,1.0538,-0.056
2236.98,698.5,1.0525,-0.0557
2239.9,699.0,1.0512,-0.0588
2242.84,699.5,1.0499,-0.0583
2245.78,700.0,1.0486,-0.0598
2248.71,700.5,1.0472,-0.0584
2251.65,701.0,1.0459,-0.0618
2254.57,701.5,1.0453,-0.0622
2257.49,702.0,1.0433,-0.0645
2260.41,702.5,1.0412,-0.0619
2263.34,703.0,1.0398,-0.0636
2266.26,703.5,1.0398,-0.0649
2269.19,704.0,1.0396,-0.0637
2272.14,704.5,1.0357,-0.0643
2275.07,705.0,1.0357,-0.0648
2278,705.5,1.0346,-0.0659
2280.93,706.0,1.034,-0.067
2283.86,706.5,1.0331,-0.0669
2286.79,707.0,1.0315,-0.0645
2289.73,707.5,1.0299,-0.0655
2292.65,708.0,1.0263,-0.0633
2295.58,708.5,1.0247,-0.0665
2298.52,709.0,1.0234,-0.0663
2301.44,709.5,1.0234,-0.0661
2304.39,710.0,1.0222,-0.064
2307.32,710.5,1.0207,-0.0659
2310.26,711.0,1.0196,-0.0648
2313.21,711.5,1.0178,-0.0646
2316.17,712.0,1.018,-0.0633
2319.13,712.5,1.0166,-0.0635
2322.07,713.0,1.0154,-0.0633
2325.02,713.5,1.0138,-0.0624
2327.97,714.0,1.0118,-0.0625
2330.91,714.5,1.0101,-0.0585
2333.86,715.0,1.0092,-0.0562
2336.81,715.5,1.008,-0.055
2339.75,716.0,1.008,-0.0533
2342.7,716.5,1.0059,-0.0527
2345.64,717.0,1.0038,-0.0527
2348.59,717.5,1.0039,-0.0511
2351.54,718.0,1.0024,-0.0488
2354.49,718.5,1.0025,-0.0497
2357.44,719.0,1.0002,-0.0492
2360.4,719.5,0.9996,-0.0455
2363.36,720.0,0.9985,-0.0455
2366.31,720.5,0.9972,-0.0436
2369.27,721.0,0.9959,-0.0421
2372.21,721.5,0.9953,-0.0409
2375.16,722.0,0.9945,-0.0408
2378.11,722.5,0.9935,-0.0413
2381.05,723.0,0.9926,-0.0377
2384.01,723.5,0.9914,-0.0398
2386.96,724.0,0.99,-0.0373
2389.92,724.5,0.9886,-0.0365
2392.87,725.0,0.9873,-0.0334
2395.82,725.5,0.9865,-0.0295
2398.77,726.0,0.9852,-0.0304
2401.73,726.5,0.9847,-0.0286
2404.68,727.0,0.9833,-0.0292
2407.6,727.5,0.9834,-0.0294
2410.54,728.0,0.9808,-0.0293
2413.48,728.5,0.9782,-0.0291
2416.43,729.0,0.9792,-0.0272
2419.41,729.5,0.9791,-0.0239
2422.37,730.0,0.9782,-0.0222
2425.32,730.5,0.9769,-0.0223
2428.28,731.0,0.9756,-0.0214
2431.23,731.5,0.9757,-0.0171
2434.19,732.0,0.9751,-0.0183
2437.14,732.5,0.9739,-0.0164
2440.09,733.0,0.972,-0.0129
2443.04,733.5,0.9699,-0.013
2446.01,734.0,0.9687,-0.0107
2448.96,734.5,0.9686,-0.0101
2451.91,735.0,0.9685,-0.0121
2454.88,735.5,0.9672,-0.0104
2457.84,736.0,0.966,-0.0076
2460.8,736.5,0.9647,-0.0049
2463.79,737.0,0.9646,-0.0015
2466.74,737.5,0.9634,-0.0011
2469.7,738.0,0.9619,-0.0009
2472.64,738.5,0.9601,0.0014
2475.59,739.0,0.9597,-0.0001
2478.54,739.5,0.9583,0.0004
2481.49,740.0,0.957,0.0031
2484.44,740.5,0.9556,0.0032
2487.41,741.0,0.956,0.006
2490.36,741.5,0.9551,0.0075
2493.32,742.0,0.9551,0.008
2496.28,742.5,0.9537,0.0084
2499.22,743.0,0.9532,0.0087
2502.17,743.5,0.9531,0.0091
2505.12,744.0,0.9529,0.0127
2508.08,744.5,0.9503,0.0135
2511.03,745.0,0.9491,0.0142
2514,745.5,0.9484,0.0152
2516.94,746.0,0.9484,0.0133
2519.87,746.5,0.9471,0.0145
2522.81,747.0,0.9472,0.0137
2525.75,747.5,0.9458,0.0116
2528.71,748.0,0.9458,0.0133
2531.66,748.5,0.9452,0.0143
2534.62,749.0,0.9438,0.0161
2537.57,749.5,0.9438,0.0174
2540.53,750.0,0.9436,0.0156
2543.48,750.5,0.9425,0.0169
2546.43,751.0,0.9412,0.016
2549.38,751.5,0.9412,0.0173
2552.34,752.0,0.9399,0.0166
2555.3,752.5,0.939,0.0189
2558.26,753.0,0.9386,0.0175
2561.22,753.5,0.9372,0.0193
2564.17,754.0,0.9372,0.0201
2567.14,754.5,0.9372,0.0187
2570.1,755.0,0.9366,0.0222
2573.06,755.5,0.9359,0.0218
2576.03,756.0,0.936,0.0221
2579,756.5,0.9346,0.0237
2581.97,757.0,0.9319,0.0243
2584.93,757.5,0.932,0.0241
2587.88,758.0,0.933,0.0247
2590.84,758.5,0.9316,0.0243
2593.81,759.0,0.9316,0.0254
2596.78,759.5,0.929,0.025
2599.75,760.0,0.929,0.0255
2602.71,760.5,0.9277,0.0253
2605.67,761.0,0.9277,0.0245
2608.63,761.5,0.927,0.0279
2611.59,762.0,0.9271,0.0246
2614.56,762.5,0.9258,0.0237
2617.52,763.0,0.925,0.0246
2620.5,763.5,0.9251,0.0243
2623.47,764.0,0.9237,0.0271
2626.44,764.5,0.9237,0.0267
2629.41,765.0,0.9229,0.0256
2632.37,765.5,0.9224,0.0258
2635.33,766.0,0.9224,0.0248
2638.3,766.5,0.923,0.0248
2641.28,767.0,0.9218,0.026
2644.24,767.5,0.9209,0.0263
2647.22,768.0,0.9204,0.0273
2650.19,768.5,0.9191,0.0255
2653.16,769.0,0.9191,0.0274
2656.13,769.5,0.9191,0.025
2659.1,770.0,0.9168,0.026
2662.06,770.5,0.9159,0.0275
2665.03,771.0,0.9155,0.0271
2668,771.5,0.9153,0.0288
2670.98,772.0,0.9155,0.028
2673.96,772.5,0.9142,0.0278
2676.95,773.0,0.9142,0.0278
2679.92,773.5,0.9143,0.0268
2682.89,774.0,0.9119,0.0262
2685.86,774.5,0.9119,0.0273
2688.83,775.0,0.9113,0.0263
2691.81,775.5,0.9118,0.0301
2694.78,776.0,0.9106,0.0285
2697.75,776.5,0.9105,0.0267
2700.71,777.0,0.9093,0.0278
2703.66,777.5,0.9093,0.0265
2706.61,778.0,0.9089,0.0254
2709.57,778.5,0.9076,0.0245
2712.53,779.0,0.9071,0.0249
2715.5,779.5,0.9063,0.0272
2718.49,780.0,0.9063,0.0248
2721.46,780.5,0.9063,0.0247
2724.43,781.0,0.9049,0.0246
2727.41,781.5,0.9044,0.0254
2730.38,782.0,0.9037,0.0237
2733.35,782.5,0.9034,0.0227
2736.33,783.0,0.9023,0.0237
2739.29,783.5,0.9023,0.0229
2742.26,784.0,0.9031,0.0267
2745.22,784.5,0.9017,0.0279
2748.19,785.0,0.9004,0.026
2751.16,785.5,0.9003,0.0248
2754.13,786.0,0.8991,0.0242
2757.1,786.5,0.899,0.0241
2760.08,787.0,0.899,0.023
2763.05,787.5,0.8992,0.022
2766.02,788.0,0.8964,0.0211
2769,788.5,0.8964,0.0231
2771.96,789.0,0.8958,0.0214
2774.93,789.5,0.8964,0.0224
2777.9,790.0,0.8964,0.021
2780.87,790.5,0.8951,0.0199
2783.84,791.0,0.8938,0.0204
2786.81,791.5,0.8938,0.0204
2789.78,792.0,0.8938,0.0216
2792.76,792.5,0.8938,0.02
2795.75,793.0,0.8925,0.0195
2798.73,793.5,0.8925,0.0186
2801.72,794.0,0.8912,0.0187
2804.7,794.5,0.8916,0.0183
2807.68,795.0,0.8913,0.0179
2810.66,795.5,0.8911,0.0179
2813.64,796.0,0.8911,0.0209
2816.63,796.5,0.8898,0.0159
2819.62,797.0,0.8895,0.0133
2822.6,797.5,0.8895,0.0115
2825.57,798.0,0.8885,0.0149
2828.56,798.5,0.8877,0.0164
2831.53,799.0,0.887,0.0146
2834.51,799.5,0.8859,0.0137
2837.51,800.0,0.8859,0.0136
2840.49,800.5,0.8858,0.0154
2843.48,801.0,0.883,0.0157
2846.47,801.5,0.8839,0.0162
2849.45,802.0,0.8837,0.0159
2852.43,802.5,0.884,0.017
2855.41,803.0,0.8828,0.0145
2858.4,803.5,0.883,0.0146
2861.39,804.0,0.883,0.011
2864.37,804.5,0.8817,0.0151
2867.36,805.0,0.8817,0.0096
2870.35,805.5,0.8815,0.0072
2873.34,806.0,0.8804,0.0113
2876.34,806.5,0.8804,0.0088
2879.32,807.0,0.879,0.0101
2882.32,807.5,0.8791,0.011
2885.31,808.0,0.8777,0.0118
2888.3,808.5,0.8764,0.0104
2891.29,809.0,0.8764,0.0116
2894.28,809.5,0.8751,0.011
2897.26,810.0,0.8751,0.0127
2900.25,810.5,0.8751,0.0117
2903.22,811.0,0.8751,0.0124
2906.21,811.5,0.8751,0.0127
2909.21,812.0,0.8738,0.0116
2912.2,812.5,0.8735,0.0118
2915.2,813.0,0.8725,0.0123
2918.19,813.5,0.8739,0.0133
2921.18,814.0,0.8738,0.0108
2924.17,814.5,0.8731,0.0125
2927.15,815.0,0.8725,0.013
2930.14,815.5,0.8723,0.0109
2933.12,816.0,0.8712,0.0118
2936.11,816.5,0.8704,0.0134
2939.11,817.0,0.8702,0.0146
2942.09,817.5,0.8688,0.0141
2945.08,818.0,0.8689,0.0141
2948.06,818.5,0.8689,0.0146
2951.05,819.0,0.8689,0.0157
2954.03,819.5,0.8683,0.0166
2957.01,820.0,0.8675,0.016
2959.98,820.5,0.8675,0.0147
2962.96,821.0,0.8662,0.0139
2965.94,821.5,0.8662,0.014
2968.91,822.0,0.8662,0.0124
2971.88,822.5,0.8662,0.0117
2974.85,823.0,0.8662,0.0101
2977.82,823.5,0.8649,0.0117
2980.8,824.0,0.8649,0.0084
2983.78,824.5,0.8647,0.0102
2986.76,825.0,0.8636,0.0094
2989.73,825.5,0.8646,0.0076
2992.72,826.0,0.8649,0.0087
2995.69,826.5,0.8634,0.0059
2998.66,827.0,0.8608,0.0076
3001.64,827.5,0.8621,0.0073
3004.61,828.0,0.8619,0.0096
3007.59,828.5,0.8621,0.0067
3010.57,829.0,0.862,0.0083
3013.55,829.5,0.8621,0.0088
3016.53,830.0,0.8595,0.0089
3019.5,830.5,0.8594,0.0088
3022.47,831.0,0.8594,0.0076
3025.45,831.5,0.8598,0.0095
3028.42,832.0,0.8594,0.0079
3031.39,832.5,0.8594,0.0096
3034.4,833.0,0.8581,0.0084
3037.38,833.5,0.8581,0.0077
3040.37,834.0,0.8581,0.0071
3043.37,834.5,0.8581,0.0068
3046.34,835.0,0.8568,0.0036
3049.32,835.5,0.8568,0.0031
3052.3,836.0,0.8568,0.0001
3055.29,836.5,0.8555,-0.0008
3058.3,837.0,0.8548,0.0015
3061.31,837.5,0.8549,0.0003
3064.31,838.0,0.8538,0.0034
3067.31,838.5,0.8537,-0.0015
3070.31,839.0,0.8527,-0.0025
3073.29,839.5,0.8535,-0.0025
3076.27,840.0,0.8532,-0.0051
3079.26,840.5,0.8522,-0.006
3082.23,841.0,0.8522,-0.0029
3085.22,841.5,0.8522,-0.0048
3088.22,842.0,0.8495,-0.0038
3091.2,842.5,0.8506,-0.0026
3094.19,843.0,0.8509,-0.0047
3097.19,843.5,0.8508,-0.005
3100.19,844.0,0.85,-0.0019
3103.19,844.5,0.8495,-0.0018
3106.18,845.0,0.8485,-0.0013
3109.17,845.5,0.8482,-0.0027
3112.17,846.0,0.8469,-0.0021
3115.16,846.5,0.8469,-0.0003
3118.16,847.0,0.8469,-0.0014
3121.16,847.5,0.8468,0.0007
3124.16,848.0,0.8469,-0.0005
3127.16,848.5,0.8471,-0.0033
3130.17,849.0,0.848,-0.0047
3133.18,849.5,0.8469,-0.0043
3136.19,850.0,0.8456,-0.0045
3139.19,850.5,0.8456,-0.0051
3142.19,851.0,0.8454,-0.0058
3145.2,851.5,0.8443,-0.006
3148.19,852.0,0.8443,-0.0066
3151.19,852.5,0.843,-0.0067
3154.19,853.0,0.8429,-0.0068
3157.18,853.5,0.843,-0.004
3160.18,854.0,0.8424,-0.0067
3163.19,854.5,0.8416,-0.0088
3166.18,855.0,0.8416,-0.008
3169.18,855.5,0.8413,-0.0094
3172.18,856.0,0.8413,-0.0063
3175.18,856.5,0.8408,-0.0087
3178.19,857.0,0.8403,-0.0112
3181.2,857.5,0.8403,-0.012
3184.2,858.0,0.839,-0.0125
3187.2,858.5,0.839,-0.0124
3190.21,859.0,0.839,-0.0138
3193.21,859.5,0.8391,-0.0128
3196.22,860.0,0.839,-0.0154
3199.22,860.5,0.839,-0.0136
3202.22,861.0,0.8377,-0.0107
3205.22,861.5,0.8377,-0.0102
3208.21,862.0,0.8364,-0.0111
3211.21,862.5,0.8364,-0.0137
3214.22,863.0,0.8364,-0.0136
3217.22,863.5,0.8364,-0.0146
3220.22,864.0,0.8353,-0.015
3223.22,864.5,0.8351,-0.0141
3226.23,865.0,0.8347,-0.0151
3229.23,865.5,0.8348,-0.0154
3232.24,866.0,0.8334,-0.02
3235.25,866.5,0.8334,-0.0219
3238.25,867.0,0.8321,-0.0254
3241.25,867.5,0.833,-0.0262
3244.25,868.0,0.8334,-0.0275
3247.25,868.5,0.832,-0.027
3250.26,869.0,0.8321,-0.0298
3253.27,869.5,0.8321,-0.0277
3256.26,870.0,0.832,-0.0283
3259.26,870.5,0.8301,-0.0281
3262.25,871.0,0.8301,-0.0259
3265.25,871.5,0.8295,-0.0278
3268.25,872.0,0.8288,-0.0263
3271.24,872.5,0.8294,-0.0241
3274.23,873.0,0.8301,-0.027
3277.23,873.5,0.8301,-0.0262
3280.22,874.0,0.8299,-0.0297
3283.23,874.5,0.8288,-0.0297
3286.24,875.0,0.8274,-0.0283
3289.24,875.5,0.8282,-0.0283
3292.24,876.0,0.8284,-0.0321
3295.25,876.5,0.8275,-0.0341
3298.25,877.0,0.8271,-0.0365
3301.25,877.5,0.8256,-0.0372
3304.25,878.0,0.8252,-0.0375
3307.26,878.5,0.8247,-0.0398
3310.27,879.0,0.8245,-0.0399
3313.28,879.5,0.8232,-0.0379
3316.29,880.0,0.8259,-0.0408
3319.3,880.5,0.8259,-0.0407
3322.31,881.0,0.8243,-0.0405
3325.33,881.5,0.8245,-0.0413
3328.35,882.0,0.8245,-0.0423
3331.36,882.5,0.8232,-0.0416
3334.37,883.0,0.8233,-0.0426
3337.38,883.5,0.8219,-0.0438
3340.38,884.0,0.8219,-0.0468
3343.39,884.5,0.8228,-0.0466
3346.4,885.0,0.8215,-0.0484
3349.41,885.5,0.8215,-0.048
3352.41,886.0,0.8202,-0.0469
3355.42,886.5,0.8202,-0.0472
3358.43,887.0,0.8204,-0.0521
3361.43,887.5,0.8206,-0.0484
3364.45,888.0,0.8192,-0.051
3367.46,888.5,0.8207,-0.0514
3370.47,889.0,0.8205,-0.0513
3373.49,889.5,0.8192,-0.0503
3376.5,890.0,0.818,-0.0538
3379.5,890.5,0.8166,-0.0548
3382.49,891.0,0.8179,-0.0561
3385.5,891.5,0.8179,-0.0572
3388.5,892.0,0.818,-0.0564
3391.5,892.5,0.8166,-0.0575
3394.53,893.0,0.8166,-0.0571
3397.54,893.5,0.8166,-0.0604
3400.55,894.0,0.8153,-0.0574
3403.57,894.5,0.8143,-0.0594
3406.6,895.0,0.8143,-0.0601
3409.61,895.5,0.8153,-0.0596
3412.63,896.0,0.8156,-0.0561
3415.65,896.5,0.8153,-0.0598
3418.65,897.0,0.8146,-0.0605
3421.66,897.5,0.8153,-0.0607
3424.66,898.0,0.8153,-0.0595
3427.67,898.5,0.8153,-0.0625
3430.68,899.0,0.8139,-0.06
3433.7,899.5,0.8126,-0.0608
3436.71,900.0,0.8127,-0.0602
3439.73,900.5,0.8126,-0.0585
3442.75,901.0,0.8126,-0.0609
3445.76,901.5,0.8127,-0.0624
3448.78,902.0,0.8136,-0.0607
3451.79,902.5,0.8136,-0.0623
3454.8,903.0,0.8123,-0.0611
3457.82,903.5,0.8117,-0.0643
3460.82,904.0,0.8108,-0.0626
3463.84,904.5,0.8103,-0.0636
3466.86,905.0,0.811,-0.0639
3469.88,905.5,0.811,-0.0665
3472.91,906.0,0.811,-0.0681
3475.94,906.5,0.811,-0.0695
3478.96,907.0,0.8097,-0.0687
3481.98,907.5,0.8097,-0.0683
3485,908.0,0.8097,-0.067
3488.01,908.5,0.8084,-0.0709
3491.04,909.0,0.8084,-0.07
3494.07,909.5,0.8084,-0.0703
3497.1,910.0,0.8084,-0.0703
3500.13,910.5,0.807,-0.0702
3503.15,911.0,0.807,-0.0683
3506.18,911.5,0.8083,-0.0663
3509.2,912.0,0.8084,-0.0719
3512.23,912.5,0.807,-0.0712
3515.26,913.0,0.8064,-0.073
3518.29,913.5,0.8064,-0.0693
3521.31,914.0,0.8064,-0.0708
3524.34,914.5,0.8061,-0.0717
3527.37,915.0,0.806,-0.0697
3530.39,915.5,0.8064,-0.0721
3533.42,916.0,0.8064,-0.0714
3536.45,916.5,0.8065,-0.0717
3539.47,917.0,0.8051,-0.0731
3542.48,917.5,0.8051,-0.0729
3545.49,918.0,0.8051,-0.0763
3548.5,918.5,0.8051,-0.0748
3551.51,919.0,0.8051,-0.0755
3554.53,919.5,0.8051,-0.0775
3557.56,920.0,0.804,-0.078
3560.58,920.5,0.8038,-0.0773
3563.59,921.0,0.8024,-0.0762
3566.61,921.5,0.8024,-0.0758
3569.63,922.0,0.8024,-0.0758
3572.65,922.5,0.8024,-0.0789
3575.68,923.0,0.8024,-0.0768
3578.7,923.5,0.8024,-0.078
3581.71,924.0,0.802,-0.0763
3584.73,924.5,0.8011,-0.0778
3587.74,925.0,0.8011,-0.0807
3590.77,925.5,0.8011,-0.0793
3593.79,926.0,0.8003,-0.0759
3596.8,926.5,0.8012,-0.077
3599.83,927.0,0.8011,-0.0793
3602.85,927.5,0.8011,-0.0793
3605.87,928.0,0.8011,-0.076
3608.9,928.5,0.7998,-0.0782
3611.93,929.0,0.7998,-0.0828
3614.96,929.5,0.7998,-0.0831
3618,930.0,0.7998,-0.0813
3621.03,930.5,0.7985,-0.0763
3624.06,931.0,0.7985,-0.0774
3627.09,931.5,0.7985,-0.0769
3630.11,932.0,0.7978,-0.0744
3633.14,932.5,0.7971,-0.0756
3636.17,933.0,0.7972,-0.0746
3639.19,933.5,0.7972,-0.0721
3642.22,934.0,0.7972,-0.0733
3645.24,934.5,0.7982,-0.0744
3648.26,935.0,0.7982,-0.0746
3651.29,935.5,0.7982,-0.0742
3654.33,936.0,0.7968,-0.0736
3657.36,936.5,0.7968,-0.0755
3660.38,937.0,0.7955,-0.0737
3663.41,937.5,0.7955,-0.0776
3666.44,938.0,0.7955,-0.0765
3669.47,938.5,0.7955,-0.0769
3672.5,939.0,0.7955,-0.0774
3675.54,939.5,0.7955,-0.0786
3678.57,940.0,0.7959,-0.0777
3681.61,940.5,0.7959,-0.0777
3684.63,941.0,0.7945,-0.0758
3687.65,941.5,0.7952,-0.0733
3690.69,942.0,0.7952,-0.0732
3693.72,942.5,0.7938,-0.0748
3696.74,943.0,0.7939,-0.0736
3699.79,943.5,0.7939,-0.074
3702.83,944.0,0.7945,-0.0739
3705.88,944.5,0.7944,-0.0757
3708.93,945.0,0.7916,-0.0748
3711.99,945.5,0.793,-0.0741
3715.01,946.0,0.7943,-0.0743
3718.05,946.5,0.7943,-0.0738
3721.1,947.0,0.7943,-0.0763
3724.14,947.5,0.7943,-0.0738
3727.21,948.0,0.793,-0.0727
3730.27,948.5,0.793,-0.0759
3733.32,949.0,0.793,-0.0746
3736.38,949.5,0.793,-0.0755
3739.42,950.0,0.793,-0.0759
3742.47,950.5,0.793,-0.0765
3745.5,951.0,0.7917,-0.0778
3748.54,951.5,0.7917,-0.0797
3751.59,952.0,0.793,-0.0806
3754.63,952.5,0.792,-0.08
3757.67,953.0,0.7904,-0.0828
3760.72,953.5,0.7904,-0.0818
3763.76,954.0,0.7904,-0.0786
3766.79,954.5,0.7917,-0.0808
3769.82,955.0,0.7911,-0.0796
3772.82,955.5,0.7904,-0.0827
3775.85,956.0,0.7904,-0.0811
3778.9,956.5,0.7904,-0.0788
3781.95,957.0,0.7904,-0.0797
3785.02,957.5,0.7904,-0.0811
3788.06,958.0,0.7897,-0.0826
3791.11,958.5,0.7897,-0.0814
3794.14,959.0,0.7884,-0.0795
3797.17,959.5,0.7884,-0.0785
3800.21,960.0,0.7874,-0.0828
3803.23,960.5,0.7874,-0.0822
3806.25,961.0,0.7874,-0.0843
3809.29,961.5,0.7875,-0.084
3812.33,962.0,0.788,-0.0851
3815.38,962.5,0.7874,-0.0849
3818.42,963.0,0.7874,-0.0889
3821.45,963.5,0.7874,-0.0876
3824.48,964.0,0.7874,-0.0875
3827.52,964.5,0.7874,-0.0883
3830.56,965.0,0.7874,-0.0889
3833.6,965.5,0.7861,-0.0907
3836.64,966.0,0.7861,-0.0909
3839.68,966.5,0.7864,-0.0903
3842.71,967.0,0.7862,-0.0873
3845.75,967.5,0.7861,-0.0867
3848.78,968.0,0.7861,-0.087
3851.81,968.5,0.7861,-0.0845
3854.84,969.0,0.7875,-0.0846
3857.87,969.5,0.7862,-0.0859
3860.9,970.0,0.7861,-0.0873
3863.93,970.5,0.7848,-0.0865
3866.98,971.0,0.7848,-0.0873
3870.02,971.5,0.7848,-0.083
3873.06,972.0,0.7834,-0.0847
3876.1,972.5,0.7834,-0.087
3879.15,973.0,0.7834,-0.0864
3882.21,973.5,0.7834,-0.0865
3885.26,974.0,0.7834,-0.0873
3888.3,974.5,0.7834,-0.0868
3891.37,975.0,0.7847,-0.088
3894.42,975.5,0.7834,-0.0841
3897.46,976.0,0.7834,-0.0819
3900.51,976.5,0.7834,-0.0821
3903.56,977.0,0.7834,-0.0846
3906.6,977.5,0.7834,-0.0825
3909.66,978.0,0.7825,-0.0816
3912.71,978.5,0.7821,-0.0868
3915.76,979.0,0.7821,-0.0866
3918.81,979.5,0.7821,-0.0854
3921.86,980.0,0.781,-0.0842
3924.9,980.5,0.7808,-0.0844
3927.95,981.0,0.7808,-0.0863
3930.99,981.5,0.7808,-0.0841
3934.05,982.0,0.7814,-0.0848
3937.1,982.5,0.7821,-0.0881
3940.14,983.0,0.7808,-0.0856
3943.2,983.5,0.7802,-0.0871
3946.25,984.0,0.7795,-0.0864
3949.29,984.5,0.7818,-0.0867
3952.33,985.0,0.7821,-0.0877
3955.38,985.5,0.7821,-0.0857
3958.42,986.0,0.7808,-0.0831
3961.46,986.5,0.7808,-0.085
3964.49,987.0,0.7807,-0.0841
3967.52,987.5,0.7795,-0.0841
3970.55,988.0,0.7795,-0.085
3973.59,988.5,0.7795,-0.0852
3976.64,989.0,0.7795,-0.0864
3979.68,989.5,0.7795,-0.0871
3982.73,990.0,0.7782,-0.0888
3985.77,990.5,0.7782,-0.0903
3988.81,991.0,0.7782,-0.0905
3991.85,991.5,0.7795,-0.0908
3994.89,992.0,0.7795,-0.0898
3997.92,992.5,0.7795,-0.0898
4000.96,993.0,0.7795,-0.0881
4003.99,993.5,0.7782,-0.089
4007.02,994.0,0.7782,-0.0882
4010.06,994.5,0.7782,-0.0853
4013.1,995.0,0.778,-0.0863
4016.15,995.5,0.7769,-0.0872
4019.2,996.0,0.7769,-0.0852
4022.25,996.5,0.7769,-0.0876
4025.3,997.0,0.7755,-0.0852
4028.34,997.5,0.7756,-0.0843
4031.38,998.0,0.7755,-0.0864
4034.42,998.5,0.7758,-0.0867
4037.46,999.0,0.7771,-0.0862
4040.51,999.5,0.7759,-0.0847
4043.55,1000.0,0.7749,-0.0807
4046.59,1000.5,0.7745,-0.0793
4049.63,1001.0,0.7746,-0.081
4052.67,1001.5,0.7746,-0.0777
4055.71,1002.0,0.7745,-0.0783
4058.75,1002.5,0.7732,-0.0769
4061.8,1003.0,0.7742,-0.0742
4064.84,1003.5,0.7742,-0.0716
4067.88,1004.0,0.7742,-0.0715
4070.92,1004.5,0.7742,-0.0711
4073.97,1005.0,0.7742,-0.0727
4077.01,1005.5,0.7742,-0.0724
4080.05,1006.0,0.7743,-0.0704
4083.08,1006.5,0.7742,-0.0681
4086.12,1007.0,0.7742,-0.0671
4089.16,1007.5,0.7742,-0.0676
4092.2,1008.0,0.7755,-0.0668
4095.24,1008.5,0.7744,-0.0656
4098.26,1009.0,0.7742,-0.0642
4101.3,1009.5,0.7742,-0.0626
4104.34,1010.0,0.7732,-0.0662
4107.39,1010.5,0.7733,-0.0646
4110.44,1011.0,0.7738,-0.0673
4113.48,1011.5,0.7729,-0.0656
4116.5,1012.0,0.7729,-0.0635
4119.53,1012.5,0.7729,-0.0666
4122.55,1013.0,0.7729,-0.0661
4125.58,1013.5,0.7729,-0.0627
4128.61,1014.0,0.7729,-0.0655
4131.64,1014.5,0.7719,-0.0619
4134.69,1015.0,0.7719,-0.0608
4137.73,1015.5,0.7729,-0.0624
4140.78,1016.0,0.7729,-0.0619
4143.82,1016.5,0.7729,-0.0598
4146.87,1017.0,0.7729,-0.06
4149.92,1017.5,0.7729,-0.0591
4152.97,1018.0,0.7729,-0.0581
4156.02,1018.5,0.7729,-0.0581
4159.07,1019.0,0.7716,-0.0596
4162.12,1019.5,0.7688,-0.0602
4165.17,1020.0,0.7702,-0.0581
4168.23,1020.5,0.7713,-0.0576
4171.28,1021.0,0.7715,-0.0575
4174.32,1021.5,0.7715,-0.0566
4177.37,1022.0,0.7716,-0.0534
4180.42,1022.5,0.7708,-0.054
4183.47,1023.0,0.7701,-0.0511
4186.52,1023.5,0.7702,-0.0485
4189.57,1024.0,0.7702,-0.0466
4192.62,1024.5,0.7702,-0.0452
4195.66,1025.0,0.7702,-0.0416
4198.72,1025.5,0.7692,-0.0417
4201.77,1026.0,0.7688,-0.04
4204.82,1026.5,0.7698,-0.0425
4207.87,1027.0,0.7698,-0.0389
4210.91,1027.5,0.7698,-0.0367
4213.96,1028.0,0.7685,-0.036
4217.01,1028.5,0.7685,-0.0353
4220.06,1029.0,0.7685,-0.0308
4223.13,1029.5,0.7685,-0.0328
4226.19,1030.0,0.7666,-0.0337
4229.25,1030.5,0.7667,-0.0309
4232.3,1031.0,0.7695,-0.0301
4235.34,1031.5,0.7682,-0.0307
4238.39,1032.0,0.7676,-0.0261
4241.45,1032.5,0.7682,-0.0281
4244.52,1033.0,0.7682,-0.0258
4247.59,1033.5,0.7682,-0.0217
4250.65,1034.0,0.7682,-0.017
4253.7,1034.5,0.7672,-0.0151
4256.76,1035.0,0.7669,-0.0161
4259.82,1035.5,0.7669,-0.0111
4262.88,1036.0,0.7669,-0.0088
4265.92,1036.5,0.7669,-0.0039
4268.98,1037.0,0.7669,-0.0047
4272.02,1037.5,0.7656,-0.003
4275.08,1038.0,0.7655,-0.0025
4278.14,1038.5,0.7656,-0.0049
4281.2,1039.0,0.7656,-0.0024
4284.26,1039.5,0.7655,-0.0018
4287.32,1040.0,0.7643,-0.0021
4290.37,1040.5,0.7647,-0.0012
4293.43,1041.0,0.7646,-0.002
4296.49,1041.5,0.7646,-0.0032
4299.53,1042.0,0.7646,0.0022
4302.59,1042.5,0.7645,0.0001
4305.65,1043.0,0.7639,0.001
4308.71,1043.5,0.7639,0.0037
4311.78,1044.0,0.7639,0.0051
4314.83,1044.5,0.7635,0.0055
4317.89,1045.0,0.7624,0.0078
4320.95,1045.5,0.7632,0.0107
4324,1046.0,0.7632,0.007
4327.07,1046.5,0.7636,0.0114
4330.13,1047.0,0.7625,0.0139
4333.18,1047.5,0.7625,0.0132
4336.24,1048.0,0.7636,0.0118
4339.29,1048.5,0.7636,0.0174
4342.35,1049.0,0.7636,0.0163
4345.4,1049.5,0.7632,0.0182
4348.44,1050.0,0.7632,0.0166
4351.51,1050.5,0.7632,0.015
4354.56,1051.0,0.7619,0.0164
4357.61,1051.5,0.7619,0.0179
4360.67,1052.0,0.7619,0.0165
4363.71,1052.5,0.761,0.0156
4366.76,1053.0,0.7607,0.0192
4369.8,1053.5,0.7609,0.0218
4372.84,1054.0,0.7613,0.0244
4375.88,1054.5,0.7619,0.0259
4378.93,1055.0,0.7619,0.0265
4381.98,1055.5,0.7619,0.0297
4385.03,1056.0,0.7619,0.0281
4388.08,1056.5,0.7609,0.0277
4391.13,1057.0,0.7606,0.0237
4394.18,1057.5,0.7606,0.0222
4397.24,1058.0,0.761,0.0245
4400.3,1058.5,0.7609,0.0236
4403.36,1059.0,0.761,0.0247
4406.41,1059.5,0.7606,0.0207
4409.46,1060.0,0.7609,0.0216
4412.51,1060.5,0.7609,0.0215
4415.56,1061.0,0.7609,0.022
4418.61,1061.5,0.7609,0.0264
4421.66,1062.0,0.7609,0.0251
4424.7,1062.5,0.7609,0.0304
4427.75,1063.0,0.7589,0.0271
4430.8,1063.5,0.759,0.0271
4433.84,1064.0,0.759,0.0272
4436.9,1064.5,0.759,0.0278
4439.96,1065.0,0.7603,0.0315
4443.02,1065.5,0.7602,0.0324
4446.09,1066.0,0.759,0.031
4449.15,1066.5,0.7589,0.0302
4452.22,1067.0,0.7577,0.0265
4455.29,1067.5,0.7578,0.0274
4458.36,1068.0,0.759,0.0294
4461.43,1068.5,0.759,0.033
4464.49,1069.0,0.7599,0.0342