File: Wood/Calibration_Data/FSRI/FSRI_DSC_N2_30K_R1.csv
Time (s),Temperature (K),Heat Flow Rate (W/g)
0,325.0,2.34E-03
10.8786,325.5,3.13E-02
17.4258,326.0,5.74E-02
22.2714,326.5,7.80E-02
26.385,327.0,1.00E-01
29.9352,327.5,1.19E-01
33.0948,328.0,1.36E-01
36.0702,328.5,1.54E-01
38.901,329.0,1.71E-01
41.4468,329.5,1.86E-01
43.887,330.0,2.00E-01
46.2354,330.5,2.13E-01
48.4656,331.0,2.25E-01
50.6142,331.5,2.39E-01
52.6896,332.0,2.49E-01
54.6948,332.5,2.62E-01
56.6442,333.0,2.73E-01
58.5414,333.5,2.83E-01
60.3882,334.0,2.94E-01
62.184,334.5,3.07E-01
63.9414,335.0,3.15E-01
65.6568,335.5,3.24E-01
67.3512,336.0,3.34E-01
69.0132,336.5,3.43E-01
70.656,337.0,3.52E-01
72.2616,337.5,3.62E-01
73.8492,338.0,3.69E-01
75.411,338.5,3.76E-01
76.9656,339.0,3.84E-01
78.4938,339.5,3.93E-01
80.0058,340.0,3.99E-01
81.4902,340.5,4.09E-01
82.9656,341.0,4.15E-01
84.423,341.5,4.21E-01
85.8654,342.0,4.28E-01
87.2988,342.5,4.36E-01
88.7142,343.0,4.43E-01
90.1224,343.5,4.50E-01
91.5168,344.0,4.56E-01
92.8968,344.5,4.62E-01
94.2768,345.0,4.68E-01
95.6412,345.5,4.74E-01
97.002,346.0,4.80E-01
98.3544,346.5,4.87E-01
99.6882,347.0,4.93E-01
101.019,347.5,4.98E-01
102.3348,348.0,5.04E-01
103.6476,348.5,5.12E-01
104.9508,349.0,5.16E-01
106.2438,349.5,5.22E-01
107.5428,350.0,5.28E-01
108.8256,350.5,5.32E-01
110.1096,351.0,5.37E-01
111.3846,351.5,5.43E-01
112.6476,352.0,5.49E-01
113.9082,352.5,5.54E-01
115.1664,353.0,5.60E-01
116.4174,353.5,5.65E-01
117.6618,354.0,5.68E-01
118.9056,354.5,5.73E-01
120.1404,355.0,5.79E-01
121.362,355.5,5.83E-01
122.5818,356.0,5.89E-01
123.7926,356.5,5.94E-01
124.9992,357.0,5.99E-01
126.2004,357.5,6.02E-01
127.4028,358.0,6.08E-01
128.6022,358.5,6.13E-01
129.7884,359.0,6.18E-01
130.98,359.5,6.22E-01
132.168,360.0,6.26E-01
133.3464,360.5,6.31E-01
134.523,361.0,6.36E-01
135.7032,361.5,6.40E-01
136.8732,362.0,6.43E-01
138.0396,362.5,6.47E-01
139.2054,363.0,6.52E-01
140.3622,363.5,6.55E-01
141.5148,364.0,6.60E-01
142.662,364.5,6.66E-01
143.8104,365.0,6.69E-01
144.948,365.5,6.73E-01
146.091,366.0,6.76E-01
147.2346,366.5,6.80E-01
148.3686,367.0,6.84E-01
149.4984,367.5,6.89E-01
150.6294,368.0,6.92E-01
151.7556,368.5,6.96E-01
152.877,369.0,7.00E-01
153.9972,369.5,7.02E-01
155.118,370.0,7.05E-01
156.2316,370.5,7.09E-01
157.3476,371.0,7.15E-01
158.4546,371.5,7.17E-01
159.561,372.0,7.21E-01
160.665,372.5,7.24E-01
161.7696,373.0,7.28E-01
162.8676,373.5,7.30E-01
163.968,374.0,7.34E-01
165.0642,374.5,7.36E-01
166.155,375.0,7.39E-01
167.2488,375.5,7.43E-01
168.3432,376.0,7.47E-01
169.4358,376.5,7.48E-01
170.526,377.0,7.49E-01
171.618,377.5,7.53E-01
172.7064,378.0,7.57E-01
173.79,378.5,7.60E-01
174.8658,379.0,7.60E-01
175.9458,379.5,7.62E-01
177.0168,380.0,7.62E-01
178.0872,380.5,7.65E-01
179.163,381.0,7.66E-01
180.246,381.5,7.69E-01
181.3146,382.0,7.69E-01
182.3976,382.5,7.71E-01
183.4752,383.0,7.72E-01
184.5438,383.5,7.72E-01
185.6064,384.0,7.74E-01
186.6792,384.5,7.75E-01
187.7406,385.0,7.75E-01
188.7942,385.5,7.78E-01
189.8484,386.0,7.79E-01
190.9104,386.5,7.78E-01
191.9712,387.0,7.81E-01
193.029,387.5,7.84E-01
194.0916,388.0,7.82E-01
195.1542,388.5,7.82E-01
196.2072,389.0,7.81E-01
197.2602,389.5,7.84E-01
198.3072,390.0,7.84E-01
199.3566,390.5,7.82E-01
200.4024,391.0,7.87E-01
201.444,391.5,7.84E-01
202.4874,392.0,7.84E-01
203.5338,392.5,7.84E-01
204.576,393.0,7.84E-01
205.6236,393.5,7.84E-01
206.67,394.0,7.84E-01
207.708,394.5,7.83E-01
208.7412,395.0,7.83E-01
209.7642,395.5,7.83E-01
210.7824,396.0,7.85E-01
211.8006,396.5,7.84E-01
212.8266,397.0,7.82E-01
213.8556,397.5,7.83E-01
214.8912,398.0,7.82E-01
215.9196,398.5,7.85E-01
216.9582,399.0,7.84E-01
217.9848,399.5,7.83E-01
219.0078,400.0,7.84E-01
220.023,400.5,7.85E-01
221.0508,401.0,7.84E-01
222.0702,401.5,7.84E-01
223.083,402.0,7.83E-01
224.0946,402.5,7.85E-01
225.1122,403.0,7.85E-01
226.1256,403.5,7.83E-01
227.136,404.0,7.83E-01
228.1452,404.5,7.84E-01
229.1574,405.0,7.85E-01
230.1612,405.5,7.85E-01
231.1686,406.0,7.87E-01
232.1706,406.5,7.87E-01
233.172,407.0,7.87E-01
234.1716,407.5,7.88E-01
235.1688,408.0,7.91E-01
236.1594,408.5,7.90E-01
237.1578,409.0,7.91E-01
238.1544,409.5,7.90E-01
239.1522,410.0,7.91E-01
240.15,410.5,7.91E-01
241.1472,411.0,7.93E-01
242.1426,411.5,7.95E-01
243.129,412.0,7.95E-01
244.1166,412.5,7.95E-01
245.1042,413.0,7.95E-01
246.0906,413.5,7.96E-01
247.0788,414.0,7.99E-01
248.0664,414.5,7.99E-01
249.054,415.0,7.99E-01
250.0398,415.5,8.01E-01
251.0214,416.0,8.01E-01
251.9964,416.5,8.02E-01
252.975,417.0,8.03E-01
253.9542,417.5,8.06E-01
254.9292,418.0,8.08E-01
255.9042,418.5,8.10E-01
256.8786,419.0,8.11E-01
257.856,419.5,8.12E-01
258.8304,420.0,8.14E-01
259.8024,420.5,8.16E-01
260.7798,421.0,8.16E-01
261.7494,421.5,8.17E-01
262.7196,422.0,8.19E-01
263.688,422.5,8.18E-01
264.6582,423.0,8.19E-01
265.623,423.5,8.21E-01
266.5896,424.0,8.23E-01
267.558,424.5,8.24E-01
268.5192,425.0,8.27E-01
269.4846,425.5,8.29E-01
270.4512,426.0,8.30E-01
271.4148,426.5,8.32E-01
272.3766,427.0,8.33E-01
273.3402,427.5,8.36E-01
274.302,428.0,8.38E-01
275.2626,428.5,8.40E-01
276.2196,429.0,8.41E-01
277.1802,429.5,8.41E-01
278.1402,430.0,8.44E-01
279.1002,430.5,8.45E-01
280.059,431.0,8.47E-01
281.0172,431.5,8.49E-01
281.9748,432.0,8.51E-01
282.9336,432.5,8.54E-01
283.8906,433.0,8.55E-01
284.8458,433.5,8.58E-01
285.801,434.0,8.61E-01
286.755,434.5,8.64E-01
287.7066,435.0,8.64E-01
288.6558,435.5,8.64E-01
289.608,436.0,8.67E-01
290.5566,436.5,8.70E-01
291.5046,437.0,8.72E-01
292.4532,437.5,8.74E-01
293.403,438.0,8.76E-01
294.3546,438.5,8.77E-01
295.3008,439.0,8.78E-01
296.247,439.5,8.81E-01
297.1962,440.0,8.84E-01
298.143,440.5,8.87E-01
299.0868,441.0,8.89E-01
300.0336,441.5,8.91E-01
300.984,442.0,8.94E-01
301.9272,442.5,8.95E-01
302.874,443.0,8.96E-01
303.8172,443.5,8.99E-01
304.7622,444.0,9.02E-01
305.7054,444.5,9.04E-01
306.6468,445.0,9.03E-01
307.5912,445.5,9.06E-01
308.5326,446.0,9.10E-01
309.4764,446.5,9.13E-01
310.4166,447.0,9.15E-01
311.3526,447.5,9.19E-01
312.2922,448.0,9.19E-01
313.2264,448.5,9.22E-01
314.1546,449.0,9.25E-01
315.0858,449.5,9.27E-01
316.017,450.0,9.29E-01
316.9518,450.5,9.30E-01
317.8854,451.0,9.31E-01
318.8226,451.5,9.34E-01
319.7628,452.0,9.39E-01
320.6982,452.5,9.39E-01
321.6378,453.0,9.40E-01
322.5708,453.5,9.43E-01
323.5026,454.0,9.44E-01
324.4374,454.5,9.49E-01
325.3692,455.0,9.51E-01
326.3004,455.5,9.52E-01
327.2262,456.0,9.54E-01
328.1508,456.5,9.56E-01
329.0814,457.0,9.58E-01
330.0072,457.5,9.61E-01
330.9354,458.0,9.63E-01
331.8606,458.5,9.67E-01
332.7876,459.0,9.68E-01
333.7128,459.5,9.70E-01
334.6374,460.0,9.74E-01
335.5602,460.5,9.76E-01
336.4812,461.0,9.77E-01
337.4034,461.5,9.80E-01
338.3262,462.0,9.80E-01
339.246,462.5,9.84E-01
340.1622,463.0,9.85E-01
341.0826,463.5,9.88E-01
342.0036,464.0,9.89E-01
342.921,464.5,9.90E-01
343.8384,465.0,9.93E-01
344.7588,465.5,9.96E-01
345.675,466.0,9.97E-01
346.5912,466.5,9.99E-01
347.5056,467.0,1.00E+00
348.4218,467.5,1.00E+00
349.3374,468.0,1.00E+00
350.2494,468.5,1.01E+00
351.1644,469.0,1.01E+00
352.077,469.5,1.01E+00
352.9908,470.0,1.02E+00
353.9034,470.5,1.02E+00
354.8154,471.0,1.02E+00
355.7256,471.5,1.02E+00
356.6382,472.0,1.02E+00
357.5532,472.5,1.03E+00
358.4646,473.0,1.03E+00
359.3778,473.5,1.03E+00
360.2868,474.0,1.03E+00
361.203,474.5,1.04E+00
362.115,475.0,1.04E+00
363.0222,475.5,1.04E+00
363.933,476.0,1.04E+00
364.8408,476.5,1.04E+00
365.7516,477.0,1.04E+00
366.663,477.5,1.05E+00
367.5708,478.0,1.05E+00
368.4792,478.5,1.05E+00
369.3882,479.0,1.06E+00
370.2996,479.5,1.06E+00
371.2086,480.0,1.06E+00
372.1146,480.5,1.06E+00
373.0206,481.0,1.06E+00
373.9284,481.5,1.07E+00
374.8344,482.0,1.07E+00
375.7374,482.5,1.07E+00
376.6392,483.0,1.08E+00
377.541,483.5,1.08E+00
378.4488,484.0,1.08E+00
379.3542,484.5,1.08E+00
380.2614,485.0,1.09E+00
381.1692,485.5,1.09E+00
382.0788,486.0,1.09E+00
382.9872,486.5,1.09E+00
383.892,487.0,1.09E+00
384.801,487.5,1.10E+00
385.7046,488.0,1.10E+00
386.6082,488.5,1.10E+00
387.513,489.0,1.10E+00
388.419,489.5,1.11E+00
389.3238,490.0,1.11E+00
390.2244,490.5,1.11E+00
391.1274,491.0,1.11E+00
392.034,491.5,1.12E+00
392.9352,492.0,1.12E+00
393.8382,492.5,1.12E+00
394.7418,493.0,1.12E+00
395.6454,493.5,1.12E+00
396.549,494.0,1.13E+00
397.4472,494.5,1.13E+00
398.3484,495.0,1.13E+00
399.2508,495.5,1.13E+00
400.152,496.0,1.13E+00
401.0538,496.5,1.13E+00
401.9568,497.0,1.14E+00
402.8556,497.5,1.14E+00
403.7508,498.0,1.14E+00
404.6472,498.5,1.14E+00
405.5436,499.0,1.14E+00
406.4436,499.5,1.15E+00
407.3448,500.0,1.15E+00
408.2496,500.5,1.15E+00
409.1604,501.0,1.15E+00
410.0664,501.5,1.16E+00
410.97,502.0,1.16E+00
411.8694,502.5,1.16E+00
412.7658,503.0,1.16E+00
413.6664,503.5,1.16E+00
414.564,504.0,1.17E+00
415.4622,504.5,1.17E+00
416.3634,505.0,1.17E+00
417.2634,505.5,1.18E+00
418.167,506.0,1.18E+00
419.0658,506.5,1.18E+00
419.9658,507.0,1.18E+00
420.8616,507.5,1.18E+00
421.7544,508.0,1.19E+00
422.6514,508.5,1.19E+00
423.5466,509.0,1.19E+00
424.4436,509.5,1.19E+00
425.3382,510.0,1.20E+00
426.2364,510.5,1.20E+00
427.1352,511.0,1.20E+00
428.031,511.5,1.20E+00
428.9286,512.0,1.20E+00
429.8244,512.5,1.20E+00
430.7214,513.0,1.20E+00
431.6184,513.5,1.21E+00
432.5178,514.0,1.21E+00
433.4178,514.5,1.21E+00
434.3148,515.0,1.21E+00
435.2124,515.5,1.21E+00
436.107,516.0,1.21E+00
437.0058,516.5,1.21E+00
437.9022,517.0,1.21E+00
438.7926,517.5,1.21E+00
439.6872,518.0,1.22E+00
440.5812,518.5,1.22E+00
441.4788,519.0,1.22E+00
442.3734,519.5,1.22E+00
443.2686,520.0,1.22E+00
444.1674,520.5,1.22E+00
445.0602,521.0,1.22E+00
445.9566,521.5,1.22E+00
446.8494,522.0,1.23E+00
447.741,522.5,1.23E+00
448.6314,523.0,1.22E+00
449.526,523.5,1.22E+00
450.4212,524.0,1.23E+00
451.314,524.5,1.23E+00
452.2074,525.0,1.23E+00
453.102,525.5,1.23E+00
453.9996,526.0,1.23E+00
454.8936,526.5,1.23E+00
455.7864,527.0,1.23E+00
456.6786,527.5,1.23E+00
457.572,528.0,1.23E+00
458.4618,528.5,1.23E+00
459.3504,529.0,1.23E+00
460.242,529.5,1.23E+00
461.1366,530.0,1.23E+00
462.0318,530.5,1.23E+00
462.9246,531.0,1.23E+00
463.8186,531.5,1.23E+00
464.7126,532.0,1.23E+00
465.6048,532.5,1.23E+00
466.4934,533.0,1.23E+00
467.382,533.5,1.23E+00
468.2718,534.0,1.23E+00
469.1646,534.5,1.23E+00
470.0556,535.0,1.23E+00
470.9478,535.5,1.23E+00
471.8418,536.0,1.23E+00
472.7322,536.5,1.23E+00
473.625,537.0,1.23E+00
474.5142,537.5,1.23E+00
475.4028,538.0,1.23E+00
476.2914,538.5,1.23E+00
477.1776,539.0,1.23E+00
478.0686,539.5,1.23E+00
478.959,540.0,1.23E+00
479.8494,540.5,1.23E+00
480.7416,541.0,1.23E+00
481.6338,541.5,1.23E+00
482.5224,542.0,1.23E+00
483.4068,542.5,1.23E+00
484.2954,543.0,1.23E+00
485.1876,543.5,1.23E+00
486.0768,544.0,1.23E+00
486.9672,544.5,1.23E+00
487.8618,545.0,1.23E+00
488.751,545.5,1.23E+00
489.6366,546.0,1.23E+00
490.5234,546.5,1.23E+00
491.4156,547.0,1.22E+00
492.3042,547.5,1.22E+00
493.194,548.0,1.22E+00
494.0892,548.5,1.22E+00
494.985,549.0,1.22E+00
495.8778,549.5,1.22E+00
496.7646,550.0,1.22E+00
497.655,550.5,1.22E+00
498.5454,551.0,1.22E+00
499.4358,551.5,1.22E+00
500.3286,552.0,1.21E+00
501.2172,552.5,1.21E+00
502.1094,553.0,1.21E+00
503.0004,553.5,1.21E+00
503.8914,554.0,1.21E+00
504.7842,554.5,1.21E+00
505.6734,555.0,1.21E+00
506.5638,555.5,1.21E+00
507.4548,556.0,1.21E+00
508.347,556.5,1.21E+00
509.2386,557.0,1.21E+00
510.1278,557.5,1.21E+00
511.0182,558.0,1.21E+00
511.9098,558.5,1.21E+00
512.8002,559.0,1.21E+00
513.6864,559.5,1.21E+00
514.5762,560.0,1.20E+00
515.4684,560.5,1.20E+00
516.3594,561.0,1.20E+00
517.251,561.5,1.20E+00
518.142,562.0,1.20E+00
519.0378,562.5,1.20E+00
519.9282,563.0,1.20E+00
520.8192,563.5,1.20E+00
521.7096,564.0,1.19E+00
522.6036,564.5,1.20E+00
523.494,565.0,1.20E+00
524.3808,565.5,1.19E+00
525.2676,566.0,1.20E+00
526.1604,566.5,1.20E+00
527.0556,567.0,1.20E+00
527.949,567.5,1.19E+00
528.8418,568.0,1.19E+00
529.7346,568.5,1.19E+00
530.6298,569.0,1.19E+00
531.522,569.5,1.19E+00
532.413,570.0,1.19E+00
533.3004,570.5,1.19E+00
534.1926,571.0,1.19E+00
535.0872,571.5,1.19E+00
535.9806,572.0,1.19E+00
536.8728,572.5,1.19E+00
537.7632,573.0,1.19E+00
538.6536,573.5,1.19E+00
539.547,574.0,1.19E+00
540.4404,574.5,1.19E+00
541.3332,575.0,1.19E+00
542.2266,575.5,1.19E+00
543.1194,576.0,1.18E+00
544.0158,576.5,1.18E+00
544.9062,577.0,1.18E+00
545.7972,577.5,1.18E+00
546.69,578.0,1.18E+00
547.5786,578.5,1.18E+00
548.4738,579.0,1.18E+00
549.366,579.5,1.18E+00
550.2612,580.0,1.18E+00
551.1558,580.5,1.18E+00
552.0498,581.0,1.18E+00
552.9468,581.5,1.18E+00
553.8396,582.0,1.18E+00
554.7336,582.5,1.18E+00
555.6264,583.0,1.18E+00
556.5222,583.5,1.18E+00
557.4162,584.0,1.18E+00
558.3126,584.5,1.18E+00
559.2066,585.0,1.18E+00
560.1024,585.5,1.18E+00
560.9988,586.0,1.18E+00
561.8904,586.5,1.18E+00
562.7826,587.0,1.18E+00
563.6754,587.5,1.18E+00
564.57,588.0,1.18E+00
565.464,588.5,1.18E+00
566.3556,589.0,1.18E+00
567.2526,589.5,1.18E+00
568.149,590.0,1.18E+00
569.0454,590.5,1.18E+00
569.9436,591.0,1.18E+00
570.8388,591.5,1.18E+00
571.7382,592.0,1.18E+00
572.6346,592.5,1.18E+00
573.5316,593.0,1.19E+00
574.4268,593.5,1.19E+00
575.3238,594.0,1.19E+00
576.2166,594.5,1.19E+00
577.1088,595.0,1.19E+00
578.0046,595.5,1.19E+00
578.9046,596.0,1.19E+00
579.8028,596.5,1.20E+00
580.6998,597.0,1.20E+00
581.6028,597.5,1.20E+00
582.5046,598.0,1.20E+00
583.4034,598.5,1.20E+00
584.301,599.0,1.21E+00
585.1992,599.5,1.21E+00
586.0968,600.0,1.21E+00
586.995,600.5,1.21E+00
587.895,601.0,1.21E+00
588.7962,601.5,1.21E+00
589.695,602.0,1.22E+00
590.5944,602.5,1.22E+00
591.4938,603.0,1.22E+00
592.392,603.5,1.23E+00
593.2908,604.0,1.23E+00
594.1914,604.5,1.23E+00
595.0914,605.0,1.23E+00
595.992,605.5,1.24E+00
596.895,606.0,1.24E+00
597.7974,606.5,1.24E+00
598.701,607.0,1.25E+00
599.5998,607.5,1.25E+00
600.5016,608.0,1.25E+00
601.3998,608.5,1.25E+00
602.2944,609.0,1.26E+00
603.1962,609.5,1.26E+00
604.0968,610.0,1.26E+00
604.9986,610.5,1.26E+00
605.9004,611.0,1.27E+00
606.8064,611.5,1.27E+00
607.7118,612.0,1.27E+00
608.613,612.5,1.27E+00
609.5148,613.0,1.28E+00
610.4166,613.5,1.28E+00
611.3178,614.0,1.28E+00
612.2178,614.5,1.29E+00
613.1202,615.0,1.29E+00
614.0238,615.5,1.29E+00
614.9274,616.0,1.29E+00
615.8298,616.5,1.29E+00
616.7316,617.0,1.30E+00
617.6334,617.5,1.30E+00
618.5382,618.0,1.31E+00
619.4406,618.5,1.31E+00
620.3436,619.0,1.31E+00
621.249,619.5,1.32E+00
622.1556,620.0,1.32E+00
623.0634,620.5,1.32E+00
623.9682,621.0,1.32E+00
624.8724,621.5,1.32E+00
625.7748,622.0,1.33E+00
626.6802,622.5,1.33E+00
627.5838,623.0,1.33E+00
628.4892,623.5,1.34E+00
629.3928,624.0,1.34E+00
630.2994,624.5,1.34E+00
631.206,625.0,1.34E+00
632.1102,625.5,1.35E+00
633.0144,626.0,1.35E+00
633.9186,626.5,1.35E+00
634.8228,627.0,1.35E+00
635.7288,627.5,1.36E+00
636.6324,628.0,1.36E+00
637.5378,628.5,1.36E+00
638.4414,629.0,1.36E+00
639.3432,629.5,1.36E+00
640.248,630.0,1.37E+00
641.1516,630.5,1.37E+00
642.0588,631.0,1.38E+00
642.9654,631.5,1.38E+00
643.8732,632.0,1.38E+00
644.7834,632.5,1.38E+00
645.693,633.0,1.39E+00
646.6014,633.5,1.39E+00
647.5098,634.0,1.40E+00
648.4158,634.5,1.40E+00
649.3272,635.0,1.40E+00
650.2362,635.5,1.41E+00
651.147,636.0,1.41E+00
652.0584,636.5,1.42E+00
652.9704,637.0,1.42E+00
653.883,637.5,1.43E+00
654.7932,638.0,1.43E+00
655.7052,638.5,1.44E+00
656.6148,639.0,1.44E+00
657.5268,639.5,1.45E+00
658.4394,640.0,1.45E+00
659.3514,640.5,1.46E+00
660.2676,641.0,1.47E+00
661.182,641.5,1.47E+00
662.0958,642.0,1.48E+00
663.0126,642.5,1.49E+00
663.9276,643.0,1.49E+00
664.8438,643.5,1.50E+00
665.7582,644.0,1.51E+00
666.6756,644.5,1.52E+00
667.5948,645.0,1.53E+00
668.5104,645.5,1.54E+00
669.4296,646.0,1.55E+00
670.3482,646.5,1.56E+00
671.2614,647.0,1.57E+00
672.174,647.5,1.58E+00
673.0878,648.0,1.59E+00
674.0046,648.5,1.60E+00
674.9262,649.0,1.62E+00
675.8472,649.5,1.63E+00
676.776,650.0,1.64E+00
677.7018,650.5,1.66E+00
678.6282,651.0,1.67E+00
679.551,651.5,1.68E+00
680.4714,652.0,1.70E+00
681.396,652.5,1.71E+00
682.3176,653.0,1.72E+00
683.2386,653.5,1.73E+00
684.1632,654.0,1.75E+00
685.0866,654.5,1.76E+00
686.0088,655.0,1.77E+00
686.9298,655.5,1.78E+00
687.8544,656.0,1.79E+00
688.7784,656.5,1.81E+00
689.7012,657.0,1.82E+00
690.6216,657.5,1.83E+00
691.5426,658.0,1.84E+00
692.463,658.5,1.85E+00
693.3834,659.0,1.86E+00
694.3038,659.5,1.86E+00
695.22,660.0,1.87E+00
696.1302,660.5,1.88E+00
697.0392,661.0,1.88E+00
697.9566,661.5,1.89E+00
698.8728,662.0,1.89E+00
699.786,662.5,1.89E+00
700.7058,663.0,1.89E+00
701.6292,663.5,1.89E+00
702.5526,664.0,1.89E+00
703.4664,664.5,1.88E+00
704.3754,665.0,1.87E+00
705.2862,665.5,1.86E+00
706.1928,666.0,1.85E+00
707.0982,666.5,1.84E+00
707.9994,667.0,1.82E+00
708.9,667.5,1.80E+00
709.8006,668.0,1.78E+00
710.7024,668.5,1.76E+00
711.5994,669.0,1.73E+00
712.4958,669.5,1.70E+00
713.3922,670.0,1.67E+00
714.2868,670.5,1.64E+00
715.1796,671.0,1.60E+00
716.0706,671.5,1.57E+00
716.9604,672.0,1.52E+00
717.8502,672.5,1.49E+00
718.7358,673.0,1.44E+00
719.6196,673.5,1.40E+00
720.5058,674.0,1.35E+00
721.3884,674.5,1.30E+00
722.2704,675.0,1.26E+00
723.1524,675.5,1.20E+00
724.0368,676.0,1.15E+00
724.9158,676.5,1.10E+00
725.7966,677.0,1.05E+00
726.6792,677.5,9.96E-01
727.56,678.0,9.45E-01
728.4414,678.5,8.94E-01
729.3228,679.0,8.44E-01
730.212,679.5,7.91E-01
731.0958,680.0,7.40E-01
731.9772,680.5,6.93E-01
732.8628,681.0,6.46E-01
733.749,681.5,5.99E-01
734.6346,682.0,5.56E-01
735.5196,682.5,5.14E-01
736.4064,683.0,4.73E-01
737.2986,683.5,4.32E-01
738.1926,684.0,3.97E-01
739.086,684.5,3.62E-01
739.9782,685.0,3.29E-01
740.874,685.5,2.99E-01
741.7716,686.0,2.72E-01
742.6698,686.5,2.45E-01
743.5692,687.0,2.18E-01
744.4722,687.5,1.98E-01
745.383,688.0,1.78E-01
746.2902,688.5,1.60E-01
747.1998,689.0,1.46E-01
748.1076,689.5,1.31E-01
749.016,690.0,1.17E-01
749.9274,690.5,1.06E-01
750.8382,691.0,9.53E-02
751.7532,691.5,8.31E-02
752.6676,692.0,7.58E-02
753.585,692.5,6.78E-02
754.5024,693.0,6.28E-02
755.4126,693.5,5.34E-02
756.321,694.0,4.69E-02
757.23,694.5,4.12E-02
758.1426,695.0,3.67E-02
759.0546,695.5,3.20E-02
759.9684,696.0,2.95E-02
760.89,696.5,2.36E-02
761.8176,697.0,1.88E-02
762.7458,697.5,1.41E-02
763.6734,698.0,1.21E-02
764.5998,698.5,7.43E-03
765.5262,699.0,1.16E-03
766.4502,699.5,2.12E-04
767.3736,700.0,-1.96E-03
768.2964,700.5,-7.39E-03
769.2198,701.0,-1.02E-02
770.1438,701.5,-1.61E-02
771.069,702.0,-1.90E-02
771.9936,702.5,-2.11E-02
772.9152,703.0,-2.45E-02
773.8338,703.5,-2.86E-02
774.7566,704.0,-2.98E-02
775.68,704.5,-3.33E-02
776.5998,705.0,-3.81E-02
777.5238,705.5,-4.07E-02
778.4484,706.0,-4.32E-02
779.373,706.5,-4.65E-02
780.2976,707.0,-4.83E-02
781.2198,707.5,-4.97E-02
782.1438,708.0,-5.34E-02
783.0696,708.5,-5.60E-02
783.9948,709.0,-5.90E-02
784.9218,709.5,-6.38E-02
785.8488,710.0,-6.49E-02
786.7764,710.5,-6.69E-02
787.7034,711.0,-7.15E-02
788.6286,711.5,-7.32E-02
789.5544,712.0,-7.50E-02
790.482,712.5,-7.92E-02
791.4072,713.0,-8.29E-02
792.3348,713.5,-8.52E-02
793.2606,714.0,-8.76E-02
794.1852,714.5,-9.07E-02
795.1152,715.0,-9.37E-02
796.0398,715.5,-9.57E-02
796.9668,716.0,-9.89E-02
797.895,716.5,-1.01E-01
798.8238,717.0,-1.03E-01
799.752,717.5,-1.05E-01
800.6814,718.0,-1.06E-01
801.6126,718.5,-1.09E-01
802.542,719.0,-1.12E-01
803.4678,719.5,-1.13E-01
804.399,720.0,-1.15E-01
805.3284,720.5,-1.16E-01
806.2524,721.0,-1.21E-01
807.1824,721.5,-1.21E-01
808.113,722.0,-1.22E-01
809.0448,722.5,-1.24E-01
809.9754,723.0,-1.26E-01
810.9084,723.5,-1.27E-01
811.8408,724.0,-1.28E-01
812.772,724.5,-1.28E-01
813.702,725.0,-1.29E-01
814.6338,725.5,-1.29E-01
815.5662,726.0,-1.32E-01
816.498,726.5,-1.34E-01
817.4316,727.0,-1.33E-01
818.3646,727.5,-1.34E-01
819.2976,728.0,-1.33E-01
820.2324,728.5,-1.34E-01
821.166,729.0,-1.34E-01
822.1026,729.5,-1.33E-01
823.0398,730.0,-1.32E-01
823.9752,730.5,-1.31E-01
824.9088,731.0,-1.29E-01
825.843,731.5,-1.28E-01
826.7784,732.0,-1.30E-01
827.7126,732.5,-1.30E-01
828.6468,733.0,-1.30E-01
829.584,733.5,-1.28E-01
830.5218,734.0,-1.26E-01
831.462,734.5,-1.26E-01
832.4004,735.0,-1.22E-01
833.337,735.5,-1.20E-01
834.2742,736.0,-1.19E-01
835.2138,736.5,-1.20E-01
836.1528,737.0,-1.16E-01
837.0894,737.5,-1.14E-01
838.0284,738.0,-1.13E-01
838.968,738.5,-1.11E-01
839.9082,739.0,-1.08E-01
840.8472,739.5,-1.05E-01
841.7892,740.0,-1.03E-01
842.7306,740.5,-9.98E-02
843.6726,741.0,-9.62E-02
844.6146,741.5,-9.64E-02
845.5548,742.0,-9.34E-02
846.4908,742.5,-9.03E-02
847.4274,743.0,-8.65E-02
848.3688,743.5,-8.24E-02
849.3084,744.0,-8.01E-02
850.2426,744.5,-7.72E-02
851.181,745.0,-7.35E-02
852.1254,745.5,-6.95E-02
853.0644,746.0,-6.52E-02
854.0028,746.5,-6.12E-02
854.9478,747.0,-5.98E-02
855.8988,747.5,-5.66E-02
856.8516,748.0,-5.16E-02
857.8026,748.5,-4.82E-02
858.756,749.0,-4.62E-02
859.7052,749.5,-4.30E-02
860.6514,750.0,-3.63E-02
861.597,750.5,-3.11E-02
862.5408,751.0,-2.70E-02
863.4864,751.5,-2.28E-02
864.4308,752.0,-1.95E-02
865.3764,752.5,-1.76E-02
866.3244,753.0,-1.71E-02
867.2682,753.5,-1.40E-02
868.2114,754.0,-7.95E-03
869.1582,754.5,-3.60E-03
870.1038,755.0,-6.49E-04
871.0506,755.5,4.25E-03
871.9944,756.0,7.73E-03
872.9436,756.5,1.08E-02
873.8892,757.0,1.42E-02
874.8336,757.5,1.83E-02
875.781,758.0,1.66E-02
876.7278,758.5,2.24E-02
877.6752,759.0,2.36E-02
878.6232,759.5,2.67E-02
879.57,760.0,2.99E-02
880.5162,760.5,3.45E-02
881.4612,761.0,3.90E-02
882.4104,761.5,4.32E-02
883.3608,762.0,4.51E-02
884.3118,762.5,4.90E-02
885.2568,763.0,4.87E-02
886.2072,763.5,5.10E-02
887.1474,764.0,5.55E-02
888.0936,764.5,5.66E-02
889.041,765.0,5.74E-02
889.9884,765.5,6.08E-02
890.9376,766.0,6.64E-02
891.8892,766.5,6.66E-02
892.8438,767.0,6.75E-02
893.7906,767.5,7.19E-02
894.741,768.0,7.47E-02
895.6902,768.5,7.73E-02
896.6412,769.0,8.00E-02
897.591,769.5,8.08E-02
898.5408,770.0,8.22E-02
899.4918,770.5,8.34E-02
900.441,771.0,8.32E-02
901.3926,771.5,8.51E-02
902.3424,772.0,8.78E-02
903.2946,772.5,8.86E-02
904.2432,773.0,9.40E-02
905.1936,773.5,9.50E-02
906.144,774.0,9.42E-02
907.092,774.5,9.60E-02
908.0418,775.0,9.51E-02
908.9946,775.5,9.53E-02
909.9468,776.0,9.70E-02
910.8972,776.5,1.01E-01
911.85,777.0,1.02E-01
912.8046,777.5,1.02E-01
913.7568,778.0,1.04E-01
914.7084,778.5,1.04E-01
915.6618,779.0,1.04E-01
916.6146,779.5,1.05E-01
917.568,780.0,1.10E-01
918.5214,780.5,1.08E-01
919.476,781.0,1.08E-01
920.43,781.5,1.09E-01
921.3834,782.0,1.11E-01
922.3386,782.5,1.11E-01
923.2908,783.0,1.12E-01
924.2424,783.5,1.15E-01
925.1976,784.0,1.16E-01
926.1516,784.5,1.13E-01
927.1056,785.0,1.14E-01
928.0608,785.5,1.16E-01
929.0184,786.0,1.16E-01
929.9718,786.5,1.16E-01
930.9282,787.0,1.17E-01
931.8828,787.5,1.18E-01
932.8404,788.0,1.17E-01
933.795,788.5,1.16E-01
934.7496,789.0,1.19E-01
935.7054,789.5,1.20E-01
936.6606,790.0,1.19E-01
937.617,790.5,1.19E-01
938.5692,791.0,1.20E-01
939.5238,791.5,1.21E-01
940.479,792.0,1.22E-01
941.4354,792.5,1.21E-01
942.3924,793.0,1.20E-01
943.3458,793.5,1.21E-01
944.3058,794.0,1.23E-01
945.2622,794.5,1.24E-01
946.2222,795.0,1.25E-01
947.1792,795.5,1.26E-01
948.1368,796.0,1.25E-01
949.0944,796.5,1.27E-01
950.0526,797.0,1.25E-01
951.0096,797.5,1.29E-01
951.966,798.0,1.32E-01
952.9224,798.5,1.36E-01
953.8824,799.0,1.38E-01
954.8454,799.5,1.41E-01
955.8066,800.0,1.45E-01
956.7672,800.5,1.42E-01
957.7266,801.0,1.45E-01
958.6896,801.5,1.46E-01
959.6478,802.0,1.47E-01
960.606,802.5,1.48E-01
961.5684,803.0,1.46E-01
962.529,803.5,1.49E-01
963.4896,804.0,1.50E-01
964.449,804.5,1.50E-01
965.4084,805.0,1.50E-01
966.3678,805.5,1.50E-01
967.3284,806.0,1.53E-01
968.2878,806.5,1.53E-01
969.2514,807.0,1.55E-01
970.2132,807.5,1.55E-01
971.1756,808.0,1.53E-01
972.1356,808.5,1.54E-01
973.0974,809.0,1.53E-01
974.0592,809.5,1.55E-01
975.0198,810.0,1.57E-01
975.9828,810.5,1.57E-01
976.944,811.0,1.59E-01
977.9094,811.5,1.61E-01
978.873,812.0,1.59E-01
979.836,812.5,1.57E-01
980.7966,813.0,1.60E-01
981.7578,813.5,1.60E-01
982.719,814.0,1.60E-01
983.6778,814.5,1.59E-01
984.6402,815.0,1.61E-01
985.6026,815.5,1.62E-01
986.5686,816.0,1.60E-01
987.5334,816.5,1.60E-01
988.4964,817.0,1.61E-01
989.4642,817.5,1.62E-01
990.4302,818.0,1.61E-01
991.3974,818.5,1.61E-01
992.3604,819.0,1.62E-01
993.3246,819.5,1.63E-01
994.293,820.0,1.67E-01
995.2614,820.5,1.67E-01
996.2256,821.0,1.66E-01
997.1922,821.5,1.67E-01
998.166,822.0,1.67E-01
999.132,822.5,1.65E-01
1000.1,823.0,1.66E-01
1001.064,823.5,1.67E-01
1002.03,824.0,1.66E-01
1003,824.5,1.66E-01
1003.97,825.0,1.65E-01
1004.93,825.5,1.67E-01
1005.9,826.0,1.68E-01
1006.86,826.5,1.69E-01
1007.83,827.0,1.68E-01
1008.8,827.5,1.69E-01
1009.78,828.0,1.68E-01
1010.75,828.5,1.65E-01
1011.73,829.0,1.65E-01
1012.71,829.5,1.67E-01
1013.68,830.0,1.68E-01
1014.65,830.5,1.70E-01
1015.62,831.0,1.68E-01
1016.595,831.5,1.70E-01
1017.57,832.0,1.69E-01
1018.54,832.5,1.68E-01
1019.51,833.0,1.68E-01
1020.48,833.5,1.68E-01
1021.46,834.0,1.69E-01
1022.43,834.5,1.71E-01
1023.4,835.0,1.70E-01
1024.38,835.5,1.70E-01
1025.35,836.0,1.67E-01
1026.33,836.5,1.69E-01
1027.3,837.0,1.70E-01
1028.27,837.5,1.71E-01
1029.25,838.0,1.71E-01
1030.22,838.5,1.71E-01
1031.2,839.0,1.70E-01
1032.171,839.5,1.70E-01
1033.143,840.0,1.71E-01
1034.121,840.5,1.69E-01
1035.1,841.0,1.73E-01
1036.07,841.5,1.71E-01
1037.046,842.0,1.69E-01
1038.02,842.5,1.69E-01
1039,843.0,1.71E-01
1039.97,843.5,1.68E-01
1040.95,844.0,1.69E-01
1041.92,844.5,1.69E-01
1042.9,845.0,1.70E-01
1043.88,845.5,1.71E-01
1044.86,846.0,1.69E-01
1045.83,846.5,1.70E-01
1046.808,847.0,1.72E-01
1047.78,847.5,1.71E-01
1048.76,848.0,1.72E-01
1049.74,848.5,1.71E-01
1050.72,849.0,1.72E-01
1051.69,849.5,1.74E-01
1052.67,850.0,1.73E-01
1053.65,850.5,1.74E-01
1054.62,851.0,1.75E-01
1055.6,851.5,1.77E-01
1056.57,852.0,1.79E-01
1057.542,852.5,1.76E-01
1058.52,853.0,1.74E-01
1059.49,853.5,1.75E-01
1060.461,854.0,1.76E-01
1061.436,854.5,1.76E-01
1062.42,855.0,1.74E-01
1063.4,855.5,1.74E-01
1064.38,856.0,1.72E-01
1065.357,856.5,1.74E-01
1066.338,857.0,1.75E-01
1067.316,857.5,1.75E-01
1068.294,858.0,1.73E-01
1069.27,858.5,1.72E-01
1070.25,859.0,1.72E-01
1071.21,859.5,1.73E-01
1072.19,860.0,1.75E-01
1073.16,860.5,1.74E-01
1074.135,861.0,1.73E-01
1075.11,861.5,1.75E-01
1076.09,862.0,1.73E-01
1077.07,862.5,1.71E-01
1078.04,863.0,1.73E-01
1079.02,863.5,1.76E-01
1080,864.0,1.74E-01
1080.97,864.5,1.75E-01
1081.95,865.0,1.76E-01
1082.92,865.5,1.75E-01
1083.9,866.0,1.75E-01
1084.87,866.5,1.74E-01
1085.84,867.0,1.75E-01
1086.822,867.5,1.75E-01
1087.8,868.0,1.75E-01
1088.775,868.5,1.75E-01
1089.75,869.0,1.76E-01
1090.72,869.5,1.75E-01
1091.7,870.0,1.75E-01
1092.68,870.5,1.75E-01
1093.65,871.0,1.76E-01
1094.63,871.5,1.79E-01
1095.61,872.0,1.78E-01
1096.581,872.5,1.79E-01
1097.56,873.0,1.79E-01
1098.53,873.5,1.78E-01
1099.512,874.0,1.77E-01
1100.49,874.5,1.76E-01
1101.46,875.0,1.76E-01
1102.44,875.5,1.76E-01
1103.42,876.0,1.75E-01
1104.39,876.5,1.76E-01
1105.36,877.0,1.75E-01
1106.33,877.5,1.74E-01
1107.31,878.0,1.73E-01
1108.29,878.5,1.73E-01
1109.26,879.0,1.73E-01
1110.24,879.5,1.74E-01
1111.22,880.0,1.76E-01
1112.19,880.5,1.73E-01
1113.17,881.0,1.77E-01
1114.14,881.5,1.76E-01
1115.121,882.0,1.75E-01
1116.09,882.5,1.74E-01
1117.07,883.0,1.73E-01
1118.05,883.5,1.73E-01
1119.03,884.0,1.71E-01
1120.002,884.5,1.71E-01
1120.98,885.0,1.72E-01
1121.96,885.5,1.71E-01
1122.93,886.0,1.71E-01
1123.89,886.5,1.74E-01
1124.86,887.0,1.75E-01
1125.84,887.5,1.73E-01
1126.812,888.0,1.74E-01
1127.79,888.5,1.76E-01
1128.77,889.0,1.74E-01
1129.76,889.5,1.72E-01
1130.74,890.0,1.76E-01
1131.71,890.5,1.74E-01
1132.69,891.0,1.73E-01
1133.67,891.5,1.73E-01
1134.65,892.0,1.72E-01
1135.63,892.5,1.71E-01
1136.61,893.0,1.73E-01
1137.582,893.5,1.71E-01
1138.56,894.0,1.73E-01
1139.53,894.5,1.74E-01
1140.51,895.0,1.73E-01
1141.48,895.5,1.70E-01
1142.46,896.0,1.72E-01
1143.43,896.5,1.71E-01
1144.41,897.0,1.71E-01
1145.39,897.5,1.70E-01
1146.37,898.0,1.73E-01
1147.34,898.5,1.74E-01
1148.32,899.0,1.69E-01
1149.3,899.5,1.68E-01
1150.28,900.0,1.68E-01
1151.25,900.5,1.69E-01
1152.23,901.0,1.71E-01
1153.21,901.5,1.71E-01
1154.19,902.0,1.71E-01
1155.165,902.5,1.69E-01
1156.14,903.0,1.70E-01
1157.115,903.5,1.68E-01
1158.09,904.0,1.67E-01
1159.07,904.5,1.67E-01
1160.04,905.0,1.67E-01
1161.02,905.5,1.65E-01
1162,906.0,1.67E-01
1162.98,906.5,1.65E-01
1163.96,907.0,1.65E-01
1164.94,907.5,1.65E-01
1165.91,908.0,1.62E-01
1166.89,908.5,1.62E-01
1167.87,909.0,1.62E-01
1168.85,909.5,1.64E-01
1169.829,910.0,1.64E-01
1170.81,910.5,1.61E-01
1171.79,911.0,1.60E-01
1172.763,911.5,1.61E-01
1173.74,912.0,1.62E-01
1174.71,912.5,1.61E-01
1175.691,913.0,1.59E-01
1176.67,913.5,1.57E-01
1177.647,914.0,1.56E-01
1178.62,914.5,1.55E-01
1179.603,915.0,1.52E-01
1180.58,915.5,1.53E-01
1181.56,916.0,1.53E-01
1182.54,916.5,1.51E-01
1183.518,917.0,1.49E-01
1184.5,917.5,1.47E-01
1185.48,918.0,1.47E-01
1186.452,918.5,1.46E-01
1187.43,919.0,1.46E-01
1188.41,919.5,1.44E-01
1189.39,920.0,1.44E-01
1190.367,920.5,1.43E-01
1191.35,921.0,1.44E-01
1192.33,921.5,1.41E-01
1193.31,922.0,1.40E-01
1194.29,922.5,1.43E-01
1195.27,923.0,1.44E-01
1196.24,923.5,1.46E-01
1197.22,924.0,1.45E-01
1198.2,924.5,1.45E-01
1199.178,925.0,1.42E-01
1200.15,925.5,1.42E-01
1201.13,926.0,1.42E-01
1202.12,926.5,1.44E-01
1203.1,927.0,1.45E-01
1204.08,927.5,1.43E-01
1205.055,928.0,1.42E-01
1206.03,928.5,1.43E-01
1207.01,929.0,1.43E-01
1207.99,929.5,1.43E-01
1208.97,930.0,1.42E-01
1209.95,930.5,1.38E-01
1210.92,931.0,1.38E-01
1211.9,931.5,1.35E-01
1212.882,932.0,1.37E-01
1213.86,932.5,1.32E-01
1214.838,933.0,1.31E-01
1215.816,933.5,1.32E-01
1216.8,934.0,1.33E-01
1217.78,934.5,1.31E-01
1218.75,935.0,1.31E-01
1219.734,935.5,1.33E-01
1220.72,936.0,1.30E-01
1221.693,936.5,1.28E-01
1222.67,937.0,1.29E-01
1223.64,937.5,1.27E-01
1224.624,938.0,1.26E-01
1225.6,938.5,1.24E-01
1226.58,939.0,1.23E-01
1227.56,939.5,1.20E-01
1228.55,940.0,1.19E-01
1229.526,940.5,1.18E-01
1230.5,941.0,1.17E-01
1231.48,941.5,1.16E-01
1232.46,942.0,1.14E-01
1233.44,942.5,1.15E-01
1234.42,943.0,1.13E-01
1235.4,943.5,1.11E-01
1236.37,944.0,1.12E-01
1237.34,944.5,1.12E-01
1238.316,945.0,1.12E-01
1239.3,945.5,1.10E-01
1240.28,946.0,1.08E-01
1241.26,946.5,1.08E-01
1242.25,947.0,1.06E-01
1243.24,947.5,1.06E-01
1244.22,948.0,1.09E-01
1245.2,948.5,1.10E-01
1246.18,949.0,1.06E-01
1247.154,949.5,1.06E-01
1248.13,950.0,1.07E-01
1249.11,950.5,1.07E-01
1250.085,951.0,1.02E-01
1251.07,951.5,1.04E-01
1252.05,952.0,1.01E-01
1253.03,952.5,1.01E-01
1254.02,953.0,9.98E-02
1255,953.5,9.77E-02
1255.98,954.0,9.54E-02
1256.97,954.5,9.52E-02
1257.945,955.0,9.53E-02
1258.92,955.5,9.36E-02
1259.9,956.0,9.42E-02
1260.88,956.5,9.30E-02
1261.86,957.0,8.88E-02
1262.847,957.5,8.85E-02
1263.83,958.0,8.91E-02
1264.81,958.5,8.80E-02
1265.793,959.0,8.66E-02
1266.774,959.5,8.94E-02
1267.76,960.0,9.04E-02
1268.74,960.5,8.65E-02
1269.72,961.0,8.59E-02
1270.71,961.5,8.63E-02
1271.69,962.0,8.45E-02
1272.68,962.5,8.38E-02
1273.66,963.0,8.41E-02
1274.63,963.5,8.15E-02
1275.62,964.0,7.94E-02
1276.602,964.5,7.74E-02
1277.59,965.0,7.87E-02
1278.57,965.5,7.86E-02
1279.56,966.0,7.66E-02
1280.54,966.5,7.42E-02
1281.52,967.0,7.51E-02
1282.51,967.5,7.42E-02
1283.493,968.0,7.44E-02
1284.48,968.5,7.29E-02
1285.46,969.0,6.93E-02
1286.445,969.5,7.10E-02
1287.43,970.0,6.86E-02
1288.41,970.5,6.85E-02
1289.397,971.0,6.64E-02
1290.384,971.5,6.45E-02
1291.37,972.0,6.58E-02
1292.36,972.5,6.62E-02
1293.34,973.0,6.44E-02
1294.329,973.5,6.52E-02
1295.31,974.0,6.29E-02
1296.303,974.5,5.99E-02
1297.29,975.0,5.80E-02
1298.28,975.5,5.89E-02
1299.26,976.0,5.97E-02
1300.24,976.5,5.92E-02
1301.22,977.0,5.78E-02
1302.2,977.5,5.64E-02
1303.18,978.0,5.52E-02
1304.17,978.5,5.10E-02
1305.17,979.0,4.98E-02
1306.16,979.5,4.68E-02
1307.151,980.0,4.86E-02
1308.14,980.5,4.86E-02
1309.13,981.0,4.36E-02
1310.11,981.5,4.16E-02
1311.102,982.0,4.27E-02
1312.08,982.5,4.09E-02
1313.07,983.0,4.01E-02
1314.06,983.5,3.80E-02
1315.04,984.0,3.60E-02
1316.03,984.5,3.62E-02
1317.02,985.0,3.50E-02
1318.02,985.5,3.40E-02
1319.01,986.0,3.13E-02
1320,986.5,2.84E-02
1320.99,987.0,2.76E-02
1321.98,987.5,2.72E-02
1322.97,988.0,2.47E-02
1323.957,988.5,2.59E-02
1324.95,989.0,2.42E-02
1325.937,989.5,1.97E-02
1326.93,990.0,1.95E-02
1327.92,990.5,1.92E-02
1328.91,991.0,1.93E-02
1329.906,991.5,2.00E-02
1330.9,992.0,1.66E-02
1331.89,992.5,1.53E-02
1332.876,993.0,1.22E-02
1333.87,993.5,1.13E-02
1334.85,994.0,9.72E-03
1335.84,994.5,8.08E-03
1336.84,995.0,5.68E-03
1337.83,995.5,4.44E-03
1338.82,996.0,5.37E-03
1339.81,996.5,4.27E-03
1340.81,997.0,2.81E-03
1341.801,997.5,7.62E-04
1342.791,998.0,-1.51E-03
1343.784,998.5,-1.48E-03
1344.78,999.0,-3.95E-03
1345.77,999.5,-5.20E-03
1346.76,1000.0,-6.11E-03
1347.76,1000.5,-9.94E-03
1348.75,1001.0,-9.49E-03
1349.74,1001.5,-8.50E-03
1350.73,1002.0,-1.07E-02
1351.73,1002.5,-1.39E-02
1352.718,1003.0,-1.59E-02
1353.71,1003.5,-1.68E-02
1354.7,1004.0,-1.78E-02
1355.7,1004.5,-1.82E-02
1356.69,1005.0,-1.85E-02
1357.69,1005.5,-1.98E-02
1358.68,1006.0,-1.92E-02
1359.675,1006.5,-2.04E-02
1360.67,1007.0,-2.31E-02
1361.66,1007.5,-2.37E-02
1362.654,1008.0,-2.46E-02
1363.65,1008.5,-2.71E-02
1364.64,1009.0,-2.63E-02
1365.64,1009.5,-2.71E-02
1366.63,1010.0,-2.98E-02
1367.62,1010.5,-3.22E-02
1368.609,1011.0,-3.47E-02
1369.6,1011.5,-3.67E-02
1370.59,1012.0,-3.86E-02
1371.58,1012.5,-3.89E-02
1372.58,1013.0,-3.92E-02
1373.58,1013.5,-4.08E-02
1374.58,1014.0,-4.03E-02
1375.58,1014.5,-3.97E-02
1376.58,1015.0,-4.04E-02
1377.57,1015.5,-4.18E-02
1378.56,1016.0,-4.39E-02
1379.55,1016.5,-4.57E-02
1380.54,1017.0,-4.67E-02
1381.54,1017.5,-4.45E-02
1382.53,1018.0,-4.93E-02
1383.54,1018.5,-5.01E-02
1384.54,1019.0,-4.86E-02
1385.53,1019.5,-5.15E-02
1386.53,1020.0,-5.44E-02
1387.52,1020.5,-5.63E-02
1388.52,1021.0,-5.61E-02
1389.52,1021.5,-5.78E-02
1390.51,1022.0,-5.90E-02
1391.51,1022.5,-6.07E-02
1392.5,1023.0,-6.41E-02
1393.5,1023.5,-6.70E-02
1394.5,1024.0,-6.80E-02
1395.49,1024.5,-6.81E-02
1396.48,1025.0,-7.21E-02
1397.472,1025.5,-6.98E-02
1398.46,1026.0,-7.15E-02
1399.449,1026.5,-7.36E-02
1400.44,1027.0,-7.46E-02
1401.43,1027.5,-7.71E-02
1402.43,1028.0,-7.92E-02
1403.43,1028.5,-8.09E-02
1404.43,1029.0,-8.53E-02
1405.42,1029.5,-8.89E-02
1406.421,1030.0,-9.00E-02
1407.423,1030.5,-8.85E-02
1408.42,1031.0,-8.86E-02
1409.42,1031.5,-9.06E-02
1410.42,1032.0,-9.17E-02
1411.41,1032.5,-9.29E-02
1412.41,1033.0,-9.74E-02
1413.41,1033.5,-9.99E-02
1414.4,1034.0,-9.82E-02
1415.39,1034.5,-9.78E-02
1416.39,1035.0,-9.96E-02
1417.39,1035.5,-1.02E-01
1418.382,1036.0,-1.02E-01
1419.38,1036.5,-1.05E-01
1420.37,1037.0,-1.07E-01
1421.37,1037.5,-1.10E-01
1422.363,1038.0,-1.11E-01
1423.36,1038.5,-1.12E-01
1424.36,1039.0,-1.12E-01
1425.35,1039.5,-1.11E-01
1426.35,1040.0,-1.12E-01
1427.35,1040.5,-1.15E-01
1428.345,1041.0,-1.20E-01
1429.34,1041.5,-1.22E-01
1430.337,1042.0,-1.23E-01
1431.33,1042.5,-1.23E-01
1432.33,1043.0,-1.24E-01
1433.33,1043.5,-1.24E-01
1434.324,1044.0,-1.27E-01
1435.32,1044.5,-1.29E-01
1436.32,1045.0,-1.30E-01
1437.31,1045.5,-1.29E-01
1438.31,1046.0,-1.31E-01
1439.31,1046.5,-1.32E-01
1440.3,1047.0,-1.32E-01
1441.3,1047.5,-1.33E-01
1442.298,1048.0,-1.35E-01
1443.3,1048.5,-1.37E-01
1444.29,1049.0,-1.35E-01
1445.29,1049.5,-1.36E-01
1446.29,1050.0,-1.37E-01
1447.28,1050.5,-1.38E-01
1448.28,1051.0,-1.39E-01
1449.28,1051.5,-1.40E-01
1450.28,1052.0,-1.43E-01
1451.274,1052.5,-1.43E-01
1452.27,1053.0,-1.45E-01
1453.27,1053.5,-1.45E-01
1454.26,1054.0,-1.47E-01
1455.26,1054.5,-1.51E-01
1456.26,1055.0,-1.51E-01
1457.262,1055.5,-1.52E-01
1458.26,1056.0,-1.52E-01
1459.263,1056.5,-1.53E-01
1460.26,1057.0,-1.54E-01
1461.261,1057.5,-1.59E-01
1462.26,1058.0,-1.61E-01
1463.26,1058.5,-1.60E-01
1464.26,1059.0,-1.62E-01
1465.26,1059.5,-1.62E-01
1466.26,1060.0,-1.66E-01
1467.258,1060.5,-1.68E-01
1468.25,1061.0,-1.68E-01
1469.25,1061.5,-1.71E-01
1470.25,1062.0,-1.70E-01
1471.25,1062.5,-1.73E-01
1472.25,1063.0,-1.74E-01
1473.3,1063.5,-1.75E-01
,,-1.75E-01
,,-1.75E-01