File: Wood/Calibration_Data/FSRI/FSRI_TGA_N2_10K_R3.csv
Time (s),Temperature (K),Mass (mg)
0,324.5,3.923
17.109,325,3.923
27.369,325.5,3.924
35.6106,326,3.924
42.7338,326.5,3.924
49.0644,327,3.924
54.909,327.5,3.924
60.3648,328,3.923
65.5602,328.5,3.925
70.4958,329,3.924
75.2352,329.5,3.923
79.8192,330,3.923
84.3222,330.5,3.923
88.704,331,3.923
92.9862,331.5,3.924
97.1592,332,3.924
101.22,332.5,3.923
105.2154,333,3.923
109.212,333.5,3.923
113.1858,334,3.923
117.1458,334.5,3.923
121.0146,335,3.923
124.8114,335.5,3.923
128.5836,336,3.924
132.3414,336.5,3.923
136.086,337,3.922
139.7994,337.5,3.922
143.4534,338,3.922
147.0882,338.5,3.922
150.7068,339,3.921
154.2936,339.5,3.921
157.8606,340,3.921
161.3964,340.5,3.922
164.9196,341,3.922
168.4416,341.5,3.922
171.9426,342,3.922
175.4046,342.5,3.922
178.8612,343,3.92
182.2836,343.5,3.92
185.7072,344,3.92
189.1248,344.5,3.92
192.5382,345,3.919
195.9222,345.5,3.92
199.2984,346,3.92
202.6518,346.5,3.92
205.9812,347,3.92
209.3082,347.5,3.92
212.6298,348,3.92
215.9244,348.5,3.92
219.2184,349,3.919
222.4938,349.5,3.92
225.7398,350,3.918
229.002,350.5,3.92
232.2378,351,3.919
235.4838,351.5,3.919
238.6896,352,3.919
241.9104,352.5,3.919
245.1264,353,3.917
248.3094,353.5,3.919
251.5386,354,3.918
254.6922,354.5,3.919
257.832,355,3.919
260.9982,355.5,3.919
264.1656,356,3.919
267.3258,356.5,3.919
270.498,357,3.917
273.6492,357.5,3.918
276.7638,358,3.917
279.8958,358.5,3.919
283.0188,359,3.917
286.1202,359.5,3.917
289.2096,360,3.917
292.3008,360.5,3.916
295.3782,361,3.917
298.4364,361.5,3.916
301.5084,362,3.916
304.551,362.5,3.916
307.593,363,3.916
310.6464,363.5,3.916
313.695,364,3.915
316.7358,364.5,3.915
319.7712,365,3.915
322.7952,365.5,3.916
325.8024,366,3.916
328.8144,366.5,3.915
331.8114,367,3.916
334.8144,367.5,3.915
337.8234,368,3.913
340.7916,368.5,3.915
343.7892,369,3.915
346.7694,369.5,3.916
349.7394,370,3.915
352.7052,370.5,3.914
355.6692,371,3.913
358.6446,371.5,3.914
361.5942,372,3.914
364.59,372.5,3.914
367.5432,373,3.914
370.5018,373.5,3.911
373.4634,374,3.912
376.4154,374.5,3.913
379.3416,375,3.915
382.2852,375.5,3.914
385.2294,376,3.913
388.176,376.5,3.913
391.1442,377,3.914
394.1094,377.5,3.914
397.0452,378,3.913
399.978,378.5,3.913
402.8958,379,3.912
405.8088,379.5,3.912
408.7098,380,3.913
411.6234,380.5,3.913
414.549,381,3.912
417.4704,381.5,3.913
420.3966,382,3.912
423.315,382.5,3.912
426.2298,383,3.913
429.132,383.5,3.914
432.0432,384,3.913
434.9604,384.5,3.913
437.8584,385,3.914
440.769,385.5,3.912
443.6754,386,3.913
446.5746,386.5,3.913
449.4588,387,3.912
452.361,387.5,3.912
455.2662,388,3.913
458.1876,388.5,3.912
461.1234,389,3.912
464.0508,389.5,3.912
466.968,390,3.912
469.8636,390.5,3.912
472.7616,391,3.911
475.6668,391.5,3.909
478.5672,392,3.909
481.4712,392.5,3.909
484.3818,393,3.909
487.2876,393.5,3.91
490.1814,394,3.911
493.083,394.5,3.913
495.9678,395,3.913
498.8514,395.5,3.913
501.744,396,3.911
504.63,396.5,3.911
507.5106,397,3.913
510.3864,397.5,3.911
513.2658,398,3.911
516.141,398.5,3.911
519.024,399,3.913
521.9022,399.5,3.912
524.7786,400,3.911
527.6562,400.5,3.912
530.5332,401,3.912
533.4144,401.5,3.911
536.2884,402,3.91
539.1606,402.5,3.91
542.0334,403,3.911
544.9026,403.5,3.911
547.7586,404,3.911
550.6164,404.5,3.91
553.4802,405,3.91
556.3308,405.5,3.911
559.2024,406,3.911
562.0662,406.5,3.91
564.9354,407,3.91
567.8034,407.5,3.91
570.666,408,3.91
573.525,408.5,3.91
576.3822,409,3.911
579.2466,409.5,3.911
582.0936,410,3.91
584.9508,410.5,3.909
587.8224,411,3.908
590.6754,411.5,3.909
593.5392,412,3.911
596.3994,412.5,3.911
599.2578,413,3.911
602.1,413.5,3.911
604.9428,414,3.911
607.776,414.5,3.91
610.6242,415,3.911
613.4712,415.5,3.911
616.3164,416,3.91
619.1604,416.5,3.91
622.0122,417,3.911
624.8544,417.5,3.91
627.693,418,3.91
630.5412,418.5,3.91
633.372,419,3.91
636.2124,419.5,3.909
639.0522,420,3.909
641.8944,420.5,3.91
644.7486,421,3.909
647.6058,421.5,3.908
650.4498,422,3.908
653.295,422.5,3.909
656.1318,423,3.909
658.9668,423.5,3.909
661.7952,424,3.91
664.6272,424.5,3.908
667.4676,425,3.909
670.308,425.5,3.908
673.14,426,3.908
675.9684,426.5,3.91
678.7962,427,3.91
681.6342,427.5,3.908
684.456,428,3.908
687.2964,428.5,3.908
690.1452,429,3.908
692.9796,429.5,3.908
695.82,430,3.908
698.6544,430.5,3.907
701.4864,431,3.907
704.2974,431.5,3.908
707.1282,432,3.906
709.965,432.5,3.908
712.7988,433,3.908
715.626,433.5,3.908
718.4322,434,3.907
721.2558,434.5,3.907
724.0794,435,3.907
726.9204,435.5,3.908
729.7782,436,3.908
732.6162,436.5,3.908
735.4458,437,3.908
738.2712,437.5,3.907
741.0966,438,3.907
743.934,438.5,3.908
746.7696,439,3.908
749.6046,439.5,3.908
752.445,440,3.907
755.2854,440.5,3.907
758.127,441,3.907
760.965,441.5,3.907
763.803,442,3.906
766.6224,442.5,3.906
769.4376,443,3.907
772.2624,443.5,3.907
775.092,444,3.907
777.9288,444.5,3.907
780.768,445,3.907
783.6096,445.5,3.905
786.4434,446,3.905
789.267,446.5,3.905
792.0816,447,3.905
794.9016,447.5,3.905
797.7312,448,3.904
800.568,448.5,3.903
803.3964,449,3.903
806.2476,449.5,3.903
809.0772,450,3.903
811.9014,450.5,3.904
814.734,451,3.904
817.5672,451.5,3.904
820.4016,452,3.903
823.2336,452.5,3.902
826.0656,453,3.902
828.894,453.5,3.902
831.7206,454,3.902
834.5466,454.5,3.902
837.3762,455,3.902
840.207,455.5,3.9
843.0366,456,3.9
845.862,456.5,3.9
848.6754,457,3.9
851.5092,457.5,3.899
854.331,458,3.899
857.1408,458.5,3.899
859.9794,459,3.899
862.8102,459.5,3.899
865.6332,460,3.898
868.4778,460.5,3.898
871.3164,461,3.898
874.1448,461.5,3.896
876.978,462,3.896
879.8142,462.5,3.896
882.6342,463,3.896
885.4578,463.5,3.895
888.282,464,3.895
891.114,464.5,3.895
893.943,465,3.894
896.7726,465.5,3.894
899.598,466,3.894
902.418,466.5,3.894
905.2476,467,3.894
908.079,467.5,3.892
910.911,468,3.891
913.7394,468.5,3.891
916.572,469,3.891
919.3998,469.5,3.89
922.2084,470,3.889
925.035,470.5,3.889
927.8712,471,3.888
930.7032,471.5,3.888
933.5538,472,3.888
936.3972,472.5,3.888
939.2328,473,3.887
942.0534,473.5,3.887
944.8788,474,3.885
947.6964,474.5,3.884
950.5122,475,3.884
953.3346,475.5,3.883
956.1612,476,3.883
958.9926,476.5,3.883
961.8186,477,3.883
964.6452,477.5,3.882
967.4712,478,3.881
970.2894,478.5,3.88
973.1094,479,3.879
975.9354,479.5,3.879
978.765,480,3.878
981.5994,480.5,3.878
984.42,481,3.876
987.249,481.5,3.875
990.0858,482,3.875
992.9112,482.5,3.874
995.751,483,3.874
998.5824,483.5,3.871
1001.415,484,3.871
1004.24,484.5,3.871
1007.08,485,3.871
1009.92,485.5,3.869
1012.74,486,3.867
1015.569,486.5,3.867
1018.4,487,3.866
1021.23,487.5,3.866
1024.06,488,3.865
1026.87,488.5,3.864
1029.67,489,3.864
1032.49,489.5,3.863
1035.3,490,3.861
1038.12,490.5,3.86
1040.97,491,3.86
1043.81,491.5,3.859
1046.64,492,3.859
1049.47,492.5,3.857
1052.3,493,3.855
1055.13,493.5,3.855
1057.96,494,3.853
1060.79,494.5,3.853
1063.623,495,3.853
1066.46,495.5,3.851
1069.3,496,3.851
1072.13,496.5,3.85
1074.97,497,3.849
1077.8,497.5,3.847
1080.63,498,3.846
1083.45,498.5,3.845
1086.26,499,3.845
1089.1,499.5,3.843
1091.93,500,3.843
1094.76,500.5,3.842
1097.613,501,3.841
1100.45,501.5,3.84
1103.29,502,3.838
1106.12,502.5,3.838
1108.94,503,3.837
1111.77,503.5,3.835
1114.599,504,3.835
1117.43,504.5,3.834
1120.28,505,3.833
1123.122,505.5,3.831
1125.96,506,3.83
1128.79,506.5,3.83
1131.63,507,3.829
1134.465,507.5,3.828
1137.29,508,3.826
1140.135,508.5,3.825
1142.97,509,3.824
1145.81,509.5,3.823
1148.64,510,3.822
1151.478,510.5,3.822
1154.32,511,3.821
1157.16,511.5,3.819
1160.01,512,3.817
1162.85,512.5,3.815
1165.68,513,3.815
1168.52,513.5,3.813
1171.347,514,3.811
1174.17,514.5,3.81
1176.996,515,3.81
1179.825,515.5,3.809
1182.66,516,3.807
1185.5,516.5,3.805
1188.35,517,3.805
1191.19,517.5,3.804
1194.024,518,3.802
1196.856,518.5,3.801
1199.697,519,3.799
1202.526,519.5,3.797
1205.35,520,3.795
1208.193,520.5,3.794
1211.03,521,3.793
1213.87,521.5,3.791
1216.71,522,3.789
1219.56,522.5,3.788
1222.4,523,3.786
1225.24,523.5,3.784
1228.08,524,3.782
1230.927,524.5,3.78
1233.74,525,3.779
1236.59,525.5,3.778
1239.44,526,3.775
1242.276,526.5,3.773
1245.117,527,3.772
1247.967,527.5,3.769
1250.79,528,3.767
1253.619,528.5,3.765
1256.46,529,3.763
1259.31,529.5,3.76
1262.15,530,3.759
1265,530.5,3.757
1267.85,531,3.755
1270.69,531.5,3.753
1273.545,532,3.751
1276.4,532.5,3.748
1279.25,533,3.747
1282.086,533.5,3.744
1284.93,534,3.742
1287.76,534.5,3.739
1290.6,535,3.737
1293.45,535.5,3.735
1296.306,536,3.732
1299.16,536.5,3.73
1302.015,537,3.727
1304.86,537.5,3.725
1307.7,538,3.721
1310.55,538.5,3.719
1313.4,539,3.717
1316.24,539.5,3.715
1319.08,540,3.713
1321.93,540.5,3.71
1324.773,541,3.707
1327.61,541.5,3.704
1330.45,542,3.7
1333.31,542.5,3.697
1336.15,543,3.695
1339,543.5,3.691
1341.85,544,3.689
1344.7,544.5,3.687
1347.55,545,3.683
1350.4,545.5,3.68
1353.25,546,3.677
1356.09,546.5,3.674
1358.93,547,3.67
1361.78,547.5,3.668
1364.64,548,3.664
1367.49,548.5,3.661
1370.34,549,3.658
1373.2,549.5,3.654
1376.05,550,3.65
1378.896,550.5,3.647
1381.75,551,3.643
1384.6,551.5,3.64
1387.45,552,3.635
1390.3,552.5,3.632
1393.16,553,3.629
1396.01,553.5,3.625
1398.86,554,3.621
1401.72,554.5,3.617
1404.57,555,3.612
1407.43,555.5,3.61
1410.288,556,3.607
1413.15,556.5,3.603
1416,557,3.597
1418.86,557.5,3.593
1421.72,558,3.589
1424.58,558.5,3.583
1427.44,559,3.58
1430.28,559.5,3.575
1433.14,560,3.569
1435.97,560.5,3.566
1438.83,561,3.562
1441.692,561.5,3.557
1444.57,562,3.552
1447.43,562.5,3.548
1450.3,563,3.543
1453.15,563.5,3.539
1456.01,564,3.532
1458.89,564.5,3.529
1461.75,565,3.524
1464.618,565.5,3.518
1467.48,566,3.513
1470.33,566.5,3.507
1473.18,567,3.502
1476.03,567.5,3.496
1478.9,568,3.491
1481.76,568.5,3.485
1484.64,569,3.481
1487.52,569.5,3.476
1490.38,570,3.47
1493.24,570.5,3.463
1496.11,571,3.457
1498.97,571.5,3.45
1501.836,572,3.445
1504.692,572.5,3.439
1507.55,573,3.433
1510.416,573.5,3.426
1513.275,574,3.42
1516.14,574.5,3.413
1519,575,3.407
1521.867,575.5,3.401
1524.735,576,3.394
1527.6,576.5,3.389
1530.48,577,3.38
1533.35,577.5,3.373
1536.21,578,3.366
1539.06,578.5,3.36
1541.928,579,3.352
1544.79,579.5,3.345
1547.66,580,3.338
1550.52,580.5,3.33
1553.385,581,3.324
1556.24,581.5,3.316
1559.1,582,3.307
1561.96,582.5,3.299
1564.82,583,3.29
1567.69,583.5,3.282
1570.557,584,3.273
1573.44,584.5,3.264
1576.31,585,3.256
1579.18,585.5,3.249
1582.04,586,3.241
1584.9,586.5,3.232
1587.76,587,3.224
1590.633,587.5,3.215
1593.5,588,3.205
1596.37,588.5,3.196
1599.246,589,3.187
1602.11,589.5,3.177
1604.97,590,3.169
1607.847,590.5,3.159
1610.712,591,3.15
1613.58,591.5,3.141
1616.45,592,3.131
1619.32,592.5,3.122
1622.184,593,3.111
1625.06,593.5,3.101
1627.93,594,3.09
1630.8,594.5,3.081
1633.67,595,3.071
1636.54,595.5,3.06
1639.41,596,3.05
1642.28,596.5,3.039
1645.17,597,3.029
1648.06,597.5,3.018
1650.942,598,3.008
1653.83,598.5,2.997
1656.702,599,2.986
1659.58,599.5,2.972
1662.45,600,2.961
1665.33,600.5,2.949
1668.21,601,2.938
1671.09,601.5,2.928
1673.97,602,2.916
1676.84,602.5,2.904
1679.73,603,2.893
1682.62,603.5,2.881
1685.526,604,2.869
1688.418,604.5,2.858
1691.3,605,2.846
1694.19,605.5,2.834
1697.07,606,2.822
1699.96,606.5,2.81
1702.848,607,2.799
1705.737,607.5,2.785
1708.62,608,2.772
1711.51,608.5,2.761
1714.4,609,2.749
1717.29,609.5,2.736
1720.18,610,2.722
1723.07,610.5,2.71
1725.96,611,2.698
1728.85,611.5,2.686
1731.74,612,2.672
1734.63,612.5,2.659
1737.51,613,2.645
1740.38,613.5,2.633
1743.26,614,2.62
1746.14,614.5,2.607
1749.03,615,2.593
1751.95,615.5,2.578
1754.84,616,2.566
1757.73,616.5,2.553
1760.62,617,2.539
1763.51,617.5,2.525
1766.41,618,2.512
1769.29,618.5,2.499
1772.18,619,2.485
1775.07,619.5,2.472
1777.95,620,2.458
1780.84,620.5,2.444
1783.74,621,2.429
1786.62,621.5,2.416
1789.51,622,2.401
1792.4,622.5,2.385
1795.31,623,2.372
1798.209,623.5,2.358
1801.11,624,2.343
1804.014,624.5,2.328
1806.92,625,2.312
1809.819,625.5,2.296
1812.72,626,2.282
1815.615,626.5,2.266
1818.51,627,2.25
1821.39,627.5,2.234
1824.28,628,2.217
1827.2,628.5,2.202
1830.09,629,2.187
1833.01,629.5,2.17
1835.94,630,2.154
1838.847,630.5,2.138
1841.775,631,2.123
1844.7,631.5,2.105
1847.61,632,2.086
1850.52,632.5,2.07
1853.43,633,2.053
1856.346,633.5,2.036
1859.259,634,2.018
1862.175,634.5,2
1865.1,635,1.983
1868.01,635.5,1.965
1870.93,636,1.946
1873.86,636.5,1.928
1876.77,637,1.911
1879.68,637.5,1.893
1882.6,638,1.873
1885.52,638.5,1.853
1888.43,639,1.834
1891.34,639.5,1.815
1894.248,640,1.796
1897.15,640.5,1.776
1900.06,641,1.756
1902.97,641.5,1.737
1905.87,642,1.719
1908.76,642.5,1.699
1911.65,643,1.678
1914.546,643.5,1.659
1917.43,644,1.641
1920.32,644.5,1.623
1923.24,645,1.603
1926.12,645.5,1.585
1929.01,646,1.565
1931.883,646.5,1.545
1934.76,647,1.528
1937.63,647.5,1.511
1940.5,648,1.493
1943.39,648.5,1.475
1946.26,649,1.456
1949.14,649.5,1.439
1952,650,1.422
1954.86,650.5,1.406
1957.716,651,1.39
1960.563,651.5,1.375
1963.416,652,1.361
1966.28,652.5,1.346
1969.13,653,1.331
1971.99,653.5,1.318
1974.837,654,1.304
1977.69,654.5,1.292
1980.54,655,1.28
1983.387,655.5,1.269
1986.237,656,1.258
1989.09,656.5,1.248
1991.94,657,1.239
1994.787,657.5,1.228
1997.616,658,1.22
2000.47,658.5,1.212
2003.32,659,1.205
2006.169,659.5,1.2
2009.03,660,1.193
2011.91,660.5,1.187
2014.77,661,1.182
2017.644,661.5,1.177
2020.51,662,1.172
2023.38,662.5,1.168
2026.25,663,1.163
2029.12,663.5,1.159
2032,664,1.155
2034.87,664.5,1.153
2037.77,665,1.151
2040.66,665.5,1.148
2043.56,666,1.146
2046.47,666.5,1.144
2049.37,667,1.141
2052.28,667.5,1.139
2055.19,668,1.136
2058.09,668.5,1.135
2060.98,669,1.132
2063.88,669.5,1.13
2066.79,670,1.13
2069.71,670.5,1.129
2072.637,671,1.127
2075.57,671.5,1.125
2078.49,672,1.123
2081.42,672.5,1.122
2084.33,673,1.12
2087.25,673.5,1.116
2090.17,674,1.115
2093.082,674.5,1.115
2096,675,1.114
2098.93,675.5,1.111
2101.854,676,1.108
2104.77,676.5,1.107
2107.7,677,1.106
2110.62,677.5,1.106
2113.52,678,1.105
2116.434,678.5,1.103
2119.362,679,1.102
2122.27,679.5,1.101
2125.2,680,1.099
2128.14,680.5,1.097
2131.07,681,1.095
2134,681.5,1.094
2136.94,682,1.092
2139.86,682.5,1.091
2142.77,683,1.09
2145.687,683.5,1.088
2148.6,684,1.087
2151.5,684.5,1.085
2154.42,685,1.083
2157.34,685.5,1.082
2160.27,686,1.08
2163.19,686.5,1.079
2166.108,687,1.078
2169.03,687.5,1.077
2171.95,688,1.075
2174.87,688.5,1.074
2177.79,689,1.072
2180.7,689.5,1.071
2183.63,690,1.069
2186.56,690.5,1.068
2189.48,691,1.067
2192.43,691.5,1.067
2195.35,692,1.065
2198.28,692.5,1.063
2201.21,693,1.061
2204.13,693.5,1.061
2207.064,694,1.059
2210,694.5,1.058
2212.93,695,1.056
2215.86,695.5,1.055
2218.8,696,1.054
2221.73,696.5,1.051
2224.66,697,1.05
2227.59,697.5,1.048
2230.52,698,1.047
2233.452,698.5,1.046
2236.395,699,1.044
2239.3,699.5,1.043
2242.22,700,1.042
2245.16,700.5,1.041
2248.09,701,1.039
2251.05,701.5,1.038
2254.01,702,1.036
2256.945,702.5,1.036
2259.882,703,1.035
2262.81,703.5,1.033
2265.75,704,1.031
2268.69,704.5,1.03
2271.633,705,1.028
2274.57,705.5,1.027
2277.51,706,1.026
2280.444,706.5,1.025
2283.381,707,1.022
2286.315,707.5,1.021
2289.25,708,1.021
2292.19,708.5,1.02
2295.12,709,1.018
2298.06,709.5,1.016
2300.99,710,1.015
2303.93,710.5,1.014
2306.86,711,1.012
2309.78,711.5,1.011
2312.724,712,1.009
2315.66,712.5,1.008
2318.61,713,1.007
2321.57,713.5,1.007
2324.52,714,1.006
2327.47,714.5,1.003
2330.41,715,1.003
2333.36,715.5,1.001
2336.31,716,1
2339.244,716.5,0.999
2342.18,717,0.997
2345.121,717.5,0.996
2348.06,718,0.996
2351,718.5,0.995
2353.95,719,0.994
2356.88,719.5,0.993
2359.83,720,0.991
2362.77,720.5,0.99
2365.72,721,0.989
2368.67,721.5,0.988
2371.617,722,0.987
2374.55,722.5,0.985
2377.5,723,0.984
2380.44,723.5,0.983
2383.39,724,0.981
2386.34,724.5,0.981
2389.3,725,0.979
2392.24,725.5,0.978
2395.19,726,0.978
2398.14,726.5,0.976
2401.1,727,0.976
2404.059,727.5,0.975
2407.01,728,0.974
2409.95,728.5,0.972
2412.897,729,0.972
2415.843,729.5,0.972
2418.8,730,0.971
2421.75,730.5,0.97
2424.69,731,0.968
2427.63,731.5,0.967
2430.59,732,0.966
2433.55,732.5,0.964
2436.51,733,0.964
2439.46,733.5,0.963
2442.408,734,0.963
2445.35,734.5,0.963
2448.32,735,0.962
2451.28,735.5,0.959
2454.25,736,0.958
2457.21,736.5,0.956
2460.16,737,0.956
2463.111,737.5,0.955
2466.06,738,0.954
2469.02,738.5,0.954
2471.97,739,0.952
2474.92,739.5,0.952
2477.88,740,0.951
2480.84,740.5,0.951
2483.8,741,0.95
2486.75,741.5,0.949
2489.7,742,0.947
2492.64,742.5,0.947
2495.592,743,0.946
2498.54,743.5,0.946
2501.49,744,0.946
2504.45,744.5,0.943
2507.4,745,0.943
2510.37,745.5,0.942
2513.33,746,0.942
2516.29,746.5,0.94
2519.24,747,0.939
2522.184,747.5,0.939
2525.13,748,0.938
2528.07,748.5,0.938
2531.02,749,0.937
2533.977,749.5,0.937
2536.926,750,0.936
2539.89,750.5,0.936
2542.86,751,0.935
2545.82,751.5,0.934
2548.79,752,0.933
2551.75,752.5,0.932
2554.698,753,0.931
2557.65,753.5,0.93
2560.61,754,0.929
2563.56,754.5,0.929
2566.5,755,0.929
2569.46,755.5,0.928
2572.42,756,0.928
2575.377,756.5,0.927
2578.36,757,0.927
2581.33,757.5,0.926
2584.29,758,0.925
2587.242,758.5,0.924
2590.2,759,0.924
2593.15,759.5,0.923
2596.11,760,0.923
2599.077,760.5,0.922
2602.03,761,0.921
2604.99,761.5,0.92
2607.96,762,0.919
2610.921,762.5,0.919
2613.888,763,0.919
2616.85,763.5,0.918
2619.81,764,0.918
2622.78,764.5,0.917
2625.744,765,0.917
2628.72,765.5,0.917
2631.69,766,0.917
2634.65,766.5,0.915
2637.62,767,0.915
2640.58,767.5,0.915
2643.543,768,0.914
2646.5,768.5,0.913
2649.45,769,0.912
2652.42,769.5,0.912
2655.38,770,0.911
2658.34,770.5,0.911
2661.32,771,0.911
2664.29,771.5,0.909
2667.264,772,0.909
2670.24,772.5,0.907
2673.21,773,0.907
2676.183,773.5,0.906
2679.156,774,0.906
2682.129,774.5,0.905
2685.11,775,0.905
2688.08,775.5,0.903
2691.06,776,0.903
2694.03,776.5,0.902
2697,777,0.903
2699.98,777.5,0.902
2702.95,778,0.901
2705.916,778.5,0.901
2708.89,779,0.899
2711.841,779.5,0.899
2714.805,780,0.898
2717.775,780.5,0.898
2720.74,781,0.898
2723.74,781.5,0.898
2726.7,782,0.897
2729.67,782.5,0.897
2732.64,783,0.896
2735.586,783.5,0.897
2738.56,784,0.895
2741.53,784.5,0.895
2744.499,785,0.895
2747.49,785.5,0.895
2750.463,786,0.894
2753.44,786.5,0.894
2756.42,787,0.893
2759.41,787.5,0.892
2762.382,788,0.891
2765.35,788.5,0.891
2768.32,789,0.891
2771.29,789.5,0.889
2774.259,790,0.89
2777.23,790.5,0.888
2780.211,791,0.888
2783.172,791.5,0.888
2786.136,792,0.887
2789.106,792.5,0.887
2792.08,793,0.886
2795.064,793.5,0.886
2798.05,794,0.884
2801.02,794.5,0.884
2804,795,0.884
2806.97,795.5,0.883
2809.93,796,0.882
2812.9,796.5,0.882
2815.88,797,0.882
2818.87,797.5,0.882
2821.87,798,0.881
2824.85,798.5,0.881
2827.81,799,0.881
2830.78,799.5,0.881
2833.75,800,0.88
2836.72,800.5,0.879
2839.71,801,0.878
2842.72,801.5,0.877
2845.69,802,0.878
2848.677,802.5,0.878
2851.656,803,0.877
2854.64,803.5,0.877
2857.62,804,0.874
2860.617,804.5,0.874
2863.6,805,0.874
2866.58,805.5,0.874
2869.57,806,0.874
2872.536,806.5,0.872
2875.503,807,0.872
2878.48,807.5,0.872
2881.45,808,0.873
2884.43,808.5,0.872
2887.43,809,0.872
2890.41,809.5,0.87
2893.377,810,0.87
2896.35,810.5,0.87
2899.332,811,0.869
2902.32,811.5,0.869
2905.31,812,0.869
2908.3,812.5,0.869
2911.28,813,0.869
2914.26,813.5,0.869
2917.24,814,0.87
2920.22,814.5,0.868
2923.2,815,0.867
2926.18,815.5,0.866
2929.17,816,0.867
2932.16,816.5,0.866
2935.14,817,0.863
2938.128,817.5,0.863
2941.13,818,0.863
2944.12,818.5,0.863
2947.116,819,0.863
2950.11,819.5,0.862
2953.1,820,0.862
2956.086,820.5,0.862
2959.071,821,0.862
2962.07,821.5,0.862
2965.06,822,0.86
2968.05,822.5,0.859
2971.03,823,0.859
2974.01,823.5,0.859
2976.99,824,0.858
2979.98,824.5,0.856
2982.96,825,0.856
2985.94,825.5,0.856
2988.9,826,0.857
2991.885,826.5,0.857
2994.87,827,0.856
2997.86,827.5,0.856
3000.87,828,0.855
3003.86,828.5,0.855
3006.86,829,0.854
3009.85,829.5,0.854
3012.846,830,0.854
3015.83,830.5,0.854
3018.81,831,0.852
3021.8,831.5,0.852
3024.8,832,0.852
3027.792,832.5,0.852
3030.786,833,0.851
3033.76,833.5,0.851
3036.74,834,0.85
3039.73,834.5,0.85
3042.72,835,0.85
3045.73,835.5,0.85
3048.72,836,0.848
3051.72,836.5,0.848
3054.73,837,0.849
3057.72,837.5,0.848
3060.72,838,0.848
3063.72,838.5,0.847
3066.71,839,0.846
3069.7,839.5,0.846
3072.66,840,0.845
3075.67,840.5,0.845
3078.67,841,0.845
3081.66,841.5,0.845
3084.675,842,0.845
3087.67,842.5,0.844
3090.67,843,0.844
3093.67,843.5,0.843
3096.67,844,0.843
3099.66,844.5,0.843
3102.66,845,0.843
3105.67,845.5,0.842
3108.67,846,0.842
3111.68,846.5,0.842
3114.67,847,0.841
3117.669,847.5,0.841
3120.66,848,0.84
3123.666,848.5,0.839
3126.669,849,0.839
3129.67,849.5,0.839
3132.672,850,0.838
3135.66,850.5,0.838
3138.65,851,0.838
3141.64,851.5,0.837
3144.63,852,0.837
3147.64,852.5,0.837
3150.64,853,0.837
3153.64,853.5,0.835
3156.64,854,0.835
3159.64,854.5,0.835
3162.64,855,0.835
3165.633,855.5,0.834
3168.64,856,0.834
3171.65,856.5,0.834
3174.64,857,0.833
3177.65,857.5,0.833
3180.651,858,0.833
3183.65,858.5,0.833
3186.663,859,0.833
3189.66,859.5,0.831
3192.666,860,0.831
3195.669,860.5,0.831
3198.67,861,0.83
3201.67,861.5,0.828
3204.67,862,0.829
3207.66,862.5,0.83
3210.657,863,0.83
3213.657,863.5,0.83
3216.66,864,0.83
3219.66,864.5,0.829
3222.65,865,0.829
3225.65,865.5,0.827
3228.63,866,0.827
3231.63,866.5,0.827
3234.62,867,0.827
3237.62,867.5,0.827
3240.63,868,0.826
3243.62,868.5,0.827
3246.64,869,0.826
3249.64,869.5,0.826
3252.64,870,0.826
3255.63,870.5,0.825
3258.64,871,0.825
3261.65,871.5,0.825
3264.64,872,0.825
3267.66,872.5,0.824
3270.66,873,0.824
3273.65,873.5,0.823
3276.65,874,0.823
3279.65,874.5,0.822
3282.66,875,0.821
3285.67,875.5,0.821
3288.68,876,0.82
3291.69,876.5,0.819
3294.69,877,0.819
3297.67,877.5,0.818
3300.67,878,0.818
3303.68,878.5,0.819
3306.7,879,0.819
3309.72,879.5,0.818
3312.73,880,0.818
3315.74,880.5,0.818
3318.753,881,0.817
3321.76,881.5,0.816
3324.771,882,0.816
3327.78,882.5,0.816
3330.78,883,0.816
3333.78,883.5,0.815
3336.79,884,0.816
3339.79,884.5,0.816
3342.8,885,0.815
3345.807,885.5,0.815
3348.81,886,0.814
3351.82,886.5,0.815
3354.82,887,0.814
3357.83,887.5,0.814
3360.84,888,0.814
3363.84,888.5,0.813
3366.84,889,0.811
3369.83,889.5,0.812
3372.83,890,0.811
3375.83,890.5,0.811
3378.828,891,0.811
3381.828,891.5,0.811
3384.83,892,0.81
3387.82,892.5,0.81
3390.82,893,0.81
3393.831,893.5,0.81
3396.83,894,0.81
3399.84,894.5,0.809
3402.84,895,0.809
3405.84,895.5,0.808
3408.84,896,0.808
3411.84,896.5,0.808
3414.83,897,0.809
3417.82,897.5,0.809
3420.82,898,0.808
3423.83,898.5,0.806
3426.85,899,0.806
3429.86,899.5,0.806
3432.87,900,0.806
3435.87,900.5,0.806
3438.87,901,0.806
3441.86,901.5,0.806
3444.87,902,0.806
3447.87,902.5,0.807
3450.88,903,0.806
3453.88,903.5,0.805
3456.89,904,0.804
3459.9,904.5,0.804
3462.9,905,0.805
3465.906,905.5,0.805
3468.91,906,0.805
3471.92,906.5,0.803
3474.94,907,0.803
3477.94,907.5,0.802
3480.94,908,0.802
3483.95,908.5,0.802
3486.96,909,0.802
3489.98,909.5,0.802
3493,910,0.801
3496.01,910.5,0.801
3499.02,911,0.801
3502.03,911.5,0.8
3505.04,912,0.8
3508.05,912.5,0.799
3511.05,913,0.798
3514.06,913.5,0.798
3517.07,914,0.8
3520.08,914.5,0.8
3523.08,915,0.8
3526.09,915.5,0.798
3529.1,916,0.798
3532.11,916.5,0.798
3535.113,917,0.798
3538.13,917.5,0.799
3541.13,918,0.798
3544.16,918.5,0.798
3547.16,919,0.798
3550.16,919.5,0.797
3553.19,920,0.797
3556.21,920.5,0.797
3559.25,921,0.795
3562.302,921.5,0.795
3565.32,922,0.796
3568.35,922.5,0.796
3571.38,923,0.796
3574.39,923.5,0.796
3577.41,924,0.794
3580.43,924.5,0.794
3583.46,925,0.794
3586.49,925.5,0.793
3589.53,926,0.793
3592.55,926.5,0.793
3595.58,927,0.793
3598.61,927.5,0.792
3601.63,928,0.792
3604.67,928.5,0.792
3607.7,929,0.793
3610.73,929.5,0.793
3613.76,930,0.793
3616.78,930.5,0.792
3619.8,931,0.792
3622.84,931.5,0.792
3625.86,932,0.792
3628.89,932.5,0.792
3631.92,933,0.791
3634.94,933.5,0.79
3637.96,934,0.79
3640.98,934.5,0.79
3644.01,935,0.789
3647.034,935.5,0.789
3650.06,936,0.788
3653.08,936.5,0.788
3656.11,937,0.788
3659.12,937.5,0.789
3662.14,938,0.787
3665.16,938.5,0.785
3668.18,939,0.788
3671.2,939.5,0.789
3674.22,940,0.789
3677.24,940.5,0.789
3680.26,941,0.787
3683.29,941.5,0.787
3686.31,942,0.785
3689.33,942.5,0.786
3692.35,943,0.786
3695.37,943.5,0.787
3698.39,944,0.787
3701.403,944.5,0.787
3704.41,945,0.787
3707.43,945.5,0.784
3710.45,946,0.785
3713.47,946.5,0.785
3716.51,947,0.786
3719.54,947.5,0.787
3722.57,948,0.787
3725.61,948.5,0.784
3728.63,949,0.784
3731.67,949.5,0.784
3734.7,950,0.784
3737.72,950.5,0.784
3740.76,951,0.784
3743.78,951.5,0.783
3746.8,952,0.781
3749.84,952.5,0.781
3752.87,953,0.781
3755.89,953.5,0.782
3758.928,954,0.782
3761.96,954.5,0.782
3765,955,0.782
3768.04,955.5,0.782
3771.08,956,0.781
3774.11,956.5,0.781
3777.126,957,0.781
3780.15,957.5,0.782
3783.18,958,0.782
3786.21,958.5,0.782
3789.25,959,0.781
3792.29,959.5,0.781
3795.33,960,0.781
3798.36,960.5,0.78
3801.38,961,0.78
3804.41,961.5,0.778
3807.44,962,0.778
3810.471,962.5,0.779
3813.51,963,0.779
3816.54,963.5,0.778
3819.58,964,0.779
3822.61,964.5,0.779
3825.65,965,0.779
3828.69,965.5,0.778
3831.72,966,0.778
3834.77,966.5,0.778
3837.807,967,0.776
3840.85,967.5,0.774
3843.9,968,0.775
3846.94,968.5,0.778
3849.98,969,0.777
3853.01,969.5,0.777
3856.04,970,0.777
3859.06,970.5,0.777
3862.09,971,0.777
3865.12,971.5,0.775
3868.149,972,0.775
3871.18,972.5,0.775
3874.206,973,0.775
3877.23,973.5,0.776
3880.27,974,0.776
3883.3,974.5,0.775
3886.33,975,0.775
3889.37,975.5,0.775
3892.4,976,0.775
3895.44,976.5,0.775
3898.47,977,0.774
3901.506,977.5,0.774
3904.53,978,0.774
3907.56,978.5,0.774
3910.58,979,0.773
3913.61,979.5,0.773
3916.65,980,0.774
3919.68,980.5,0.774
3922.7,981,0.774
3925.73,981.5,0.774
3928.74,982,0.772
3931.77,982.5,0.771
3934.81,983,0.771
3937.84,983.5,0.771
3940.88,984,0.771
3943.91,984.5,0.771
3946.94,985,0.771
3949.96,985.5,0.771
3952.99,986,0.771
3956.02,986.5,0.771
3959.04,987,0.771
3962.06,987.5,0.771
3965.11,988,0.77
3968.14,988.5,0.77
3971.2,989,0.771
3974.268,989.5,0.771
3977.319,990,0.771
3980.37,990.5,0.771
3983.42,991,0.77
3986.48,991.5,0.77
3989.52,992,0.77
3992.57,992.5,0.77
3995.613,993,0.77
3998.66,993.5,0.769
4001.7,994,0.77
4004.74,994.5,0.77
4007.79,995,0.77
4010.83,995.5,0.77
4013.86,996,0.769
4016.89,996.5,0.769
4019.92,997,0.769
4022.943,997.5,0.768
4025.98,998,0.768
4029.03,998.5,0.766
4032.087,999,0.766
4035.13,999.5,0.767
4038.17,1000,0.767
4041.21,1000.5,0.767
4044.25,1001,0.767
4047.3,1001.5,0.767
4050.333,1002,0.767
4053.38,1002.5,0.768
4056.42,1003,0.768
4059.45,1003.5,0.767
4062.51,1004,0.766
4065.555,1004.5,0.766
4068.6,1005,0.766
4071.66,1005.5,0.765
4074.7,1006,0.765
4077.75,1006.5,0.766
4080.79,1007,0.766
4083.83,1007.5,0.766
4086.87,1008,0.766
4089.909,1008.5,0.766
4092.945,1009,0.766
4095.984,1009.5,0.765
4099.02,1010,0.765
4102.06,1010.5,0.765
4105.1,1011,0.765
4108.14,1011.5,0.763
4111.18,1012,0.763
4114.23,1012.5,0.763
4117.28,1013,0.763
4120.31,1013.5,0.763
4123.35,1014,0.763
4126.39,1014.5,0.763
4129.43,1015,0.763
4132.49,1015.5,0.763
4135.53,1016,0.765
4138.581,1016.5,0.765
4141.62,1017,0.765
4144.668,1017.5,0.763
4147.71,1018,0.762
4150.74,1018.5,0.762
4153.78,1019,0.763
4156.81,1019.5,0.763
4159.84,1020,0.763
4162.87,1020.5,0.762
4165.902,1021,0.762
4168.93,1021.5,0.761
4171.968,1022,0.761
4174.99,1022.5,0.761
4178.01,1023,0.761
4181.05,1023.5,0.76
4184.09,1024,0.76
4187.14,1024.5,0.761
4190.19,1025,0.76
4193.232,1025.5,0.759
4196.27,1026,0.759
4199.3,1026.5,0.76
4202.331,1027,0.76
4205.373,1027.5,0.759
4208.403,1028,0.759
4211.448,1028.5,0.759
4214.49,1029,0.76
4217.52,1029.5,0.76
4220.56,1030,0.759
4223.592,1030.5,0.758
4226.63,1031,0.759
4229.68,1031.5,0.759
4232.727,1032,0.758
4235.77,1032.5,0.756
4238.8,1033,0.758
4241.83,1033.5,0.758
4244.87,1034,0.759
4247.9,1034.5,0.759
4250.94,1035,0.76
4253.98,1035.5,0.76
4257.03,1036,0.76
4260.087,1036.5,0.759
4263.14,1037,0.759
4266.19,1037.5,0.758
4269.24,1038,0.758
4272.291,1038.5,0.759
4275.35,1039,0.759
4278.4,1039.5,0.757
4281.46,1040,0.757
4284.52,1040.5,0.756
4287.56,1041,0.756
4290.63,1041.5,0.756
4293.69,1042,0.756
4296.75,1042.5,0.756
4299.83,1043,0.756
4302.89,1043.5,0.756
4305.96,1044,0.756
4309.04,1044.5,0.755
4312.107,1045,0.755
4315.17,1045.5,0.755
4318.23,1046,0.756
4321.29,1046.5,0.756
4324.35,1047,0.755
4327.4,1047.5,0.755
4330.44,1048,0.756
4333.5,1048.5,0.756
4336.551,1049,0.755
4339.61,1049.5,0.755
4342.68,1050,0.755
4345.73,1050.5,0.756
4348.8,1051,0.756
4351.87,1051.5,0.754
4354.94,1052,0.754
4358.01,1052.5,0.754
4361.067,1053,0.754
4364.12,1053.5,0.753
4367.17,1054,0.753
4370.229,1054.5,0.753
4373.28,1055,0.753
4376.34,1055.5,0.754
4379.4,1056,0.752
4382.45,1056.5,0.752
4385.517,1057,0.752
4388.59,1057.5,0.753
4391.65,1058,0.753
4394.73,1058.5,0.753
4397.8,1059,0.752
4400.87,1059.5,0.752
4403.94,1060,0.752
4407.01,1060.5,0.752
4410.069,1061,0.752
4413.123,1061.5,0.752
4416.17,1062,0.75
4419.23,1062.5,0.752
4422.27,1063,0.752
4425.32,1063.5,0.752
4428.363,1064,0.752
4431.41,1064.5,0.752
4434.46,1065,0.752
4437.519,1065.5,0.751
4440.58,1066,0.751
4443.63,1066.5,0.751
4446.684,1067,0.751
4449.72,1067.5,0.751
4452.78,1068,0.751
4455.84,1068.5,0.75
4458.9,1069,0.749
4461.96,1069.5,0.75