File: Wood/Calibration_Data/FSRI/FSRI_Wood_STA_N2_10K_R2.csv
Time (s),Temperature (K),Mass (mg),Heat Flow Rate (W/g)
0.0,324.5,3.9476,0.0116
18.3064,325.0,3.9505,0.0342
28.7842,325.5,3.949,0.052
37.1085,326.0,3.946,0.0657
44.3825,326.5,3.9474,0.0784
50.7131,327.0,3.9477,0.0886
56.5742,327.5,3.9473,0.0988
62.0575,328.0,3.9473,0.1088
67.1949,328.5,3.9492,0.1146
72.1219,329.0,3.9468,0.1211
76.8838,329.5,3.9488,0.1273
81.4697,330.0,3.9496,0.1329
85.9461,330.5,3.9478,0.138
90.3043,331.0,3.9477,0.1431
94.5951,331.5,3.9484,0.1474
98.776,332.0,3.9474,0.1517
102.876,332.5,3.9469,0.1545
106.908,333.0,3.9487,0.1569
110.901,333.5,3.9475,0.1619
114.839,334.0,3.9464,0.1655
118.75,334.5,3.9465,0.1679
122.588,335.0,3.9459,0.1713
126.391,335.5,3.9453,0.1724
130.135,336.0,3.9459,0.1768
133.872,336.5,3.9456,0.178
137.588,337.0,3.9431,0.1806
141.284,337.5,3.9427,0.1814
144.94,338.0,3.9434,0.1848
148.561,338.5,3.944,0.1866
152.172,339.0,3.9442,0.1913
155.742,339.5,3.9442,0.1915
159.322,340.0,3.9453,0.1939
162.859,340.5,3.9446,0.195
166.415,341.0,3.9441,0.1956
169.909,341.5,3.9439,0.2
173.36,342.0,3.9435,0.202
176.817,342.5,3.9429,0.2036
180.279,343.0,3.9431,0.2059
183.717,343.5,3.9418,0.2072
187.151,344.0,3.9426,0.2079
190.544,344.5,3.9426,0.2104
193.937,345.0,3.9423,0.2153
197.32,345.5,3.9426,0.2164
200.685,346.0,3.942,0.2178
204.052,346.5,3.9425,0.2199
207.385,347.0,3.9428,0.2224
210.68,347.5,3.9425,0.2242
213.958,348.0,3.9425,0.2264
217.267,348.5,3.9416,0.2269
220.56,349.0,3.9411,0.2283
223.886,349.5,3.9425,0.2317
227.18,350.0,3.9425,0.2323
230.459,350.5,3.9437,0.2306
233.721,351.0,3.9436,0.2335
236.966,351.5,3.9425,0.2358
240.202,352.0,3.9425,0.2391
243.417,352.5,3.9415,0.2396
246.629,353.0,3.9412,0.2399
249.836,353.5,3.9395,0.241
253.016,354.0,3.9397,0.2438
256.197,354.5,3.9402,0.2447
259.358,355.0,3.9387,0.245
262.516,355.5,3.9384,0.2452
265.672,356.0,3.9392,0.2462
268.817,356.5,3.9391,0.2481
271.969,357.0,3.9384,0.2496
275.109,357.5,3.9382,0.2496
278.246,358.0,3.9381,0.2497
281.367,358.5,3.9371,0.2498
284.478,359.0,3.9381,0.2527
287.577,359.5,3.9369,0.253
290.666,360.0,3.9367,0.2522
293.747,360.5,3.9369,0.2524
296.82,361.0,3.9358,0.2529
299.891,361.5,3.9358,0.2539
302.957,362.0,3.9358,0.2526
306.008,362.5,3.9368,0.2532
309.059,363.0,3.9367,0.2537
312.094,363.5,3.9357,0.2522
315.123,364.0,3.9358,0.2548
318.158,364.5,3.9358,0.2553
321.188,365.0,3.9359,0.2566
324.209,365.5,3.9371,0.2562
327.228,366.0,3.9363,0.2533
330.232,366.5,3.936,0.2552
333.24,367.0,3.9358,0.2544
336.25,367.5,3.9345,0.2547
339.253,368.0,3.9345,0.2544
342.253,368.5,3.9354,0.2538
345.244,369.0,3.9357,0.2548
348.225,369.5,3.9357,0.254
351.189,370.0,3.9358,0.2533
354.165,370.5,3.9358,0.2524
357.131,371.0,3.9344,0.2531
360.085,371.5,3.9354,0.2509
363.045,372.0,3.9345,0.25
365.989,372.5,3.9339,0.2512
368.94,373.0,3.9348,0.2505
371.898,373.5,3.9344,0.2491
374.845,374.0,3.9344,0.2483
377.8,374.5,3.933,0.2498
380.741,375.0,3.9328,0.2483
383.678,375.5,3.9321,0.2485
386.618,376.0,3.9318,0.2475
389.563,376.5,3.9308,0.2481
392.503,377.0,3.9308,0.2461
395.438,377.5,3.9321,0.2456
398.364,378.0,3.9318,0.2452
401.298,378.5,3.9318,0.2453
404.219,379.0,3.9306,0.2458
407.138,379.5,3.931,0.246
410.064,380.0,3.9318,0.2458
412.963,380.5,3.9318,0.2446
415.879,381.0,3.9318,0.2428
418.794,381.5,3.9305,0.2435
421.702,382.0,3.9318,0.2436
424.623,382.5,3.9318,0.2415
427.545,383.0,3.9305,0.2429
430.456,383.5,3.9305,0.2428
433.37,384.0,3.9305,0.2426
436.298,384.5,3.9301,0.2429
439.204,385.0,3.9309,0.2435
442.109,385.5,3.9305,0.2423
445.027,386.0,3.9294,0.2419
447.941,386.5,3.9305,0.241
450.849,387.0,3.9305,0.2412
453.747,387.5,3.9305,0.2406
456.651,388.0,3.9305,0.2419
459.551,388.5,3.9305,0.2425
462.447,389.0,3.9318,0.2415
465.348,389.5,3.9318,0.2433
468.239,390.0,3.9318,0.2416
471.128,390.5,3.9305,0.2416
474.018,391.0,3.9292,0.2429
476.92,391.5,3.9278,0.2426
479.827,392.0,3.9279,0.2417
482.73,392.5,3.9279,0.242
485.631,393.0,3.929,0.2422
488.524,393.5,3.9294,0.244
491.414,394.0,3.9298,0.2444
494.303,394.5,3.9292,0.2443
497.202,395.0,3.9292,0.2444
500.095,395.5,3.9292,0.2442
502.99,396.0,3.9278,0.2443
505.875,396.5,3.9291,0.2451
508.751,397.0,3.9279,0.2454
511.63,397.5,3.9279,0.2452
514.507,398.0,3.9292,0.2444
517.371,398.5,3.93,0.2459
520.223,399.0,3.9292,0.2469
523.094,399.5,3.9292,0.2461
525.974,400.0,3.9292,0.2444
528.842,400.5,3.9278,0.2478
531.746,401.0,3.9274,0.248
534.633,401.5,3.9264,0.2482
537.504,402.0,3.9264,0.2488
540.377,402.5,3.9291,0.2484
543.24,403.0,3.9291,0.249
546.098,403.5,3.9291,0.2505
548.957,404.0,3.9273,0.2512
551.831,404.5,3.9271,0.251
554.694,405.0,3.9265,0.2527
557.564,405.5,3.9271,0.2516
560.42,406.0,3.9285,0.2525
563.275,406.5,3.9271,0.2518
566.136,407.0,3.9271,0.2526
568.99,407.5,3.9271,0.2543
571.844,408.0,3.9271,0.2553
574.695,408.5,3.9284,0.2536
577.555,409.0,3.9284,0.2533
580.406,409.5,3.9284,0.2548
583.269,410.0,3.9284,0.2557
586.116,410.5,3.9272,0.2548
588.954,411.0,3.9271,0.2552
591.809,411.5,3.9284,0.2569
594.663,412.0,3.9259,0.2581
597.492,412.5,3.9256,0.2576
600.379,413.0,3.9256,0.2586
603.229,413.5,3.9242,0.2585
606.075,414.0,3.9255,0.2588
608.954,414.5,3.9242,0.2597
611.805,415.0,3.9242,0.2602
614.647,415.5,3.9243,0.2618
617.491,416.0,3.9249,0.2616
620.329,416.5,3.9248,0.2622
623.17,417.0,3.9262,0.2642
626.021,417.5,3.9254,0.2636
628.877,418.0,3.9261,0.2619
631.698,418.5,3.9262,0.2632
634.508,419.0,3.9262,0.2642
637.341,419.5,3.9262,0.2631
640.182,420.0,3.9248,0.2649
643.013,420.5,3.9235,0.264
645.882,421.0,3.9236,0.2654
648.721,421.5,3.9249,0.2658
651.549,422.0,3.9249,0.2681
654.393,422.5,3.9247,0.2678
657.242,423.0,3.9249,0.2686
660.101,423.5,3.9249,0.2684
662.943,424.0,3.9259,0.2695
665.783,424.5,3.9249,0.2721
668.616,425.0,3.9249,0.2698
671.445,425.5,3.9249,0.2717
674.271,426.0,3.9252,0.2715
677.077,426.5,3.9252,0.271
679.91,427.0,3.9253,0.2705
682.742,427.5,3.9238,0.2709
685.579,428.0,3.9249,0.2722
688.43,428.5,3.9236,0.2714
691.281,429.0,3.924,0.2736
694.116,429.5,3.9249,0.2729
696.966,430.0,3.925,0.2747
699.788,430.5,3.9226,0.2768
702.608,431.0,3.9226,0.2777
705.435,431.5,3.9239,0.2781
708.267,432.0,3.9238,0.2784
711.088,432.5,3.9239,0.2789
713.938,433.0,3.9239,0.2787
716.769,433.5,3.9239,0.2779
719.601,434.0,3.9238,0.2798
722.426,434.5,3.9226,0.2794
725.252,435.0,3.9226,0.2806
728.082,435.5,3.9229,0.279
730.915,436.0,3.9225,0.2811
733.753,436.5,3.9216,0.2815
736.581,437.0,3.9236,0.2809
739.411,437.5,3.9239,0.284
742.239,438.0,3.9226,0.2854
745.063,438.5,3.9226,0.2861
747.876,439.0,3.9226,0.283
750.711,439.5,3.9226,0.285
753.545,440.0,3.9212,0.2843
756.388,440.5,3.92,0.2847
759.235,441.0,3.9198,0.285
762.069,441.5,3.9181,0.2873
764.895,442.0,3.918,0.2871
767.721,442.5,3.918,0.288
770.55,443.0,3.918,0.2877
773.38,443.5,3.918,0.2872
776.212,444.0,3.9193,0.289
779.054,444.5,3.9193,0.29
781.886,445.0,3.9193,0.2907
784.724,445.5,3.9193,0.2922
787.562,446.0,3.9203,0.2903
790.397,446.5,3.9189,0.2927
793.233,447.0,3.919,0.2922
796.071,447.5,3.9203,0.2946
798.906,448.0,3.9203,0.2962
801.736,448.5,3.9203,0.2949
804.535,449.0,3.9198,0.2962
807.37,449.5,3.919,0.2977
810.206,450.0,3.919,0.2971
813.035,450.5,3.9176,0.2985
815.876,451.0,3.9176,0.2975
818.712,451.5,3.9176,0.3025
821.539,452.0,3.918,0.3015
824.377,452.5,3.918,0.3032
827.219,453.0,3.918,0.302
830.056,453.5,3.9173,0.3036
832.895,454.0,3.9173,0.3023
835.731,454.5,3.9173,0.3037
838.555,455.0,3.9173,0.3032
841.383,455.5,3.9167,0.3042
844.215,456.0,3.9167,0.305
847.042,456.5,3.915,0.305
849.874,457.0,3.9139,0.3037
852.715,457.5,3.9134,0.3045
855.549,458.0,3.914,0.3047
858.393,458.5,3.9129,0.3057
861.229,459.0,3.9126,0.3073
864.068,459.5,3.9126,0.3078
866.899,460.0,3.9116,0.3089
869.727,460.5,3.9116,0.3088
872.557,461.0,3.9103,0.3106
875.386,461.5,3.9103,0.3087
878.204,462.0,3.9103,0.3084
881.024,462.5,3.9104,0.3108
883.841,463.0,3.909,0.3102
886.655,463.5,3.909,0.3119
889.471,464.0,3.909,0.313
892.298,464.5,3.9077,0.3127
895.125,465.0,3.906,0.3139
897.967,465.5,3.9073,0.3168
900.798,466.0,3.9074,0.3168
903.635,466.5,3.906,0.3168
906.469,467.0,3.906,0.3189
909.299,467.5,3.9048,0.3166
912.122,468.0,3.9047,0.3166
914.95,468.5,3.9047,0.3202
917.778,469.0,3.9047,0.3198
920.625,469.5,3.9034,0.3196
923.471,470.0,3.9034,0.3199
926.317,470.5,3.9034,0.3229
929.149,471.0,3.9034,0.3224
931.968,471.5,3.9026,0.3236
934.793,472.0,3.9021,0.3239
937.601,472.5,3.9021,0.3242
940.4,473.0,3.9021,0.3234
943.236,473.5,3.9021,0.3258
946.073,474.0,3.9014,0.3249
948.912,474.5,3.9007,0.3248
951.771,475.0,3.8998,0.3268
954.632,475.5,3.8985,0.3267
957.466,476.0,3.8971,0.3264
960.291,476.5,3.8968,0.3275
963.132,477.0,3.8958,0.328
965.974,477.5,3.8943,0.3275
968.814,478.0,3.8938,0.3274
971.658,478.5,3.8935,0.3275
974.47,479.0,3.8928,0.3296
977.287,479.5,3.8918,0.3298
980.115,480.0,3.8915,0.3295
982.947,480.5,3.8915,0.3292
985.788,481.0,3.8915,0.3302
988.634,481.5,3.8904,0.3302
991.48,482.0,3.888,0.3323
994.311,482.5,3.8861,0.3347
997.152,483.0,3.8848,0.3341
999.988,483.5,3.8833,0.3379
1002.83,484.0,3.8821,0.3382
1005.67,484.5,3.8808,0.338
1008.5,485.0,3.8808,0.3391
1011.34,485.5,3.8794,0.3387
1014.15,486.0,3.8794,0.3375
1017,486.5,3.8794,0.3395
1019.85,487.0,3.8789,0.3396
1022.68,487.5,3.8781,0.3413
1025.54,488.0,3.878,0.3413
1028.39,488.5,3.8766,0.3428
1031.24,489.0,3.8746,0.3443
1034.08,489.5,3.8725,0.3439
1036.92,490.0,3.8708,0.3426
1039.76,490.5,3.8702,0.3441
1042.59,491.0,3.8689,0.3462
1045.43,491.5,3.8689,0.3453
1048.26,492.0,3.8689,0.3472
1051.1,492.5,3.8689,0.3472
1053.94,493.0,3.8672,0.3479
1056.77,493.5,3.8656,0.3481
1059.62,494.0,3.8653,0.348
1062.48,494.5,3.864,0.3492
1065.33,495.0,3.8623,0.3478
1068.19,495.5,3.8607,0.3485
1071.04,496.0,3.8596,0.3485
1073.88,496.5,3.8583,0.3487
1076.73,497.0,3.857,0.3491
1079.58,497.5,3.8544,0.3491
1082.41,498.0,3.853,0.3483
1085.26,498.5,3.8517,0.3472
1088.1,499.0,3.8517,0.3494
1090.94,499.5,3.8504,0.3482
1093.79,500.0,3.849,0.3503
1096.63,500.5,3.8477,0.3492
1099.48,501.0,3.8464,0.3486
1102.31,501.5,3.846,0.3494
1105.13,502.0,3.8451,0.351
1107.97,502.5,3.8425,0.3504
1110.81,503.0,3.8424,0.35
1113.66,503.5,3.8411,0.3513
1116.53,504.0,3.8411,0.3519
1119.38,504.5,3.8399,0.3521
1122.22,505.0,3.8386,0.3526
1125.04,505.5,3.8372,0.3532
1127.88,506.0,3.8358,0.3537
1130.72,506.5,3.8352,0.3541
1133.55,507.0,3.8339,0.3531
1136.41,507.5,3.8325,0.3521
1139.25,508.0,3.8312,0.352
1142.1,508.5,3.8299,0.3514
1144.93,509.0,3.83,0.3532
1147.78,509.5,3.8286,0.3516
1150.61,510.0,3.8277,0.3513
1153.46,510.5,3.8261,0.3504
1156.3,511.0,3.8236,0.352
1159.14,511.5,3.8222,0.3526
1161.98,512.0,3.821,0.3517
1164.82,512.5,3.8196,0.353
1167.67,513.0,3.8183,0.3544
1170.52,513.5,3.817,0.3548
1173.37,514.0,3.8156,0.3547
1176.2,514.5,3.8143,0.3536
1179.05,515.0,3.8139,0.3538
1181.89,515.5,3.8126,0.3532
1184.74,516.0,3.81,0.3558
1187.59,516.5,3.8086,0.3565
1190.45,517.0,3.8074,0.3549
1193.3,517.5,3.8081,0.3549
1196.15,518.0,3.8067,0.3531
1198.99,518.5,3.8053,0.3538
1201.81,519.0,3.8039,0.3546
1204.65,519.5,3.8013,0.3559
1207.49,520.0,3.8004,0.3565
1210.34,520.5,3.797,0.3569
1213.2,521.0,3.7958,0.3561
1216.06,521.5,3.7945,0.3569
1218.92,522.0,3.7931,0.3582
1221.77,522.5,3.7909,0.3577
1224.6,523.0,3.788,0.3567
1227.45,523.5,3.7873,0.3576
1230.3,524.0,3.7846,0.355
1233.14,524.5,3.7829,0.3556
1236,525.0,3.7813,0.3577
1238.85,525.5,3.7777,0.3579
1241.7,526.0,3.7767,0.3591
1244.55,526.5,3.7754,0.3592
1247.39,527.0,3.7737,0.358
1250.23,527.5,3.7715,0.3572
1253.07,528.0,3.7698,0.3588
1255.93,528.5,3.7681,0.3588
1258.79,529.0,3.7668,0.3591
1261.62,529.5,3.7655,0.3596
1264.48,530.0,3.764,0.3588
1267.31,530.5,3.7621,0.3594
1270.15,531.0,3.7609,0.361
1273,531.5,3.7595,0.3599
1275.86,532.0,3.755,0.3605
1278.71,532.5,3.7538,0.3596
1281.57,533.0,3.752,0.3596
1284.41,533.5,3.7485,0.3611
1287.26,534.0,3.7455,0.3607
1290.11,534.5,3.7433,0.3611
1292.95,535.0,3.739,0.3608
1295.81,535.5,3.7362,0.3603
1298.66,536.0,3.7372,0.3612
1301.5,536.5,3.7349,0.362
1304.36,537.0,3.7311,0.3615
1307.21,537.5,3.7279,0.3641
1310.06,538.0,3.7246,0.3617
1312.92,538.5,3.7214,0.3614
1315.77,539.0,3.719,0.3613
1318.63,539.5,3.7165,0.3611
1321.48,540.0,3.7163,0.3606
1324.33,540.5,3.7135,0.3609
1327.18,541.0,3.7116,0.3621
1330.03,541.5,3.7076,0.3626
1332.88,542.0,3.7053,0.3607
1335.73,542.5,3.7023,0.362
1338.57,543.0,3.6988,0.36
1341.42,543.5,3.6946,0.3613
1344.27,544.0,3.6928,0.3612
1347.12,544.5,3.6905,0.3595
1349.98,545.0,3.6879,0.3583
1352.83,545.5,3.685,0.3595
1355.69,546.0,3.6817,0.3616
1358.55,546.5,3.6778,0.3592
1361.41,547.0,3.6749,0.3586
1364.27,547.5,3.6726,0.3576
1367.12,548.0,3.67,0.3581
1369.96,548.5,3.6667,0.3586
1372.8,549.0,3.6634,0.3582
1375.65,549.5,3.6585,0.3568
1378.5,550.0,3.6552,0.3572
1381.37,550.5,3.65,0.3581
1384.25,551.0,3.6472,0.3571
1387.13,551.5,3.6433,0.3566
1389.98,552.0,3.6412,0.3567
1392.84,552.5,3.6373,0.3559
1395.69,553.0,3.6335,0.3587
1398.55,553.5,3.6298,0.3588
1401.41,554.0,3.6269,0.3556
1404.26,554.5,3.6232,0.3569
1407.13,555.0,3.6197,0.3589
1409.98,555.5,3.6164,0.358
1412.84,556.0,3.6118,0.3584
1415.7,556.5,3.6065,0.3591
1418.56,557.0,3.6024,0.36
1421.41,557.5,3.598,0.3598
1424.26,558.0,3.5948,0.3602
1427.11,558.5,3.5889,0.3592
1429.97,559.0,3.5843,0.3613
1432.82,559.5,3.5822,0.3589
1435.68,560.0,3.5774,0.3604
1438.54,560.5,3.5718,0.3607
1441.39,561.0,3.5682,0.3586
1444.25,561.5,3.5641,0.3602
1447.12,562.0,3.5595,0.3608
1449.98,562.5,3.5547,0.3622
1452.85,563.0,3.5494,0.3609
1455.71,563.5,3.5449,0.3615
1458.56,564.0,3.5403,0.3627
1461.42,564.5,3.5365,0.3616
1464.28,565.0,3.5318,0.3649
1467.13,565.5,3.526,0.3631
1470,566.0,3.5205,0.3657
1472.86,566.5,3.5153,0.3677
1475.72,567.0,3.5102,0.3648
1478.57,567.5,3.5023,0.3656
1481.44,568.0,3.4953,0.367
1484.29,568.5,3.4908,0.3674
1487.14,569.0,3.4848,0.3702
1490.02,569.5,3.4808,0.3696
1492.87,570.0,3.4748,0.3706
1495.73,570.5,3.4694,0.3721
1498.6,571.0,3.4638,0.3735
1501.47,571.5,3.4582,0.3728
1504.34,572.0,3.4519,0.3728
1507.19,572.5,3.446,0.3741
1510.03,573.0,3.4404,0.3754
1512.88,573.5,3.4343,0.3765
1515.74,574.0,3.4275,0.3781
1518.61,574.5,3.4215,0.3788
1521.5,575.0,3.4169,0.3799
1524.38,575.5,3.4098,0.3811
1527.25,576.0,3.4032,0.3826
1530.11,576.5,3.3955,0.3827
1532.97,577.0,3.3895,0.3829
1535.84,577.5,3.3813,0.3819
1538.69,578.0,3.3738,0.3848
1541.57,578.5,3.367,0.3871
1544.44,579.0,3.3603,0.3862
1547.32,579.5,3.3532,0.3856
1550.18,580.0,3.3457,0.3898
1553.06,580.5,3.338,0.3912
1555.92,581.0,3.3312,0.3929
1558.79,581.5,3.3234,0.3928
1561.66,582.0,3.3159,0.3956
1564.54,582.5,3.3066,0.3981
1567.43,583.0,3.2992,0.4
1570.3,583.5,3.2918,0.4002
1573.18,584.0,3.2832,0.4013
1576.03,584.5,3.2754,0.4064
1578.91,585.0,3.2671,0.407
1581.78,585.5,3.258,0.4099
1584.65,586.0,3.2514,0.4102
1587.55,586.5,3.2424,0.4112
1590.44,587.0,3.2335,0.4138
1593.3,587.5,3.2255,0.4181
1596.18,588.0,3.2184,0.4184
1599.06,588.5,3.2087,0.418
1601.94,589.0,3.1993,0.42
1604.84,589.5,3.1908,0.4208
1607.72,590.0,3.1807,0.4235
1610.6,590.5,3.1705,0.4269
1613.48,591.0,3.161,0.4285
1616.35,591.5,3.1517,0.4288
1619.22,592.0,3.1425,0.431
1622.11,592.5,3.1317,0.4327
1624.97,593.0,3.1224,0.4348
1627.85,593.5,3.1113,0.4376
1630.74,594.0,3.1014,0.4373
1633.6,594.5,3.0912,0.4406
1636.47,595.0,3.0805,0.4412
1639.35,595.5,3.0692,0.4438
1642.24,596.0,3.0582,0.4453
1645.13,596.5,3.0473,0.4478
1648.03,597.0,3.0373,0.4494
1650.91,597.5,3.0244,0.4522
1653.8,598.0,3.0139,0.4503
1656.67,598.5,3.0055,0.4523
1659.54,599.0,2.9945,0.453
1662.42,599.5,2.9843,0.4569
1665.3,600.0,2.9743,0.456
1668.19,600.5,2.9632,0.4567
1671.07,601.0,2.952,0.4584
1673.95,601.5,2.9419,0.4606
1676.84,602.0,2.9313,0.461
1679.72,602.5,2.9167,0.4622
1682.6,603.0,2.9056,0.4651
1685.48,603.5,2.8948,0.4673
1688.35,604.0,2.8813,0.4685
1691.23,604.5,2.8699,0.4692
1694.11,605.0,2.8583,0.4728
1697,605.5,2.8467,0.474
1699.88,606.0,2.8351,0.4731
1702.75,606.5,2.8244,0.4768
1705.64,607.0,2.8118,0.4778
1708.52,607.5,2.8009,0.4775
1711.38,608.0,2.7884,0.4798
1714.24,608.5,2.7761,0.4817
1717.13,609.0,2.763,0.4858
1720,609.5,2.7512,0.4853
1722.89,610.0,2.7396,0.4868
1725.81,610.5,2.7285,0.4889
1728.71,611.0,2.7148,0.4919
1731.6,611.5,2.6992,0.492
1734.5,612.0,2.6858,0.4963
1737.39,612.5,2.6751,0.4971
1740.28,613.0,2.6619,0.4976
1743.16,613.5,2.6479,0.499
1746.04,614.0,2.6354,0.5008
1748.93,614.5,2.6235,0.503
1751.81,615.0,2.6096,0.5051
1754.7,615.5,2.5965,0.5068
1757.59,616.0,2.5832,0.5092
1760.48,616.5,2.5706,0.5136
1763.38,617.0,2.5565,0.5144
1766.28,617.5,2.5422,0.5185
1769.17,618.0,2.5288,0.5207
1772.08,618.5,2.5171,0.5228
1774.98,619.0,2.5036,0.5271
1777.89,619.5,2.4905,0.5292
1780.78,620.0,2.4775,0.5336
1783.68,620.5,2.4639,0.5379
1786.57,621.0,2.4485,0.5414
1789.46,621.5,2.434,0.5451
1792.35,622.0,2.4192,0.5443
1795.25,622.5,2.4047,0.5515
1798.14,623.0,2.3921,0.5556
1801.06,623.5,2.3777,0.5587
1803.97,624.0,2.3631,0.5638
1806.88,624.5,2.3479,0.5686
1809.78,625.0,2.3325,0.5735
1812.69,625.5,2.317,0.5775
1815.6,626.0,2.3002,0.5793
1818.5,626.5,2.2843,0.586
1821.4,627.0,2.2689,0.591
1824.31,627.5,2.2543,0.5975
1827.21,628.0,2.2365,0.6003
1830.12,628.5,2.2205,0.6045
1833.03,629.0,2.2063,0.609
1835.93,629.5,2.1905,0.6152
1838.84,630.0,2.1747,0.6191
1841.75,630.5,2.1582,0.6251
1844.66,631.0,2.1414,0.6302
1847.57,631.5,2.1256,0.6379
1850.49,632.0,2.1081,0.6417
1853.4,632.5,2.0916,0.6466
1856.32,633.0,2.0747,0.6526
1859.22,633.5,2.0584,0.6586
1862.13,634.0,2.0413,0.6641
1865.05,634.5,2.0233,0.671
1867.96,635.0,2.0051,0.6753
1870.89,635.5,1.9878,0.6815
1873.8,636.0,1.9684,0.6874
1876.72,636.5,1.9494,0.6923
1879.64,637.0,1.9301,0.6945
1882.55,637.5,1.9096,0.6998
1885.44,638.0,1.8899,0.7037
1888.33,638.5,1.8723,0.7076
1891.23,639.0,1.8537,0.7086
1894.14,639.5,1.8343,0.7131
1897.06,640.0,1.8152,0.7137
1899.99,640.5,1.7979,0.717
1902.89,641.0,1.7799,0.7194
1905.79,641.5,1.7614,0.7216
1908.7,642.0,1.7414,0.7191
1911.61,642.5,1.7196,0.7196
1914.52,643.0,1.7008,0.7179
1917.44,643.5,1.6827,0.7183
1920.34,644.0,1.6638,0.7154
1923.23,644.5,1.6437,0.7127
1926.12,645.0,1.6234,0.7074
1929.02,645.5,1.6037,0.701
1931.91,646.0,1.5849,0.6949
1934.79,646.5,1.5659,0.6887
1937.68,647.0,1.5469,0.6785
1940.56,647.5,1.5288,0.6731
1943.43,648.0,1.5106,0.6622
1946.32,648.5,1.4916,0.6519
1949.2,649.0,1.475,0.64
1952.08,649.5,1.4556,0.6255
1954.97,650.0,1.4375,0.6117
1957.83,650.5,1.4203,0.594
1960.68,651.0,1.4034,0.576
1963.54,651.5,1.387,0.5587
1966.39,652.0,1.3711,0.5401
1969.26,652.5,1.3549,0.5203
1972.12,653.0,1.3399,0.5008
1974.96,653.5,1.3268,0.4785
1977.81,654.0,1.3132,0.4561
1980.66,654.5,1.3004,0.4323
1983.5,655.0,1.2869,0.4089
1986.35,655.5,1.2746,0.3871
1989.19,656.0,1.2636,0.3604
1992.04,656.5,1.2528,0.3342
1994.89,657.0,1.2421,0.3119
1997.74,657.5,1.2315,0.2883
2000.6,658.0,1.2215,0.2634
2003.45,658.5,1.2136,0.2408
2006.3,659.0,1.205,0.217
2009.16,659.5,1.199,0.1967
2012.02,660.0,1.1914,0.175
2014.88,660.5,1.1853,0.1568
2017.75,661.0,1.18,0.1371
2020.62,661.5,1.1723,0.1197
2023.49,662.0,1.1675,0.0999
2026.36,662.5,1.1641,0.0864
2029.23,663.0,1.1593,0.0718
2032.11,663.5,1.1573,0.0598
2034.99,664.0,1.1536,0.0462
2037.88,664.5,1.1499,0.0385
2040.78,665.0,1.1464,0.0301
2043.67,665.5,1.1437,0.0216
2046.57,666.0,1.1406,0.0163
2049.48,666.5,1.1376,0.0088
2052.38,667.0,1.135,0.0052
2055.28,667.5,1.1334,-0.0013
2058.19,668.0,1.1312,-0.0037
2061.09,668.5,1.1283,-0.0087
2064,669.0,1.1259,-0.0106
2066.91,669.5,1.1244,-0.0147
2069.83,670.0,1.1226,-0.0155
2072.75,670.5,1.1222,-0.0168
2075.66,671.0,1.1212,-0.0193
2078.57,671.5,1.1198,-0.0206
2081.48,672.0,1.12,-0.0223
2084.4,672.5,1.1178,-0.0254
2087.32,673.0,1.1144,-0.0267
2090.24,673.5,1.1122,-0.026
2093.15,674.0,1.1096,-0.0277
2096.07,674.5,1.1107,-0.031
2098.99,675.0,1.1097,-0.0306
2101.93,675.5,1.1074,-0.0318
2104.86,676.0,1.1053,-0.0335
2107.78,676.5,1.1031,-0.0349
2110.7,677.0,1.1012,-0.0351
2113.62,677.5,1.1004,-0.041
2116.53,678.0,1.099,-0.0399
2119.46,678.5,1.097,-0.0398
2122.38,679.0,1.0945,-0.0407
2125.3,679.5,1.0927,-0.0436
2128.23,680.0,1.0914,-0.0436
2131.16,680.5,1.0889,-0.0455
2134.1,681.0,1.0876,-0.0474
2137.02,681.5,1.0862,-0.0486
2139.95,682.0,1.0848,-0.0502
2142.88,682.5,1.0848,-0.0522
2145.8,683.0,1.0823,-0.054
2148.71,683.5,1.0807,-0.0572
2151.63,684.0,1.0808,-0.0561
2154.56,684.5,1.0795,-0.0587
2157.48,685.0,1.0774,-0.0596
2160.41,685.5,1.0761,-0.0603
2163.34,686.0,1.074,-0.0627
2166.25,686.5,1.0725,-0.0629
2169.17,687.0,1.0712,-0.0655
2172.09,687.5,1.0708,-0.0682
2175.02,688.0,1.0691,-0.068
2177.94,688.5,1.0672,-0.0701
2180.87,689.0,1.0645,-0.0713
2183.79,689.5,1.0632,-0.0735
2186.71,690.0,1.0619,-0.0748
2189.64,690.5,1.0604,-0.076
2192.57,691.0,1.0591,-0.0776
2195.49,691.5,1.0578,-0.0788
2198.42,692.0,1.0578,-0.0799
2201.34,692.5,1.0565,-0.083
2204.25,693.0,1.055,-0.0832
2207.19,693.5,1.0534,-0.0857
2210.12,694.0,1.0518,-0.0882
2213.05,694.5,1.0505,-0.0891
2216.01,695.0,1.0499,-0.0904
2218.94,695.5,1.049,-0.09
2221.87,696.0,1.0478,-0.0893
2224.81,696.5,1.0465,-0.0901
2227.73,697.0,1.0452,-0.0909
2230.67,697.5,1.0438,-0.093
2233.6,698.0,1.0409,-0.0963
2236.53,698.5,1.0392,-0.0948
2239.47,699.0,1.0366,-0.0978
2242.41,699.5,1.0353,-0.0986
2245.33,700.0,1.034,-0.0986
2248.27,700.5,1.0327,-0.0994
2251.2,701.0,1.0327,-0.1005
2254.15,701.5,1.0314,-0.1017
2257.09,702.0,1.0301,-0.1011
2260.04,702.5,1.0286,-0.1022
2262.98,703.0,1.0274,-0.1016
2265.92,703.5,1.0258,-0.1018
2268.87,704.0,1.0245,-0.1034
2271.81,704.5,1.0234,-0.1044
2274.76,705.0,1.022,-0.1062
2277.71,705.5,1.0214,-0.1054
2280.65,706.0,1.02,-0.1061
2283.61,706.5,1.0188,-0.1071
2286.55,707.0,1.0177,-0.1065
2289.5,707.5,1.0158,-0.1068
2292.45,708.0,1.0138,-0.1049
2295.4,708.5,1.0136,-0.1082
2298.34,709.0,1.0124,-0.1052
2301.28,709.5,1.0096,-0.1072
2304.22,710.0,1.0083,-0.1095
2307.16,710.5,1.0069,-0.1068
2310.11,711.0,1.0056,-0.1062
2313.06,711.5,1.0043,-0.1057
2315.99,712.0,1.0023,-0.1057
2318.93,712.5,1.0003,-0.1042
2321.87,713.0,1.0002,-0.1019
2324.81,713.5,0.9986,-0.1042
2327.75,714.0,0.9987,-0.1037
2330.68,714.5,0.9973,-0.1031
2333.61,715.0,0.994,-0.1018
2336.55,715.5,0.9928,-0.1019
2339.5,716.0,0.9927,-0.1014
2342.45,716.5,0.991,-0.0994
2345.38,717.0,0.9898,-0.0976
2348.33,717.5,0.9884,-0.0958
2351.28,718.0,0.9884,-0.0946
2354.22,718.5,0.9871,-0.0943
2357.17,719.0,0.9861,-0.0951
2360.12,719.5,0.9831,-0.0924
2363.07,720.0,0.9805,-0.0924
2366,720.5,0.9806,-0.0918
2368.96,721.0,0.9808,-0.0885
2371.91,721.5,0.982,-0.0918
2374.87,722.0,0.9807,-0.0868
2377.85,722.5,0.9787,-0.0886
2380.81,723.0,0.977,-0.0868
2383.77,723.5,0.9756,-0.0828
2386.7,724.0,0.9743,-0.0822
2389.66,724.5,0.9742,-0.0823
2392.61,725.0,0.973,-0.0796
2395.55,725.5,0.9717,-0.0799
2398.5,726.0,0.9707,-0.0796
2401.45,726.5,0.9706,-0.0769
2404.41,727.0,0.9703,-0.0783
2407.37,727.5,0.968,-0.0774
2410.33,728.0,0.9663,-0.0749
2413.27,728.5,0.967,-0.0752
2416.21,729.0,0.9664,-0.0718
2419.15,729.5,0.965,-0.0718
2422.09,730.0,0.9638,-0.0691
2425.06,730.5,0.9599,-0.0687
2428.03,731.0,0.9597,-0.0681
2430.98,731.5,0.9586,-0.0672
2433.93,732.0,0.9572,-0.0637
2436.89,732.5,0.9573,-0.0633
2439.84,733.0,0.9559,-0.0629
2442.8,733.5,0.9554,-0.0627
2445.75,734.0,0.9546,-0.0618
2448.7,734.5,0.9543,-0.0595
2451.64,735.0,0.9543,-0.0586
2454.6,735.5,0.9517,-0.0568
2457.57,736.0,0.9517,-0.0567
2460.53,736.5,0.9504,-0.0541
2463.52,737.0,0.9476,-0.055
2466.47,737.5,0.9473,-0.0537
2469.42,738.0,0.9464,-0.0525
2472.38,738.5,0.9451,-0.0525
2475.33,739.0,0.9465,-0.0498
2478.28,739.5,0.9454,-0.0501
2481.24,740.0,0.9453,-0.0491
2484.19,740.5,0.9455,-0.0487
2487.15,741.0,0.9444,-0.0499
2490.13,741.5,0.9444,-0.0472
2493.1,742.0,0.9431,-0.0468
2496.06,742.5,0.9427,-0.0453
2499.03,743.0,0.9418,-0.0424
2501.99,743.5,0.9406,-0.0422
2504.95,744.0,0.9411,-0.04
2507.94,744.5,0.9398,-0.0413
2510.9,745.0,0.9386,-0.0396
2513.87,745.5,0.9372,-0.0399
2516.83,746.0,0.9365,-0.0386
2519.79,746.5,0.9365,-0.0398
2522.76,747.0,0.9352,-0.0387
2525.73,747.5,0.9339,-0.0367
2528.69,748.0,0.9329,-0.0353
2531.65,748.5,0.9339,-0.0343
2534.62,749.0,0.9309,-0.0349
2537.58,749.5,0.9296,-0.0323
2540.56,750.0,0.9282,-0.0315
2543.53,750.5,0.9283,-0.0335
2546.5,751.0,0.9283,-0.0319
2549.47,751.5,0.9269,-0.0315
2552.44,752.0,0.9263,-0.0313
2555.4,752.5,0.927,-0.0287
2558.37,753.0,0.9241,-0.0295
2561.34,753.5,0.9228,-0.0292
2564.28,754.0,0.9228,-0.0319
2567.23,754.5,0.9228,-0.0297
2570.2,755.0,0.9216,-0.0295
2573.16,755.5,0.9215,-0.0288
2576.14,756.0,0.9214,-0.0288
2579.12,756.5,0.9214,-0.0297
2582.09,757.0,0.9224,-0.0293
2585.06,757.5,0.9214,-0.0274
2588.03,758.0,0.9201,-0.0295
2591,758.5,0.9196,-0.0269
2593.97,759.0,0.9175,-0.0267
2596.94,759.5,0.9161,-0.0271
2599.89,760.0,0.9172,-0.029
2602.84,760.5,0.9172,-0.0291
2605.81,761.0,0.9158,-0.0278
2608.78,761.5,0.9145,-0.0266
2611.76,762.0,0.9146,-0.0262
2614.74,762.5,0.9133,-0.026
2617.7,763.0,0.9112,-0.0259
2620.66,763.5,0.9106,-0.0247
2623.61,764.0,0.9107,-0.0254
2626.58,764.5,0.9094,-0.0251
2629.54,765.0,0.9085,-0.0253
2632.5,765.5,0.908,-0.025
2635.47,766.0,0.908,-0.0269
2638.43,766.5,0.908,-0.03
2641.4,767.0,0.9081,-0.0304
2644.36,767.5,0.9066,-0.0264
2647.33,768.0,0.9066,-0.0257
2650.3,768.5,0.9066,-0.0271
2653.27,769.0,0.9054,-0.0275
2656.24,769.5,0.9054,-0.0279
2659.21,770.0,0.9026,-0.027
2662.17,770.5,0.9026,-0.028
2665.14,771.0,0.9013,-0.0282
2668.1,771.5,0.9013,-0.0261
2671.06,772.0,0.9013,-0.0264
2674.04,772.5,0.9013,-0.0277
2677.01,773.0,0.9002,-0.0258
2679.99,773.5,0.8999,-0.027
2682.97,774.0,0.8999,-0.0239
2685.94,774.5,0.8987,-0.0245
2688.92,775.0,0.899,-0.0249
2691.89,775.5,0.8986,-0.0228
2694.87,776.0,0.8986,-0.026
2697.85,776.5,0.8986,-0.0237
2700.82,777.0,0.8973,-0.024
2703.8,777.5,0.8973,-0.0213
2706.77,778.0,0.896,-0.0208
2709.74,778.5,0.894,-0.023
2712.7,779.0,0.8928,-0.0226
2715.67,779.5,0.8927,-0.0216
2718.63,780.0,0.8926,-0.0208
2721.59,780.5,0.8927,-0.0238
2724.57,781.0,0.8914,-0.0214
2727.54,781.5,0.8924,-0.023
2730.51,782.0,0.8924,-0.0224
2733.49,782.5,0.8911,-0.0234
2736.46,783.0,0.8911,-0.0255
2739.42,783.5,0.8917,-0.0251
2742.39,784.0,0.8917,-0.0246
2745.36,784.5,0.8902,-0.0229
2748.34,785.0,0.889,-0.0226
2751.32,785.5,0.8877,-0.0234
2754.29,786.0,0.8853,-0.0208
2757.26,786.5,0.8849,-0.0229
2760.23,787.0,0.8858,-0.0218
2763.17,787.5,0.8863,-0.0221
2766.14,788.0,0.8865,-0.0229
2769.1,788.5,0.8838,-0.0239
2772.07,789.0,0.8837,-0.0241
2775.06,789.5,0.8837,-0.0217
2778.04,790.0,0.8838,-0.0217
2781.02,790.5,0.8825,-0.0213
2784,791.0,0.8822,-0.022
2786.98,791.5,0.8812,-0.021
2789.96,792.0,0.8801,-0.022
2792.94,792.5,0.8799,-0.0223
2795.93,793.0,0.8799,-0.0209
2798.91,793.5,0.8777,-0.0197
2801.89,794.0,0.8776,-0.0209
2804.87,794.5,0.8762,-0.0209
2807.84,795.0,0.8762,-0.0189
2810.81,795.5,0.875,-0.0187
2813.78,796.0,0.8746,-0.0202
2816.77,796.5,0.8735,-0.0194
2819.76,797.0,0.8723,-0.0202
2822.75,797.5,0.8724,-0.018
2825.73,798.0,0.8727,-0.0197
2828.71,798.5,0.8736,-0.0181
2831.7,799.0,0.8736,-0.0159
2834.68,799.5,0.8723,-0.0162
2837.67,800.0,0.8717,-0.0163
2840.65,800.5,0.8695,-0.0178
2843.65,801.0,0.8683,-0.0173
2846.6,801.5,0.8693,-0.0201
2849.59,802.0,0.8682,-0.0198
2852.56,802.5,0.8689,-0.0202
2855.54,803.0,0.8688,-0.0207
2858.54,803.5,0.8682,-0.0207
2861.53,804.0,0.8684,-0.0199
2864.52,804.5,0.8695,-0.0226
2867.51,805.0,0.8696,-0.0197
2870.5,805.5,0.8682,-0.019
2873.48,806.0,0.8656,-0.0187
2876.45,806.5,0.8656,-0.0187
2879.44,807.0,0.8656,-0.0189
2882.41,807.5,0.8669,-0.02
2885.39,808.0,0.8656,-0.0145
2888.37,808.5,0.8656,-0.0127
2891.33,809.0,0.8643,-0.0115
2894.29,809.5,0.8643,-0.0111
2897.25,810.0,0.863,-0.0106
2900.21,810.5,0.8616,-0.0084
2903.22,811.0,0.8629,-0.0117
2906.24,811.5,0.8616,-0.0106
2909.25,812.0,0.863,-0.0097
2912.26,812.5,0.8629,-0.0097
2915.25,813.0,0.863,-0.0119
2918.24,813.5,0.8602,-0.0137
2921.23,814.0,0.8592,-0.011
2924.22,814.5,0.8577,-0.0106
2927.2,815.0,0.8577,-0.015
2930.18,815.5,0.856,-0.0157
2933.16,816.0,0.8551,-0.0148
2936.15,816.5,0.8551,-0.0147
2939.14,817.0,0.8563,-0.0144
2942.14,817.5,0.8577,-0.0162
2945.14,818.0,0.8576,-0.016
2948.14,818.5,0.8586,-0.0139
2951.12,819.0,0.8574,-0.014
2954.11,819.5,0.8574,-0.016
2957.1,820.0,0.8554,-0.0151
2960.1,820.5,0.8547,-0.0152
2963.09,821.0,0.8534,-0.0169
2966.09,821.5,0.8541,-0.0169
2969.08,822.0,0.8545,-0.0166
2972.06,822.5,0.8541,-0.0187
2975.05,823.0,0.8527,-0.0176
2978.06,823.5,0.8527,-0.0177
2981.05,824.0,0.8542,-0.0203
2984.06,824.5,0.8534,-0.022
2987.06,825.0,0.8519,-0.0232
2990.05,825.5,0.8508,-0.0264
2993.05,826.0,0.8508,-0.0237
2996.04,826.5,0.8508,-0.0232
2999.04,827.0,0.8488,-0.0222
3002.03,827.5,0.8488,-0.0224
3005.03,828.0,0.8488,-0.0262
3008.02,828.5,0.8487,-0.0275
3011.01,829.0,0.8488,-0.0306
3014,829.5,0.8489,-0.0285
3016.99,830.0,0.8475,-0.0286
3019.97,830.5,0.8475,-0.0298
3022.97,831.0,0.8474,-0.0292
3025.96,831.5,0.8462,-0.0295
3028.94,832.0,0.8462,-0.0253
3031.93,832.5,0.8448,-0.0257
3034.92,833.0,0.8462,-0.0264
3037.91,833.5,0.8452,-0.0269
3040.9,834.0,0.8435,-0.0255
3043.89,834.5,0.8421,-0.0269
3046.87,835.0,0.8435,-0.0236
3049.86,835.5,0.8435,-0.0247
3052.84,836.0,0.8435,-0.0283
3055.83,836.5,0.8435,-0.0276
3058.83,837.0,0.8435,-0.0255
3061.81,837.5,0.8422,-0.0266
3064.79,838.0,0.8408,-0.0281
3067.78,838.5,0.8409,-0.0288
3070.76,839.0,0.8396,-0.0271
3073.74,839.5,0.8396,-0.025
3076.72,840.0,0.8395,-0.0254
3079.71,840.5,0.8396,-0.0277
3082.69,841.0,0.8385,-0.027
3085.66,841.5,0.8392,-0.026
3088.66,842.0,0.8392,-0.0238
3091.64,842.5,0.8392,-0.025
3094.61,843.0,0.8393,-0.0256
3097.6,843.5,0.8396,-0.0264
3100.59,844.0,0.8399,-0.0258
3103.58,844.5,0.8406,-0.027
3106.56,845.0,0.8406,-0.0257
3109.53,845.5,0.8403,-0.0307
3112.51,846.0,0.8393,-0.0346
3115.5,846.5,0.8368,-0.0342
3118.48,847.0,0.8366,-0.0343
3121.48,847.5,0.8363,-0.0318
3124.47,848.0,0.8354,-0.0329
3127.46,848.5,0.834,-0.0353
3130.45,849.0,0.8338,-0.0339
3133.4,849.5,0.8326,-0.0378
3136.38,850.0,0.8321,-0.0384
3139.35,850.5,0.8318,-0.0387
3142.33,851.0,0.8336,-0.0389
3145.34,851.5,0.8336,-0.0388
3148.33,852.0,0.8336,-0.0399
3151.34,852.5,0.8333,-0.0402
3154.35,853.0,0.8337,-0.0401
3157.37,853.5,0.8323,-0.0363
3160.38,854.0,0.831,-0.0381
3163.4,854.5,0.8297,-0.0364
3166.4,855.0,0.831,-0.0373
3169.39,855.5,0.8297,-0.0346
3172.39,856.0,0.8295,-0.0381
3175.39,856.5,0.8271,-0.0375
3178.39,857.0,0.8264,-0.0388
3181.4,857.5,0.8253,-0.0394
3184.4,858.0,0.825,-0.0395
3187.41,858.5,0.8238,-0.0394
3190.4,859.0,0.8245,-0.0403
3193.39,859.5,0.8251,-0.0392
3196.38,860.0,0.8245,-0.0426
3199.38,860.5,0.8238,-0.0436
3202.38,861.0,0.8248,-0.0429
3205.38,861.5,0.8251,-0.0426
3208.4,862.0,0.824,-0.044
3211.4,862.5,0.8238,-0.0438
3214.41,863.0,0.8238,-0.0437
3217.42,863.5,0.8238,-0.0448
3220.42,864.0,0.8238,-0.0452
3223.42,864.5,0.8224,-0.0461
3226.42,865.0,0.8224,-0.0475
3229.42,865.5,0.8225,-0.0477
3232.42,866.0,0.8222,-0.0465
3235.42,866.5,0.8211,-0.0506
3238.41,867.0,0.8198,-0.0521
3241.41,867.5,0.8198,-0.0515
3244.4,868.0,0.8185,-0.0516
3247.38,868.5,0.8185,-0.0524
3250.38,869.0,0.8185,-0.0534
3253.37,869.5,0.8185,-0.055
3256.38,870.0,0.8185,-0.0528
3259.37,870.5,0.8183,-0.0514
3262.38,871.0,0.8192,-0.0502
3265.39,871.5,0.8185,-0.0507
3268.4,872.0,0.8185,-0.0528
3271.41,872.5,0.8173,-0.0535
3274.41,873.0,0.8159,-0.0519
3277.42,873.5,0.8159,-0.0534
3280.43,874.0,0.8159,-0.0517
3283.44,874.5,0.8159,-0.0547
3286.44,875.0,0.8149,-0.0543
3289.44,875.5,0.8145,-0.0533
3292.43,876.0,0.8146,-0.0559
3295.43,876.5,0.8132,-0.0544
3298.43,877.0,0.8135,-0.0559
3301.43,877.5,0.8145,-0.0573
3304.44,878.0,0.8145,-0.0588
3307.45,878.5,0.8132,-0.0601
3310.46,879.0,0.8126,-0.0599
3313.46,879.5,0.8126,-0.0623
3316.47,880.0,0.8112,-0.0633
3319.46,880.5,0.8112,-0.0621
3322.44,881.0,0.8113,-0.0638
3325.45,881.5,0.8112,-0.0652
3328.45,882.0,0.8113,-0.0678
3331.47,882.5,0.8112,-0.0696
3334.49,883.0,0.8112,-0.0678
3337.5,883.5,0.8112,-0.0675
3340.51,884.0,0.8112,-0.0701
3343.52,884.5,0.8099,-0.0686
3346.52,885.0,0.8104,-0.0714
3349.53,885.5,0.8099,-0.0709
3352.54,886.0,0.8099,-0.0725
3355.55,886.5,0.8099,-0.0741
3358.56,887.0,0.8099,-0.0717
3361.59,887.5,0.8086,-0.0715
3364.6,888.0,0.8086,-0.0705
3367.62,888.5,0.8073,-0.0743
3370.63,889.0,0.8049,-0.0758
3373.63,889.5,0.806,-0.0749
3376.64,890.0,0.806,-0.0747
3379.65,890.5,0.806,-0.0754
3382.66,891.0,0.8063,-0.0775
3385.68,891.5,0.8073,-0.0789
3388.7,892.0,0.8073,-0.079
3391.71,892.5,0.8072,-0.0798
3394.72,893.0,0.8073,-0.0783
3397.74,893.5,0.806,-0.0799
3400.77,894.0,0.806,-0.0809
3403.79,894.5,0.8047,-0.0828
3406.81,895.0,0.8047,-0.0839
3409.83,895.5,0.8047,-0.0836
3412.85,896.0,0.8033,-0.0853
3415.87,896.5,0.802,-0.0862
3418.89,897.0,0.802,-0.085
3421.91,897.5,0.8013,-0.0853
3424.92,898.0,0.8007,-0.0862
3427.94,898.5,0.8007,-0.0869
3430.96,899.0,0.8007,-0.0847
3433.98,899.5,0.8007,-0.0828
3436.99,900.0,0.7994,-0.0834
3440.01,900.5,0.7994,-0.0856
3443.02,901.0,0.7991,-0.082
3446.03,901.5,0.8002,-0.0845
3449.04,902.0,0.8007,-0.0844
3452.06,902.5,0.8004,-0.083
3455.08,903.0,0.799,-0.0838
3458.09,903.5,0.7992,-0.0771
3461.11,904.0,0.7984,-0.0805
3464.13,904.5,0.7984,-0.0845
3467.14,905.0,0.7984,-0.0839
3470.15,905.5,0.7981,-0.0847
3473.18,906.0,0.7981,-0.084
3476.19,906.5,0.7971,-0.0852
3479.22,907.0,0.7968,-0.0826
3482.24,907.5,0.7968,-0.088
3485.25,908.0,0.7962,-0.0878
3488.26,908.5,0.7954,-0.0882
3491.25,909.0,0.7962,-0.0886
3494.25,909.5,0.7954,-0.0863
3497.27,910.0,0.7943,-0.089
3500.27,910.5,0.7941,-0.0899
3503.3,911.0,0.7928,-0.092
3506.31,911.5,0.7941,-0.0928
3509.32,912.0,0.7941,-0.0915
3512.32,912.5,0.7941,-0.0913
3515.33,913.0,0.7941,-0.0911
3518.34,913.5,0.7941,-0.0932
3521.35,914.0,0.7941,-0.0904
3524.38,914.5,0.7954,-0.0947
3527.4,915.0,0.7955,-0.0922
3530.42,915.5,0.7941,-0.0947
3533.44,916.0,0.7928,-0.0922
3536.46,916.5,0.7928,-0.0917
3539.45,917.0,0.7941,-0.0946
3542.46,917.5,0.7941,-0.0976
3545.46,918.0,0.7938,-0.0974
3548.49,918.5,0.7928,-0.0965
3551.53,919.0,0.7919,-0.0985
3554.56,919.5,0.7918,-0.0992
3557.58,920.0,0.7902,-0.0961
3560.58,920.5,0.7901,-0.0956
3563.59,921.0,0.7885,-0.0945
3566.59,921.5,0.7898,-0.0945
3569.6,922.0,0.7898,-0.0949
3572.6,922.5,0.7892,-0.0967
3575.61,923.0,0.7894,-0.0959
3578.62,923.5,0.7898,-0.1006
3581.62,924.0,0.7899,-0.1034
3584.63,924.5,0.7876,-0.1027
3587.64,925.0,0.786,-0.1
3590.62,925.5,0.7874,-0.1001
3593.63,926.0,0.7874,-0.1004
3596.63,926.5,0.7874,-0.1003
3599.62,927.0,0.7874,-0.1006
3602.65,927.5,0.7874,-0.1023
3605.66,928.0,0.7878,-0.1034
3608.68,928.5,0.7884,-0.1018
3611.72,929.0,0.7883,-0.1014
3614.74,929.5,0.7884,-0.1017
3617.76,930.0,0.7883,-0.1013
3620.77,930.5,0.7884,-0.1021
3623.79,931.0,0.7884,-0.1013
3626.8,931.5,0.7884,-0.1003
3629.82,932.0,0.7871,-0.1013
3632.84,932.5,0.7871,-0.1034
3635.85,933.0,0.7871,-0.1019
3638.86,933.5,0.7871,-0.103
3641.87,934.0,0.7871,-0.0991
3644.88,934.5,0.7871,-0.1022
3647.88,935.0,0.7872,-0.104
3650.88,935.5,0.7858,-0.106
3653.89,936.0,0.7858,-0.1026
3656.91,936.5,0.7858,-0.1059
3659.93,937.0,0.7858,-0.1054
3662.95,937.5,0.7844,-0.1056
3665.97,938.0,0.7837,-0.1049
3668.98,938.5,0.7832,-0.106
3671.98,939.0,0.7818,-0.1071
3674.99,939.5,0.7818,-0.1057
3678.01,940.0,0.7818,-0.1058
3681.02,940.5,0.7809,-0.1054
3684.03,941.0,0.7788,-0.1089
3687.04,941.5,0.7816,-0.1078
3690.06,942.0,0.7807,-0.1061
3693.09,942.5,0.7819,-0.1113
3696.1,943.0,0.782,-0.1121
3699.13,943.5,0.7832,-0.1092
3702.14,944.0,0.7823,-0.1091
3705.16,944.5,0.781,-0.112
3708.19,945.0,0.7809,-0.1105
3711.21,945.5,0.7806,-0.1115
3714.23,946.0,0.7803,-0.1121
3717.27,946.5,0.7803,-0.1099
3720.29,947.0,0.7803,-0.1121
3723.32,947.5,0.7795,-0.113
3726.34,948.0,0.779,-0.1096
3729.34,948.5,0.779,-0.1087
3732.37,949.0,0.779,-0.1079
3735.39,949.5,0.779,-0.1078
3738.43,950.0,0.779,-0.1076
3741.46,950.5,0.7784,-0.1045
3744.48,951.0,0.779,-0.1081
3747.51,951.5,0.779,-0.1062
3750.53,952.0,0.7776,-0.1069
3753.55,952.5,0.777,-0.1082
3756.57,953.0,0.777,-0.108
3759.59,953.5,0.7771,-0.1101
3762.62,954.0,0.777,-0.1108
3765.64,954.5,0.777,-0.1098
3768.65,955.0,0.777,-0.1101
3771.67,955.5,0.777,-0.1095
3774.68,956.0,0.777,-0.109
3777.71,956.5,0.7757,-0.11
3780.75,957.0,0.7756,-0.111
3783.78,957.5,0.777,-0.1105
3786.81,958.0,0.777,-0.11
3789.83,958.5,0.777,-0.1103
3792.86,959.0,0.7759,-0.1115
3795.89,959.5,0.7757,-0.1081
3798.91,960.0,0.7756,-0.1099
3801.95,960.5,0.7757,-0.1124
3804.98,961.0,0.7765,-0.111
3808.01,961.5,0.777,-0.1127
3811.03,962.0,0.777,-0.1134
3814.05,962.5,0.776,-0.1142
3817.07,963.0,0.7773,-0.1157
3820.1,963.5,0.7771,-0.1189
3823.11,964.0,0.7763,-0.119
3826.15,964.5,0.7749,-0.1186
3829.19,965.0,0.7747,-0.1187
3832.21,965.5,0.776,-0.1221
3835.24,966.0,0.776,-0.1208
3838.26,966.5,0.7747,-0.1202
3841.29,967.0,0.7747,-0.1221
3844.32,967.5,0.7756,-0.1196
3847.34,968.0,0.776,-0.1221
3850.36,968.5,0.776,-0.1215
3853.38,969.0,0.7762,-0.1243
3856.39,969.5,0.776,-0.1242
3859.41,970.0,0.776,-0.1212
3862.44,970.5,0.7761,-0.1233
3865.47,971.0,0.7739,-0.1223
3868.5,971.5,0.7706,-0.1248
3871.53,972.0,0.7706,-0.1215
3874.56,972.5,0.7706,-0.1213
3877.59,973.0,0.7706,-0.1202
3880.61,973.5,0.7693,-0.122
3883.62,974.0,0.7693,-0.1215
3886.64,974.5,0.7693,-0.1187
3889.66,975.0,0.7717,-0.1196
3892.69,975.5,0.7719,-0.1161
3895.71,976.0,0.7719,-0.1137
3898.74,976.5,0.7719,-0.1154
3901.77,977.0,0.7719,-0.1151
3904.79,977.5,0.7722,-0.1153
3907.81,978.0,0.7719,-0.1144
3910.84,978.5,0.7719,-0.1157
3913.87,979.0,0.773,-0.1164
3916.9,979.5,0.7716,-0.1182
3919.94,980.0,0.7716,-0.1175
3922.97,980.5,0.7716,-0.1148
3926,981.0,0.7717,-0.1144
3929.04,981.5,0.7703,-0.1101
3932.07,982.0,0.7701,-0.1109
3935.1,982.5,0.769,-0.1111
3938.14,983.0,0.7703,-0.1098
3941.18,983.5,0.7708,-0.1096
3944.23,984.0,0.7716,-0.1042
3947.28,984.5,0.7717,-0.1058
3950.33,985.0,0.7703,-0.1116
3953.37,985.5,0.769,-0.1147
3956.4,986.0,0.769,-0.1132
3959.44,986.5,0.7703,-0.1098
3962.47,987.0,0.7699,-0.1135
3965.5,987.5,0.769,-0.1129
3968.54,988.0,0.769,-0.113
3971.59,988.5,0.7683,-0.111
3974.64,989.0,0.7676,-0.1104
3977.69,989.5,0.7678,-0.1118
3980.73,990.0,0.769,-0.1119
3983.78,990.5,0.769,-0.108
3986.83,991.0,0.769,-0.1136
3989.87,991.5,0.769,-0.1094
3992.92,992.0,0.7677,-0.1071
3995.97,992.5,0.7677,-0.1067
3999.01,993.0,0.7677,-0.108
4002.05,993.5,0.767,-0.1098
4005.08,994.0,0.767,-0.1061
4008.11,994.5,0.7669,-0.1047
4011.14,995.0,0.767,-0.1053
4014.18,995.5,0.766,-0.1051
4017.22,996.0,0.7657,-0.1048
4020.22,996.5,0.7657,-0.1073
4023.24,997.0,0.7646,-0.106
4026.27,997.5,0.7651,-0.1051
4029.3,998.0,0.7657,-0.1058
4032.36,998.5,0.7657,-0.1053
4035.41,999.0,0.7657,-0.1028
4038.45,999.5,0.7657,-0.096
4041.49,1000.0,0.7657,-0.0985
4044.52,1000.5,0.7657,-0.0949
4047.54,1001.0,0.765,-0.0924
4050.57,1001.5,0.765,-0.0972
4053.62,1002.0,0.7644,-0.0942
4056.67,1002.5,0.7644,-0.0892
4059.73,1003.0,0.7644,-0.09
4062.78,1003.5,0.7644,-0.0916
4065.83,1004.0,0.765,-0.0911
4068.88,1004.5,0.765,-0.0904
4071.95,1005.0,0.7657,-0.094
4075,1005.5,0.7657,-0.0923
4078.05,1006.0,0.7644,-0.091
4081.11,1006.5,0.7616,-0.0875
4084.16,1007.0,0.7617,-0.0885
4087.21,1007.5,0.7623,-0.0905
4090.26,1008.0,0.7617,-0.0879
4093.3,1008.5,0.7614,-0.0883
4096.34,1009.0,0.7614,-0.0881
4099.37,1009.5,0.7614,-0.0849
4102.41,1010.0,0.7614,-0.0876
4105.45,1010.5,0.7614,-0.0873
4108.48,1011.0,0.7627,-0.0834
4111.52,1011.5,0.7627,-0.0796
4114.56,1012.0,0.764,-0.0806
4117.61,1012.5,0.7627,-0.0783
4120.67,1013.0,0.7596,-0.0767
4123.72,1013.5,0.7618,-0.0758
4126.75,1014.0,0.7619,-0.0783
4129.8,1014.5,0.7633,-0.0764
4132.85,1015.0,0.7632,-0.0745
4135.88,1015.5,0.7606,-0.0743
4138.93,1016.0,0.7606,-0.074
4141.96,1016.5,0.7605,-0.0749
4145,1017.0,0.7593,-0.0775
4148.05,1017.5,0.7593,-0.0771
4151.09,1018.0,0.7573,-0.0756
4154.12,1018.5,0.7573,-0.0794
4157.15,1019.0,0.7558,-0.0781
4160.19,1019.5,0.7552,-0.0799
4163.24,1020.0,0.7571,-0.0796
4166.3,1020.5,0.7571,-0.0823
4169.37,1021.0,0.7571,-0.084
4172.41,1021.5,0.7571,-0.0841
4175.45,1022.0,0.7571,-0.0833
4178.49,1022.5,0.7575,-0.0853
4181.53,1023.0,0.7578,-0.0842
4184.57,1023.5,0.7579,-0.082
4187.6,1024.0,0.7579,-0.0821
4190.64,1024.5,0.7584,-0.0818
4193.67,1025.0,0.7584,-0.0819
4196.7,1025.5,0.7583,-0.0806
4199.73,1026.0,0.7606,-0.0762
4202.76,1026.5,0.7611,-0.0753
4205.79,1027.0,0.7611,-0.0726
4208.83,1027.5,0.7611,-0.0723
4211.87,1028.0,0.7611,-0.0711
4214.91,1028.5,0.7609,-0.0678
4217.95,1029.0,0.7595,-0.0711
4221,1029.5,0.7585,-0.0679
4224.04,1030.0,0.757,-0.0646
4227.09,1030.5,0.7573,-0.0643
4230.13,1031.0,0.7586,-0.0649
4233.17,1031.5,0.759,-0.0648
4236.21,1032.0,0.759,-0.063
4239.25,1032.5,0.7588,-0.0582
4242.29,1033.0,0.7583,-0.0544
4245.33,1033.5,0.7583,-0.0535
4248.37,1034.0,0.7583,-0.0534
4251.41,1034.5,0.7594,-0.056
4254.46,1035.0,0.7593,-0.0527
4257.51,1035.5,0.7583,-0.0506
4260.56,1036.0,0.7579,-0.0463
4263.62,1036.5,0.7565,-0.0464
4266.67,1037.0,0.7557,-0.0448
4269.73,1037.5,0.7557,-0.0438
4272.76,1038.0,0.7561,-0.0447
4275.79,1038.5,0.7563,-0.0401
4278.85,1039.0,0.7564,-0.039
4281.9,1039.5,0.7564,-0.0381
4284.97,1040.0,0.7563,-0.0376
4288.04,1040.5,0.755,-0.035
4291.1,1041.0,0.7539,-0.0336
4294.15,1041.5,0.755,-0.0326
4297.21,1042.0,0.7537,-0.032
4300.28,1042.5,0.7537,-0.0292
4303.35,1043.0,0.7524,-0.0314
4306.43,1043.5,0.7527,-0.0302
4309.5,1044.0,0.7537,-0.0278
4312.56,1044.5,0.754,-0.0251
4315.62,1045.0,0.7544,-0.0209
4318.69,1045.5,0.7544,-0.019
4321.75,1046.0,0.7544,-0.0147
4324.81,1046.5,0.7544,-0.014
4327.87,1047.0,0.7531,-0.0134
4330.92,1047.5,0.753,-0.0129
4333.97,1048.0,0.7531,-0.0117
4337.03,1048.5,0.753,-0.0072
4340.09,1049.0,0.7531,-0.0066
4343.14,1049.5,0.7524,-0.0012
4346.2,1050.0,0.7524,-0.0032
4349.25,1050.5,0.7531,0.0018
4352.3,1051.0,0.7529,0.0051
4355.35,1051.5,0.7524,0.0079
4358.41,1052.0,0.7524,0.0107
4361.45,1052.5,0.7537,0.0117
4364.5,1053.0,0.7518,0.013
4367.55,1053.5,0.7515,0.0133
4370.6,1054.0,0.7523,0.0123
4373.65,1054.5,0.7534,0.014
4376.7,1055.0,0.7536,0.0158
4379.75,1055.5,0.7536,0.0159
4382.79,1056.0,0.7523,0.0158
4385.85,1056.5,0.7522,0.0159
4388.9,1057.0,0.7523,0.0218
4391.95,1057.5,0.7537,0.0226
4395.01,1058.0,0.7536,0.0227
4398.05,1058.5,0.7537,0.0256
4401.1,1059.0,0.7523,0.0289
4404.15,1059.5,0.7512,0.0316
4407.19,1060.0,0.75,0.0301
4410.24,1060.5,0.75,0.0327
4413.3,1061.0,0.75,0.0313
4416.35,1061.5,0.75,0.0305
4419.4,1062.0,0.7498,0.0319
4422.47,1062.5,0.7496,0.0338
4425.53,1063.0,0.7499,0.0306
4428.59,1063.5,0.751,0.0323
4431.65,1064.0,0.751,0.034
4434.71,1064.5,0.7523,0.0359
4437.77,1065.0,0.7515,0.0352
4440.83,1065.5,0.7523,0.0353
4443.89,1066.0,0.7523,0.0385
4446.95,1066.5,0.751,0.041
4450.01,1067.0,0.7503,0.0403
4453.07,1067.5,0.7497,0.0389
4456.12,1068.0,0.7482,0.0425
4459.18,1068.5,0.7464,0.0414
4462.24,1069.0,0.7478,0.0447
4465.29,1069.5,0.7501,0.0474