File: Wood/Calibration_Data/FSRI/FSRI_TGA_N2_10K_R2.csv
Time (s),Temperature (K),Mass (mg)
0,324.5,3.95
15.0216,325,3.951
24.6138,325.5,3.95
32.6586,326,3.947
39.6276,326.5,3.947
45.813,327,3.947
51.5472,327.5,3.947
56.9418,328,3.95
62.0142,328.5,3.948
66.8772,329,3.947
71.6124,329.5,3.948
76.1406,330,3.949
80.592,330.5,3.949
84.9252,331,3.949
89.1978,331.5,3.949
93.3462,332,3.948
97.4358,332.5,3.947
101.4498,333,3.947
105.4374,333.5,3.947
109.3566,334,3.947
113.2542,334.5,3.946
117.0786,335,3.947
120.8628,335.5,3.945
124.6014,336,3.946
128.3352,336.5,3.946
132.0486,337,3.943
135.7356,337.5,3.943
139.374,338,3.943
143.0034,338.5,3.944
146.5794,339,3.944
150.1668,339.5,3.944
153.738,340,3.944
157.2774,340.5,3.944
160.8108,341,3.944
164.3028,341.5,3.944
167.7558,342,3.943
171.2064,342.5,3.943
174.6618,343,3.943
178.113,343.5,3.942
181.53,344,3.941
184.9092,344.5,3.943
188.3094,345,3.943
191.6862,345.5,3.942
195.0486,346,3.942
198.4092,346.5,3.942
201.7398,347,3.942
205.0176,347.5,3.942
208.3092,348,3.942
211.6152,348.5,3.943
214.9158,349,3.941
218.2368,349.5,3.942
221.5284,350,3.944
224.7978,350.5,3.943
228.0492,351,3.943
231.294,351.5,3.942
234.5274,352,3.942
237.7392,352.5,3.941
240.9444,353,3.941
244.152,353.5,3.938
247.3356,354,3.94
250.506,354.5,3.94
253.6692,355,3.938
256.8258,355.5,3.938
259.974,356,3.939
263.124,356.5,3.939
266.2782,357,3.938
269.412,357.5,3.937
272.5476,358,3.937
275.6664,358.5,3.937
278.7678,359,3.937
281.871,359.5,3.936
284.955,360,3.937
288.027,360.5,3.936
291.1062,361,3.936
294.1686,361.5,3.936
297.2334,362,3.936
300.2922,362.5,3.937
303.3324,363,3.937
306.3678,363.5,3.937
309.3966,364,3.936
312.4272,364.5,3.936
315.4572,365,3.936
318.4782,365.5,3.937
321.4938,366,3.936
324.501,366.5,3.936
327.5082,367,3.936
330.5142,367.5,3.934
333.5202,368,3.934
336.5178,368.5,3.936
339.504,369,3.936
342.4818,369.5,3.936
345.4458,370,3.935
348.4218,370.5,3.935
351.3858,371,3.934
354.3378,371.5,3.934
357.2982,372,3.934
360.2376,372.5,3.934
363.1896,373,3.935
366.153,373.5,3.934
369.0912,374,3.933
372.0474,374.5,3.934
374.9838,375,3.933
377.9232,375.5,3.931
380.8686,376,3.932
383.8134,376.5,3.931
386.7528,377,3.931
389.6814,377.5,3.932
392.6124,378,3.932
395.5434,378.5,3.931
398.4612,379,3.932
401.3808,379.5,3.93
404.3112,380,3.932
407.2032,380.5,3.932
410.1216,381,3.932
413.0334,381.5,3.931
415.9392,382,3.932
418.8672,382.5,3.932
421.7868,383,3.93
424.7022,383.5,3.931
427.614,384,3.93
430.5348,384.5,3.931
433.4418,385,3.93
436.3512,385.5,3.931
439.2726,386,3.93
442.1766,386.5,3.931
445.0842,387,3.931
447.9858,387.5,3.931
450.888,388,3.93
453.789,388.5,3.931
456.6822,389,3.932
459.5844,389.5,3.932
462.474,390,3.932
465.363,390.5,3.931
468.258,391,3.929
471.1578,391.5,3.928
474.0672,392,3.928
476.9646,392.5,3.928
479.8698,393,3.929
482.7582,393.5,3.929
485.6478,394,3.93
488.5434,394.5,3.929
491.4348,395,3.929
494.3286,395.5,3.929
497.2236,396,3.928
500.1066,396.5,3.929
502.9806,397,3.928
505.8624,397.5,3.928
508.7334,398,3.929
511.5948,398.5,3.929
514.446,399,3.929
517.329,399.5,3.929
520.1976,400,3.929
523.0734,400.5,3.928
525.9798,401,3.926
528.8622,401.5,3.926
531.7278,402,3.926
534.603,402.5,3.929
537.4662,403,3.929
540.3264,403.5,3.929
543.1842,404,3.927
546.0588,404.5,3.927
548.9232,405,3.927
551.7924,405.5,3.927
554.6466,406,3.928
557.499,406.5,3.927
560.3622,407,3.927
563.2116,407.5,3.927
566.0748,408,3.927
568.9236,408.5,3.928
571.779,409,3.928
574.6284,409.5,3.928
577.4958,410,3.928
580.3368,410.5,3.927
583.1784,411,3.927
586.0344,411.5,3.928
588.8784,412,3.926
591.7224,412.5,3.926
594.6066,413,3.925
597.4506,413.5,3.924
600.303,414,3.925
603.1836,414.5,3.924
606.0258,415,3.924
608.8704,415.5,3.924
611.7126,416,3.925
614.5482,416.5,3.926
617.3916,417,3.926
620.2458,417.5,3.925
623.0952,418,3.926
625.911,418.5,3.926
628.7232,419,3.926
631.5606,419.5,3.926
634.3956,420,3.925
637.2384,420.5,3.924
640.1028,421,3.923
642.9378,421.5,3.925
645.7626,422,3.926
648.6126,422.5,3.925
651.462,423,3.925
654.327,423.5,3.925
657.1668,424,3.926
660.0024,424.5,3.925
662.8338,425,3.925
665.6652,425.5,3.925
668.487,426,3.925
671.298,426.5,3.925
674.1282,427,3.925
676.9614,427.5,3.924
679.7952,428,3.925
682.6584,428.5,3.924
685.4976,429,3.925
688.3398,429.5,3.925
691.1826,430,3.924
694.0002,430.5,3.923
696.8262,431,3.923
699.6564,431.5,3.924
702.4746,432,3.924
705.3078,432.5,3.924
708.1554,433,3.924
710.991,433.5,3.924
713.8128,434,3.923
716.6436,434.5,3.923
719.4696,435,3.923
722.301,435.5,3.923
725.1354,436,3.922
727.9686,436.5,3.922
730.7994,437,3.924
733.6314,437.5,3.924
736.4532,438,3.923
739.2726,438.5,3.923
742.095,439,3.923
744.9348,439.5,3.923
747.765,440,3.921
750.6078,440.5,3.92
753.459,441,3.919
756.2862,441.5,3.918
759.1158,442,3.918
761.9376,442.5,3.918
764.7666,443,3.918
767.5992,443.5,3.918
770.4306,444,3.919
773.2734,444.5,3.919
776.1042,445,3.919
778.9404,445.5,3.919
781.779,446,3.92
784.6158,446.5,3.919
787.4556,447,3.92
790.2918,447.5,3.92
793.1244,448,3.92
795.9444,448.5,3.92
798.759,449,3.919
801.591,449.5,3.919
804.4224,450,3.919
807.249,450.5,3.918
810.1044,451,3.918
812.9286,451.5,3.918
815.7576,452,3.918
818.5968,452.5,3.918
821.4384,453,3.918
824.277,453.5,3.917
827.1132,454,3.917
829.9488,454.5,3.917
832.7724,455,3.917
835.602,455.5,3.917
838.4304,456,3.917
841.2594,456.5,3.914
844.1004,457,3.913
846.9342,457.5,3.914
849.7686,458,3.914
852.6138,458.5,3.913
855.4488,459,3.913
858.2862,459.5,3.912
861.1188,460,3.912
863.946,460.5,3.912
866.7738,461,3.91
869.6034,461.5,3.91
872.4198,462,3.91
875.241,462.5,3.91
878.0562,463,3.909
880.8702,463.5,3.909
883.6902,464,3.909
886.5144,464.5,3.907
889.3458,465,3.906
892.1844,465.5,3.907
895.0176,466,3.907
897.8568,466.5,3.906
900.6858,467,3.906
903.5112,467.5,3.905
906.3384,468,3.905
909.168,468.5,3.905
911.9988,469,3.904
914.8458,469.5,3.903
917.691,470,3.903
920.5398,470.5,3.903
923.3622,471,3.903
926.1822,471.5,3.902
929.0088,472,3.902
931.8114,472.5,3.902
934.6122,473,3.902
937.4532,473.5,3.902
940.2942,474,3.901
943.1448,474.5,3.901
945.9978,475,3.9
948.8514,475.5,3.898
951.6834,476,3.897
954.5106,476.5,3.896
957.354,477,3.896
960.1974,477.5,3.894
963.033,478,3.894
965.8734,478.5,3.893
968.6838,479,3.893
971.5068,479.5,3.892
974.3334,480,3.892
977.1636,480.5,3.892
980.0142,481,3.892
982.8564,481.5,3.889
985.6956,482,3.888
988.53,482.5,3.886
991.3698,483,3.885
994.2168,483.5,3.883
997.0476,484,3.882
999.8898,484.5,3.881
1002.72,485,3.881
1005.55,485.5,3.879
1008.38,486,3.879
1011.22,486.5,3.879
1014.066,487,3.878
1016.9,487.5,3.878
1019.76,488,3.877
1022.61,488.5,3.875
1025.46,489,3.874
1028.3,489.5,3.872
1031.14,490,3.87
1033.98,490.5,3.87
1036.82,491,3.869
1039.644,491.5,3.869
1042.482,492,3.869
1045.32,492.5,3.869
1048.15,493,3.867
1050.99,493.5,3.865
1053.86,494,3.864
1056.7,494.5,3.863
1059.55,495,3.861
1062.41,495.5,3.86
1065.27,496,3.858
1068.1,496.5,3.857
1070.95,497,3.855
1073.8,497.5,3.854
1076.63,498,3.853
1079.48,498.5,3.852
1082.32,499,3.852
1085.16,499.5,3.85
1088.013,500,3.849
1090.85,500.5,3.848
1093.698,501,3.846
1096.52,501.5,3.845
1099.35,502,3.845
1102.19,502.5,3.842
1105.03,503,3.843
1107.88,503.5,3.841
1110.75,504,3.841
1113.6,504.5,3.839
1116.43,505,3.838
1119.264,505.5,3.836
1122.1,506,3.836
1124.94,506.5,3.835
1127.78,507,3.834
1130.64,507.5,3.833
1133.475,508,3.831
1136.31,508.5,3.83
1139.15,509,3.829
1142,509.5,3.829
1144.83,510,3.827
1147.68,510.5,3.825
1150.521,511,3.824
1153.362,511.5,3.822
1156.2,512,3.82
1159.05,512.5,3.82
1161.89,513,3.818
1164.74,513.5,3.817
1167.59,514,3.816
1170.42,514.5,3.814
1173.27,515,3.814
1176.12,515.5,3.813
1178.964,516,3.81
1181.82,516.5,3.809
1184.67,517,3.808
1187.52,517.5,3.807
1190.37,518,3.806
1193.2,518.5,3.805
1196.028,519,3.804
1198.87,519.5,3.801
1201.71,520,3.8
1204.56,520.5,3.797
1207.43,521,3.796
1210.29,521.5,3.795
1213.14,522,3.793
1215.98,522.5,3.789
1218.819,523,3.788
1221.67,523.5,3.787
1224.519,524,3.784
1227.36,524.5,3.783
1230.22,525,3.779
1233.08,525.5,3.777
1235.922,526,3.776
1238.76,526.5,3.775
1241.61,527,3.772
1244.46,527.5,3.771
1247.295,528,3.77
1250.151,528.5,3.768
1253.007,529,3.767
1255.84,529.5,3.766
1258.7,530,3.763
1261.53,530.5,3.763
1264.38,531,3.761
1267.23,531.5,3.758
1270.09,532,3.755
1272.94,532.5,3.753
1275.79,533,3.751
1278.63,533.5,3.748
1281.48,534,3.745
1284.336,534.5,3.742
1287.17,535,3.739
1290.04,535.5,3.736
1292.88,536,3.736
1295.72,536.5,3.733
1298.58,537,3.729
1301.43,537.5,3.727
1304.289,538,3.724
1307.15,538.5,3.721
1309.99,539,3.718
1312.85,539.5,3.716
1315.7,540,3.716
1318.554,540.5,3.713
1321.4,541,3.71
1324.251,541.5,3.707
1327.1,542,3.704
1329.95,542.5,3.701
1332.8,543,3.697
1335.64,543.5,3.694
1338.49,544,3.692
1341.34,544.5,3.69
1344.2,545,3.687
1347.06,545.5,3.684
1349.92,546,3.68
1352.78,546.5,3.676
1355.63,547,3.673
1358.49,547.5,3.672
1361.343,548,3.669
1364.19,548.5,3.666
1367.02,549,3.662
1369.88,549.5,3.658
1372.73,550,3.654
1375.6,550.5,3.65
1378.48,551,3.646
1381.35,551.5,3.643
1384.21,552,3.641
1387.06,552.5,3.636
1389.91,553,3.632
1392.77,553.5,3.629
1395.63,554,3.626
1398.49,554.5,3.622
1401.351,555,3.619
1404.21,555.5,3.616
1407.07,556,3.61
1409.93,556.5,3.605
1412.781,557,3.601
1415.634,557.5,3.597
1418.48,558,3.592
1421.33,558.5,3.588
1424.2,559,3.584
1427.049,559.5,3.581
1429.91,560,3.576
1432.77,560.5,3.571
1435.62,561,3.568
1438.48,561.5,3.563
1441.34,562,3.559
1444.203,562.5,3.553
1447.074,563,3.548
1449.94,563.5,3.544
1452.79,564,3.539
1455.64,564.5,3.535
1458.5,565,3.531
1461.36,565.5,3.525
1464.23,566,3.518
1467.09,566.5,3.514
1469.937,567,3.508
1472.8,567.5,3.499
1475.66,568,3.494
1478.52,568.5,3.489
1481.376,569,3.484
1484.24,569.5,3.479
1487.097,570,3.473
1489.959,570.5,3.468
1492.83,571,3.462
1495.7,571.5,3.456
1498.57,572,3.45
1501.41,572.5,3.444
1504.26,573,3.439
1507.11,573.5,3.431
1509.97,574,3.426
1512.84,574.5,3.42
1515.73,575,3.415
1518.61,575.5,3.408
1521.48,576,3.401
1524.336,576.5,3.394
1527.2,577,3.387
1530.06,577.5,3.379
1532.92,578,3.372
1535.8,578.5,3.366
1538.67,579,3.359
1541.544,579.5,3.352
1544.415,580,3.344
1547.28,580.5,3.335
1550.15,581,3.329
1553.02,581.5,3.321
1555.89,582,3.313
1558.77,582.5,3.304
1561.66,583,3.297
1564.53,583.5,3.289
1567.41,584,3.281
1570.26,584.5,3.274
1573.134,585,3.265
1576.01,585.5,3.256
1578.89,586,3.249
1581.79,586.5,3.24
1584.66,587,3.23
1587.53,587.5,3.223
1590.41,588,3.216
1593.3,588.5,3.206
1596.177,589,3.197
1599.08,589.5,3.188
1601.95,590,3.178
1604.83,590.5,3.169
1607.712,591,3.159
1610.58,591.5,3.15
1613.45,592,3.14
1616.33,592.5,3.129
1619.21,593,3.119
1622.08,593.5,3.108
1624.98,594,3.098
1627.82,594.5,3.088
1630.71,595,3.077
1633.58,595.5,3.066
1636.47,596,3.055
1639.37,596.5,3.045
1642.27,597,3.033
1645.14,597.5,3.021
1648.03,598,3.011
1650.89,598.5,3.003
1653.774,599,2.992
1656.65,599.5,2.983
1659.53,600,2.971
1662.42,600.5,2.96
1665.3,601,2.949
1668.19,601.5,2.939
1671.07,602,2.928
1673.95,602.5,2.913
1676.84,603,2.903
1679.71,603.5,2.89
1682.58,604,2.878
1685.46,604.5,2.867
1688.35,605,2.855
1691.23,605.5,2.843
1694.11,606,2.832
1696.98,606.5,2.821
1699.87,607,2.809
1702.75,607.5,2.798
1705.61,608,2.784
1708.48,608.5,2.773
1711.36,609,2.76
1714.23,609.5,2.748
1717.14,610,2.737
1720.05,610.5,2.724
1722.94,611,2.711
1725.84,611.5,2.696
1728.74,612,2.682
1731.63,612.5,2.672
1734.51,613,2.658
1737.39,613.5,2.645
1740.28,614,2.632
1743.16,614.5,2.62
1746.05,615,2.606
1748.94,615.5,2.593
1751.823,616,2.579
1754.71,616.5,2.567
1757.613,617,2.553
1760.51,617.5,2.538
1763.406,618,2.525
1766.32,618.5,2.513
1769.22,619,2.501
1772.13,619.5,2.487
1775.022,620,2.474
1777.92,620.5,2.459
1780.8,621,2.444
1783.69,621.5,2.431
1786.59,622,2.415
1789.49,622.5,2.4
1792.39,623,2.388
1795.296,623.5,2.374
1798.21,624,2.359
1801.12,624.5,2.344
1804.03,625,2.328
1806.93,625.5,2.313
1809.83,626,2.296
1812.73,626.5,2.28
1815.636,627,2.265
1818.55,627.5,2.249
1821.45,628,2.231
1824.36,628.5,2.217
1827.27,629,2.202
1830.17,629.5,2.186
1833.08,630,2.169
1835.99,630.5,2.154
1838.89,631,2.137
1841.81,631.5,2.121
1844.73,632,2.103
1847.64,632.5,2.087
1850.56,633,2.071
1853.46,633.5,2.054
1856.37,634,2.036
1859.29,634.5,2.018
1862.2,635,2
1865.13,635.5,1.984
1868.05,636,1.963
1870.965,636.5,1.944
1873.89,637,1.924
1876.788,637.5,1.905
1879.67,638,1.886
1882.57,638.5,1.868
1885.47,639,1.848
1888.38,639.5,1.828
1891.305,640,1.811
1894.23,640.5,1.794
1897.128,641,1.775
1900.026,641.5,1.755
1902.94,642,1.734
1905.85,642.5,1.715
1908.77,643,1.696
1911.68,643.5,1.677
1914.58,644,1.657
1917.47,644.5,1.638
1920.36,645,1.619
1923.25,645.5,1.599
1926.14,646,1.579
1929.03,646.5,1.56
1931.916,647,1.542
1934.796,647.5,1.525
1937.67,648,1.506
1940.55,648.5,1.487
1943.43,649,1.469
1946.31,649.5,1.451
1949.193,650,1.433
1952.05,650.5,1.416
1954.91,651,1.398
1957.767,651.5,1.382
1960.62,652,1.367
1963.49,652.5,1.351
1966.34,653,1.336
1969.18,653.5,1.323
1972.03,654,1.309
1974.88,654.5,1.297
1977.72,655,1.284
1980.57,655.5,1.272
1983.417,656,1.261
1986.26,656.5,1.249
1989.11,657,1.239
1991.95,657.5,1.228
1994.82,658,1.219
1997.676,658.5,1.211
2000.526,659,1.204
2003.38,659.5,1.196
2006.25,660,1.189
2009.112,660.5,1.184
2011.98,661,1.177
2014.85,661.5,1.171
2017.72,662,1.167
2020.59,662.5,1.163
2023.464,663,1.159
2026.34,663.5,1.156
2029.23,664,1.153
2032.12,664.5,1.149
2035.01,665,1.146
2037.906,665.5,1.142
2040.81,666,1.139
2043.71,666.5,1.136
2046.62,667,1.135
2049.52,667.5,1.133
2052.43,668,1.13
2055.33,668.5,1.128
2058.24,669,1.125
2061.16,669.5,1.124
2064.08,670,1.123
2066.988,670.5,1.122
2069.901,671,1.121
2072.81,671.5,1.12
2075.721,672,1.12
2078.64,672.5,1.117
2081.56,673,1.114
2084.47,673.5,1.111
2087.4,674,1.11
2090.316,674.5,1.111
2093.24,675,1.109
2096.17,675.5,1.107
2099.1,676,1.105
2102.02,676.5,1.103
2104.94,677,1.101
2107.86,677.5,1.1
2110.78,678,1.099
2113.7,678.5,1.096
2116.62,679,1.094
2119.55,679.5,1.092
2122.473,680,1.09
2125.41,680.5,1.089
2128.341,681,1.088
2131.266,681.5,1.086
2134.194,682,1.085
2137.12,682.5,1.084
2140.04,683,1.082
2142.95,683.5,1.081
2145.88,684,1.081
2148.81,684.5,1.079
2151.723,685,1.077
2154.651,685.5,1.075
2157.57,686,1.074
2160.49,686.5,1.073
2163.42,687,1.071
2166.34,687.5,1.07
2169.26,688,1.069
2172.189,688.5,1.067
2175.11,689,1.065
2178.03,689.5,1.063
2180.96,690,1.062
2183.89,690.5,1.061
2186.81,691,1.059
2189.74,691.5,1.058
2192.67,692,1.058
2195.58,692.5,1.056
2198.5,693,1.055
2201.436,693.5,1.053
2204.37,694,1.052
2207.31,694.5,1.05
2210.256,695,1.049
2213.19,695.5,1.048
2216.12,696,1.047
2219.06,696.5,1.047
2221.97,697,1.045
2224.911,697.5,1.043
2227.845,698,1.041
2230.776,698.5,1.039
2233.72,699,1.037
2236.65,699.5,1.035
2239.578,700,1.034
2242.512,700.5,1.033
2245.46,701,1.033
2248.4,701.5,1.031
2251.344,702,1.029
2254.29,702.5,1.029
2257.23,703,1.027
2260.17,703.5,1.025
2263.12,704,1.024
2266.06,704.5,1.023
2269.01,705,1.022
2271.96,705.5,1.02
2274.9,706,1.019
2277.855,706.5,1.019
2280.8,707,1.017
2283.75,707.5,1.015
2286.7,708,1.014
2289.64,708.5,1.014
2292.585,709,1.011
2295.53,709.5,1.01
2298.47,710,1.008
2301.41,710.5,1.007
2304.36,711,1.006
2307.3,711.5,1.004
2310.237,712,1.001
2313.18,712.5,1
2316.12,713,1
2319.06,713.5,0.999
2322,714,0.999
2324.928,714.5,0.996
2327.86,715,0.994
2330.8,715.5,0.993
2333.748,716,0.992
2336.7,716.5,0.991
2339.64,717,0.99
2342.58,717.5,0.988
2345.53,718,0.988
2348.47,718.5,0.987
2351.421,719,0.986
2354.37,719.5,0.983
2357.31,720,0.981
2360.26,720.5,0.981
2363.21,721,0.982
2366.17,721.5,0.982
2369.12,722,0.98
2372.1,722.5,0.977
2375.06,723,0.977
2378.01,723.5,0.976
2380.956,724,0.974
2383.91,724.5,0.973
2386.86,725,0.973
2389.8,725.5,0.972
2392.76,726,0.97
2395.7,726.5,0.972
2398.66,727,0.97
2401.63,727.5,0.968
2404.584,728,0.967
2407.51,728.5,0.966
2410.46,729,0.966
2413.4,729.5,0.965
2416.35,730,0.963
2419.32,730.5,0.96
2422.28,731,0.959
2425.23,731.5,0.959
2428.19,732,0.957
2431.14,732.5,0.957
2434.09,733,0.956
2437.05,733.5,0.955
2440.01,734,0.955
2442.951,734.5,0.954
2445.9,735,0.953
2448.858,735.5,0.952
2451.83,736,0.952
2454.79,736.5,0.95
2457.77,737,0.948
2460.72,737.5,0.946
2463.67,738,0.946
2466.64,738.5,0.945
2469.57,739,0.946
2472.531,739.5,0.946
2475.49,740,0.945
2478.44,740.5,0.944
2481.41,741,0.944
2484.39,741.5,0.944
2487.35,742,0.943
2490.31,742.5,0.942
2493.29,743,0.942
2496.246,743.5,0.941
2499.21,744,0.941
2502.189,744.5,0.94
2505.15,745,0.938
2508.13,745.5,0.937
2511.09,746,0.936
2514.05,746.5,0.937
2517.02,747,0.935
2519.979,747.5,0.934
2522.94,748,0.934
2525.91,748.5,0.933
2528.874,749,0.931
2531.84,749.5,0.93
2534.82,750,0.928
2537.79,750.5,0.928
2540.76,751,0.928
2543.73,751.5,0.927
2546.69,752,0.927
2549.66,752.5,0.926
2552.63,753,0.924
2555.59,753.5,0.923
2558.53,754,0.923
2561.49,754.5,0.923
2564.45,755,0.921
2567.42,755.5,0.921
2570.406,756,0.921
2573.38,756.5,0.922
2576.35,757,0.921
2579.316,757.5,0.922
2582.28,758,0.92
2585.26,758.5,0.919
2588.226,759,0.918
2591.19,759.5,0.917
2594.14,760,0.917
2597.1,760.5,0.917
2600.06,761,0.916
2603.04,761.5,0.915
2606.025,762,0.915
2609,762.5,0.912
2611.956,763,0.911
2614.91,763.5,0.911
2617.869,764,0.91
2620.83,764.5,0.909
2623.8,765,0.908
2626.76,765.5,0.908
2629.72,766,0.908
2632.68,766.5,0.908
2635.65,767,0.907
2638.62,767.5,0.907
2641.59,768,0.907
2644.56,768.5,0.907
2647.53,769,0.905
2650.5,769.5,0.905
2653.46,770,0.903
2656.425,770.5,0.902
2659.39,771,0.901
2662.36,771.5,0.901
2665.317,772,0.901
2668.29,772.5,0.901
2671.27,773,0.9
2674.25,773.5,0.9
2677.23,774,0.9
2680.2,774.5,0.899
2683.173,775,0.899
2686.15,775.5,0.899
2689.13,776,0.899
2692.1,776.5,0.898
2695.08,777,0.897
2698.06,777.5,0.896
2701.032,778,0.896
2703.99,778.5,0.894
2706.96,779,0.893
2709.92,779.5,0.893
2712.888,780,0.893
2715.85,780.5,0.893
2718.83,781,0.892
2721.8,781.5,0.892
2724.765,782,0.891
2727.74,782.5,0.891
2730.72,783,0.891
2733.68,783.5,0.892
2736.65,784,0.891
2739.62,784.5,0.889
2742.6,785,0.889
2745.57,785.5,0.888
2748.546,786,0.885
2751.519,786.5,0.884
2754.474,787,0.886
2757.426,787.5,0.887
2760.393,788,0.886
2763.36,788.5,0.884
2766.33,789,0.883
2769.321,789.5,0.884
2772.297,790,0.884
2775.276,790.5,0.882
2778.26,791,0.881
2781.24,791.5,0.881
2784.21,792,0.88
2787.2,792.5,0.88
2790.19,793,0.88
2793.17,793.5,0.878
2796.153,794,0.878
2799.13,794.5,0.876
2802.1,795,0.876
2805.07,795.5,0.875
2808.05,796,0.875
2811.03,796.5,0.874
2814.02,797,0.872
2817.01,797.5,0.872
2819.99,798,0.872
2822.97,798.5,0.874
2825.96,799,0.873
2828.94,799.5,0.872
2831.93,800,0.87
2834.92,800.5,0.87
2837.9,801,0.868
2840.87,801.5,0.868
2843.85,802,0.868
2846.82,802.5,0.869
2849.8,803,0.869
2852.81,803.5,0.868
2855.79,804,0.869
2858.78,804.5,0.87
2861.77,805,0.869
2864.76,805.5,0.868
2867.75,806,0.866
2870.718,806.5,0.866
2873.7,807,0.866
2876.67,807.5,0.867
2879.65,808,0.866
2882.62,808.5,0.865
2885.583,809,0.864
2888.55,809.5,0.864
2891.51,810,0.862
2894.478,810.5,0.862
2897.487,811,0.863
2900.5,811.5,0.862
2903.517,812,0.863
2906.52,812.5,0.863
2909.52,813,0.863
2912.5,813.5,0.86
2915.49,814,0.859
2918.478,814.5,0.858
2921.46,815,0.858
2924.44,815.5,0.855
2927.42,816,0.855
2930.41,816.5,0.855
2933.4,817,0.856
2936.4,817.5,0.858
2939.4,818,0.858
2942.4,818.5,0.859
2945.39,819,0.857
2948.38,819.5,0.857
2951.37,820,0.855
2954.36,820.5,0.855
2957.36,821,0.853
2960.35,821.5,0.855
2963.34,822,0.854
2966.33,822.5,0.854
2969.32,823,0.853
2972.32,823.5,0.853
2975.32,824,0.854
2978.32,824.5,0.852
2981.33,825,0.851
2984.32,825.5,0.851
2987.307,826,0.851
2990.301,826.5,0.85
2993.3,827,0.849
2996.29,827.5,0.849
2999.292,828,0.849
3002.28,828.5,0.849
3005.27,829,0.849
3008.27,829.5,0.848
3011.25,830,0.847
3014.24,830.5,0.847
3017.23,831,0.848
3020.22,831.5,0.846
3023.21,832,0.846
3026.2,832.5,0.845
3029.18,833,0.846
3032.17,833.5,0.845
3035.16,834,0.844
3038.15,834.5,0.842
3041.13,835,0.844
3044.12,835.5,0.844
3047.11,836,0.844
3050.1,836.5,0.844
3053.09,837,0.843
3056.07,837.5,0.842
3059.05,838,0.841
3062.04,838.5,0.841
3065.022,839,0.84
3067.995,839.5,0.84
3070.98,840,0.84
3073.962,840.5,0.84
3076.95,841,0.839
3079.93,841.5,0.839
3082.92,842,0.839
3085.893,842.5,0.839
3088.87,843,0.839
3091.86,843.5,0.84
3094.85,844,0.841
3097.84,844.5,0.841
3100.82,845,0.841
3103.79,845.5,0.839
3106.773,846,0.839
3109.76,846.5,0.837
3112.75,847,0.837
3115.74,847.5,0.835
3118.73,848,0.835
3121.72,848.5,0.834
3124.7,849,0.833
3127.66,849.5,0.833
3130.64,850,0.831
3133.6,850.5,0.833
3136.587,851,0.834
3139.6,851.5,0.834
3142.6,852,0.834
3145.61,852.5,0.834
3148.62,853,0.833
3151.64,853.5,0.832
3154.66,854,0.831
3157.66,854.5,0.83
3160.66,855,0.831
3163.66,855.5,0.83
3166.65,856,0.828
3169.656,856.5,0.827
3172.66,857,0.826
3175.665,857.5,0.825
3178.67,858,0.824
3181.67,858.5,0.824
3184.66,859,0.825
3187.65,859.5,0.825
3190.65,860,0.824
3193.65,860.5,0.824
3196.638,861,0.825
3199.66,861.5,0.825
3202.67,862,0.824
3205.67,862.5,0.824
3208.69,863,0.824
3211.69,863.5,0.824
3214.69,864,0.824
3217.68,864.5,0.822
3220.68,865,0.822
3223.683,865.5,0.822
3226.683,866,0.821
3229.68,866.5,0.821
3232.68,867,0.82
3235.67,867.5,0.82
3238.66,868,0.818
3241.65,868.5,0.818
3244.64,869,0.818
3247.64,869.5,0.818
3250.64,870,0.818
3253.641,870.5,0.819
3256.64,871,0.819
3259.65,871.5,0.819
3262.66,872,0.818
3265.67,872.5,0.817
3268.68,873,0.816
3271.69,873.5,0.816
3274.7,874,0.816
3277.7,874.5,0.816
3280.71,875,0.815
3283.701,875.5,0.815
3286.7,876,0.814
3289.695,876.5,0.813
3292.69,877,0.814
3295.698,877.5,0.815
3298.71,878,0.815
3301.72,878.5,0.813
3304.72,879,0.813
3307.731,879.5,0.813
3310.74,880,0.811
3313.72,880.5,0.811
3316.71,881,0.811
3319.71,881.5,0.811
3322.72,882,0.81
3325.73,882.5,0.811
3328.76,883,0.811
3331.77,883.5,0.811
3334.78,884,0.811
3337.79,884.5,0.81
3340.79,885,0.81
3343.79,885.5,0.81
3346.8,886,0.81
3349.815,886.5,0.81
3352.84,887,0.81
3355.854,887.5,0.809
3358.87,888,0.809
3361.88,888.5,0.807
3364.89,889,0.805
3367.9,889.5,0.806
3370.91,890,0.806
3373.92,890.5,0.806
3376.93,891,0.807
3379.95,891.5,0.807
3382.97,892,0.807
3385.98,892.5,0.808
3388.992,893,0.807
3392.01,893.5,0.806
3395.03,894,0.805
3398.06,894.5,0.805
3401.08,895,0.805
3404.1,895.5,0.804
3407.12,896,0.802
3410.136,896.5,0.802
3413.16,897,0.802
3416.18,897.5,0.801
3419.19,898,0.801
3422.22,898.5,0.801
3425.23,899,0.801
3428.25,899.5,0.801
3431.26,900,0.799
3434.28,900.5,0.799
3437.29,901,0.799
3440.298,901.5,0.801
3443.31,902,0.801
3446.32,902.5,0.8
3449.35,903,0.799
3452.36,903.5,0.799
3455.379,904,0.798
3458.4,904.5,0.798
3461.4,905,0.798
3464.43,905.5,0.798
3467.45,906,0.798
3470.466,906.5,0.797
3473.49,907,0.797
3476.5,907.5,0.797
3479.51,908,0.795
3482.517,908.5,0.795
3485.51,909,0.795
3488.52,909.5,0.795
3491.53,910,0.794
3494.535,910.5,0.794
3497.562,911,0.793
3500.58,911.5,0.794
3503.59,912,0.794
3506.589,912.5,0.794
3509.6,913,0.794
3512.61,913.5,0.794
3515.62,914,0.795
3518.65,914.5,0.795
3521.67,915,0.795
3524.69,915.5,0.793
3527.71,916,0.793
3530.72,916.5,0.793
3533.72,917,0.794
3536.73,917.5,0.794
3539.73,918,0.793
3542.76,918.5,0.793
3545.81,919,0.792
3548.83,919.5,0.791
3551.85,920,0.79
3554.85,920.5,0.79
3557.85,921,0.789
3560.86,921.5,0.79
3563.87,922,0.79
3566.87,922.5,0.788
3569.877,923,0.79
3572.88,923.5,0.79
3575.89,924,0.79
3578.9,924.5,0.787
3581.9,925,0.786
3584.89,925.5,0.787
3587.9,926,0.787
3590.89,926.5,0.787
3593.89,927,0.788
3596.92,927.5,0.787
3599.93,928,0.788
3602.96,928.5,0.788
3605.99,929,0.788
3609.01,929.5,0.788
3612.03,930,0.788
3615.04,930.5,0.788
3618.05,931,0.788
3621.07,931.5,0.788
3624.09,932,0.787
3627.1,932.5,0.787
3630.12,933,0.787
3633.13,933.5,0.787
3636.14,934,0.787
3639.15,934.5,0.787
3642.14,935,0.786
3645.15,935.5,0.786
3648.156,936,0.786
3651.177,936.5,0.786
3654.21,937,0.786
3657.22,937.5,0.784
3660.24,938,0.783
3663.246,938.5,0.782
3666.25,939,0.782
3669.264,939.5,0.782
3672.27,940,0.782
3675.28,940.5,0.78
3678.29,941,0.78
3681.31,941.5,0.781
3684.33,942,0.782
3687.35,942.5,0.782
3690.37,943,0.783
3693.393,943.5,0.783
3696.41,944,0.782
3699.43,944.5,0.781
3702.46,945,0.781
3705.477,945.5,0.781
3708.51,946,0.78
3711.54,946.5,0.78
3714.57,947,0.78
3717.59,947.5,0.779
3720.612,948,0.779
3723.62,948.5,0.779
3726.64,949,0.779
3729.67,949.5,0.779
3732.69,950,0.779
3735.74,950.5,0.778
3738.76,951,0.779
3741.78,951.5,0.779
3744.8,952,0.777
3747.819,952.5,0.777
3750.84,953,0.777
3753.864,953.5,0.777
3756.885,954,0.777
3759.906,954.5,0.777
3762.921,955,0.777
3765.94,955.5,0.777
3768.96,956,0.777
3771.98,956.5,0.776
3775.02,957,0.777
3778.05,957.5,0.777
3781.08,958,0.777
3784.11,958.5,0.777
3787.14,959,0.776
3790.16,959.5,0.776
3793.19,960,0.776
3796.22,960.5,0.776
3799.25,961,0.777
3802.28,961.5,0.777
3805.3,962,0.777
3808.317,962.5,0.776
3811.34,963,0.777
3814.36,963.5,0.777
3817.39,964,0.776
3820.42,964.5,0.775
3823.46,965,0.776
3826.48,965.5,0.776
3829.51,966,0.776
3832.53,966.5,0.775
3835.563,967,0.775
3838.59,967.5,0.776
3841.61,968,0.776
3844.64,968.5,0.776
3847.65,969,0.777
3850.662,969.5,0.776
3853.68,970,0.776
3856.71,970.5,0.776
3859.74,971,0.773
3862.773,971.5,0.771
3865.8,972,0.771
3868.83,972.5,0.771
3871.86,973,0.771
3874.88,973.5,0.769
3877.9,974,0.769
3880.91,974.5,0.769
3883.93,975,0.772
3886.962,975.5,0.772
3889.99,976,0.772
3893.01,976.5,0.772
3896.037,977,0.772
3899.06,977.5,0.773
3902.085,978,0.772
3905.12,978.5,0.772
3908.145,979,0.773
3911.18,979.5,0.772
3914.22,980,0.772
3917.24,980.5,0.772
3920.28,981,0.771
3923.31,981.5,0.77
3926.346,982,0.769
3929.38,982.5,0.769
3932.415,983,0.77
3935.457,983.5,0.772
3938.5,984,0.772
3941.55,984.5,0.771
3944.604,985,0.77
3947.65,985.5,0.769
3950.68,986,0.769
3953.71,986.5,0.77
3956.742,987,0.769
3959.78,987.5,0.769
3962.82,988,0.769
3965.87,988.5,0.768
3968.92,989,0.768
3971.97,989.5,0.769
3975.01,990,0.769
3978.06,990.5,0.769
3981.11,991,0.769
3984.15,991.5,0.769
3987.2,992,0.768
3990.243,992.5,0.768
3993.28,993,0.768
3996.321,993.5,0.767
3999.35,994,0.767
4002.38,994.5,0.767
4005.417,995,0.767
4008.46,995.5,0.766
4011.486,996,0.766
4014.49,996.5,0.766
4017.52,997,0.764
4020.55,997.5,0.766
4023.58,998,0.766
4026.64,998.5,0.766
4029.69,999,0.766
4032.72,999.5,0.766
4035.77,1000,0.766
4038.789,1000.5,0.766
4041.81,1001,0.765
4044.85,1001.5,0.765
4047.9,1002,0.764
4050.96,1002.5,0.764
4054.01,1003,0.764
4057.06,1003.5,0.764
4060.11,1004,0.765
4063.158,1004.5,0.765
4066.23,1005,0.766
4069.278,1005.5,0.766
4072.329,1006,0.764
4075.39,1006.5,0.762
4078.44,1007,0.762
4081.48,1007.5,0.762
4084.533,1008,0.762
4087.57,1008.5,0.761
4090.61,1009,0.761
4093.65,1009.5,0.761
4096.686,1010,0.761
4099.72,1010.5,0.762
4102.75,1011,0.763
4105.8,1011.5,0.763
4108.84,1012,0.764
4111.89,1012.5,0.762
4114.95,1013,0.76
4117.998,1013.5,0.762
4121.031,1014,0.763
4124.08,1014.5,0.763
4127.12,1015,0.761
4130.154,1015.5,0.761
4133.2,1016,0.761
4136.23,1016.5,0.759
4139.28,1017,0.759
4142.33,1017.5,0.758
4145.364,1018,0.757
4148.39,1018.5,0.757
4151.43,1019,0.754
4154.47,1019.5,0.756
4157.517,1020,0.757
4160.59,1020.5,0.757
4163.64,1021,0.757
4166.685,1021.5,0.757
4169.73,1022,0.757
4172.769,1022.5,0.757
4175.81,1023,0.758
4178.84,1023.5,0.757
4181.877,1024,0.758
4184.91,1024.5,0.758
4187.94,1025,0.758
4190.97,1025.5,0.759
4194,1026,0.761
4197.03,1026.5,0.761
4200.07,1027,0.761
4203.1,1027.5,0.761
4206.14,1028,0.761
4209.18,1028.5,0.76
4212.23,1029,0.758
4215.28,1029.5,0.758
4218.32,1030,0.757
4221.37,1030.5,0.758
4224.41,1031,0.759
4227.45,1031.5,0.759
4230.49,1032,0.759
4233.52,1032.5,0.758
4236.56,1033,0.758
4239.61,1033.5,0.758
4242.65,1034,0.758
4245.69,1034.5,0.76
4248.74,1035,0.758
4251.78,1035.5,0.758
4254.84,1036,0.757
4257.9,1036.5,0.756
4260.95,1037,0.756
4264,1037.5,0.756
4267.03,1038,0.756
4270.07,1038.5,0.756
4273.13,1039,0.756
4276.18,1039.5,0.756
4279.25,1040,0.755
4282.32,1040.5,0.755
4285.38,1041,0.754
4288.43,1041.5,0.755
4291.49,1042,0.754
4294.566,1042.5,0.754
4297.632,1043,0.752
4300.71,1043.5,0.754
4303.78,1044,0.754
4306.84,1044.5,0.754
4309.9,1045,0.754
4312.971,1045.5,0.754
4316.03,1046,0.754
4319.091,1046.5,0.754
4322.15,1047,0.753
4325.2,1047.5,0.753
4328.256,1048,0.753
4331.31,1048.5,0.753
4334.37,1049,0.753
4337.42,1049.5,0.752
4340.48,1050,0.752
4343.53,1050.5,0.753
4346.58,1051,0.752
4349.634,1051.5,0.752
4352.68,1052,0.752
4355.73,1052.5,0.754
4358.772,1053,0.751
4361.83,1053.5,0.751
4364.87,1054,0.752
4367.93,1054.5,0.754
4370.98,1055,0.754
4374.02,1055.5,0.753
4377.07,1056,0.752
4380.13,1056.5,0.751
4383.18,1057,0.752
4386.23,1057.5,0.754
4389.29,1058,0.754
4392.33,1058.5,0.753
4395.37,1059,0.752
4398.42,1059.5,0.75
4401.47,1060,0.75
4404.52,1060.5,0.75
4407.58,1061,0.75
4410.633,1061.5,0.75
4413.684,1062,0.75
4416.75,1062.5,0.751
4419.81,1063,0.751
4422.87,1063.5,0.751
4425.93,1064,0.751
4428.99,1064.5,0.752
4432.05,1065,0.752
4435.113,1065.5,0.752
4438.17,1066,0.751
4441.233,1066.5,0.751
4444.29,1067,0.75
4447.34,1067.5,0.75
4450.4,1068,0.747
4453.46,1068.5,0.746
4456.52,1069,0.748
4459.57,1069.5,0.751