File: Wood/Calibration_Data/FSRI/FSRI_CAPA_N2_40kW_R2.csv
Time [s],Mass [g],Back Surface Temperature [K],Top Surface Temperature [K]
0,12.7394,297.129,414.797
1,12.7128,297.098,432.038
2,12.734,297.088,492.761
3,12.7279,297.038,526.212
4,12.7261,297.077,550.636
5,12.6896,297.066,569.959
6,12.6257,296.995,586.098
7,12.6348,297.002,601.026
8,12.6477,297.034,612.799
9,12.6458,297.043,623.099
10,12.5879,296.945,
11,12.5881,296.969,
12,12.6084,297.007,
13,12.5828,296.964,
14,12.5628,297.12,
15,12.5585,297.13,
16,12.5302,297.016,
17,12.507,297.133,
18,12.4857,297.139,
19,12.4825,297.204,
20,12.4552,297.269,
21,12.4467,297.32,
22,12.4319,297.373,
23,12.4067,297.489,
24,12.3981,297.664,
25,12.3314,297.842,
26,12.325,298.038,
27,12.3249,298.24,
28,12.2773,298.414,
29,12.2729,298.69,
30,12.2535,298.942,
31,12.2554,299.269,
32,12.255,299.686,
33,12.2028,300.073,
34,12.1598,300.472,
35,12.1755,300.905,
36,12.1625,301.441,
37,12.1095,301.882,
38,12.0329,302.42,
39,11.9964,303.025,
40,12.0279,303.584,
41,11.9771,304.181,
42,11.932,304.8,
43,11.9273,305.457,
44,11.925,306.121,
45,11.904,306.846,
46,11.8903,307.5,
47,11.8634,308.214,
48,11.8531,308.871,
49,11.8265,309.61,
50,11.7933,310.432,
51,11.7593,311.149,
52,11.7403,311.907,
53,11.7541,312.662,
54,11.7239,313.426,
55,11.7156,314.274,
56,11.6805,315.068,
57,11.6605,315.947,
58,11.6348,316.775,
59,11.6223,317.584,
60,11.5682,318.434,
61,11.4884,319.094,
62,11.5242,319.934,
63,11.5664,320.724,
64,11.5106,321.652,
65,11.4643,322.408,
66,11.4601,323.221,
67,11.4595,324.082,
68,11.4092,324.909,
69,11.3956,325.843,
70,11.3661,326.646,
71,11.3445,327.484,
72,11.3854,328.316,
73,11.3525,329.112,
74,11.3059,329.968,
75,11.2747,330.813,
76,11.222,331.679,
77,11.2264,332.447,
78,11.2105,333.378,
79,11.1861,334.173,
80,11.1782,334.985,
81,11.1806,335.82,
82,11.1395,336.526,
83,11.1192,337.283,
84,11.1329,337.908,
85,11.1167,338.722,
86,11.083,339.477,
87,11.0283,340.255,
88,11.0259,340.977,
89,11.0029,341.589,
90,11.0006,342.357,
91,11.0079,342.973,
92,10.9587,343.633,
93,10.9451,344.379,
94,10.9303,345.072,
95,10.8896,345.731,
96,10.8841,346.393,
97,10.8465,347.066,
98,10.8466,347.681,
99,10.8298,348.302,
100,10.8177,348.893,
101,10.8099,349.509,
102,10.7918,350.088,
103,10.7456,350.56,
104,10.7324,351.172,
105,10.6985,351.768,
106,10.682,352.327,
107,10.6644,352.805,
108,10.6711,353.357,
109,10.6159,353.771,
110,10.5859,354.313,
111,10.5758,354.782,
112,10.5914,355.174,
113,10.6039,355.722,
114,10.5777,356.12,
115,10.5498,356.63,
116,10.5429,356.975,
117,10.524,357.415,
118,10.5001,357.77,
119,10.4821,358.053,
120,10.4262,358.348,
121,10.4253,358.712,
122,10.4424,358.948,
123,10.4107,359.26,
124,10.3804,359.507,
125,10.39,359.801,
126,10.3726,359.988,
127,10.3398,360,
128,10.3202,360.259,
129,10.2944,360.264,
130,10.2843,360.381,
131,10.2732,360.564,
132,10.2546,360.669,
133,10.2067,360.71,
134,10.2154,360.798,
135,10.1903,360.836,
136,10.166,360.936,
137,10.2127,361.036,
138,10.1438,361.104,
139,10.1021,361.103,
140,10.0683,361.137,
141,10.0871,361.135,
142,10.1155,361.179,
143,10.0781,361.27,
144,10.0529,361.289,
145,9.98903,361.329,
146,9.97539,361.363,
147,9.99279,361.471,
148,9.98646,361.478,
149,9.95182,361.541,
150,9.94984,361.631,
151,9.93508,361.708,
152,9.91116,361.833,
153,9.88459,361.895,
154,9.86418,362.019,
155,9.8363,362.191,
156,9.82861,362.321,
157,9.82472,362.383,
158,9.81056,362.504,
159,9.82339,362.73,
160,9.77746,362.892,
161,9.72793,363.068,
162,9.75589,363.267,
163,9.74796,363.479,
164,9.69454,363.692,
165,9.71063,363.914,
166,9.72117,364.032,
167,9.67928,364.271,
168,9.65619,364.558,
169,9.63877,364.799,
170,9.63505,365.128,
171,9.61782,365.387,
172,9.58444,365.64,
173,9.55372,365.924,
174,9.5686,366.277,
175,9.59433,366.54,
176,9.55976,366.931,
177,9.4932,367.176,
178,9.47685,367.644,
179,9.48146,367.972,
180,9.45167,368.362,
181,9.43809,368.723,
182,9.43391,369.184,
183,9.41635,369.64,
184,9.38369,370.052,
185,9.35402,370.521,
186,9.35467,371.008,
187,9.34091,371.483,
188,9.36447,371.922,
189,9.35159,372.453,
190,9.28683,372.983,
191,9.3068,373.49,
192,9.29729,374.013,
193,9.26808,374.629,
194,9.30171,375.231,
195,9.27002,375.814,
196,9.22892,376.483,
197,9.21141,377.073,
198,9.18131,377.771,
199,9.19956,378.318,
200,9.19282,378.961,
201,9.18211,379.613,
202,9.1464,380.245,
203,9.13647,381.074,
204,9.10894,381.657,
205,9.1015,382.403,
206,9.10734,383.08,
207,9.12361,383.828,
208,9.10065,384.514,
209,9.00257,385.168,
210,9.00317,385.925,
211,9.00024,386.649,
212,8.9689,387.456,
213,8.99251,388.199,
214,8.98941,388.971,
215,8.9569,389.589,
216,8.96887,390.317,
217,8.95128,391.025,
218,8.92625,391.843,
219,8.92589,392.608,
220,8.90725,393.332,
221,8.90688,394.057,
222,8.8889,394.813,
223,8.83628,395.476,
224,8.82469,396.231,
225,8.8517,397.064,
226,8.84642,397.782,
227,8.83935,398.484,
228,8.7966,399.254,
229,8.76873,399.959,
230,8.78036,400.681,
231,8.79598,401.398,
232,8.76523,402.169,
233,8.73206,402.921,
234,8.70458,403.675,
235,8.6883,404.289,
236,8.70926,404.928,
237,8.69974,405.656,
238,8.67397,406.39,
239,8.70039,406.988,
240,8.66097,407.715,
241,8.61445,408.453,
242,8.62765,409.077,
243,8.63905,409.724,
244,8.61649,410.37,
245,8.58592,411.034,
246,8.53568,411.724,
247,8.54902,412.363,
248,8.57203,413.002,
249,8.50766,413.637,
250,8.47229,414.248,
251,8.49829,414.935,
252,8.50181,415.519,
253,8.46456,416.211,
254,8.4666,416.861,
255,8.45865,417.419,
256,8.41513,418.066,
257,8.40414,418.711,
258,8.38554,419.287,
259,8.34632,419.875,
260,8.3729,420.366,
261,8.39285,420.906,
262,8.33885,421.547,
263,8.31328,422.016,
264,8.29726,422.585,
265,8.28778,422.977,
266,8.28793,423.536,
267,8.28085,424.146,
268,8.25478,424.621,
269,8.23455,425.088,
270,8.22138,425.644,
271,8.23149,426.23,
272,8.19982,426.699,
273,8.1554,427.244,
274,8.16657,427.564,
275,8.18067,428.152,
276,8.14104,428.693,
277,8.1299,429.103,
278,8.10706,429.728,
279,8.06469,430.144,
280,8.07769,430.592,
281,8.08465,430.958,
282,8.03162,431.58,
283,8.00819,431.937,
284,7.97407,432.322,
285,8.0014,432.6592,
286,8.00854,433.2102,
287,7.99228,433.7204,
288,7.9784,434.0944,
289,7.93862,434.6363,
290,7.9382,435.0922,
291,7.92257,435.3944,
292,7.90031,435.6553,
293,7.92407,436.2733,
294,7.86562,436.4612,
295,7.80854,436.746,
296,7.8361,437.341,
297,7.82106,437.68,
298,7.79954,438.171,
299,7.77536,438.317,
300,7.77291,438.838,
301,7.78851,439.356,
302,7.74612,439.685,
303,7.73479,439.792,
304,7.71552,440.145,
305,7.69331,440.551,
306,7.62421,441.121,
307,7.60363,441.265,
308,7.66426,441.742,
309,7.61084,442.023,
310,7.58787,442.584,
311,7.57457,442.525,
312,7.5741,443.134,
313,7.51075,443.358,
314,7.47623,443.794,
315,7.49568,443.798,
316,7.50358,444.163,
317,7.46002,444.588,
318,7.45538,445.007,
319,7.46871,445.198,
320,7.46483,445.139,
321,7.47017,445.525,
322,7.46589,445.842,
323,7.41937,446.119,
324,7.42273,446.658,
325,7.40185,446.838,
326,7.34749,447.146,
327,7.34823,447.441,
328,7.28152,447.4,
329,7.28709,448.029,
330,7.32997,448.089,
331,7.28763,448.405,
332,7.27849,448.899,
333,7.28154,448.513,
334,7.2768,448.081,
335,7.23912,448.672,
336,7.21097,449.478,
337,7.20462,450.043,
338,7.17987,450.156,
339,7.17056,450.43,
340,7.16637,450.266,
341,7.11375,451.192,
342,7.11558,450.927,
343,7.0769,451.15,
344,7.05831,451.323,
345,7.08169,451.921,
346,7.04787,451.643,
347,7.02037,452.196,
348,7.03309,452.157,
349,7.02327,452.287,
350,6.96157,452.791,
351,6.95292,453.246,
352,6.94335,453.2,
353,6.94494,452.523,
354,6.94369,453.32,
355,6.93593,453.274,
356,6.93272,453.437,
357,6.89166,453.744,
358,6.85941,454.265,
359,6.83777,454.058,
360,6.84217,454.29,
361,6.83801,454.877,
362,6.8441,454.793,
363,6.80719,455.148,
364,6.76907,455.335,
365,6.71062,455.244,
366,6.71917,455.49,
367,6.70811,455.673,
368,6.68631,456.273,
369,6.70326,456.513,
370,6.71577,456.181,
371,6.70387,456.325,
372,6.65098,456.899,
373,6.63813,456.418,
374,6.6658,455.879,
375,6.67108,455.972,
376,6.60196,456.48,
377,6.60471,456.435,
378,6.60101,455.692,
379,6.54219,457.223,
380,6.53737,456.614,
381,6.57547,455.998,
382,6.53244,457.325,
383,6.53379,457.787,
384,6.50484,458.062,
385,6.45269,457.724,
386,6.44355,456.932,
387,6.43967,458.348,
388,6.43851,456.884,
389,6.39663,456.947,
390,6.36965,457.231,
391,6.37845,457.533,
392,6.43403,458.054,
393,6.4172,458.056,
394,6.3749,458.416,
395,6.39019,458.646,
396,6.3665,459.206,
397,6.3729,458.9,
398,6.36129,458.411,
399,6.3408,458.476,
400,6.32843,458.496,
401,6.30667,459.027,
402,6.24904,458.777,
403,6.23222,459.522,
404,6.24316,459.531,
405,6.24141,459.126,
406,6.20527,458.559,
407,6.20302,459.931,
408,6.23307,459.45,
409,6.22586,458.826,
410,6.22092,459.631,
411,6.17683,459.226,
412,6.17447,459.764,
413,6.17496,460.286,
414,6.14026,460.542,
415,6.10673,460.183,
416,6.11103,461.244,
417,6.10377,461.315,
418,6.08335,461.418,
419,6.06755,461.258,
420,6.05851,461.203,
421,6.04723,460.842,
422,6.03431,461.208,
423,6.05625,461.17,
424,6.03513,461.679,
425,6.00235,461.682,
426,5.98556,461.633,
427,5.9906,461.489,
428,5.96148,461.41,
429,5.95942,460.964,
430,5.99077,460.415,
431,5.94498,461.394,
432,5.95231,461.803,
433,5.90296,462.175,
434,5.89835,461.76,
435,5.9051,462.158,
436,5.91624,461.972,
437,5.91123,461.029,
438,5.9094,461.889,
439,5.88383,461.955,
440,5.83331,462.216,
441,5.85004,462.066,
442,5.87311,462.331,
443,5.88638,461.912,
444,5.88279,462.235,
445,5.85103,462.237,
446,5.82879,462.905,
447,5.8141,462.895,
448,5.7775,462.638,
449,5.766,462.638,
450,5.74189,462.55,
451,5.74319,462.48,
452,5.75298,462.61,
453,5.74275,462.607,
454,5.73357,462.094,
455,5.72538,462.688,
456,5.74808,462.405,
457,5.73358,462.699,
458,5.70832,463.545,
459,5.70261,463.257,
460,5.69305,463.404,
461,5.69929,463.553,
462,5.68487,463.36,
463,5.69318,462.992,
464,5.64016,463.068,
465,5.62836,462.904,
466,5.65386,463.152,
467,5.59356,463.41,
468,5.57848,463.199,
469,5.62215,463.032,
470,5.59881,463.109,
471,5.62852,463,
472,5.60991,462.599,
473,5.56301,463.19,
474,5.58565,463.915,
475,5.59321,463.996,
476,5.56144,464.273,
477,5.54259,464.311,
478,5.55935,463.834,
479,5.58425,463.925,
480,5.52716,464.023,
481,5.4893,464.248,
482,5.50732,464.658,
483,5.51373,464.472,
484,5.52791,464.567,
485,5.50534,464.21,
486,5.48374,464.097,
487,5.45608,464.03,
488,5.4511,464.507,
489,5.43577,464.413,
490,5.44222,465.369,
491,5.41577,464.737,
492,5.41421,464.74,
493,5.43499,464.863,
494,5.43881,464.441,
495,5.41101,465.442,
496,5.37553,465.583,
497,5.36913,466.49,
498,5.36972,466.645,
499,5.38344,466.557,
500,5.40985,466.338,
501,5.3686,466.521,
502,5.34716,466.712,
503,5.34446,466.09,
504,5.29004,466.018,
505,5.30325,466.424,
506,5.34001,466.682,
507,5.31747,466.558,
508,5.29099,466.781,
509,5.34736,466.941,
510,5.33215,467.447,
511,5.29423,467.039,
512,5.26598,467.05,
513,5.27553,467.291,
514,5.26384,466.812,
515,5.24711,467.489,
516,5.25009,467.785,
517,5.27092,467.596,
518,5.26639,467.523,
519,5.249,467.921,
520,5.25997,468.205,
521,5.23061,468,
522,5.23566,468.546,
523,5.25122,468.546,
524,5.25765,468.028,
525,5.23216,468.007,
526,5.20409,468.62,
527,5.2051,468.661,
528,5.19607,468.546,
529,5.18809,468.819,
530,5.18933,468.79,
531,5.18823,468.487,
532,5.19228,468.844,
533,5.16778,468.934,
534,5.16174,468.833,
535,5.18814,469.049,
536,5.16371,469.12,
537,5.13279,469.062,
538,5.14849,469.05,
539,5.11941,468.713,
540,5.10705,469.281,
541,5.13475,469.21,
542,5.14344,469.377,
543,5.11919,469.311,
544,5.13143,469.563,
545,5.11231,469.567,
546,5.07661,469.046,
547,5.08048,469.063,
548,5.06036,469.389,
549,5.06004,469.756,
550,5.05673,469.978,
551,5.06681,470.275,
552,5.07975,470.381,
553,5.06139,470.513,
554,5.00473,470.29,
555,5.00375,470.352,
556,5.03667,470.426,
557,5.00231,470.9,
558,4.99792,471.055,
559,4.99578,470.95,
560,4.9951,470.748,
561,4.99849,470.907,
562,5.01185,471.233,
563,5.0274,471.02,
564,5.0149,470.687,
565,4.97341,471.159,
566,4.97357,470.713,
567,4.98973,471.13,
568,4.9762,471.578,
569,4.9733,471.631,
570,4.97103,471.468,
571,4.98588,471.809,
572,4.95892,471.726,
573,4.9508,471.782,
574,4.95251,471.668,
575,4.96952,472.225,
576,4.97907,472.251,
577,4.96219,471.664,
578,4.85314,472.1,
579,4.85071,471.675,
580,4.90539,472.02,
581,4.91319,472.521,
582,4.92861,472.321,
583,4.93367,472.299,
584,4.89765,472.326,
585,4.87182,471.924,
586,4.86823,472.461,
587,4.89752,472.602,
588,4.90066,472.653,
589,4.87658,472.948,
590,4.8554,472.383,
591,4.86249,472.498,
592,4.86003,472.587,
593,4.84376,472.946,
594,4.87305,473.148,
595,4.87404,473.382,
596,4.86227,473.35,
597,4.8192,473.548,
598,4.84434,473.245,
599,4.8137,473.378,
600,4.81568,473.509,
601,4.85632,473.2,
602,4.85471,473.6,
603,4.83137,473.62,
604,4.80123,473.714,
605,4.80961,473.655,
606,4.80428,473.815,
607,4.79079,473.888,
608,4.81468,474.037,
609,4.81502,473.948,
610,4.76428,473.991,
611,4.74622,474.023,
612,4.78419,474.347,
613,4.83773,473.813,
614,4.79494,473.949,
615,4.74461,474.525,
616,4.74111,474.522,
617,4.75033,474.379,
618,4.73748,474.41,
619,4.74885,474.149,
620,4.77499,474.105,
621,4.7832,474.586,
622,4.77673,474.637,
623,4.7698,474.829,
624,4.75226,474.935,
625,4.71753,474.937,
626,4.73282,475.041,
627,4.75343,475.163,
628,4.71545,474.886,
629,4.70769,474.624,
630,4.7073,474.988,
631,4.72973,475.1597,
632,4.72142,475.0785,
633,4.69627,475.2543,
634,4.72081,475.2933,
635,4.72597,475.4074,
636,4.73208,475.5054,
637,4.73323,475.1911,
638,4.70303,475.2682,
639,4.67823,475.4273,
640,4.68865,475.2826,
641,4.68701,475.186,
642,4.67541,475.349,
643,4.66821,475.729,
644,4.67157,475.832,
645,4.69011,475.731,
646,4.70339,475.891,
647,4.68699,475.85,
648,4.67618,475.92,
649,4.68563,476.016,
650,4.68593,476.128,
651,4.67682,476.187,
652,4.65208,476.301,
653,4.6631,476.277,
654,4.64772,476.13,
655,4.5976,476.153,
656,4.64448,476.525,
657,4.65675,476.6,
658,4.60894,476.797,
659,4.64218,476.741,
660,4.66353,476.622,
661,4.61661,476.502,
662,4.59111,476.516,
663,4.6133,476.469,
664,4.64815,476.644,
665,4.63477,476.619,
666,4.60724,476.44,
667,4.57655,476.479,
668,4.57607,476.98,
669,4.56227,476.881,
670,4.56098,476.876,
671,4.59279,476.919,
672,4.59149,476.971,
673,4.57363,476.805,
674,4.58173,476.706,
675,4.59173,477.253,
676,4.5808,477.293,
677,4.56216,477.412,
678,4.5583,477.071,
679,4.55189,477.052,
680,4.56629,476.918,
681,4.55642,477.109,
682,4.55472,477.528,
683,4.54956,477.565,
684,4.54993,477.509,
685,4.56438,477.662,
686,4.5559,477.779,
687,4.54473,477.793,
688,4.4984,477.647,
689,4.49618,477.723,
690,4.51617,477.786,
691,4.51777,477.93,
692,4.51933,477.8,
693,4.54784,477.841,
694,4.52592,477.7325,
695,4.50251,477.841,
696,4.50541,478.003,
697,4.51159,478.013,
698,4.54099,478.116,
699,4.51822,478.09,
700,4.5154,478.255,
701,4.51522,478.289,
702,4.53222,478.288,
703,4.50861,478.482,
704,4.49178,478.642,
705,4.44085,478.597,
706,4.43102,478.555,
707,4.4922,478.69,
708,4.46552,478.555,
709,4.47017,478.773,
710,4.50649,478.901,
711,4.50137,478.657,
712,4.46158,478.637,
713,4.46715,478.539,
714,4.49947,478.585,
715,4.47245,478.772,
716,4.46244,478.617,
717,4.46481,478.767,
718,4.42143,478.93,
719,4.4666,478.727,
720,4.44419,478.856,
721,4.435,478.869,
722,4.47995,479.071,
723,4.49594,479.019,
724,4.47527,478.839,
725,4.39682,478.59,
726,4.42835,478.856,
727,4.47069,479.079,
728,4.48596,478.969,
729,4.44993,479.084,
730,4.40547,479.194,
731,4.41724,479.066,
732,4.42608,478.991,
733,4.45979,479.264,
734,4.46411,479.149,
735,4.40778,479.158,
736,4.40488,479.303,
737,4.40168,479.278,
738,4.35973,479.354,
739,4.40125,479.227,
740,4.42144,479.428,
741,4.37765,479.4,
742,4.38953,479.445,
743,4.40717,479.467,
744,4.40124,479.448,
745,4.39616,479.494,
746,4.3921,479.501,
747,4.39104,479.45,
748,4.40388,479.464,
749,4.40646,479.493,
750,4.43351,479.768,
751,4.40442,479.828,
752,4.36056,479.831,
753,4.36588,479.818,
754,4.36183,479.94,
755,4.39692,479.929,
756,4.39117,479.955,
757,4.36427,479.848,
758,4.3867,479.927,
759,4.37703,479.817,
760,4.36266,480.002,
761,4.38517,479.871,
762,4.36062,479.878,
763,4.35617,479.928,
764,4.35699,480.063,
765,4.36035,480.195,
766,4.35525,480.311,
767,4.34896,480.337,
768,4.35781,480.414,
769,4.34449,480.236,
770,4.33133,480.479,
771,4.36037,480.309,
772,4.38721,480.222,
773,4.39505,480.414,
774,4.38594,480.203,
775,4.34659,480.48,
776,4.33199,480.653,
777,4.32237,480.603,
778,4.32027,480.811,
779,4.3425,480.888,
780,4.34956,480.736,
781,4.35065,480.644,
782,4.32977,480.641,
783,4.33105,480.7053,
784,4.34147,480.687,
785,4.32912,480.699,
786,4.34161,480.858,
787,4.31573,480.658,
788,4.30441,480.632,
789,4.29592,480.657,
790,4.33029,480.81,
791,4.35356,480.867,
792,4.3167,480.737,
793,4.30907,481.059,
794,4.27546,480.892,
795,4.27488,481.051,
796,4.29728,481.079,
797,4.26054,480.961,
798,4.29494,481.024,
799,4.33101,481.147,
800,4.28938,480.863,
801,4.26602,481.251,
802,4.30246,481.089,
803,4.28524,481.082,
804,4.2802,481.117,
805,4.31062,481.331,
806,4.27338,481.247,
807,4.28149,480.932,
808,4.27579,481.114,
809,4.2701,481.106,
810,4.2544,481.226,
811,4.26517,481.295,
812,4.28448,481.292,
813,4.28922,481.325,
814,4.30614,481.301,
815,4.31442,481.3,
816,4.25837,481.329,
817,4.25992,481.261,
818,4.28889,481.429,
819,4.29032,481.517,
820,4.25822,481.454,
821,4.26568,481.676,
822,4.24439,481.708,
823,4.24175,481.65,
824,4.24688,481.715,
825,4.26099,481.733,
826,4.28217,481.492,
827,4.27217,481.65,
828,4.25255,481.923,
829,4.21787,482.052,
830,4.22479,482.005,
831,4.23326,481.92,
832,4.24899,481.981,
833,4.21818,481.908,
834,4.23714,481.804,
835,4.22404,481.985,
836,4.20421,481.866,
837,4.2224,481.994,
838,4.20546,481.991,
839,4.20697,481.969,
840,4.24332,481.818,
841,4.23503,481.864,
842,4.20234,482.016,
843,4.21991,482.133,
844,4.22803,482.272,
845,4.22974,482.145,
846,4.21537,482.022,
847,4.19781,482.101,
848,4.20475,482.088,
849,4.21664,482.075,
850,4.22283,482.254,
851,4.18918,482.163,
852,4.21372,482.315,
853,4.23062,482.394,
854,4.21379,482.509,
855,4.23302,482.455,
856,4.22891,482.564,
857,4.25006,482.671,
858,4.26702,482.62,
859,4.22804,482.522,
860,4.19789,482.524,
861,4.17616,482.611,
862,4.17914,482.689,
863,4.18356,482.604,
864,4.194,482.771,
865,4.18781,482.572,
866,4.18978,482.62,
867,4.1816,482.655,
868,4.20371,482.65,
869,4.20535,482.682,
870,4.21488,482.782,
871,4.2157,482.998,
872,4.21178,482.792,
873,4.20671,482.517,
874,4.22049,482.858,
875,4.22217,482.925,
876,4.18299,482.667,
877,4.15656,483,
878,4.15796,482.772,
879,4.11801,482.788,
880,4.16357,482.871,
881,4.1439,482.962,
882,4.12556,482.927,
883,4.15245,482.868,
884,4.10774,483.159,
885,4.153,483.143,
886,4.18399,483.193,
887,4.17373,483.062,
888,4.18275,483.305,
889,4.18967,483.157,
890,4.18174,483.15,
891,4.16304,483.059,
892,4.17753,483.177,
893,4.13337,483.351,
894,4.12044,483.207,
895,4.12617,483.234,
896,4.13468,483.264,
897,4.17232,483.284,
898,4.18129,483.475,
899,4.16789,483.378,
900,4.16665,483.373,
901,4.12767,483.435,
902,4.12242,483.562,
903,4.11575,483.337,
904,4.11668,483.369,
905,4.13936,483.529,
906,4.15658,483.562,
907,4.15521,483.516,
908,4.14354,483.593,
909,4.11739,483.44,
910,4.13099,483.549,
911,4.16317,483.455,
912,4.13815,483.531,
913,4.12821,483.625,
914,4.11324,483.452,
915,4.11869,483.467,
916,4.08364,483.264,
917,4.0785,483.604,
918,4.13148,483.651,
919,4.11901,483.689,
920,4.11071,483.371,
921,4.14447,483.561,
922,4.16073,483.654,
923,4.15048,483.617,
924,4.12793,483.531,
925,4.11229,483.488,
926,4.08557,483.614,
927,4.096,483.779,
928,4.10746,483.868,
929,4.1065,483.9,
930,4.10912,483.739,
931,4.08299,483.915,
932,4.05903,483.8,
933,4.0737,483.963,
934,4.11042,483.76,
935,4.09644,483.837,
936,4.09326,483.944,
937,4.113,483.987,
938,4.09744,483.767,
939,4.08428,483.8,
940,4.09363,483.89,
941,4.10208,483.95,
942,4.07028,484.049,
943,4.08734,484.038,
944,4.0706,484.1,
945,4.07857,483.952,896.776
946,4.10532,484.105,894.887
947,4.08923,484.033,903.811
948,4.09534,484.185,894.677
949,4.08618,484.177,900.031
950,4.07732,484.247,893.942
951,4.07673,484.343,898.561
952,4.05969,484.241,899.611
953,4.05964,484.302,896.881
954,4.06447,484.371,894.887
955,4.08846,484.414,897.301
956,4.085,484.423,895.622
957,4.06874,484.459,895.727
958,4.06411,484.463,893.942
959,4.05082,484.602,897.511
960,4.03956,484.23,895.937
961,4.06103,484.497,904.231
962,4.05565,484.636,898.666
963,4.03698,484.489,897.931
964,4.04988,484.436,897.826
965,4.09261,484.478,891.737
966,4.0778,484.569,898.771
967,4.08398,484.651,894.677
968,4.09416,484.672,895.622
969,4.05217,484.791,897.616
970,4.03023,484.741,896.041
971,4.04264,484.698,893.312
972,4.06283,484.875,895.097
973,4.09262,484.64,893.207
974,4.07244,484.588,891.212
975,4.03549,484.756,894.467
976,3.98527,484.736,893.312
977,3.97846,484.8008,899.506
978,4.01025,484.8363,897.616
979,4.05498,484.5252,891.107
980,4.06964,484.9005,897.511
981,4.00106,484.9874,898.456
982,4.0095,484.744,900.451
983,4.06416,484.7549,901.606
984,4.06149,484.8589,908.01
985,4.05836,484.7954,900.766
986,4.04706,484.835,910.425
987,4.02889,485.055,896.566
988,4.03869,485.109,899.926