File: Wood/Calibration_Data/FSRI/FSRI_DSC_N2_10K_R2.csv
Time (s),Temperature (K),Heat Flow Rate (W/g)
0,324.5,0.0187371
15.0216,325,0.0398922
24.6138,325.5,0.0548496
32.6586,326,0.0693784
39.6276,326.5,0.0810351
45.813,327,0.0913459
51.5472,327.5,0.101138
56.9418,328,0.111163
62.0142,328.5,0.115406
66.8772,329,0.121739
71.6124,329.5,0.128143
76.1406,330,0.133183
80.592,330.5,0.139634
84.9252,331,0.143268
89.1978,331.5,0.148426
93.3462,332,0.152376
97.4358,332.5,0.154722
101.4498,333,0.1579599
105.4374,333.5,0.161977
109.3566,334,0.164777
113.2542,334.5,0.168516
117.0786,335,0.170263
120.8628,335.5,0.173469
124.6014,336,0.176912
128.3352,336.5,0.178679
132.0486,337,0.180045
135.7356,337.5,0.182754
139.374,338,0.183719
143.0034,338.5,0.188749
146.5794,339,0.190617
150.1668,339.5,0.193088
153.738,340,0.195115
157.2774,340.5,0.195822
160.8108,341,0.196586
164.3028,341.5,0.200013
167.7558,342,0.20215
171.2064,342.5,0.204188
174.6618,343,0.206471
178.113,343.5,0.206714
181.53,344,0.209474
184.9092,344.5,0.211434
188.3094,345,0.215729
191.6862,345.5,0.216381
195.0486,346,0.219078
198.4092,346.5,0.220734
201.7398,347,0.221228
205.0176,347.5,0.224053
208.3092,348,0.226674
211.6152,348.5,0.227459
214.9158,349,0.228564
218.2368,349.5,0.230724
221.5284,350,0.233647
224.7978,350.5,0.2329
228.0492,351,0.234316
231.294,351.5,0.23615
234.5274,352,0.239915
237.7392,352.5,0.240273
240.9444,353,0.239799
244.152,353.5,0.242541
247.3356,354,0.244807
250.506,354.5,0.244792
253.6692,355,0.245619
256.8258,355.5,0.247083
259.974,356,0.24712
263.124,356.5,0.249253
266.2782,357,0.249125
269.412,357.5,0.250183
272.5476,358,0.249667
275.6664,358.5,0.249995
278.7678,359,0.252296
281.871,359.5,0.252441
284.955,360,0.252867
288.027,360.5,0.252842
291.1062,361,0.252541
294.1686,361.5,0.252499
297.2334,362,0.253574
300.2922,362.5,0.253672
303.3324,363,0.253133
306.3678,363.5,0.252627
309.3966,364,0.254093
312.4272,364.5,0.254875
315.4572,365,0.255747
318.4782,365.5,0.255008
321.4938,366,0.254724
324.501,366.5,0.255271
327.5082,367,0.254867
330.5142,367.5,0.254885
333.5202,368,0.254514
336.5178,368.5,0.252729
339.504,369,0.255441
342.4818,369.5,0.254401
345.4458,370,0.252383
348.4218,370.5,0.252276
351.3858,371,0.252023
354.3378,371.5,0.250008
357.2982,372,0.250386
360.2376,372.5,0.251233
363.1896,373,0.250524
366.153,373.5,0.250155
369.0912,374,0.248742
372.0474,374.5,0.249842
374.9838,375,0.248281
377.9232,375.5,0.247747
380.8686,376,0.247827
383.8134,376.5,0.247333
386.7528,377,0.247175
389.6814,377.5,0.244682
392.6124,378,0.246283
395.5434,378.5,0.245486
398.4612,379,0.244581
401.3808,379.5,0.245491
404.3112,380,0.245378
407.2032,380.5,0.242561
410.1216,381,0.242113
413.0334,381.5,0.243288
415.9392,382,0.241496
418.8672,382.5,0.242426
421.7868,383,0.24385
424.7022,383.5,0.243499
427.614,384,0.242193
430.5348,384.5,0.243494
433.4418,385,0.243306
436.3512,385.5,0.241341
439.2726,386,0.24208
442.1766,386.5,0.241078
445.0842,387,0.24216
447.9858,387.5,0.239955
450.888,388,0.240842
453.789,388.5,0.242867
456.6822,389,0.24189
459.5844,389.5,0.242419
462.474,390,0.242895
465.363,390.5,0.243103
468.258,391,0.243055
471.1578,391.5,0.241223
474.0672,392,0.24082
476.9646,392.5,0.242947
479.8698,393,0.241391
482.7582,393.5,0.241712
485.6478,394,0.244321
488.5434,394.5,0.244674
491.4348,395,0.245035
494.3286,395.5,0.244531
497.2236,396,0.245033
500.1066,396.5,0.245053
502.9806,397,0.24508
505.8624,397.5,0.245058
508.7334,398,0.2439
511.5948,398.5,0.246481
514.446,399,0.245885
517.329,399.5,0.24515
520.1976,400,0.245308
523.0734,400.5,0.248704
525.9798,401,0.248812
528.8622,401.5,0.248018
531.7278,402,0.248702
534.603,402.5,0.248058
537.4662,403,0.250053
540.3264,403.5,0.250995
543.1842,404,0.25112
546.0588,404.5,0.251637
548.9232,405,0.252997
551.7924,405.5,0.251952
554.6466,406,0.252947
557.499,406.5,0.252574
560.3622,407,0.253855
563.2116,407.5,0.256148
566.0748,408,0.255045
568.9236,408.5,0.254231
571.779,409,0.252917
574.6284,409.5,0.255218
577.4958,410,0.254672
580.3368,410.5,0.254935
583.1784,411,0.255376
586.0344,411.5,0.25695
588.8784,412,0.257479
591.7224,412.5,0.257722
594.6066,413,0.260594
597.4506,413.5,0.259236
600.303,414,0.25793
603.1836,414.5,0.259426
606.0258,415,0.260531
608.8704,415.5,0.262737
611.7126,416,0.261835
614.5482,416.5,0.262591
617.3916,417,0.264774
620.2458,417.5,0.262544
623.0952,418,0.262338
625.911,418.5,0.262153
628.7232,419,0.26383
631.5606,419.5,0.262977
634.3956,420,0.264912
637.2384,420.5,0.26511
640.1028,421,0.267323
642.9378,421.5,0.266276
645.7626,422,0.268088
648.6126,422.5,0.269063
651.462,423,0.270263
654.327,423.5,0.268241
657.1668,424,0.270023
660.0024,424.5,0.270556
662.8338,425,0.270366
665.6652,425.5,0.272233
668.487,426,0.27201
671.298,426.5,0.272271
674.1282,427,0.271937
676.9614,427.5,0.271652
679.7952,428,0.272256
682.6584,428.5,0.272005
685.4976,429,0.273925
688.3398,429.5,0.274075
691.1826,430,0.274584
694.0002,430.5,0.276622
696.8262,431,0.2779
699.6564,431.5,0.278045
702.4746,432,0.278118
705.3078,432.5,0.278764
708.1554,433,0.277962
710.991,433.5,0.278729
713.8128,434,0.280148
716.6436,434.5,0.279697
719.4696,435,0.280827
722.301,435.5,0.280035
725.1354,436,0.28107
727.9686,436.5,0.28089
730.7994,437,0.282135
733.6314,437.5,0.283386
736.4532,438,0.284677
739.2726,438.5,0.284895
742.095,439,0.284003
744.9348,439.5,0.284935
747.765,440,0.284754
750.6078,440.5,0.285085
753.459,441,0.285684
756.2862,441.5,0.287043
759.1158,442,0.287223
761.9376,442.5,0.288622
764.7666,443,0.287947
767.5992,443.5,0.287757
770.4306,444,0.289268
773.2734,444.5,0.29008
776.1042,445,0.290266
778.9404,445.5,0.291158
781.779,446,0.291927
784.6158,446.5,0.291662
787.4556,447,0.293028
790.2918,447.5,0.295581
793.1244,448,0.296143
795.9444,448.5,0.295787
798.759,449,0.298135
801.591,449.5,0.297326
804.4224,450,0.297997
807.249,450.5,0.298033
810.1044,451,0.298028
812.9286,451.5,0.301296
815.7576,452,0.301479
818.5968,452.5,0.303266
821.4384,453,0.30214
824.277,453.5,0.302792
827.1132,454,0.302759
829.9488,454.5,0.302875
832.7724,455,0.302439
835.602,455.5,0.304659
838.4304,456,0.303576
841.2594,456.5,0.303401
844.1004,457,0.304466
846.9342,457.5,0.303905
849.7686,458,0.306962
852.6138,458.5,0.306774
855.4488,459,0.307278
858.2862,459.5,0.307564
861.1188,460,0.307945
863.946,460.5,0.309637
866.7738,461,0.309739
869.6034,461.5,0.307955
872.4198,462,0.310514
875.241,462.5,0.311251
878.0562,463,0.31097
880.8702,463.5,0.312962
883.6902,464,0.312105
886.5144,464.5,0.312877
889.3458,465,0.314509
892.1844,465.5,0.317243
895.0176,466,0.31581
897.8568,466.5,0.31691
900.6858,467,0.319033
903.5112,467.5,0.317709
906.3384,468,0.317431
909.168,468.5,0.319955
911.9988,469,0.318925
914.8458,469.5,0.319586
917.691,470,0.320381
920.5398,470.5,0.322714
923.3622,471,0.322689
926.1822,471.5,0.322865
929.0088,472,0.323138
931.8114,472.5,0.325343
934.6122,473,0.32287
937.4532,473.5,0.324286
940.2942,474,0.324173
943.1448,474.5,0.326301
945.9978,475,0.325
948.8514,475.5,0.326085
951.6834,476,0.326509
954.5106,476.5,0.327175
957.354,477,0.328476
960.1974,477.5,0.327283
963.033,478,0.327564
965.8734,478.5,0.327997
968.6838,479,0.330331
971.5068,479.5,0.329942
974.3334,480,0.328767
977.1636,480.5,0.329133
980.0142,481,0.329657
982.8564,481.5,0.329977
985.6956,482,0.332702
988.53,482.5,0.335073
991.3698,483,0.33417
994.2168,483.5,0.33912
997.0476,484,0.337764
999.8898,484.5,0.338519
1002.72,485,0.339637
1005.55,485.5,0.338208
1008.38,486,0.337476
1011.22,486.5,0.338273
1014.066,487,0.339624
1016.9,487.5,0.342446
1019.76,488,0.340609
1022.61,488.5,0.344709
1025.46,489,0.343732
1028.3,489.5,0.343584
1031.14,490,0.343945
1033.98,490.5,0.344634
1036.82,491,0.346015
1039.644,491.5,0.347035
1042.482,492,0.347198
1045.32,492.5,0.347965
1048.15,493,0.346333
1050.99,493.5,0.347749
1053.86,494,0.348045
1056.7,494.5,0.346977
1059.55,495,0.347296
1062.41,495.5,0.348419
1065.27,496,0.348123
1068.1,496.5,0.348391
1070.95,497,0.349607
1073.8,497.5,0.35005
1076.63,498,0.348664
1079.48,498.5,0.348885
1082.32,499,0.348328
1085.16,499.5,0.348659
1088.013,500,0.349058
1090.85,500.5,0.350228
1093.698,501,0.348596
1096.52,501.5,0.348895
1099.35,502,0.351827
1102.19,502.5,0.350787
1105.03,503,0.351607
1107.88,503.5,0.351875
1110.75,504,0.353168
1113.6,504.5,0.352268
1116.43,505,0.352734
1119.264,505.5,0.354058
1122.1,506,0.353491
1124.94,506.5,0.354546
1127.78,507,0.352687
1130.64,507.5,0.352321
1133.475,508,0.352378
1136.31,508.5,0.352175
1139.15,509,0.35289
1142,509.5,0.350591
1144.83,510,0.35116
1147.68,510.5,0.349624
1150.521,511,0.35217
1153.362,511.5,0.352208
1156.2,512,0.352406
1159.05,512.5,0.353346
1161.89,513,0.353677
1164.74,513.5,0.353955
1167.59,514,0.352549
1170.42,514.5,0.353867
1173.27,515,0.353243
1176.12,515.5,0.352551
1178.964,516,0.356088
1181.82,516.5,0.356303
1184.67,517,0.355123
1187.52,517.5,0.355461
1190.37,518,0.354459
1193.2,518.5,0.354619
1196.028,519,0.353752
1198.87,519.5,0.355637
1201.71,520,0.356787
1204.56,520.5,0.356293
1207.43,521,0.356328
1210.29,521.5,0.355654
1213.14,522,0.355897
1215.98,522.5,0.357885
1218.819,523,0.355516
1221.67,523.5,0.356216
1224.519,524,0.355982
1227.36,524.5,0.356481
1230.22,525,0.357837
1233.08,525.5,0.359185
1235.922,526,0.356749
1238.76,526.5,0.358471
1241.61,527,0.358712
1244.46,527.5,0.357835
1247.295,528,0.358907
1250.151,528.5,0.358549
1253.007,529,0.358378
1255.84,529.5,0.359895
1258.7,530,0.358992
1261.53,530.5,0.359719
1264.38,531,0.361774
1267.23,531.5,0.35987
1270.09,532,0.359942
1272.94,532.5,0.360449
1275.79,533,0.359133
1278.63,533.5,0.360942
1281.48,534,0.361213
1284.336,534.5,0.360456
1287.17,535,0.3609
1290.04,535.5,0.359757
1292.88,536,0.361479
1295.72,536.5,0.36112
1298.58,537,0.362802
1301.43,537.5,0.363484
1304.289,538,0.362451
1307.15,538.5,0.362579
1309.99,539,0.360835
1312.85,539.5,0.361168
1315.7,540,0.360647
1318.554,540.5,0.362155
1321.4,541,0.361
1324.251,541.5,0.362416
1327.1,542,0.361356
1329.95,542.5,0.362251
1332.8,543,0.360459
1335.64,543.5,0.361875
1338.49,544,0.360727
1341.34,544.5,0.358464
1344.2,545,0.359078
1347.06,545.5,0.359504
1349.92,546,0.362444
1352.78,546.5,0.358356
1355.63,547,0.358827
1358.49,547.5,0.359123
1361.343,548,0.357872
1364.19,548.5,0.358263
1367.02,549,0.358972
1369.88,549.5,0.356762
1372.73,550,0.357103
1375.6,550.5,0.358617
1378.48,551,0.356622
1381.35,551.5,0.356138
1384.21,552,0.356296
1387.06,552.5,0.355882
1389.91,553,0.358479
1392.77,553.5,0.357441
1395.63,554,0.357466
1398.49,554.5,0.357193
1401.351,555,0.358652
1404.21,555.5,0.358201
1407.07,556,0.358431
1409.93,556.5,0.359271
1412.781,557,0.359687
1415.634,557.5,0.359717
1418.48,558,0.360123
1421.33,558.5,0.359321
1424.2,559,0.360328
1427.049,559.5,0.359962
1429.91,560,0.358702
1432.77,560.5,0.360343
1435.62,561,0.359581
1438.48,561.5,0.360283
1441.34,562,0.361105
1444.203,562.5,0.361972
1447.074,563,0.36192
1449.94,563.5,0.362466
1452.79,564,0.362043
1455.64,564.5,0.36202
1458.5,565,0.364985
1461.36,565.5,0.36306
1464.23,566,0.3669599
1467.09,566.5,0.367221
1469.937,567,0.365048
1472.8,567.5,0.365058
1475.66,568,0.367356
1478.52,568.5,0.367571
1481.376,569,0.369769
1484.24,569.5,0.3689599
1487.097,570,0.370208
1489.959,570.5,0.372707
1492.83,571,0.374201
1495.7,571.5,0.372654
1498.57,572,0.373
1501.41,572.5,0.374043
1504.26,573,0.375667
1507.11,573.5,0.377915
1509.97,574,0.37806
1512.84,574.5,0.37907
1515.73,575,0.379594
1518.61,575.5,0.3799599
1521.48,576,0.382065
1524.336,576.5,0.382231
1527.2,577,0.38499
1530.06,577.5,0.381499
1532.92,578,0.386233
1535.8,578.5,0.386266
1538.67,579,0.387647
1541.544,579.5,0.388045
1544.415,580,0.389125
1547.28,580.5,0.391248
1550.15,581,0.391952
1553.02,581.5,0.394085
1555.89,582,0.3969599
1558.77,582.5,0.397852
1561.66,583,0.400822
1564.53,583.5,0.40086
1567.41,584,0.402862
1570.26,584.5,0.4060401
1573.134,585,0.407193
1576.01,585.5,0.410271
1578.89,586,0.41098
1581.79,586.5,0.411712
1584.66,587,0.414654
1587.53,587.5,0.418033
1590.41,588,0.418607
1593.3,588.5,0.418774
1596.177,589,0.420341
1599.08,589.5,0.421982
1601.95,590,0.42405
1604.83,590.5,0.427774
1607.712,591,0.428015
1610.58,591.5,0.429281
1613.45,592,0.430489
1616.33,592.5,0.433945
1619.21,593,0.435391
1622.08,593.5,0.438541
1624.98,594,0.438449
1627.82,594.5,0.440311
1630.71,595,0.441326
1633.58,595.5,0.444158
1636.47,596,0.445358
1639.37,596.5,0.448566
1642.27,597,0.449719
1645.14,597.5,0.450411
1648.03,598,0.450123
1650.89,598.5,0.452667
1653.774,599,0.45491
1656.65,599.5,0.456421
1659.53,600,0.456078
1662.42,600.5,0.457195
1665.3,601,0.458321
1668.19,601.5,0.461764
1671.07,602,0.462078
1673.95,602.5,0.462722
1676.84,603,0.465388
1679.71,603.5,0.467115
1682.58,604,0.46811
1685.46,604.5,0.470398
1688.35,605,0.471093
1691.23,605.5,0.474165
1694.11,606,0.474985
1696.98,606.5,0.477248
1699.87,607,0.477812
1702.75,607.5,0.477248
1705.61,608,0.479261
1708.48,608.5,0.483388
1711.36,609,0.485479
1714.23,609.5,0.485238
1717.14,610,0.487068
1720.05,610.5,0.490411
1722.94,611,0.491311
1725.84,611.5,0.492065
1728.74,612,0.496293
1731.63,612.5,0.495208
1734.51,613,0.498509
1737.39,613.5,0.500178
1740.28,614,0.500972
1743.16,614.5,0.504025
1746.05,615,0.507519
1748.94,615.5,0.507416
1751.823,616,0.51
1754.71,616.5,0.512805
1757.613,617,0.515967
1760.51,617.5,0.519499
1763.406,618,0.520604
1766.32,618.5,0.523113
1769.22,619,0.527604
1772.13,619.5,0.530043
1775.022,620,0.534664
1777.92,620.5,0.538594
1780.8,621,0.541421
1783.69,621.5,0.542439
1786.59,622,0.549163
1789.49,622.5,0.552609
1792.39,623,0.55681
1795.296,623.5,0.560912
1798.21,624,0.564228
1801.12,624.5,0.569459
1804.03,625,0.572228
1806.93,625.5,0.57699
1809.83,626,0.581794
1812.73,626.5,0.588855
1815.636,627,0.592612
1818.55,627.5,0.598476
1821.45,628,0.601311
1824.36,628.5,0.605203
1827.27,629,0.609602
1830.17,629.5,0.616178
1833.08,630,0.619609
1835.99,630.5,0.627203
1838.89,631,0.630719
1841.81,631.5,0.639627
1844.73,632,0.644469
1847.64,632.5,0.648805
1850.56,633,0.653962
1853.46,633.5,0.66002
1856.37,634,0.666744
1859.29,634.5,0.673055
1862.2,635,0.677065
1865.13,635.5,0.682163
1868.05,636,0.689228
1870.965,636.5,0.694835
1873.89,637,0.697258
1876.788,637.5,0.70118
1879.67,638,0.705551
1882.57,638.5,0.707802
1885.47,639,0.708707
1888.38,639.5,0.713832
1891.305,640,0.714599
1894.23,640.5,0.718559
1897.128,641,0.719328
1900.026,641.5,0.721657
1902.94,642,0.720228
1905.85,642.5,0.719028
1908.77,643,0.71895
1911.68,643.5,0.717005
1914.58,644,0.714734
1917.47,644.5,0.710105
1920.36,645,0.705932
1923.25,645.5,0.700331
1926.14,646,0.69385
1929.03,646.5,0.686569
1931.916,647,0.678852
1934.796,647.5,0.669306
1937.67,648,0.6589599
1940.55,648.5,0.650208
1943.43,649,0.635431
1946.31,649.5,0.622514
1949.193,650,0.605679
1952.05,650.5,0.590499
1954.91,651,0.57014
1957.767,651.5,0.553343
1960.62,652,0.53612
1963.49,652.5,0.515043
1966.34,653,0.493637
1969.18,653.5,0.472704
1972.03,654,0.45012
1974.88,654.5,0.426421
1977.72,655,0.402158
1980.57,655.5,0.37916
1983.417,656,0.352822
1986.26,656.5,0.327967
1989.11,657,0.305168
1991.95,657.5,0.283644
1994.82,658,0.257221
1997.676,658.5,0.234604
2000.526,659,0.212767
2003.38,659.5,0.192118
2006.25,660,0.169419
2009.112,660.5,0.150652
2011.98,661,0.130175
2014.85,661.5,0.112825
2017.72,662,0.0961153
2020.59,662.5,0.0825414
2023.464,663,0.0679524
2026.34,663.5,0.0565789
2029.23,664,0.0458045
2032.12,664.5,0.0346391
2035.01,665,0.0292231
2037.906,665.5,0.0213147
2040.81,666,0.0141612
2043.71,666.5,0.00566109
2046.62,667,0.004217258
2049.52,667.5,-0.002962794
2052.43,668,-0.004287566
2055.33,668.5,-0.008867842
2058.24,669,-0.0114942
2061.16,669.5,-0.0140896
2064.08,670,-1.65E-02
2066.988,670.5,-1.67E-02
2069.901,671,-2.02E-02
2072.81,671.5,-2.08E-02
2075.721,672,-2.25E-02
2078.64,672.5,-2.39E-02
2081.56,673,-2.77E-02
2084.47,673.5,-2.57E-02
2087.4,674,-2.90E-02
2090.316,674.5,-3.09E-02
2093.24,675,-3.03E-02
2096.17,675.5,-3.22E-02
2099.1,676,-3.34E-02
2102.02,676.5,-3.36E-02
2104.94,677,-3.61E-02
2107.86,677.5,-4.01E-02
2110.78,678,-4.00E-02
2113.7,678.5,-3.83E-02
2116.62,679,-4.11E-02
2119.55,679.5,-4.39E-02
2122.473,680,-4.50E-02
2125.41,680.5,-4.62E-02
2128.341,681,-4.80E-02
2131.266,681.5,-5.01E-02
2134.194,682,-5.31E-02
2137.12,682.5,-5.22E-02
2140.04,683,-5.41E-02
2142.95,683.5,-5.76E-02
2145.88,684,-5.79E-02
2148.81,684.5,-5.81E-02
2151.723,685,-6.09E-02
2154.651,685.5,-6.00E-02
2157.57,686,-0.0629649
2160.49,686.5,-0.0645689
2163.42,687,-0.0659724
2166.34,687.5,-0.0689248
2169.26,688,-0.0685414
2172.189,688.5,-0.0698296
2175.11,689,-0.0717268
2178.03,689.5,-0.0737093
2180.96,690,-0.0753108
2183.89,690.5,-0.0766266
2186.81,691,-0.0776842
2189.74,691.5,-0.0793609
2192.67,692,-0.0807769
2195.58,692.5,-0.0834887
2198.5,693,-0.0838797
2201.436,693.5,-0.0869073
2204.37,694,-0.08797995
2207.31,694.5,-0.0892381
2210.256,695,-0.0898571
2213.19,695.5,-0.0906566
2216.12,696,-0.0886516
2219.06,696.5,-0.0915038
2221.97,697,-0.090386
2224.911,697.5,-0.0931203
2227.845,698,-0.0965789
2230.776,698.5,-0.0959248
2233.72,699,-0.0980677
2236.65,699.5,-0.0985689
2239.578,700,-0.0995714
2242.512,700.5,-0.0995965
2245.46,701,-0.0995489
2248.4,701.5,-0.101724
2251.344,702,-0.101063
2254.29,702.5,-0.103098
2257.23,703,-0.10101
2260.17,703.5,-0.103256
2263.12,704,-0.103511
2266.06,704.5,-0.104381
2269.01,705,-0.105862
2271.96,705.5,-0.1049
2274.9,706,-0.106556
2277.855,706.5,-0.107424
2280.8,707,-0.105195
2283.75,707.5,-0.106281
2286.7,708,-0.105574
2289.64,708.5,-0.107837
2292.585,709,-0.10582
2295.53,709.5,-0.107784
2298.47,710,-0.107752
2301.41,710.5,-0.107654
2304.36,711,-0.10713
2307.3,711.5,-0.105762
2310.237,712,-0.105657
2313.18,712.5,-0.103759
2316.12,713,-0.101975
2319.06,713.5,-0.102982
2322,714,-0.104005
2324.928,714.5,-0.102619
2327.86,715,-0.102018
2330.8,715.5,-0.101178
2333.748,716,-0.0999073
2336.7,716.5,-0.0977469
2339.64,717,-0.0969699
2342.58,717.5,-0.0953885
2345.53,718,-0.0945088
2348.47,718.5,-0.0944637
2351.421,719,-0.0947093
2354.37,719.5,-0.0926892
2357.31,720,-0.0924912
2360.26,720.5,-0.0894987
2363.21,721,-0.0897368
2366.17,721.5,-0.0905063
2369.12,722,-0.088401
2372.1,722.5,-0.0887744
2375.06,723,-0.08639599
2378.01,723.5,-0.0818496
2380.956,724,-0.0818095
2383.91,724.5,-0.0827544
2386.86,725,-0.0793383
2389.8,725.5,-0.0806491
2392.76,726,-0.079381
2395.7,726.5,-0.07781203
2398.66,727,-0.0772381
2401.63,727.5,-0.0770451
2404.584,728,-0.0755013
2407.51,728.5,-0.0735915
2410.46,729,-0.0706892
2413.4,729.5,-7.17E-02
2416.35,730,-6.86E-02
2419.32,730.5,-6.86E-02
2422.28,731,-6.79E-02
2425.23,731.5,-6.52E-02
2428.19,732,-6.38E-02
2431.14,732.5,-6.35E-02
2434.09,733,-6.26E-02
2437.05,733.5,-6.30E-02
2440.01,734,-6.11E-02
2442.951,734.5,-5.93E-02
2445.9,735,-5.90E-02
2448.858,735.5,-5.67E-02
2451.83,736,-5.55E-02
2454.79,736.5,-5.40E-02
2457.77,737,-5.15E-02
2460.72,737.5,-5.31E-02
2463.67,738,-5.20E-02
2466.64,738.5,-5.27E-02
2469.57,739,-5.15E-02
2472.531,739.5,-5.09E-02
2475.49,740,-4.99E-02
2478.44,740.5,-4.96E-02
2481.41,741,-5.03E-02
2484.39,741.5,-4.54E-02
2487.35,742,-4.83E-02
2490.31,742.5,-4.40E-02
2493.29,743,-4.26E-02
2496.246,743.5,-4.34E-02
2499.21,744,-4.25E-02
2502.189,744.5,-4.12E-02
2505.15,745,-3.94E-02
2508.13,745.5,-3.94E-02
2511.09,746,-3.91E-02
2514.05,746.5,-3.94E-02
2517.02,747,-3.75E-02
2519.979,747.5,-3.72E-02
2522.94,748,-3.49E-02
2525.91,748.5,-3.47E-02
2528.874,749,-3.44E-02
2531.84,749.5,-3.26E-02
2534.82,750,-3.31E-02
2537.79,750.5,-3.27E-02
2540.76,751,-3.22E-02
2543.73,751.5,-3.14E-02
2546.69,752,-3.06E-02
2549.66,752.5,-2.81E-02
2552.63,753,-2.95E-02
2555.59,753.5,-2.97E-02
2558.53,754,-3.22E-02
2561.49,754.5,-2.83E-02
2564.45,755,-2.86E-02
2567.42,755.5,-2.88E-02
2570.406,756,-2.88E-02
2573.38,756.5,-3.00E-02
2576.35,757,-0.0283083
2579.316,757.5,-2.76E-02
2582.28,758,-3.03E-02
2585.26,758.5,-2.78E-02
2588.226,759,-2.81E-02
2591.19,759.5,-2.66E-02
2594.14,760,-2.80E-02
2597.1,760.5,-2.77E-02
2600.06,761,-2.76E-02
2603.04,761.5,-0.0270827
2606.025,762,-2.60E-02
2609,762.5,-2.74E-02
2611.956,763,-0.025386
2614.91,763.5,-2.52E-02
2617.869,764,-0.0244303
2620.83,764.5,-0.0249013
2623.8,765,-0.0241863
2626.76,765.5,-2.42E-02
2629.72,766,-0.0280727
2632.68,766.5,-0.0296692
2635.65,767,-0.02797995
2638.62,767.5,-2.69E-02
2641.59,768,-0.0260326
2644.56,768.5,-2.94E-02
2647.53,769,-0.0295514
2650.5,769.5,-2.77E-02
2653.46,770,-0.02677193
2656.425,770.5,-0.0281604
2659.39,771,-0.028183
2662.36,771.5,-0.0261228
2665.317,772,-0.02752381
2668.29,772.5,-0.02593985
2671.27,773,-0.0251604
2674.25,773.5,-0.02514787
2677.23,774,-0.0241551
2680.2,774.5,-0.02383517
2683.173,775,-0.0239459
2686.15,775.5,-0.0229535
2689.13,776,-0.0252832
2692.1,776.5,-0.0240137
2695.08,777,-0.0230141
2698.06,777.5,-2.08E-02
2701.032,778,-0.0209468
2703.99,778.5,-0.0224775
2706.96,779,-2.16E-02
2709.92,779.5,-2.20E-02
2712.888,780,-2.05E-02
2715.85,780.5,-2.29E-02
2718.83,781,-0.0240661
2721.8,781.5,-2.47E-02
2724.765,782,-0.02221608
2727.74,782.5,-2.37E-02
2730.72,783,-2.69E-02
2733.68,783.5,-2.40E-02
2736.65,784,-0.02426313
2739.62,784.5,-0.0223983
2742.6,785,-0.0230182
2745.57,785.5,-2.35E-02
2748.546,786,-2.03E-02
2751.519,786.5,-2.22E-02
2754.474,787,-2.27E-02
2757.426,787.5,-2.31E-02
2760.393,788,-2.20E-02
2763.36,788.5,-2.32E-02
2766.33,789,-2.48E-02
2769.321,789.5,-2.04E-02
2772.297,790,-2.16E-02
2775.276,790.5,-2.15E-02
2778.26,791,-2.22E-02
2781.24,791.5,-2.10E-02
2784.21,792,-2.24E-02
2787.2,792.5,-2.17E-02
2790.19,793,-1.77E-02
2793.17,793.5,-2.05E-02
2796.153,794,-2.05E-02
2799.13,794.5,-2.11E-02
2802.1,795,-1.96E-02
2805.07,795.5,-1.92E-02
2808.05,796,-2.11E-02
2811.03,796.5,-1.89E-02
2814.02,797,-2.16E-02
2817.01,797.5,-1.95E-02
2819.99,798,-1.96E-02
2822.97,798.5,-1.90E-02
2825.96,799,-1.54E-02
2828.94,799.5,-1.57E-02
2831.93,800,-1.44E-02
2834.92,800.5,-1.70E-02
2837.9,801,-1.78E-02
2840.87,801.5,-2.16E-02
2843.85,802,-2.09E-02
2846.82,802.5,-2.03E-02
2849.8,803,-1.99E-02
2852.81,803.5,-2.17E-02
2855.79,804,-2.03E-02
2858.78,804.5,-2.10E-02
2861.77,805,-2.03E-02
2864.76,805.5,-1.88E-02
2867.75,806,-1.95E-02
2870.718,806.5,-1.96E-02
2873.7,807,-1.95E-02
2876.67,807.5,-1.81E-02
2879.65,808,-1.37E-02
2882.62,808.5,-1.17E-02
2885.583,809,-1.13E-02
2888.55,809.5,-1.13E-02
2891.51,810,-9.87E-03
2894.478,810.5,-9.71E-03
2897.487,811,-1.11E-02
2900.5,811.5,-1.06E-02
2903.517,812,-9.62E-03
2906.52,812.5,-1.23E-02
2909.52,813,-1.26E-02
2912.5,813.5,-1.24E-02
2915.49,814,-9.92E-03
2918.478,814.5,-1.06E-02
2921.46,815,-1.58E-02
2924.44,815.5,-1.61E-02
2927.42,816,-1.35E-02
2930.41,816.5,-1.52E-02
2933.4,817,-1.39E-02
2936.4,817.5,-1.59E-02
2939.4,818,-1.50E-02
2942.4,818.5,-1.44E-02
2945.39,819,-1.50E-02
2948.38,819.5,-1.59E-02
2951.37,820,-1.51E-02
2954.36,820.5,-1.40E-02
2957.36,821,-1.82E-02
2960.35,821.5,-1.61E-02
2963.34,822,-1.66E-02
2966.33,822.5,-1.68E-02
2969.32,823,-1.81E-02
2972.32,823.5,-1.88E-02
2975.32,824,-2.01E-02
2978.32,824.5,-2.29E-02
2981.33,825,-2.52E-02
2984.32,825.5,-2.42E-02
2987.307,826,-2.27E-02
2990.301,826.5,-2.29E-02
2993.3,827,-2.21E-02
2996.29,827.5,-2.44E-02
2999.292,828,-2.79E-02
3002.28,828.5,-2.72E-02
3005.27,829,-2.95E-02
3008.27,829.5,-2.83E-02
3011.25,830,-2.85E-02
3014.24,830.5,-2.88E-02
3017.23,831,-2.84E-02
3020.22,831.5,-3.03E-02
3023.21,832,-2.50E-02
3026.2,832.5,-2.69E-02
3029.18,833,-2.61E-02
3032.17,833.5,-2.50E-02
3035.16,834,-2.45E-02
3038.15,834.5,-2.59E-02
3041.13,835,-2.54E-02
3044.12,835.5,-2.60E-02
3047.11,836,-2.75E-02
3050.1,836.5,-2.73E-02
3053.09,837,-2.63E-02
3056.07,837.5,-2.58E-02
3059.05,838,-2.77E-02
3062.04,838.5,-2.69E-02
3065.022,839,-2.75E-02
3067.995,839.5,-2.62E-02
3070.98,840,-2.61E-02
3073.962,840.5,-2.69E-02
3076.95,841,-2.66E-02
3079.93,841.5,-2.59E-02
3082.92,842,-2.49E-02
3085.893,842.5,-2.62E-02
3088.87,843,-2.89E-02
3091.86,843.5,-2.66E-02
3094.85,844,-2.71E-02
3097.84,844.5,-2.78E-02
3100.82,845,-2.81E-02
3103.79,845.5,-3.40E-02
3106.773,846,-3.40E-02
3109.76,846.5,-3.41E-02
3112.75,847,-3.47E-02
3115.74,847.5,-3.22E-02
3118.73,848,-3.37E-02
3121.72,848.5,-3.44E-02
3124.7,849,-3.43E-02
3127.66,849.5,-3.79E-02
3130.64,850,-3.96E-02
3133.6,850.5,-3.81E-02
3136.587,851,-3.93E-02
3139.6,851.5,-3.96E-02
3142.6,852,-4.03E-02
3145.61,852.5,-3.91E-02
3148.62,853,-4.01E-02
3151.64,853.5,-3.66E-02
3154.66,854,-3.62E-02
3157.66,854.5,-3.66E-02
3160.66,855,-3.57E-02
3163.66,855.5,-3.64E-02
3166.65,856,-3.78E-02
3169.656,856.5,-3.80E-02
3172.66,857,-3.96E-02
3175.665,857.5,-3.95E-02
3178.67,858,-3.96E-02
3181.67,858.5,-3.96E-02
3184.66,859,-4.01E-02
3187.65,859.5,-3.96E-02
3190.65,860,-4.36E-02
3193.65,860.5,-4.14E-02
3196.638,861,-4.19E-02
3199.66,861.5,-4.24E-02
3202.67,862,-4.21E-02
3205.67,862.5,-4.46E-02
3208.69,863,-4.15E-02
3211.69,863.5,-4.55E-02
3214.69,864,-4.36E-02
3217.68,864.5,-4.46E-02
3220.68,865,-4.78E-02
3223.683,865.5,-4.67E-02
3226.683,866,-4.62E-02
3229.68,866.5,-5.07E-02
3232.68,867,-0.0517193
3235.67,867.5,-0.0518045
3238.66,868,-0.0520902
3241.65,868.5,-0.0534085
3244.64,869,-0.0544987
3247.64,869.5,-0.0529574
3250.64,870,-0.0528647
3253.641,870.5,-0.0518747
3256.64,871,-0.0524486
3259.65,871.5,-0.050203
3262.66,872,-0.0518872
3265.67,872.5,-5.40E-02
3268.68,873,-0.0517769
3271.69,873.5,-0.0518797
3274.7,874,-0.052787
3277.7,874.5,-0.0544987
3280.71,875,-0.0537544
3283.701,875.5,-0.0544211
3286.7,876,-0.0564987
3289.695,876.5,-0.0558546
3292.69,877,-0.0569424
3295.698,877.5,-0.0575263
3298.71,878,-0.05826817
3301.72,878.5,-0.0600852
3304.72,879,-0.060802
3307.731,879.5,-0.0620927
3310.74,880,-0.0632055
3313.72,880.5,-0.0607569
3316.71,881,-0.0641303
3319.71,881.5,-0.06597995
3322.72,882,-0.06887218
3325.73,882.5,-0.0683434
3328.76,883,-0.0678972
3331.77,883.5,-0.0684812
3334.78,884,-0.0697794
3337.79,884.5,-0.0701955
3340.79,885,-0.0690476
3343.79,885.5,-0.071386
3346.8,886,-0.0716767
3349.815,886.5,-0.0736291
3352.84,887,-0.0722732
3355.854,887.5,-0.0704687
3358.87,888,-0.0720226
3361.88,888.5,-0.0732657
3364.89,889,-0.0748246
3367.9,889.5,-0.0740852
3370.91,890,-0.0757343
3373.92,890.5,-0.0741579
3376.93,891,-0.07687218
3379.95,891.5,-0.0782807
3382.97,892,-0.0788396
3385.98,892.5,-0.0786115
3388.992,893,-0.0792707
3392.01,893.5,-0.0787293
3395.03,894,-0.0817268
3398.06,894.5,-0.0838797
3401.08,895,-0.0846842
3404.1,895.5,-0.0841729
3407.12,896,-0.0846617
3410.136,896.5,-0.0851629
3413.16,897,-0.0852882
3416.18,897.5,-0.0862882
3419.19,898,-0.0858747
3422.22,898.5,-0.08585213
3425.23,899,-0.0861855
3428.25,899.5,-0.0814837
3431.26,900,-0.083193
3434.28,900.5,-0.0845313
3437.29,901,-0.081594
3440.298,901.5,-0.0841454
3443.31,902,-0.0836466
3446.32,902.5,-0.0834436
3449.35,903,-0.0813308
3452.36,903.5,-0.0798371
3455.379,904,-0.081386
3458.4,904.5,-0.0831378
3461.4,905,-0.0841529
3464.43,905.5,-0.08541604
3467.45,906,-0.0840802
3470.466,906.5,-0.0861078
3473.49,907,-0.0827794
3476.5,907.5,-0.0878822
3479.51,908,-0.0873659
3482.517,908.5,-0.0887694
3485.51,909,-0.0882707
3488.52,909.5,-0.0858622
3491.53,910,-0.088381
3494.535,910.5,-0.0903684
3497.562,911,-0.0917368
3500.58,911.5,-0.0911353
3503.59,912,-0.0910276
3506.589,912.5,-0.0900952
3509.6,913,-0.091183
3512.61,913.5,-0.0921654
3515.62,914,-0.0909925
3518.65,914.5,-0.0937494
3521.67,915,-0.0924536
3524.69,915.5,-0.091807
3527.71,916,-0.0941629
3530.72,916.5,-0.09145614
3533.72,917,-0.0961754
3536.73,917.5,-0.0957018
3539.73,918,-0.097391
3542.76,918.5,-0.0970551
3545.81,919,-0.0993634
3548.83,919.5,-0.100216
3551.85,920,-0.09612782
3554.85,920.5,-0.0956667
3557.85,921,-0.0953383
3560.86,921.5,-0.0942356
3563.87,922,-0.0953584
3566.87,922.5,-0.0975138
3569.877,923,-0.0951028
3572.88,923.5,-0.100476
3575.89,924,-0.102526
3578.9,924.5,-0.101657
3581.9,925,-0.100712
3584.89,925.5,-0.101313
3587.9,926,-0.100393
3590.89,926.5,-0.10109
3593.89,927,-0.100872
3596.92,927.5,-0.102201
3599.93,928,-0.102218
3602.96,928.5,-0.100694
3605.99,929,-0.101211
3609.01,929.5,-0.102697
3612.03,930,-0.101208
3615.04,930.5,-0.101907
3618.05,931,-0.102308
3621.07,931.5,-0.100316
3624.09,932,-0.101584
3627.1,932.5,-0.103291
3630.12,933,-0.102805
3633.13,933.5,-0.102872
3636.14,934,-0.102456
3639.15,934.5,-0.101571
3642.14,935,-0.103591
3645.15,935.5,-0.105652
3648.156,936,-0.103784
3651.177,936.5,-0.10595
3654.21,937,-0.106386
3657.22,937.5,-0.107135
3660.24,938,-0.105371
3663.246,938.5,-0.105524
3666.25,939,-0.106679
3669.264,939.5,-0.105268
3672.27,940,-0.107068
3675.28,940.5,-0.106341
3678.29,941,-0.10917
3681.31,941.5,-0.108992
3684.33,942,-0.107644
3687.35,942.5,-0.111491
3690.37,943,-0.110624
3693.393,943.5,-0.108333
3696.41,944,-0.109479
3699.43,944.5,-0.110664
3702.46,945,-0.110439
3705.477,945.5,-0.111835
3708.51,946,-0.110882
3711.54,946.5,-0.110391
3714.57,947,-0.110637
3717.59,947.5,-0.110907
3720.612,948,-0.109822
3723.62,948.5,-0.108619
3726.64,949,-0.107607
3729.67,949.5,-0.1090401
3732.69,950,-0.10715
3735.74,950.5,-0.107258
3738.76,951,-0.107827
3741.78,951.5,-0.10706
3744.8,952,-0.106173
3747.819,952.5,-0.106261
3750.84,953,-0.109554
3753.864,953.5,-0.112213
3756.885,954,-0.112699
3759.906,954.5,-0.109113
3762.921,955,-0.109654
3765.94,955.5,-0.107396
3768.96,956,-0.108985
3771.98,956.5,-0.110521
3775.02,957,-0.110078
3778.05,957.5,-0.108198
3781.08,958,-0.110757
3784.11,958.5,-0.109103
3787.14,959,-0.111273
3790.16,959.5,-0.108331
3793.19,960,-0.109812
3796.22,960.5,-0.114406
3799.25,961,-0.113782
3802.28,961.5,-0.113165
3805.3,962,-0.115902
3808.317,962.5,-0.115133
3811.34,963,-0.116962
3814.36,963.5,-0.118459
3817.39,964,-0.119366
3820.42,964.5,-0.119193
3823.46,965,-0.119499
3826.48,965.5,-0.122371
3829.51,966,-0.120684
3832.53,966.5,-0.121459
3835.563,967,-0.122361
3838.59,967.5,-0.122684
3841.61,968,-0.118842
3844.64,968.5,-0.121747
3847.65,969,-0.123035
3850.662,969.5,-0.124
3853.68,970,-0.121118
3856.71,970.5,-0.121486
3859.74,971,-0.122083
3862.773,971.5,-0.123376
3865.8,972,-0.12113
3868.83,972.5,-0.121832
3871.86,973,-0.120977
3874.88,973.5,-0.122521
3877.9,974,-0.119158
3880.91,974.5,-0.119138
3883.93,975,-0.115644
3886.962,975.5,-0.117291
3889.99,976,-0.112629
3893.01,976.5,-0.114772
3896.037,977,-0.117441
3899.06,977.5,-0.116426
3902.085,978,-0.113812
3905.12,978.5,-0.115376
3908.145,979,-0.117519
3911.18,979.5,-0.117792
3914.22,980,-0.11886
3917.24,980.5,-0.115075
3920.28,981,-0.11516
3923.31,981.5,-0.110454
3926.346,982,-0.111902
3929.38,982.5,-0.109927
3932.415,983,-0.11105
3935.457,983.5,-0.109491
3938.5,984,-0.104789
3941.55,984.5,-0.109977
3944.604,985,-0.113952
3947.65,985.5,-0.114183
3950.68,986,-0.112393
3953.71,986.5,-0.111278
3956.742,987,-0.114449
3959.78,987.5,-0.112594
3962.82,988,-0.113168
3965.87,988.5,-0.109283
3968.92,989,-0.11081
3971.97,989.5,-0.112243
3975.01,990,-0.108702
3978.06,990.5,-0.107078
3981.11,991,-0.111421
3984.15,991.5,-0.110233
3987.2,992,-0.106303
3990.243,992.5,-0.10497
3993.28,993,-0.108987
3996.321,993.5,-0.108757
3999.35,994,-0.106145
4002.38,994.5,-0.104672
4005.417,995,-0.107782
4008.46,995.5,-0.106253
4011.486,996,-0.103907
4014.49,996.5,-0.106506
4017.52,997,-0.106784
4020.55,997.5,-0.103489
4023.58,998,-0.105607
4026.64,998.5,-0.102178
4029.69,999,-0.100366
4032.72,999.5,-0.0973033
4035.77,1000,-0.0947569
4038.789,1000.5,-0.0956065
4041.81,1001,-0.0940727
4044.85,1001.5,-0.0947043
4047.9,1002,-0.0936341
4050.96,1002.5,-0.0871228
4054.01,1003,-0.0903008
4057.06,1003.5,-0.0923258
4060.11,1004,-0.0911253
4063.158,1004.5,-0.09326817
4066.23,1005,-0.0916466
4069.278,1005.5,-0.0922431
4072.329,1006,-0.09133584
4075.39,1006.5,-0.0878997
4078.44,1007,-0.0875038
4081.48,1007.5,-0.0894035
4084.533,1008,-0.0874987
4087.57,1008.5,-0.08535589
4090.61,1009,-0.0884135
4093.65,1009.5,-0.0866391
4096.686,1010,-0.0871855
4099.72,1010.5,-0.0850526
4102.75,1011,-0.08162406
4105.8,1011.5,-0.0806817
4108.84,1012,-0.0794937
4111.89,1012.5,-0.0820401
4114.95,1013,-0.0810852
4117.998,1013.5,-0.0745038
4121.031,1014,-0.077203
4124.08,1014.5,-0.0770175
4127.12,1015,-0.0748596
4130.154,1015.5,-0.0748847
4133.2,1016,-0.0730451
4136.23,1016.5,-0.0750075
4139.28,1017,-0.0769148
4142.33,1017.5,-0.0746892
4145.364,1018,-0.0760852
4148.39,1018.5,-0.0775313
4151.43,1019,-0.0782306
4154.47,1019.5,-0.0812757
4157.517,1020,-0.0792231
4160.59,1020.5,-0.0821153
4163.64,1021,-0.0857895
4166.685,1021.5,-0.0842556
4169.73,1022,-0.0834286
4172.769,1022.5,-0.0832005
4175.81,1023,-0.0845088
4178.84,1023.5,-0.0846792
4181.877,1024,-0.0817444
4184.91,1024.5,-0.0806942
4187.94,1025,-0.0809774
4190.97,1025.5,-0.0782331
4194,1026,-0.0754185
4197.03,1026.5,-0.07297995
4200.07,1027,-0.073203
4203.1,1027.5,-0.0712506
4206.14,1028,-0.0715664
4209.18,1028.5,-0.0699148
4212.23,1029,-0.0702105
4215.28,1029.5,-0.0696491
4218.32,1030,-0.0642957
4221.37,1030.5,-0.0653734
4224.41,1031,-0.0657794
4227.45,1031.5,-0.064589
4230.49,1032,-0.0615088
4233.52,1032.5,-0.0570877
4236.56,1033,-0.0554687
4239.61,1033.5,-5.17E-02
4242.65,1034,-5.40E-02
4245.69,1034.5,-5.50E-02
4248.74,1035,-5.15E-02
4251.78,1035.5,-5.03E-02
4254.84,1036,-4.55E-02
4257.9,1036.5,-4.52E-02
4260.95,1037,-4.53E-02
4264,1037.5,-4.21E-02
4267.03,1038,-4.39E-02
4270.07,1038.5,-4.03E-02
4273.13,1039,-3.84E-02
4276.18,1039.5,-3.87E-02
4279.25,1040,-3.79E-02
4282.32,1040.5,-3.36E-02
4285.38,1041,-3.35E-02
4288.43,1041.5,-3.22E-02
4291.49,1042,-3.32E-02
4294.566,1042.5,-3.15E-02
4297.632,1043,-3.17E-02
4300.71,1043.5,-2.87E-02
4303.78,1044,-2.78E-02
4306.84,1044.5,-2.58E-02
4309.9,1045,-1.90E-02
4312.971,1045.5,-1.60E-02
4316.03,1046,-1.56E-02
4319.091,1046.5,-1.51E-02
4322.15,1047,-1.24E-02
4325.2,1047.5,-1.18E-02
4328.256,1048,-9.91E-03
4331.31,1048.5,-7.02E-03
4334.37,1049,-2.90E-03
4337.42,1049.5,-3.71E-03
4340.48,1050,-2.62E-03
4343.53,1050.5,2.31E-03
4346.58,1051,7.88E-03
4349.634,1051.5,8.80E-03
4352.68,1052,1.14E-02
4355.73,1052.5,1.08E-02
4358.772,1053,1.38E-02
4361.83,1053.5,1.12E-02
4364.87,1054,1.18E-02
4367.93,1054.5,1.31E-02
4370.98,1055,0.0170055
4374.02,1055.5,0.0156464
4377.07,1056,0.0146638
4380.13,1056.5,0.0170124
4383.18,1057,0.0222369
4386.23,1057.5,2.18E-02
4389.29,1058,2.24E-02
4392.33,1058.5,2.65E-02
4395.37,1059,2.87E-02
4398.42,1059.5,3.07E-02
4401.47,1060,3.06E-02
4404.52,1060.5,3.21E-02
4407.58,1061,3.10E-02
4410.633,1061.5,0.0317419
4413.684,1062,0.0312807
4416.75,1062.5,0.0335589
4419.81,1063,0.0308772
4422.87,1063.5,0.0312907
4425.93,1064,0.03426817
4428.99,1064.5,0.0361729
4432.05,1065,0.0359348
4435.113,1065.5,0.03447619
4438.17,1066,0.0398972
4441.233,1066.5,0.042386
4444.29,1067,0.03879198
4447.34,1067.5,0.0414662
4450.4,1068,0.0441253
4453.46,1068.5,0.0425288
4456.52,1069,0.0479649