File: Wood/Calibration_Data/FSRI/FSRI_Wood_STA_N2_30K_R2.csv
Time (s),Temperature (K),Mass (mg),Heat Flow Rate (W/g)
0.0,325.0,4.046,-0.0037
19.9852,325.5,4.0437,0.027
27.2133,326.0,4.0444,0.0513
32.3874,326.5,4.0457,0.0747
36.6686,327.0,4.0447,0.0947
40.3669,327.5,4.0438,0.114
43.6493,328.0,4.0435,0.1312
46.6856,328.5,4.0429,0.1471
49.5285,329.0,4.0436,0.1611
52.1768,329.5,4.0423,0.1782
54.6517,330.0,4.0413,0.1894
56.9984,330.5,4.0435,0.2042
59.2291,331.0,4.0438,0.2145
61.3676,331.5,4.0455,0.227
63.4748,332.0,4.0442,0.2387
65.5452,332.5,4.0441,0.2487
67.5166,333.0,4.0443,0.2604
69.4121,333.5,4.044,0.2682
71.2582,334.0,4.0443,0.2794
73.0757,334.5,4.0449,0.2889
74.848,335.0,4.0452,0.2976
76.6008,335.5,4.0449,0.3077
78.2882,336.0,4.0443,0.3165
79.9524,336.5,4.0446,0.3221
81.5797,337.0,4.044,0.3343
83.1991,337.5,4.0444,0.3404
84.7916,338.0,4.0456,0.3485
86.363,338.5,4.0452,0.3558
87.9056,339.0,4.045,0.3642
89.4064,339.5,4.0453,0.3698
90.8992,340.0,4.0449,0.3771
92.3822,340.5,4.0455,0.3824
93.8588,341.0,4.0453,0.39
95.3343,341.5,4.0453,0.3973
96.7778,342.0,4.0454,0.403
98.2077,342.5,4.0453,0.4087
99.6248,343.0,4.045,0.415
101.029,343.5,4.0442,0.4208
102.427,344.0,4.0436,0.4254
103.809,344.5,4.0437,0.4344
105.179,345.0,4.0436,0.4402
106.541,345.5,4.0437,0.4465
107.894,346.0,4.0441,0.4525
109.234,346.5,4.0441,0.4559
110.563,347.0,4.0438,0.4607
111.892,347.5,4.0431,0.4687
113.205,348.0,4.0427,0.4728
114.513,348.5,4.0428,0.4786
115.816,349.0,4.043,0.4846
117.107,349.5,4.0437,0.4891
118.395,350.0,4.0438,0.4919
119.677,350.5,4.044,0.4974
120.946,351.0,4.0439,0.5023
122.214,351.5,4.0441,0.5068
123.47,352.0,4.0444,0.5107
124.725,352.5,4.044,0.5154
125.98,353.0,4.0442,0.5201
127.221,353.5,4.0439,0.5239
128.459,354.0,4.0425,0.528
129.69,354.5,4.0424,0.5328
130.918,355.0,4.043,0.538
132.141,355.5,4.0434,0.5405
133.365,356.0,4.0441,0.5433
134.576,356.5,4.0436,0.5476
135.792,357.0,4.0429,0.5516
136.994,357.5,4.0425,0.5566
138.195,358.0,4.0419,0.5606
139.39,358.5,4.0422,0.5661
140.584,359.0,4.0415,0.5676
141.772,359.5,4.0423,0.5721
142.959,360.0,4.0425,0.5755
144.138,360.5,4.0416,0.5805
145.308,361.0,4.0421,0.5856
146.476,361.5,4.0422,0.5889
147.641,362.0,4.0424,0.5911
148.797,362.5,4.0428,0.5964
149.953,363.0,4.0423,0.5994
151.109,363.5,4.0423,0.6021
152.267,364.0,4.0424,0.607
153.412,364.5,4.0424,0.6106
154.555,365.0,4.0421,0.6137
155.695,365.5,4.0422,0.6161
156.826,366.0,4.0422,0.619
157.952,366.5,4.0423,0.6227
159.082,367.0,4.0433,0.6262
160.211,367.5,4.0426,0.6301
161.342,368.0,4.043,0.6331
162.472,368.5,4.0422,0.6365
163.597,369.0,4.0423,0.6378
164.717,369.5,4.0422,0.6433
165.832,370.0,4.0421,0.6452
166.945,370.5,4.0406,0.6478
168.055,371.0,4.042,0.6494
169.163,371.5,4.0406,0.6526
170.274,372.0,4.0408,0.6553
171.378,372.5,4.042,0.6591
172.485,373.0,4.0407,0.6633
173.587,373.5,4.0406,0.6653
174.688,374.0,4.0408,0.6648
175.784,374.5,4.0406,0.6682
176.883,375.0,4.041,0.6736
177.973,375.5,4.0406,0.6753
179.064,376.0,4.0406,0.6749
180.151,376.5,4.0397,0.677
181.234,377.0,4.0407,0.6809
182.313,377.5,4.0406,0.6808
183.387,378.0,4.0406,0.6849
184.47,378.5,4.0405,0.6874
185.55,379.0,4.0406,0.689
186.624,379.5,4.0398,0.6884
187.703,380.0,4.0393,0.6915
188.79,380.5,4.0392,0.6924
189.859,381.0,4.0392,0.6916
190.932,381.5,4.0401,0.695
192.011,382.0,4.0391,0.6932
193.08,382.5,4.0392,0.6947
194.144,383.0,4.0379,0.6981
195.215,383.5,4.0378,0.6988
196.282,384.0,4.037,0.6969
197.342,384.5,4.0365,0.7002
198.405,385.0,4.0372,0.7005
199.461,385.5,4.0374,0.7001
200.518,386.0,4.0364,0.7007
201.574,386.5,4.0374,0.7024
202.634,387.0,4.0378,0.7052
203.692,387.5,4.0378,0.7067
204.756,388.0,4.0378,0.7079
205.801,388.5,4.0374,0.7082
206.854,389.0,4.0378,0.7097
207.905,389.5,4.0378,0.7115
208.952,390.0,4.0378,0.7107
209.999,390.5,4.0383,0.7109
211.053,391.0,4.0378,0.7113
212.107,391.5,4.0378,0.7106
213.152,392.0,4.0378,0.7111
214.19,392.5,4.0379,0.7119
215.224,393.0,4.0368,0.7133
216.266,393.5,4.0377,0.7134
217.299,394.0,4.0379,0.7133
218.331,394.5,4.0379,0.7134
219.367,395.0,4.0376,0.7135
220.406,395.5,4.0366,0.7131
221.435,396.0,4.0368,0.7151
222.469,396.5,4.0372,0.7135
223.498,397.0,4.0373,0.7146
224.527,397.5,4.0373,0.7166
225.559,398.0,4.0373,0.716
226.584,398.5,4.0363,0.7126
227.607,399.0,4.0366,0.7164
228.627,399.5,4.0366,0.7169
229.646,400.0,4.0366,0.7144
230.665,400.5,4.0366,0.716
231.683,401.0,4.0366,0.7165
232.7,401.5,4.0371,0.7185
233.718,402.0,4.0374,0.7202
234.734,402.5,4.0366,0.7194
235.745,403.0,4.0366,0.7225
236.757,403.5,4.0366,0.7209
237.765,404.0,4.037,0.7195
238.773,404.5,4.0366,0.7207
239.777,405.0,4.0359,0.7241
240.782,405.5,4.0361,0.7249
241.783,406.0,4.0366,0.7251
242.787,406.5,4.0366,0.7262
243.786,407.0,4.036,0.7258
244.785,407.5,4.0353,0.7268
245.789,408.0,4.0353,0.7277
246.784,408.5,4.0353,0.7281
247.781,409.0,4.0352,0.7298
248.775,409.5,4.0362,0.7294
249.772,410.0,4.0366,0.7305
250.761,410.5,4.037,0.7309
251.752,411.0,4.0369,0.7341
252.745,411.5,4.0369,0.736
253.733,412.0,4.0369,0.7374
254.724,412.5,4.0369,0.7371
255.712,413.0,4.0369,0.7374
256.696,413.5,4.0369,0.7387
257.684,414.0,4.0369,0.7398
258.672,414.5,4.0366,0.7409
259.656,415.0,4.037,0.7436
260.637,415.5,4.0369,0.7445
261.62,416.0,4.0369,0.7445
262.603,416.5,4.0369,0.7464
263.578,417.0,4.0365,0.7482
264.553,417.5,4.037,0.7513
265.526,418.0,4.0369,0.7512
266.502,418.5,4.0369,0.7515
267.476,419.0,4.0369,0.7527
268.45,419.5,4.0369,0.7551
269.424,420.0,4.0369,0.7557
270.398,420.5,4.0369,0.7583
271.37,421.0,4.0369,0.7581
272.339,421.5,4.0369,0.7614
273.312,422.0,4.0369,0.762
274.278,422.5,4.037,0.7636
275.245,423.0,4.0366,0.7655
276.21,423.5,4.037,0.7664
277.173,424.0,4.0369,0.7684
278.134,424.5,4.0369,0.7704
279.095,425.0,4.0369,0.7721
280.061,425.5,4.0369,0.7743
281.026,426.0,4.0369,0.7757
281.991,426.5,4.0369,0.7761
282.955,427.0,4.0369,0.7785
283.917,427.5,4.0369,0.7818
284.877,428.0,4.0369,0.7827
285.835,428.5,4.0369,0.7814
286.792,429.0,4.0369,0.7848
287.749,429.5,4.0369,0.7864
288.705,430.0,4.0369,0.7895
289.663,430.5,4.037,0.793
290.621,431.0,4.0381,0.7953
291.578,431.5,4.0382,0.7951
292.532,432.0,4.0383,0.7954
293.487,432.5,4.0383,0.7971
294.441,433.0,4.0375,0.8001
295.393,433.5,4.0362,0.8025
296.343,434.0,4.0356,0.802
297.295,434.5,4.0356,0.8037
298.248,435.0,4.0356,0.8069
299.198,435.5,4.0356,0.8079
300.149,436.0,4.0369,0.8095
301.097,436.5,4.0369,0.8115
302.047,437.0,4.0369,0.8109
302.998,437.5,4.0369,0.8149
303.944,438.0,4.0369,0.8169
304.895,438.5,4.037,0.8169
305.841,439.0,4.0366,0.8195
306.793,439.5,4.0363,0.8214
307.738,440.0,4.0363,0.8247
308.683,440.5,4.0363,0.8261
309.63,441.0,4.0362,0.828
310.576,441.5,4.0372,0.8307
311.519,442.0,4.0372,0.8316
312.46,442.5,4.0373,0.8347
313.406,443.0,4.0371,0.8361
314.351,443.5,4.0367,0.8391
315.293,444.0,4.037,0.8413
316.235,444.5,4.0369,0.8439
317.176,445.0,4.0369,0.8472
318.118,445.5,4.0369,0.8461
319.057,446.0,4.0369,0.8484
319.992,446.5,4.0369,0.8499
320.924,447.0,4.0369,0.8523
321.86,447.5,4.0369,0.8525
322.795,448.0,4.0365,0.8554
323.727,448.5,4.0343,0.8588
324.663,449.0,4.0343,0.8623
325.6,449.5,4.0343,0.8621
326.54,450.0,4.0343,0.8639
327.474,450.5,4.0343,0.8646
328.408,451.0,4.0347,0.8678
329.342,451.5,4.0353,0.87
330.275,452.0,4.0355,0.8735
331.208,452.5,4.0367,0.875
332.14,453.0,4.0366,0.8794
333.064,453.5,4.0366,0.8807
333.991,454.0,4.0366,0.8855
334.923,454.5,4.0361,0.8865
335.85,455.0,4.0353,0.8881
336.777,455.5,4.0353,0.8904
337.705,456.0,4.0353,0.8926
338.641,456.5,4.0353,0.8956
339.566,457.0,4.0353,0.8963
340.49,457.5,4.0353,0.8964
341.414,458.0,4.0353,0.8988
342.336,458.5,4.0353,0.9005
343.261,459.0,4.0349,0.9019
344.184,459.5,4.034,0.9047
345.103,460.0,4.034,0.9072
346.02,460.5,4.034,0.9109
346.942,461.0,4.0339,0.9113
347.864,461.5,4.035,0.9131
348.782,462.0,4.0349,0.9172
349.701,462.5,4.035,0.9193
350.625,463.0,4.035,0.922
351.545,463.5,4.035,0.9251
352.465,464.0,4.035,0.9258
353.381,464.5,4.035,0.9281
354.301,465.0,4.035,0.9296
355.21,465.5,4.0332,0.9315
356.12,466.0,4.0321,0.9337
357.029,466.5,4.0304,0.9354
357.935,467.0,4.0303,0.9363
358.849,467.5,4.0291,0.9397
359.762,468.0,4.0292,0.9405
360.684,468.5,4.0292,0.9429
361.606,469.0,4.0299,0.9457
362.529,469.5,4.0306,0.9494
363.453,470.0,4.0306,0.9515
364.367,470.5,4.0305,0.9537
365.282,471.0,4.0305,0.9565
366.195,471.5,4.0294,0.9568
367.105,472.0,4.0293,0.9579
368.015,472.5,4.0292,0.9607
368.926,473.0,4.0292,0.9632
369.838,473.5,4.0293,0.9661
370.747,474.0,4.0294,0.9704
371.658,474.5,4.0305,0.9738
372.567,475.0,4.0305,0.9745
373.477,475.5,4.0306,0.977
374.384,476.0,4.0297,0.98
375.292,476.5,4.0292,0.9816
376.205,477.0,4.0292,0.9843
377.114,477.5,4.0293,0.9859
378.024,478.0,4.0293,0.9875
378.933,478.5,4.0284,0.9907
379.843,479.0,4.0279,0.9925
380.752,479.5,4.0279,0.9958
381.657,480.0,4.0269,0.9973
382.559,480.5,4.0266,0.9988
383.464,481.0,4.0266,1.0028
384.371,481.5,4.0266,1.0045
385.279,482.0,4.0266,1.0038
386.185,482.5,4.0253,1.0059
387.088,483.0,4.0253,1.0074
388,483.5,4.025,1.0122
388.908,484.0,4.0238,1.014
389.814,484.5,4.0239,1.0171
390.719,485.0,4.0238,1.0193
391.625,485.5,4.0225,1.0203
392.531,486.0,4.0226,1.0225
393.438,486.5,4.0226,1.0223
394.34,487.0,4.022,1.0244
395.244,487.5,4.0212,1.0257
396.15,488.0,4.0212,1.0266
397.052,488.5,4.0212,1.028
397.958,489.0,4.0209,1.0322
398.862,489.5,4.0199,1.0354
399.765,490.0,4.02,1.0384
400.668,490.5,4.0191,1.0386
401.569,491.0,4.0184,1.0401
402.475,491.5,4.018,1.044
403.376,492.0,4.0169,1.0452
404.28,492.5,4.0169,1.0468
405.186,493.0,4.0158,1.0503
406.089,493.5,4.0168,1.0519
406.992,494.0,4.0159,1.0543
407.893,494.5,4.0151,1.0562
408.797,495.0,4.0144,1.0588
409.695,495.5,4.0135,1.0591
410.593,496.0,4.0136,1.0618
411.494,496.5,4.0124,1.0641
412.395,497.0,4.0123,1.0659
413.298,497.5,4.0114,1.0685
414.198,498.0,4.0108,1.0705
415.102,498.5,4.0103,1.0729
416.004,499.0,4.0092,1.0746
416.906,499.5,4.0091,1.0757
417.804,500.0,4.008,1.0781
418.706,500.5,4.008,1.0808
419.604,501.0,4.008,1.0819
420.506,501.5,4.008,1.0847
421.406,502.0,4.0079,1.0872
422.307,502.5,4.0078,1.0888
423.208,503.0,4.0067,1.0905
424.105,503.5,4.0066,1.0919
425.004,504.0,4.0047,1.0942
425.9,504.5,4.0042,1.0975
426.798,505.0,4.0027,1.0985
427.694,505.5,4.0023,1.1011
428.594,506.0,4.0008,1.1026
429.493,506.5,3.9999,1.1034
430.392,507.0,3.9992,1.1044
431.293,507.5,3.9979,1.1067
432.193,508.0,3.9977,1.1086
433.091,508.5,3.9963,1.1086
433.988,509.0,3.9959,1.1104
434.883,509.5,3.9953,1.1122
435.781,510.0,3.9945,1.1162
436.677,510.5,3.9934,1.1175
437.575,511.0,3.992,1.1198
438.472,511.5,3.9916,1.1209
439.369,512.0,3.99,1.123
440.266,512.5,3.9895,1.1237
441.162,513.0,3.9882,1.1236
442.059,513.5,3.9879,1.1261
442.954,514.0,3.9868,1.1283
443.849,514.5,3.9868,1.1299
444.747,515.0,3.9853,1.1306
445.644,515.5,3.9843,1.1323
446.542,516.0,3.9832,1.1327
447.436,516.5,3.9816,1.1331
448.332,517.0,3.9813,1.1341
449.228,517.5,3.9798,1.1354
450.124,518.0,3.9787,1.1358
451.015,518.5,3.9777,1.1376
451.907,519.0,3.9761,1.1387
452.804,519.5,3.9755,1.1382
453.702,520.0,3.9757,1.1412
454.599,520.5,3.9746,1.1404
455.495,521.0,3.9735,1.1417
456.396,521.5,3.9728,1.1426
457.294,522.0,3.9711,1.1431
458.187,522.5,3.9696,1.1445
459.081,523.0,3.9685,1.1453
459.974,523.5,3.9673,1.1461
460.865,524.0,3.966,1.1466
461.758,524.5,3.9652,1.1481
462.65,525.0,3.9635,1.1512
463.541,525.5,3.9629,1.1505
464.435,526.0,3.9619,1.1496
465.329,526.5,3.9613,1.1472
466.224,527.0,3.9603,1.1472
467.112,527.5,3.9592,1.1506
468.009,528.0,3.9584,1.1509
468.903,528.5,3.9568,1.1526
469.795,529.0,3.9563,1.1533
470.685,529.5,3.9548,1.1556
471.577,530.0,3.9531,1.1552
472.472,530.5,3.9523,1.1573
473.36,531.0,3.9512,1.1565
474.249,531.5,3.9503,1.158
475.135,532.0,3.9494,1.1598
476.027,532.5,3.9476,1.1613
476.919,533.0,3.9466,1.159
477.812,533.5,3.9454,1.1584
478.706,534.0,3.9452,1.1578
479.604,534.5,3.9451,1.1607
480.501,535.0,3.9452,1.1599
481.395,535.5,3.9439,1.16
482.287,536.0,3.9428,1.1604
483.175,536.5,3.9399,1.1612
484.068,537.0,3.9373,1.1598
484.96,537.5,3.9346,1.1604
485.851,538.0,3.9316,1.1602
486.743,538.5,3.9302,1.1615
487.636,539.0,3.9282,1.1618
488.533,539.5,3.9263,1.1602
489.425,540.0,3.9248,1.1607
490.315,540.5,3.9226,1.1613
491.206,541.0,3.9209,1.1611
492.094,541.5,3.9188,1.1606
492.984,542.0,3.9173,1.1592
493.875,542.5,3.9157,1.158
494.763,543.0,3.9139,1.1593
495.653,543.5,3.9126,1.1592
496.544,544.0,3.9114,1.159
497.437,544.5,3.9093,1.1617
498.329,545.0,3.9068,1.1604
499.217,545.5,3.9052,1.1594
500.11,546.0,3.9029,1.1582
500.999,546.5,3.9016,1.158
501.891,547.0,3.8992,1.159
502.782,547.5,3.8968,1.1565
503.672,548.0,3.895,1.1553
504.563,548.5,3.8928,1.1562
505.453,549.0,3.8912,1.1547
506.346,549.5,3.889,1.1544
507.237,550.0,3.886,1.1524
508.125,550.5,3.8843,1.1537
509.014,551.0,3.8816,1.1547
509.904,551.5,3.8796,1.1532
510.794,552.0,3.8771,1.1517
511.685,552.5,3.8749,1.1506
512.573,553.0,3.8729,1.1542
513.467,553.5,3.8702,1.1533
514.359,554.0,3.8687,1.1524
515.251,554.5,3.8662,1.1516
516.143,555.0,3.8637,1.1496
517.033,555.5,3.8619,1.1485
517.926,556.0,3.8592,1.1481
518.815,556.5,3.8577,1.1486
519.707,557.0,3.8545,1.1476
520.599,557.5,3.852,1.1482
521.49,558.0,3.8502,1.1496
522.382,558.5,3.8469,1.1517
523.273,559.0,3.8451,1.15
524.166,559.5,3.8423,1.1501
525.055,560.0,3.8409,1.1495
525.946,560.5,3.8384,1.1493
526.839,561.0,3.8355,1.149
527.733,561.5,3.8329,1.1499
528.621,562.0,3.8294,1.1494
529.513,562.5,3.8274,1.1502
530.406,563.0,3.8243,1.1493
531.296,563.5,3.8207,1.1485
532.185,564.0,3.8185,1.1497
533.073,564.5,3.8152,1.1481
533.965,565.0,3.8137,1.1466
534.855,565.5,3.8115,1.1474
535.744,566.0,3.8088,1.1481
536.639,566.5,3.8061,1.1473
537.534,567.0,3.8018,1.1459
538.428,567.5,3.7991,1.1463
539.321,568.0,3.7953,1.1471
540.213,568.5,3.7904,1.1472
541.107,569.0,3.7879,1.1463
542,569.5,3.7839,1.1448
542.891,570.0,3.7808,1.1455
543.782,570.5,3.7766,1.1454
544.677,571.0,3.7737,1.1436
545.566,571.5,3.7697,1.1436
546.457,572.0,3.7662,1.1444
547.348,572.5,3.7625,1.1447
548.241,573.0,3.7579,1.1436
549.132,573.5,3.7546,1.1437
550.021,574.0,3.7506,1.1432
550.913,574.5,3.7467,1.1423
551.81,575.0,3.7432,1.1432
552.702,575.5,3.7388,1.1433
553.597,576.0,3.7349,1.1422
554.492,576.5,3.7309,1.1405
555.388,577.0,3.7261,1.1398
556.285,577.5,3.7235,1.1401
557.178,578.0,3.7198,1.1404
558.072,578.5,3.7153,1.14
558.965,579.0,3.7116,1.1407
559.858,579.5,3.7069,1.1408
560.754,580.0,3.7034,1.1393
561.65,580.5,3.7,1.1399
562.546,581.0,3.6945,1.1419
563.438,581.5,3.69,1.1412
564.332,582.0,3.6848,1.1429
565.227,582.5,3.6793,1.1449
566.116,583.0,3.6751,1.1443
567.004,583.5,3.67,1.1445
567.89,584.0,3.6655,1.1436
568.782,584.5,3.6609,1.1432
569.677,585.0,3.6552,1.1431
570.573,585.5,3.6509,1.1433
571.473,586.0,3.6461,1.1444
572.372,586.5,3.6405,1.1455
573.273,587.0,3.6362,1.1464
574.174,587.5,3.6304,1.1467
575.071,588.0,3.6248,1.1492
575.966,588.5,3.6194,1.1508
576.861,589.0,3.6124,1.1516
577.757,589.5,3.6071,1.1529
578.653,590.0,3.6014,1.1553
579.547,590.5,3.5954,1.1591
580.442,591.0,3.5918,1.1613
581.339,591.5,3.5869,1.1635
582.233,592.0,3.5814,1.1639
583.131,592.5,3.5762,1.1649
584.028,593.0,3.5689,1.1654
584.928,593.5,3.5632,1.1688
585.826,594.0,3.5565,1.1715
586.724,594.5,3.5492,1.173
587.624,595.0,3.5438,1.1729
588.522,595.5,3.537,1.1738
589.418,596.0,3.5305,1.1759
590.316,596.5,3.5249,1.1773
591.214,597.0,3.5179,1.179
592.113,597.5,3.5121,1.1812
593.014,598.0,3.5054,1.1842
593.915,598.5,3.4975,1.186
594.817,599.0,3.4923,1.1888
595.717,599.5,3.4846,1.1897
596.616,600.0,3.4767,1.1925
597.516,600.5,3.4695,1.1957
598.414,601.0,3.4606,1.1969
599.314,601.5,3.4539,1.2006
600.216,602.0,3.4465,1.2057
601.113,602.5,3.4379,1.2084
602.007,603.0,3.4312,1.2126
602.9,603.5,3.4232,1.2151
603.797,604.0,3.4165,1.2175
604.697,604.5,3.4099,1.2186
605.598,605.0,3.4012,1.2253
606.504,605.5,3.3938,1.2314
607.413,606.0,3.3856,1.2323
608.321,606.5,3.3758,1.2333
609.227,607.0,3.3683,1.2376
610.13,607.5,3.3588,1.2394
611.032,608.0,3.3492,1.2412
611.936,608.5,3.3403,1.2459
612.838,609.0,3.329,1.2504
613.741,609.5,3.3214,1.2531
614.644,610.0,3.3137,1.256
615.547,610.5,3.3038,1.2607
616.448,611.0,3.2961,1.2674
617.35,611.5,3.2857,1.2712
618.253,612.0,3.2757,1.2749
619.155,612.5,3.2667,1.2776
620.06,613.0,3.2559,1.2798
620.963,613.5,3.2475,1.2835
621.867,614.0,3.2378,1.2869
622.771,614.5,3.2266,1.2922
623.676,615.0,3.218,1.2964
624.582,615.5,3.2076,1.2993
625.487,616.0,3.1979,1.303
626.393,616.5,3.1886,1.3041
627.292,617.0,3.1763,1.3072
628.191,617.5,3.1667,1.3072
629.094,618.0,3.1561,1.3144
630.001,618.5,3.1442,1.3154
630.908,619.0,3.1347,1.3202
631.814,619.5,3.1226,1.3245
632.728,620.0,3.1121,1.327
633.639,620.5,3.1017,1.3294
634.549,621.0,3.0889,1.3351
635.448,621.5,3.0793,1.3365
636.355,622.0,3.068,1.3384
637.262,622.5,3.0558,1.3416
638.165,623.0,3.0462,1.3447
639.074,623.5,3.0336,1.3477
639.981,624.0,3.0224,1.351
640.896,624.5,3.0111,1.3522
641.802,625.0,2.9974,1.3537
642.713,625.5,2.9874,1.3545
643.622,626.0,2.9756,1.3567
644.529,626.5,2.9643,1.3592
645.435,627.0,2.9539,1.3593
646.343,627.5,2.9404,1.3629
647.251,628.0,2.9295,1.3653
648.158,628.5,2.9185,1.3702
649.067,629.0,2.9061,1.373
649.977,629.5,2.8971,1.3765
650.887,630.0,2.8847,1.3798
651.796,630.5,2.8703,1.3802
652.704,631.0,2.8575,1.3828
653.616,631.5,2.8419,1.3873
654.527,632.0,2.8307,1.391
655.438,632.5,2.8185,1.3928
656.347,633.0,2.8044,1.3978
657.255,633.5,2.7935,1.4026
658.164,634.0,2.7798,1.4066
659.071,634.5,2.7669,1.4115
659.98,635.0,2.7551,1.4157
660.891,635.5,2.7403,1.4186
661.806,636.0,2.7292,1.4256
662.722,636.5,2.7163,1.433
663.635,637.0,2.7022,1.4344
664.549,637.5,2.6914,1.4421
665.463,638.0,2.6769,1.4486
666.372,638.5,2.6644,1.4551
667.286,639.0,2.6521,1.4608
668.201,639.5,2.6369,1.4642
669.116,640.0,2.6256,1.47
670.033,640.5,2.6115,1.4807
670.953,641.0,2.5969,1.4892
671.871,641.5,2.5847,1.4958
672.787,642.0,2.5696,1.5051
673.705,642.5,2.5573,1.5145
674.62,643.0,2.5436,1.5231
675.536,643.5,2.5277,1.5313
676.454,644.0,2.5158,1.5421
677.374,644.5,2.5009,1.5526
678.292,645.0,2.4866,1.5623
679.211,645.5,2.4728,1.5744
680.131,646.0,2.4555,1.5861
681.053,646.5,2.4425,1.5984
681.976,647.0,2.4273,1.6088
682.895,647.5,2.4114,1.6255
683.819,648.0,2.3982,1.6354
684.743,648.5,2.3815,1.6463
685.667,649.0,2.3678,1.657
686.592,649.5,2.3533,1.6722
687.511,650.0,2.3363,1.687
688.433,650.5,2.3235,1.7003
689.354,651.0,2.3066,1.7124
690.275,651.5,2.2902,1.7283
691.2,652.0,2.2752,1.7436
692.12,652.5,2.2568,1.7599
693.039,653.0,2.2424,1.7752
693.964,653.5,2.2253,1.7902
694.889,654.0,2.2054,1.8053
695.814,654.5,2.1898,1.8192
696.737,655.0,2.1706,1.8333
697.667,655.5,2.1548,1.8463
698.6,656.0,2.138,1.8576
699.525,656.5,2.1184,1.8712
700.45,657.0,2.1032,1.8867
701.376,657.5,2.0841,1.9007
702.299,658.0,2.0664,1.9124
703.222,658.5,2.0497,1.9269
704.145,659.0,2.0293,1.9407
705.067,659.5,2.0143,1.9532
705.99,660.0,1.9955,1.9647
706.914,660.5,1.9757,1.9729
707.838,661.0,1.9591,1.9817
708.76,661.5,1.9382,1.9884
709.683,662.0,1.9212,1.9928
710.605,662.5,1.9034,1.9988
711.526,663.0,1.8838,2.0036
712.443,663.5,1.8677,2.0049
713.362,664.0,1.8474,2.0057
714.279,664.5,1.8285,2.0047
715.194,665.0,1.8113,2.003
716.11,665.5,1.789,1.9967
717.023,666.0,1.7723,1.9861
717.937,666.5,1.7532,1.9766
718.85,667.0,1.7324,1.9659
719.761,667.5,1.7164,1.9519
720.668,668.0,1.6965,1.9337
721.576,668.5,1.6793,1.9162
722.483,669.0,1.6619,1.8943
723.385,669.5,1.6409,1.8692
724.286,670.0,1.6258,1.8422
725.186,670.5,1.6083,1.8152
726.085,671.0,1.5897,1.7819
726.978,671.5,1.5747,1.748
727.872,672.0,1.5561,1.7105
728.765,672.5,1.5407,1.6698
729.655,673.0,1.5259,1.6255
730.542,673.5,1.509,1.5836
731.431,674.0,1.4959,1.5382
732.318,674.5,1.4809,1.4914
733.204,675.0,1.4644,1.4391
734.087,675.5,1.4522,1.3865
734.97,676.0,1.4377,1.3338
735.856,676.5,1.4249,1.2811
736.741,677.0,1.4138,1.2248
737.624,677.5,1.4001,1.1686
738.506,678.0,1.3896,1.1123
739.39,678.5,1.3787,1.0551
740.272,679.0,1.3665,1.0005
741.153,679.5,1.3586,0.944
742.032,680.0,1.3485,0.8866
742.913,680.5,1.3385,0.8288
743.795,681.0,1.3309,0.7755
744.679,681.5,1.3219,0.7214
745.565,682.0,1.3149,0.6675
746.454,682.5,1.308,0.6175
747.343,683.0,1.3002,0.566
748.234,683.5,1.295,0.5207
749.128,684.0,1.289,0.4751
750.021,684.5,1.2828,0.4322
750.914,685.0,1.2784,0.3925
751.809,685.5,1.2739,0.3536
752.705,686.0,1.2701,0.3158
753.605,686.5,1.2663,0.2836
754.504,687.0,1.2616,0.2538
755.408,687.5,1.258,0.227
756.314,688.0,1.2539,0.2014
757.218,688.5,1.2496,0.1798
758.129,689.0,1.2466,0.1577
759.04,689.5,1.243,0.1363
759.952,690.0,1.2407,0.1191
760.865,690.5,1.238,0.1075
761.78,691.0,1.2359,0.0909
762.699,691.5,1.233,0.0783
763.612,692.0,1.2312,0.0686
764.532,692.5,1.2295,0.0592
765.45,693.0,1.2291,0.0483
766.367,693.5,1.2273,0.0394
767.28,694.0,1.2253,0.032
768.195,694.5,1.2236,0.0267
769.119,695.0,1.2219,0.0228
770.035,695.5,1.2196,0.0154
770.957,696.0,1.2178,0.0093
771.881,696.5,1.2163,0.0055
772.808,697.0,1.214,0.0003
773.736,697.5,1.212,-0.0077
774.661,698.0,1.2103,-0.0124
775.59,698.5,1.2077,-0.0148
776.519,699.0,1.2056,-0.0165
777.447,699.5,1.2051,-0.0201
778.376,700.0,1.2038,-0.0251
779.303,700.5,1.2021,-0.0264
780.228,701.0,1.2004,-0.0307
781.149,701.5,1.1993,-0.0344
782.073,702.0,1.198,-0.0389
782.999,702.5,1.1962,-0.0444
783.925,703.0,1.1952,-0.0452
784.85,703.5,1.194,-0.0476
785.779,704.0,1.1923,-0.0501
786.712,704.5,1.1899,-0.0525
787.64,705.0,1.1876,-0.0566
788.568,705.5,1.1861,-0.0583
789.499,706.0,1.1839,-0.0595
790.426,706.5,1.183,-0.0629
791.356,707.0,1.1818,-0.0658
792.288,707.5,1.1805,-0.0661
793.217,708.0,1.1802,-0.068
794.148,708.5,1.1787,-0.0692
795.076,709.0,1.1774,-0.0719
796.009,709.5,1.1758,-0.077
796.939,710.0,1.1738,-0.0804
797.869,710.5,1.1731,-0.0817
798.801,711.0,1.1719,-0.0827
799.732,711.5,1.1705,-0.0843
800.664,712.0,1.1694,-0.0858
801.592,712.5,1.1675,-0.0885
802.521,713.0,1.1664,-0.0897
803.453,713.5,1.1653,-0.0952
804.385,714.0,1.1637,-0.0951
805.317,714.5,1.1625,-0.0958
806.251,715.0,1.1613,-0.0974
807.187,715.5,1.1597,-0.1002
808.123,716.0,1.1581,-0.1018
809.053,716.5,1.1568,-0.1024
809.987,717.0,1.1557,-0.1066
810.919,717.5,1.1546,-0.1073
811.852,718.0,1.1529,-0.1068
812.786,718.5,1.1521,-0.1096
813.718,719.0,1.1511,-0.111
814.648,719.5,1.1491,-0.113
815.574,720.0,1.1478,-0.1151
816.509,720.5,1.1467,-0.1168
817.444,721.0,1.1456,-0.1165
818.38,721.5,1.145,-0.1168
819.314,722.0,1.1432,-0.1173
820.256,722.5,1.142,-0.1167
821.197,723.0,1.1405,-0.1171
822.134,723.5,1.1391,-0.1183
823.069,724.0,1.1375,-0.1181
824.005,724.5,1.1364,-0.1181
824.942,725.0,1.136,-0.1191
825.88,725.5,1.1346,-0.1191
826.821,726.0,1.1341,-0.1217
827.757,726.5,1.1328,-0.1209
828.696,727.0,1.1313,-0.1209
829.636,727.5,1.1305,-0.1195
830.575,728.0,1.129,-0.1204
831.512,728.5,1.1275,-0.1195
832.45,729.0,1.1261,-0.1195
833.389,729.5,1.1249,-0.1191
834.329,730.0,1.1234,-0.1194
835.267,730.5,1.122,-0.118
836.207,731.0,1.1211,-0.1163
837.147,731.5,1.1194,-0.1174
838.089,732.0,1.1176,-0.1151
839.029,732.5,1.1162,-0.1108
839.968,733.0,1.1156,-0.1113
840.911,733.5,1.1141,-0.1095
841.852,734.0,1.1128,-0.1065
842.794,734.5,1.112,-0.1039
843.735,735.0,1.1104,-0.1044
844.678,735.5,1.1092,-0.1021
845.622,736.0,1.1084,-0.1014
846.565,736.5,1.107,-0.0998
847.506,737.0,1.1054,-0.0977
848.448,737.5,1.1043,-0.0948
849.39,738.0,1.1034,-0.0908
850.332,738.5,1.1022,-0.0882
851.274,739.0,1.1018,-0.0861
852.217,739.5,1.1001,-0.0837
853.162,740.0,1.0989,-0.0811
854.106,740.5,1.0979,-0.0786
855.05,741.0,1.0961,-0.0747
855.995,741.5,1.0951,-0.0748
856.937,742.0,1.0938,-0.0698
857.881,742.5,1.0924,-0.0642
858.824,743.0,1.092,-0.0604
859.768,743.5,1.0902,-0.058
860.713,744.0,1.0887,-0.0556
861.658,744.5,1.0881,-0.0519
862.605,745.0,1.0867,-0.0492
863.551,745.5,1.0855,-0.0469
864.498,746.0,1.085,-0.0422
865.444,746.5,1.0848,-0.0386
866.388,747.0,1.0848,-0.0332
867.336,747.5,1.0845,-0.031
868.282,748.0,1.0844,-0.028
869.226,748.5,1.0837,-0.0255
870.173,749.0,1.0827,-0.0202
871.121,749.5,1.081,-0.0182
872.071,750.0,1.0806,-0.0144
873.017,750.5,1.0793,-0.0156
873.963,751.0,1.0777,-0.0122
874.913,751.5,1.0771,-0.0066
875.862,752.0,1.0759,-0.0036
876.81,752.5,1.0746,-0.0
877.759,753.0,1.0743,0.0086
878.707,753.5,1.0728,0.0101
879.661,754.0,1.0729,0.0141
880.607,754.5,1.0737,0.017
881.556,755.0,1.0724,0.0204
882.506,755.5,1.0715,0.0231
883.452,756.0,1.0706,0.0281
884.4,756.5,1.0679,0.0319
885.346,757.0,1.0676,0.0367
886.297,757.5,1.0663,0.0392
887.242,758.0,1.0655,0.044
888.192,758.5,1.0646,0.048
889.142,759.0,1.0633,0.0517
890.094,759.5,1.0631,0.0542
891.043,760.0,1.062,0.0553
891.994,760.5,1.0617,0.0616
892.944,761.0,1.0618,0.0668
893.894,761.5,1.0605,0.0673
894.844,762.0,1.0609,0.0707
895.798,762.5,1.0597,0.0759
896.751,763.0,1.0584,0.0783
897.706,763.5,1.0578,0.0812
898.659,764.0,1.0566,0.0849
899.61,764.5,1.0552,0.0882
900.563,765.0,1.0548,0.0915
901.511,765.5,1.0536,0.0978
902.458,766.0,1.0534,0.1005
903.409,766.5,1.052,0.1014
904.36,767.0,1.0514,0.1025
905.312,767.5,1.0505,0.1054
906.266,768.0,1.0497,0.1095
907.219,768.5,1.0489,0.1138
908.174,769.0,1.0475,0.1145
909.127,769.5,1.0475,0.1169
910.083,770.0,1.0467,0.1179
911.032,770.5,1.0461,0.1235
911.983,771.0,1.0461,0.126
912.934,771.5,1.0456,0.1293
913.886,772.0,1.0446,0.1308
914.837,772.5,1.0439,0.1338
915.787,773.0,1.043,0.1311
916.742,773.5,1.0421,0.1363
917.695,774.0,1.0415,0.1374
918.65,774.5,1.0405,0.1411
919.601,775.0,1.0401,0.1436
920.557,775.5,1.0391,0.1472
921.51,776.0,1.0388,0.1471
922.465,776.5,1.0389,0.1479
923.418,777.0,1.0377,0.1526
924.371,777.5,1.0382,0.152
925.324,778.0,1.0371,0.1525
926.276,778.5,1.0368,0.1558
927.231,779.0,1.0356,0.1577
928.184,779.5,1.0354,0.1614
929.137,780.0,1.0351,0.1623
930.092,780.5,1.034,0.1623
931.046,781.0,1.034,0.1602
932.001,781.5,1.0341,0.1639
932.953,782.0,1.0331,0.1645
933.909,782.5,1.0326,0.1657
934.864,783.0,1.0313,0.1677
935.817,783.5,1.0309,0.1693
936.774,784.0,1.0287,0.1684
937.729,784.5,1.0281,0.17
938.682,785.0,1.0275,0.1724
939.637,785.5,1.0265,0.1735
940.593,786.0,1.0266,0.174
941.549,786.5,1.0263,0.1753
942.497,787.0,1.0263,0.1734
943.447,787.5,1.0252,0.1791
944.404,788.0,1.0251,0.1795
945.36,788.5,1.0251,0.1799
946.314,789.0,1.025,0.1802
947.273,789.5,1.0237,0.1795
948.238,790.0,1.0237,0.1814
949.199,790.5,1.0236,0.1829
950.153,791.0,1.0224,0.1834
951.111,791.5,1.0224,0.1841
952.07,792.0,1.0219,0.1841
953.026,792.5,1.0208,0.1854
953.981,793.0,1.0202,0.1855
954.942,793.5,1.0192,0.188
955.9,794.0,1.0196,0.1858
956.859,794.5,1.0187,0.189
957.819,795.0,1.0188,0.1873
958.775,795.5,1.0175,0.1852
959.735,796.0,1.0174,0.1881
960.691,796.5,1.0169,0.189
961.649,797.0,1.0158,0.1884
962.603,797.5,1.0152,0.1879
963.559,798.0,1.0144,0.1912
964.516,798.5,1.0145,0.1896
965.468,799.0,1.0132,0.1905
966.426,799.5,1.0131,0.1937
967.382,800.0,1.0127,0.1949
968.34,800.5,1.0115,0.1947
969.297,801.0,1.0116,0.1957
970.257,801.5,1.0104,0.1962
971.216,802.0,1.01,0.1967
972.174,802.5,1.01,0.1964
973.135,803.0,1.0098,0.198
974.094,803.5,1.0087,0.1958
975.057,804.0,1.0085,0.1973
976.018,804.5,1.0071,0.198
976.981,805.0,1.0061,0.1998
977.94,805.5,1.0043,0.201
978.9,806.0,1.0042,0.2003
979.86,806.5,1.0029,0.1987
980.82,807.0,1.0026,0.1982
981.779,807.5,1.0026,0.1983
982.737,808.0,1.0028,0.1988
983.696,808.5,1.0017,0.1984
984.657,809.0,1.0015,0.2021
985.615,809.5,1.0022,0.2033
986.574,810.0,1.0029,0.2029
987.535,810.5,1.0029,0.2044
988.493,811.0,1.0029,0.2063
989.454,811.5,1.0018,0.2037
990.417,812.0,1.0015,0.2055
991.379,812.5,1.0008,0.2041
992.34,813.0,1.0001,0.2047
993.301,813.5,1.0001,0.2057
994.263,814.0,1.0002,0.2064
995.223,814.5,0.9994,0.2065
996.183,815.0,0.9987,0.2069
997.145,815.5,0.9986,0.2032
998.105,816.0,0.9975,0.2066
999.067,816.5,0.9975,0.2074
1000.03,817.0,0.9968,0.208
1000.99,817.5,0.9963,0.2073
1001.95,818.0,0.9966,0.2085
1002.91,818.5,0.9956,0.2084
1003.87,819.0,0.9959,0.2085
1004.84,819.5,0.9946,0.2078
1005.8,820.0,0.9946,0.2072
1006.76,820.5,0.9944,0.2114
1007.73,821.0,0.9931,0.2133
1008.69,821.5,0.9931,0.2117
1009.65,822.0,0.993,0.2122
1010.62,822.5,0.9918,0.2121
1011.58,823.0,0.9918,0.2104
1012.54,823.5,0.9924,0.2127
1013.51,824.0,0.9932,0.2142
1014.47,824.5,0.9923,0.2148
1015.43,825.0,0.9917,0.2131
1016.4,825.5,0.9916,0.2138
1017.36,826.0,0.9905,0.2155
1018.32,826.5,0.9905,0.2168
1019.28,827.0,0.9904,0.2168
1020.24,827.5,0.9891,0.2165
1021.2,828.0,0.989,0.2184
1022.17,828.5,0.9888,0.2201
1023.13,829.0,0.9864,0.2186
1024.1,829.5,0.9864,0.2214
1025.07,830.0,0.9864,0.22
1026.03,830.5,0.9857,0.2209
1027,831.0,0.9851,0.2223
1027.96,831.5,0.9848,0.2234
1028.93,832.0,0.9836,0.2236
1029.89,832.5,0.9837,0.2225
1030.86,833.0,0.9826,0.2252
1031.83,833.5,0.9823,0.2249
1032.79,834.0,0.9824,0.2254
1033.76,834.5,0.9815,0.2276
1034.72,835.0,0.981,0.2278
1035.68,835.5,0.981,0.2273
1036.65,836.0,0.981,0.2286
1037.62,836.5,0.9799,0.2286
1038.59,837.0,0.9797,0.2314
1039.56,837.5,0.9797,0.2321
1040.53,838.0,0.9797,0.231
1041.5,838.5,0.9792,0.2306
1042.47,839.0,0.9783,0.2322
1043.43,839.5,0.9781,0.2336
1044.4,840.0,0.977,0.2321
1045.37,840.5,0.9783,0.2332
1046.33,841.0,0.9771,0.2356
1047.3,841.5,0.977,0.2377
1048.27,842.0,0.977,0.238
1049.24,842.5,0.9759,0.2365
1050.21,843.0,0.9755,0.2382
1051.18,843.5,0.9751,0.2393
1052.14,844.0,0.9729,0.2399
1053.11,844.5,0.9729,0.2367
1054.08,845.0,0.9729,0.238
1055.04,845.5,0.9722,0.2393
1056.01,846.0,0.9716,0.2406
1056.97,846.5,0.9716,0.2417
1057.94,847.0,0.9713,0.2434
1058.91,847.5,0.9702,0.2421
1059.88,848.0,0.9704,0.241
1060.85,848.5,0.9693,0.2428
1061.82,849.0,0.9703,0.2443
1062.8,849.5,0.9699,0.2477
1063.77,850.0,0.9689,0.2478
1064.73,850.5,0.969,0.2479
1065.7,851.0,0.969,0.2471
1066.67,851.5,0.969,0.2476
1067.64,852.0,0.9682,0.2485
1068.6,852.5,0.968,0.2493
1069.57,853.0,0.968,0.2472
1070.55,853.5,0.9679,0.2485
1071.53,854.0,0.9666,0.2471
1072.5,854.5,0.9666,0.2485
1073.47,855.0,0.9666,0.2486
1074.45,855.5,0.9666,0.2503
1075.41,856.0,0.9665,0.248
1076.39,856.5,0.9652,0.2507
1077.35,857.0,0.9653,0.2499
1078.33,857.5,0.9654,0.2507
1079.3,858.0,0.9645,0.2512
1080.27,858.5,0.964,0.2516
1081.25,859.0,0.9641,0.2505
1082.22,859.5,0.963,0.2498
1083.19,860.0,0.9627,0.2492
1084.17,860.5,0.9624,0.2533
1085.14,861.0,0.9612,0.2532
1086.11,861.5,0.9609,0.2547
1087.08,862.0,0.9598,0.2524
1088.05,862.5,0.9598,0.2514
1089.02,863.0,0.9598,0.2529
1090,863.5,0.9595,0.2531
1090.97,864.0,0.9584,0.2545
1091.94,864.5,0.9585,0.2534
1092.92,865.0,0.9585,0.2516
1093.89,865.5,0.9588,0.252
1094.86,866.0,0.9595,0.2518
1095.83,866.5,0.9584,0.2524
1096.81,867.0,0.9582,0.2518
1097.78,867.5,0.9582,0.2536
1098.75,868.0,0.9569,0.2501
1099.73,868.5,0.9569,0.2537
1100.7,869.0,0.9569,0.2531
1101.67,869.5,0.9561,0.2527
1102.64,870.0,0.9556,0.251
1103.62,870.5,0.9554,0.2497
1104.59,871.0,0.9541,0.2505
1105.57,871.5,0.9542,0.2528
1106.54,872.0,0.9543,0.2527
1107.52,872.5,0.9543,0.2562
1108.49,873.0,0.9534,0.2538
1109.47,873.5,0.9529,0.2523
1110.44,874.0,0.9536,0.2538
1111.42,874.5,0.9536,0.2531
1112.39,875.0,0.9529,0.2533
1113.36,875.5,0.9529,0.2546
1114.34,876.0,0.9529,0.2551
1115.32,876.5,0.9529,0.2527
1116.29,877.0,0.9517,0.2527
1117.27,877.5,0.9516,0.2545
1118.24,878.0,0.9516,0.2561
1119.22,878.5,0.9516,0.2528
1120.19,879.0,0.9514,0.2521
1121.17,879.5,0.9503,0.2523
1122.15,880.0,0.9502,0.2562
1123.12,880.5,0.9493,0.2549
1124.09,881.0,0.9502,0.2525
1125.06,881.5,0.9494,0.2531
1126.04,882.0,0.9489,0.2529
1127.01,882.5,0.949,0.2519
1127.99,883.0,0.947,0.2529
1128.98,883.5,0.9462,0.2525
1129.96,884.0,0.9462,0.2522
1130.94,884.5,0.9461,0.254
1131.92,885.0,0.945,0.2543
1132.89,885.5,0.9449,0.2514
1133.87,886.0,0.9449,0.2505
1134.84,886.5,0.9446,0.2529
1135.82,887.0,0.9449,0.2524
1136.79,887.5,0.9449,0.2496
1137.78,888.0,0.9445,0.2508
1138.75,888.5,0.9435,0.2506
1139.73,889.0,0.9436,0.247
1140.71,889.5,0.9435,0.2498
1141.69,890.0,0.9447,0.2536
1142.66,890.5,0.9449,0.2523
1143.64,891.0,0.945,0.25
1144.61,891.5,0.9439,0.2495
1145.59,892.0,0.9436,0.2493
1146.56,892.5,0.9436,0.2492
1147.54,893.0,0.9436,0.2506
1148.52,893.5,0.9436,0.2497
1149.5,894.0,0.9431,0.2514
1150.48,894.5,0.9422,0.2474
1151.46,895.0,0.9422,0.2472
1152.44,895.5,0.9422,0.248
1153.42,896.0,0.941,0.2489
1154.4,896.5,0.9409,0.2483
1155.38,897.0,0.9409,0.2483
1156.36,897.5,0.941,0.2482
1157.34,898.0,0.9398,0.2462
1158.32,898.5,0.9396,0.2466
1159.3,899.0,0.9397,0.2451
1160.28,899.5,0.9385,0.2443
1161.26,900.0,0.9383,0.2476
1162.24,900.5,0.9383,0.2473
1163.22,901.0,0.9383,0.2467
1164.2,901.5,0.9382,0.2492
1165.18,902.0,0.9369,0.2473
1166.16,902.5,0.937,0.2455
1167.14,903.0,0.9371,0.2456
1168.12,903.5,0.9362,0.2451
1169.1,904.0,0.9357,0.2436
1170.08,904.5,0.9357,0.2455
1171.06,905.0,0.9357,0.2435
1172.04,905.5,0.9357,0.2412
1173.02,906.0,0.935,0.242
1174,906.5,0.9344,0.2441
1174.98,907.0,0.9344,0.2437
1175.96,907.5,0.9344,0.2425
1176.94,908.0,0.9337,0.2447
1177.92,908.5,0.9343,0.2454
1178.9,909.0,0.9344,0.2446
1179.88,909.5,0.9344,0.2439
1180.87,910.0,0.9344,0.2417
1181.85,910.5,0.9336,0.2457
1182.83,911.0,0.933,0.2446
1183.82,911.5,0.9331,0.2435
1184.8,912.0,0.9324,0.2439
1185.78,912.5,0.9317,0.2425
1186.76,913.0,0.9317,0.2427
1187.74,913.5,0.9315,0.2429
1188.72,914.0,0.9303,0.2423
1189.7,914.5,0.9304,0.2428
1190.68,915.0,0.9304,0.242
1191.67,915.5,0.9304,0.2426
1192.65,916.0,0.929,0.2422
1193.63,916.5,0.9291,0.2433
1194.61,917.0,0.9291,0.2415
1195.6,917.5,0.9291,0.2396
1196.58,918.0,0.9285,0.2378
1197.56,918.5,0.9278,0.2375
1198.55,919.0,0.9278,0.2382
1199.53,919.5,0.9273,0.2377
1200.51,920.0,0.9279,0.2383
1201.49,920.5,0.9278,0.2366
1202.47,921.0,0.9279,0.2342
1203.46,921.5,0.9267,0.2358
1204.44,922.0,0.9265,0.2371
1205.42,922.5,0.9265,0.2379
1206.4,923.0,0.9265,0.2346
1207.38,923.5,0.9265,0.2353
1208.36,924.0,0.9256,0.2359
1209.35,924.5,0.9245,0.235
1210.33,925.0,0.9245,0.2344
1211.31,925.5,0.9245,0.2334
1212.29,926.0,0.9233,0.2339
1213.27,926.5,0.9232,0.2308
1214.25,927.0,0.9232,0.232
1215.24,927.5,0.9231,0.2307
1216.22,928.0,0.9228,0.232
1217.2,928.5,0.9219,0.2288
1218.19,929.0,0.9218,0.2294
1219.17,929.5,0.9228,0.2276
1220.15,930.0,0.9229,0.228
1221.14,930.5,0.9218,0.2264
1222.12,931.0,0.9218,0.2264
1223.1,931.5,0.9219,0.2282
1224.08,932.0,0.9218,0.2303
1225.07,932.5,0.9205,0.2285
1226.05,933.0,0.9205,0.2265
1227.03,933.5,0.9205,0.2274
1228.01,934.0,0.9205,0.228
1228.99,934.5,0.9205,0.2258
1229.98,935.0,0.9205,0.2273
1230.96,935.5,0.9205,0.2267
1231.95,936.0,0.92,0.2269
1232.94,936.5,0.9192,0.2282
1233.92,937.0,0.9192,0.2252
1234.9,937.5,0.9191,0.2274
1235.88,938.0,0.9199,0.2266
1236.87,938.5,0.9193,0.2247
1237.85,939.0,0.9192,0.2277
1238.83,939.5,0.9192,0.2304
1239.82,940.0,0.9192,0.2288
1240.8,940.5,0.9192,0.2289
1241.79,941.0,0.9192,0.2247
1242.77,941.5,0.9191,0.2245
1243.75,942.0,0.9173,0.2257
1244.74,942.5,0.9169,0.2279
1245.72,943.0,0.9169,0.2268
1246.7,943.5,0.9169,0.2281
1247.69,944.0,0.9164,0.2266
1248.67,944.5,0.9155,0.2259
1249.66,945.0,0.9156,0.2254
1250.64,945.5,0.9156,0.2229
1251.63,946.0,0.9156,0.2236
1252.61,946.5,0.9156,0.2237
1253.6,947.0,0.9155,0.2238
1254.58,947.5,0.9167,0.2209
1255.56,948.0,0.9163,0.2199
1256.55,948.5,0.9152,0.2201
1257.54,949.0,0.9153,0.2172
1258.51,949.5,0.9153,0.2154
1259.5,950.0,0.9144,0.2176
1260.49,950.5,0.914,0.2218
1261.47,951.0,0.9143,0.2219
1262.46,951.5,0.9143,0.2217
1263.45,952.0,0.9135,0.224
1264.44,952.5,0.9129,0.2234
1265.42,953.0,0.913,0.2199
1266.41,953.5,0.913,0.2214
1267.39,954.0,0.913,0.2212
1268.37,954.5,0.9129,0.2215
1269.36,955.0,0.9117,0.2204
1270.35,955.5,0.9117,0.2219
1271.34,956.0,0.9116,0.2167
1272.33,956.5,0.9125,0.2177
1273.31,957.0,0.9129,0.2194
1274.3,957.5,0.9129,0.2185
1275.28,958.0,0.9117,0.2167
1276.26,958.5,0.9117,0.2193
1277.25,959.0,0.9116,0.2152
1278.23,959.5,0.9116,0.2176
1279.22,960.0,0.9109,0.2129
1280.21,960.5,0.9103,0.2128
1281.2,961.0,0.9091,0.2133
1282.19,961.5,0.9093,0.2112
1283.17,962.0,0.9103,0.2109
1284.16,962.5,0.9103,0.2101
1285.15,963.0,0.9098,0.2096
1286.13,963.5,0.909,0.2066
1287.12,964.0,0.9101,0.2077
1288.11,964.5,0.9103,0.2082
1289.09,965.0,0.9103,0.2083
1290.08,965.5,0.9101,0.2066
1291.07,966.0,0.909,0.2079
1292.06,966.5,0.909,0.2059
1293.04,967.0,0.909,0.2035
1294.03,967.5,0.909,0.2076
1295.01,968.0,0.9087,0.2067
1296,968.5,0.9091,0.2003
1296.98,969.0,0.909,0.2016
1297.97,969.5,0.909,0.2009
1298.96,970.0,0.909,0.2007
1299.96,970.5,0.909,0.2016
1300.95,971.0,0.9081,0.2013
1301.94,971.5,0.9069,0.1983
1302.93,972.0,0.9064,0.1986
1303.91,972.5,0.9063,0.2036
1304.9,973.0,0.9063,0.2027
1305.88,973.5,0.9051,0.1999
1306.87,974.0,0.905,0.2006
1307.86,974.5,0.9051,0.1981
1308.85,975.0,0.905,0.1971
1309.84,975.5,0.9051,0.1988
1310.83,976.0,0.905,0.1975
1311.82,976.5,0.9051,0.194
1312.8,977.0,0.905,0.1946
1313.79,977.5,0.905,0.1979
1314.78,978.0,0.9045,0.1943
1315.76,978.5,0.9045,0.1967
1316.75,979.0,0.9047,0.1946
1317.74,979.5,0.9044,0.193
1318.73,980.0,0.9037,0.1911
1319.72,980.5,0.9037,0.1875
1320.71,981.0,0.9037,0.1886
1321.71,981.5,0.9037,0.1887
1322.7,982.0,0.9037,0.1866
1323.69,982.5,0.9036,0.1878
1324.68,983.0,0.9048,0.1879
1325.67,983.5,0.9051,0.1869
1326.66,984.0,0.9051,0.1847
1327.65,984.5,0.9046,0.1842
1328.64,985.0,0.9037,0.184
1329.63,985.5,0.9037,0.1824
1330.62,986.0,0.9037,0.1786
1331.61,986.5,0.9031,0.1775
1332.6,987.0,0.9024,0.1796
1333.59,987.5,0.9024,0.1795
1334.58,988.0,0.9024,0.1787
1335.57,988.5,0.9024,0.177
1336.56,989.0,0.9024,0.1764
1337.56,989.5,0.9025,0.1761
1338.55,990.0,0.9015,0.1762
1339.54,990.5,0.9011,0.1729
1340.53,991.0,0.9016,0.1732
1341.53,991.5,0.9024,0.1702
1342.52,992.0,0.9024,0.171
1343.52,992.5,0.9024,0.1712
1344.51,993.0,0.9019,0.1675
1345.51,993.5,0.9011,0.1658
1346.49,994.0,0.9011,0.1639
1347.49,994.5,0.9011,0.1634
1348.48,995.0,0.9011,0.1634
1349.47,995.5,0.9007,0.1643
1350.46,996.0,0.8998,0.1635
1351.45,996.5,0.8998,0.1605
1352.44,997.0,0.8998,0.1614
1353.43,997.5,0.8998,0.16
1354.43,998.0,0.8998,0.1598
1355.42,998.5,0.8998,0.1563
1356.42,999.0,0.8998,0.1539
1357.41,999.5,0.8998,0.1561
1358.41,1000.0,0.8996,0.1545
1359.4,1000.5,0.9001,0.152
1360.39,1001.0,0.9001,0.1493
1361.39,1001.5,0.9001,0.1495
1362.38,1002.0,0.8998,0.1493
1363.37,1002.5,0.8998,0.1524
1364.37,1003.0,0.8998,0.1483
1365.36,1003.5,0.8998,0.1505
1366.36,1004.0,0.8998,0.1438
1367.35,1004.5,0.8996,0.1453
1368.35,1005.0,0.8985,0.145
1369.34,1005.5,0.8984,0.1443
1370.34,1006.0,0.8983,0.1431
1371.33,1006.5,0.8972,0.1394
1372.32,1007.0,0.8971,0.142
1373.31,1007.5,0.8983,0.1406
1374.3,1008.0,0.8985,0.1442
1375.3,1008.5,0.898,0.1403
1376.29,1009.0,0.8971,0.1395
1377.29,1009.5,0.8971,0.1365
1378.29,1010.0,0.8972,0.1368
1379.29,1010.5,0.8971,0.1336
1380.29,1011.0,0.8969,0.1305
1381.29,1011.5,0.8957,0.1324
1382.29,1012.0,0.8958,0.1322
1383.29,1012.5,0.8953,0.133
1384.28,1013.0,0.8945,0.1322
1385.28,1013.5,0.8945,0.1316
1386.28,1014.0,0.8945,0.1278
1387.27,1014.5,0.8947,0.1264
1388.27,1015.0,0.8959,0.1285
1389.27,1015.5,0.8959,0.1265
1390.27,1016.0,0.8948,0.1215
1391.27,1016.5,0.8945,0.1253
1392.27,1017.0,0.8945,0.123
1393.27,1017.5,0.8945,0.1211
1394.26,1018.0,0.8945,0.1239
1395.26,1018.5,0.8933,0.1215
1396.25,1019.0,0.8932,0.1232
1397.25,1019.5,0.8932,0.1175
1398.24,1020.0,0.8932,0.1202
1399.24,1020.5,0.8924,0.1195
1400.23,1021.0,0.8926,0.1183
1401.23,1021.5,0.8932,0.1157
1402.23,1022.0,0.8932,0.1128
1403.23,1022.5,0.8932,0.1115
1404.23,1023.0,0.8932,0.1139
1405.23,1023.5,0.8932,0.1141
1406.22,1024.0,0.8928,0.1104
1407.22,1024.5,0.8918,0.1078
1408.21,1025.0,0.8919,0.1117
1409.21,1025.5,0.8919,0.1082
1410.2,1026.0,0.8919,0.1067
1411.2,1026.5,0.8917,0.1019
1412.2,1027.0,0.8912,0.1026
1413.2,1027.5,0.8913,0.0997
1414.19,1028.0,0.89,0.0922
1415.19,1028.5,0.8899,0.0959
1416.19,1029.0,0.8899,0.0941
1417.18,1029.5,0.8899,0.0906
1418.17,1030.0,0.8899,0.0903
1419.17,1030.5,0.8899,0.0878
1420.17,1031.0,0.8899,0.0898
1421.17,1031.5,0.8905,0.0882
1422.17,1032.0,0.8915,0.083
1423.17,1032.5,0.8914,0.0836
1424.17,1033.0,0.8924,0.082
1425.16,1033.5,0.8924,0.0813
1426.16,1034.0,0.8911,0.0798
1427.15,1034.5,0.8913,0.082
1428.15,1035.0,0.8899,0.079
1429.15,1035.5,0.8908,0.0786
1430.15,1036.0,0.891,0.0789
1431.15,1036.5,0.8898,0.0775
1432.15,1037.0,0.8899,0.0773
1433.14,1037.5,0.8899,0.0786
1434.14,1038.0,0.8889,0.0778
1435.14,1038.5,0.8886,0.0731
1436.14,1039.0,0.8886,0.0727
1437.14,1039.5,0.8886,0.076
1438.14,1040.0,0.8886,0.0722
1439.13,1040.5,0.8886,0.0686
1440.13,1041.0,0.8886,0.0705
1441.12,1041.5,0.8886,0.0717
1442.12,1042.0,0.8891,0.0722
1443.12,1042.5,0.8899,0.0711
1444.12,1043.0,0.8899,0.072
1445.11,1043.5,0.8887,0.0681
1446.11,1044.0,0.8886,0.0649
1447.11,1044.5,0.8886,0.0664
1448.11,1045.0,0.8886,0.0642
1449.1,1045.5,0.8896,0.0663
1450.1,1046.0,0.8898,0.0654
1451.1,1046.5,0.8886,0.0612
1452.1,1047.0,0.8886,0.0604
1453.1,1047.5,0.8887,0.059
1454.1,1048.0,0.8891,0.0576
1455.1,1048.5,0.8878,0.0597
1456.1,1049.0,0.8886,0.0585
1457.09,1049.5,0.8886,0.0583
1458.1,1050.0,0.8886,0.0525
1459.09,1050.5,0.8885,0.0503
1460.09,1051.0,0.8873,0.0512
1461.08,1051.5,0.8873,0.0519
1462.08,1052.0,0.8873,0.0494
1463.07,1052.5,0.8873,0.0511
1464.07,1053.0,0.8873,0.048
1465.07,1053.5,0.8873,0.0458
1466.07,1054.0,0.8873,0.0483
1467.07,1054.5,0.8873,0.0419
1468.07,1055.0,0.8873,0.0429
1469.07,1055.5,0.8886,0.0377
1470.07,1056.0,0.8886,0.0371
1471.07,1056.5,0.8886,0.0351
1472.07,1057.0,0.8872,0.0334
1473.06,1057.5,0.8859,0.0344
1474.06,1058.0,0.8859,0.0342
1475.05,1058.5,0.8846,0.0323
1476.05,1059.0,0.8846,0.0322
1477.05,1059.5,0.8846,0.0315
1478.05,1060.0,0.8846,0.0255
1479.05,1060.5,0.8846,0.0265
1480.05,1061.0,0.8846,0.027
1481.05,1061.5,0.8846,0.0248
1482.05,1062.0,0.8847,0.0262
1483.04,1062.5,0.8839,0.0256
1484.03,1063.0,0.8835,0.0228