File: Wood/Calibration_Data/FSRI/FSRI_Wood_Parallel_Cone_50kW_hor_R2.csv
Time,Mass (g),HRRPUA (kW/m2)
0.0,96.6,2.2
2.0,96.43,2.2
4.0,96.64,3.6
6.0,96.61,5.7
8.0,96.56,7.6
10.0,96.49,9.1
12.0,96.43,12.1
14.0,96.17,13.8
16.0,95.98,13.5
18.0,95.79,12.6
20.0,95.42,11.4
22.0,95.16,11.8
24.0,94.91,26.4
26.0,94.65,74.9
28.0,94.39,114.9
30.0,94.14,144.1
32.0,93.94,168.5
34.0,93.72,188.6
36.0,93.48,197.2
38.0,93.28,209.9
40.0,93.02,210.3
42.0,92.79,210.6
44.0,92.56,206.8
46.0,92.35,206.9
48.0,92.12,201.9
50.0,91.89,199.6
52.0,91.63,200.6
54.0,91.41,201.0
56.0,91.16,198.5
58.0,90.93,198.8
60.0,90.71,193.8
62.0,90.45,190.4
64.0,90.28,191.9
66.0,90.1,186.8
68.0,89.93,187.3
70.0,89.74,177.0
72.0,89.56,176.7
74.0,89.36,172.5
76.0,89.15,173.3
78.0,89.0,169.6
80.0,88.81,166.2
82.0,88.65,163.1
84.0,88.43,159.0
86.0,88.27,157.3
88.0,88.08,152.4
90.0,87.89,151.9
92.0,87.68,150.0
94.0,87.5,149.8
96.0,87.32,149.0
98.0,87.16,144.3
100.0,86.98,144.9
102.0,86.83,142.7
104.0,86.69,141.1
106.0,86.52,138.2
108.0,86.4,137.1
110.0,86.23,135.7
112.0,86.11,138.0
114.0,85.93,133.0
116.0,85.79,132.2
118.0,85.63,131.1
120.0,85.49,128.5
122.0,85.33,125.0
124.0,85.18,125.8
126.0,84.99,121.3
128.0,84.79,124.8
130.0,84.62,122.5
132.0,84.52,122.5
134.0,84.37,123.1
136.0,84.18,121.6
138.0,84.07,121.1
140.0,83.92,119.3
142.0,83.84,118.4
144.0,83.73,116.9
146.0,83.57,117.1
148.0,83.44,113.8
150.0,83.32,112.4
152.0,83.16,110.7
154.0,83.01,111.9
156.0,82.87,111.0
158.0,82.72,110.6
160.0,82.6,109.0
162.0,82.46,109.9
164.0,82.25,109.8
166.0,82.1,108.7
168.0,81.96,109.5
170.0,81.83,107.6
172.0,81.67,109.1
174.0,81.54,107.5
176.0,81.51,106.9
178.0,81.36,109.3
180.0,81.24,107.5
182.0,81.11,106.6
184.0,80.98,104.1
186.0,80.81,104.3
188.0,80.7,103.4
190.0,80.57,104.8
192.0,80.43,104.0
194.0,80.26,104.9
196.0,80.13,105.4
198.0,79.95,105.2
200.0,79.81,104.9
202.0,79.64,106.4
204.0,79.54,105.0
206.0,79.42,104.8
208.0,79.27,104.8
210.0,79.16,103.1
212.0,79.07,102.2
214.0,78.98,101.1
216.0,78.85,101.9
218.0,78.74,101.5
220.0,78.6,102.4
222.0,78.44,102.3
224.0,78.33,104.5
226.0,78.21,102.3
228.0,78.09,102.2
230.0,77.95,104.7
232.0,77.8,99.9
234.0,77.61,101.7
236.0,77.5,100.9
238.0,77.37,100.5
240.0,77.25,102.4
242.0,77.09,102.7
244.0,76.96,100.9
246.0,76.84,102.6
248.0,76.8,103.4
250.0,76.68,102.6
252.0,76.54,103.2
254.0,76.43,104.7
256.0,76.29,104.3
258.0,76.16,102.7
260.0,76.01,102.9
262.0,75.9,100.5
264.0,75.79,100.2
266.0,75.55,100.2
268.0,75.43,99.4
270.0,75.32,97.4
272.0,75.2,96.4
274.0,75.07,96.8
276.0,74.93,96.8
278.0,74.81,97.2
280.0,74.77,96.5
282.0,74.65,96.1
284.0,74.52,96.8
286.0,74.37,96.8
288.0,74.27,96.8
290.0,74.16,97.0
292.0,74.03,98.0
294.0,73.9,98.0
296.0,73.78,98.6
298.0,73.65,98.8
300.0,73.53,100.1
302.0,73.29,98.4
304.0,73.15,98.2
306.0,73.03,100.4
308.0,72.91,100.3
310.0,72.8,100.2
312.0,72.68,100.1
314.0,72.63,101.5
316.0,72.54,101.8
318.0,72.46,100.0
320.0,72.3,100.0
322.0,72.19,99.3
324.0,72.07,99.0
326.0,71.94,100.6
328.0,71.81,99.0
330.0,71.71,99.0
332.0,71.57,99.7
334.0,71.48,100.3
336.0,71.31,97.9
338.0,71.12,98.2
340.0,70.98,99.6
342.0,70.88,97.6
344.0,70.74,95.4
346.0,70.66,94.1
348.0,70.5,95.9
350.0,70.37,96.2
352.0,70.26,96.0
354.0,70.19,95.8
356.0,70.09,96.6
358.0,69.94,94.3
360.0,69.82,94.6
362.0,69.74,94.8
364.0,69.61,97.7
366.0,69.47,99.1
368.0,69.36,97.1
370.0,69.23,99.3
372.0,69.05,99.5
374.0,68.94,99.8
376.0,68.8,99.4
378.0,68.64,99.0
380.0,68.6,97.8
382.0,68.46,98.4
384.0,68.29,98.8
386.0,68.14,97.4
388.0,68.14,97.5
390.0,68.02,96.6
392.0,67.92,98.1
394.0,67.79,95.9
396.0,67.67,95.6
398.0,67.58,98.7
400.0,67.45,96.6
402.0,67.3,97.3
404.0,67.2,96.6
406.0,67.08,95.1
408.0,66.91,97.0
410.0,66.79,96.5
412.0,66.64,97.3
414.0,66.49,95.3
416.0,66.4,93.8
418.0,66.26,94.6
420.0,66.12,93.4
422.0,66.02,94.2
424.0,65.94,92.4
426.0,65.85,92.3
428.0,65.78,92.4
430.0,65.64,93.0
432.0,65.54,91.6
434.0,65.43,92.0
436.0,65.3,92.5
438.0,65.19,92.9
440.0,65.1,92.8
442.0,64.96,91.8
444.0,64.82,93.1
446.0,64.68,94.7
448.0,64.52,94.5
450.0,64.39,95.1
452.0,64.28,96.0
454.0,64.14,93.7
456.0,64.03,94.7
458.0,63.93,94.2
460.0,63.84,92.9
462.0,63.8,93.9
464.0,63.67,93.7
466.0,63.58,93.6
468.0,63.46,92.4
470.0,63.36,90.8
472.0,63.24,92.8
474.0,63.11,93.0
476.0,63.0,92.4
478.0,62.89,90.8
480.0,62.67,91.4
482.0,62.53,90.5
484.0,62.41,89.6
486.0,62.31,90.5
488.0,62.18,88.9
490.0,62.09,88.6
492.0,61.97,89.6
494.0,61.95,89.3
496.0,61.83,89.1
498.0,61.73,90.2
500.0,61.61,89.1
502.0,61.5,89.7
504.0,61.39,88.5
506.0,61.28,89.5
508.0,61.15,89.9
510.0,61.07,89.1
512.0,60.95,89.6
514.0,60.76,87.7
516.0,60.62,89.3
518.0,60.51,89.9
520.0,60.37,90.5
522.0,60.28,89.3
524.0,60.17,91.4
526.0,60.02,91.1
528.0,59.96,88.9
530.0,59.91,91.8
532.0,59.82,90.5
534.0,59.68,91.6
536.0,59.58,89.5
538.0,59.46,91.3
540.0,59.36,89.3
542.0,59.26,90.8
544.0,59.16,87.9
546.0,59.05,87.0
548.0,58.93,86.5
550.0,58.83,87.2
552.0,58.58,87.7
554.0,58.48,86.8
556.0,58.39,87.4
558.0,58.27,87.8
560.0,58.14,89.2
562.0,58.04,89.5
564.0,57.92,89.2
566.0,57.79,89.2
568.0,57.71,91.4
570.0,57.66,90.2
572.0,57.56,90.2
574.0,57.44,92.6
576.0,57.33,92.6
578.0,57.24,91.8
580.0,57.1,91.6
582.0,56.99,90.1
584.0,56.9,90.6
586.0,56.8,91.9
588.0,56.69,90.0
590.0,56.55,90.6
592.0,56.42,92.0
594.0,56.3,90.8
596.0,56.16,91.2
598.0,56.04,91.0
600.0,55.96,89.8
602.0,55.83,90.1
604.0,55.79,91.9
606.0,55.72,91.2
608.0,55.59,94.0
610.0,55.48,93.0
612.0,55.4,94.2
614.0,55.27,93.3
616.0,55.17,93.9
618.0,55.03,95.5
620.0,54.91,93.9
622.0,54.81,93.9
624.0,54.64,94.7
626.0,54.5,92.0
628.0,54.39,92.1
630.0,54.27,91.5
632.0,54.16,92.3
634.0,54.04,93.4
636.0,53.91,91.6
638.0,53.8,91.8
640.0,53.73,90.0
642.0,53.65,89.4
644.0,53.55,89.5
646.0,53.43,90.6
648.0,53.33,91.1
650.0,53.24,91.4
652.0,53.1,92.9
654.0,52.99,90.7
656.0,52.89,92.3
658.0,52.75,93.5
660.0,52.63,94.3
662.0,52.48,95.0
664.0,52.33,94.0
666.0,52.22,94.4
668.0,52.11,93.7
670.0,51.98,95.6
672.0,51.89,95.1
674.0,51.82,95.1
676.0,51.74,94.3
678.0,51.63,93.9
680.0,51.52,94.3
682.0,51.43,93.1
684.0,51.31,93.8
686.0,51.17,94.9
688.0,51.1,93.6
690.0,50.99,95.6
692.0,50.85,92.2
694.0,50.75,95.0
696.0,50.57,94.2
698.0,50.45,92.3
700.0,50.32,94.1
702.0,50.2,93.8
704.0,50.07,92.4
706.0,49.96,93.2
708.0,49.84,91.2
710.0,49.74,92.2
712.0,49.63,91.9
714.0,49.53,91.6
716.0,49.47,92.0
718.0,49.37,90.7
720.0,49.27,93.6
722.0,49.12,94.7
724.0,49.04,92.8
726.0,48.91,93.2
728.0,48.81,93.8
730.0,48.71,92.6
732.0,48.58,93.2
734.0,48.45,94.3
736.0,48.31,93.8
738.0,48.19,92.6
740.0,48.04,94.0
742.0,47.93,93.2
744.0,47.81,90.9
746.0,47.67,91.7
748.0,47.59,92.6
750.0,47.51,93.4
752.0,47.42,93.8
754.0,47.35,93.3
756.0,47.23,92.2
758.0,47.11,91.3
760.0,47.03,90.8
762.0,46.92,91.8
764.0,46.81,92.3
766.0,46.66,92.1
768.0,46.58,93.3
770.0,46.45,95.0
772.0,46.31,94.7
774.0,46.18,93.6
776.0,46.03,94.6
778.0,45.91,93.5
780.0,45.82,93.3
782.0,45.7,92.0
784.0,45.6,94.5
786.0,45.51,94.6
788.0,45.4,95.3
790.0,45.33,96.1
792.0,45.2,94.4
794.0,45.13,97.1
796.0,45.04,96.1
798.0,44.93,93.8
800.0,44.81,96.1
802.0,44.68,94.4
804.0,44.59,94.9
806.0,44.49,95.7
808.0,44.36,94.8
810.0,44.22,95.3
812.0,44.07,95.6
814.0,43.92,94.1
816.0,43.83,93.3
818.0,43.71,94.3
820.0,43.57,94.7
822.0,43.47,93.3
824.0,43.42,96.2
826.0,43.34,97.0
828.0,43.24,96.3
830.0,43.13,97.0
832.0,43.03,97.0
834.0,42.91,96.5
836.0,42.8,94.9
838.0,42.7,94.6
840.0,42.58,97.5
842.0,42.45,98.1
844.0,42.34,97.7
846.0,42.23,98.2
848.0,42.09,99.7
850.0,41.97,98.0
852.0,41.85,97.7
854.0,41.75,98.8
856.0,41.63,98.0
858.0,41.54,98.4
860.0,41.43,98.4
862.0,41.32,99.5
864.0,41.28,99.3
866.0,41.13,99.2
868.0,41.02,99.1
870.0,40.91,100.7
872.0,40.79,98.8
874.0,40.7,100.2
876.0,40.56,100.7
878.0,40.47,98.7
880.0,40.35,99.6
882.0,40.25,97.2
884.0,40.12,97.0
886.0,39.98,99.7
888.0,39.86,98.9
890.0,39.73,96.4
892.0,39.66,99.0
894.0,39.48,99.8
896.0,39.38,100.0
898.0,39.29,101.0
900.0,39.19,101.2
902.0,39.12,101.0
904.0,39.01,100.1
906.0,38.89,101.4
908.0,38.75,101.3
910.0,38.68,101.4
912.0,38.55,103.0
914.0,38.43,98.4
916.0,38.33,100.1
918.0,38.2,100.2
920.0,38.09,101.8
922.0,37.92,100.6
924.0,37.8,100.4
926.0,37.69,100.3
928.0,37.57,100.0
930.0,37.46,100.8
932.0,37.35,100.0
934.0,37.24,100.2
936.0,37.13,99.2
938.0,37.05,101.2
940.0,36.94,100.2
942.0,36.83,98.0
944.0,36.75,99.1
946.0,36.64,100.1
948.0,36.54,100.2
950.0,36.43,100.2
952.0,36.32,102.3
954.0,36.19,101.0
956.0,36.07,100.7
958.0,35.96,101.4
960.0,35.79,102.3
962.0,35.67,100.9
964.0,35.57,100.8
966.0,35.44,100.5
968.0,35.32,101.0
970.0,35.23,98.9
972.0,35.11,100.0
974.0,35.01,103.0
976.0,34.93,103.2
978.0,34.81,102.5
980.0,34.71,102.9
982.0,34.6,102.8
984.0,34.46,102.1
986.0,34.35,103.0
988.0,34.26,104.1
990.0,34.13,102.0
992.0,33.99,103.4
994.0,33.87,101.4
996.0,33.75,103.4
998.0,33.61,102.4
1000.0,33.44,102.7
1002.0,33.31,103.7
1004.0,33.21,104.4
1006.0,33.09,102.0
1008.0,32.95,101.4
1010.0,32.85,101.7
1012.0,32.75,102.0
1014.0,32.66,103.8
1016.0,32.53,103.1
1018.0,32.44,102.1
1020.0,32.32,102.4
1022.0,32.23,103.3
1024.0,32.11,102.3
1026.0,31.97,105.0
1028.0,31.85,102.9
1030.0,31.75,103.5
1032.0,31.64,105.0
1034.0,31.5,104.2
1036.0,31.36,101.8
1038.0,31.19,103.7
1040.0,31.06,103.2
1042.0,30.97,105.4
1044.0,30.86,102.7
1046.0,30.73,104.8
1048.0,30.63,104.2
1050.0,30.53,105.0
1052.0,30.44,102.8
1054.0,30.34,103.3
1056.0,30.22,105.0
1058.0,30.11,103.9
1060.0,29.97,107.0
1062.0,29.85,108.7
1064.0,29.74,107.7
1066.0,29.64,107.2
1068.0,29.52,107.0
1070.0,29.37,104.3
1072.0,29.2,104.7
1074.0,29.05,107.5
1076.0,28.91,105.7
1078.0,28.79,105.7
1080.0,28.69,105.4
1082.0,28.58,106.1
1084.0,28.47,104.9
1086.0,28.42,106.3
1088.0,28.3,104.2
1090.0,28.18,106.0
1092.0,28.06,107.6
1094.0,27.92,106.6
1096.0,27.81,108.3
1098.0,27.69,106.7
1100.0,27.58,106.8
1102.0,27.46,106.4
1104.0,27.33,106.7
1106.0,27.25,105.3
1108.0,27.1,102.7
1110.0,26.94,102.7
1112.0,26.82,103.9
1114.0,26.67,105.0
1116.0,26.55,104.4
1118.0,26.47,104.8
1120.0,26.36,105.8
1122.0,26.26,104.8
1124.0,26.16,106.1
1126.0,26.06,105.2
1128.0,25.96,105.9
1130.0,25.84,104.6
1132.0,25.72,103.0
1134.0,25.62,102.3
1136.0,25.48,102.6
1138.0,25.4,102.6
1140.0,25.3,102.8
1142.0,25.16,102.4
1144.0,25.03,101.8
1146.0,24.89,103.2
1148.0,24.73,102.0
1150.0,24.6,103.0
1152.0,24.43,104.2
1154.0,24.35,103.1
1156.0,24.25,102.1
1158.0,24.12,102.6
1160.0,24.06,103.8
1162.0,23.98,103.1
1164.0,23.84,103.1
1166.0,23.78,104.4
1168.0,23.67,101.1
1170.0,23.57,103.8
1172.0,23.46,103.8
1174.0,23.32,101.0
1176.0,23.25,101.9
1178.0,23.17,98.9
1180.0,23.1,99.5
1182.0,22.96,97.8
1184.0,22.82,97.9
1186.0,22.69,96.9
1188.0,22.56,94.9
1190.0,22.45,96.8
1192.0,22.34,95.6
1194.0,22.25,97.1
1196.0,22.15,97.6
1198.0,22.08,96.9
1200.0,21.97,96.5
1202.0,21.87,97.3
1204.0,21.81,97.3
1206.0,21.75,97.6
1208.0,21.62,95.3
1210.0,21.54,95.9
1212.0,21.45,93.7
1214.0,21.33,94.9
1216.0,21.24,94.5
1218.0,21.15,94.8
1220.0,21.03,95.4
1222.0,20.92,95.3
1224.0,20.78,94.4
1226.0,20.67,93.5
1228.0,20.54,93.3
1230.0,20.44,94.6
1232.0,20.35,92.1
1234.0,20.28,90.6
1236.0,20.18,90.3
1238.0,20.13,90.1
1240.0,20.07,89.5
1242.0,20.04,88.3
1244.0,19.96,89.4
1246.0,19.9,88.7
1248.0,19.82,89.4
1250.0,19.73,87.8
1252.0,19.63,87.4
1254.0,19.55,86.0
1256.0,19.47,85.1
1258.0,19.36,84.0
1260.0,19.24,84.3
1262.0,19.13,81.8
1264.0,18.98,82.9
1266.0,18.91,82.1
1268.0,18.8,79.5
1270.0,18.75,82.1
1272.0,18.69,81.9
1274.0,18.61,80.5
1276.0,18.59,81.2
1278.0,18.57,80.3
1280.0,18.53,80.4
1282.0,18.46,78.3
1284.0,18.37,79.2
1286.0,18.32,77.0
1288.0,18.23,76.3
1290.0,18.17,77.1
1292.0,18.1,76.5
1294.0,18.04,75.2
1296.0,17.95,74.4
1298.0,17.88,73.5
1300.0,17.73,73.8
1302.0,17.66,74.0
1304.0,17.62,72.7
1306.0,17.56,74.1
1308.0,17.48,70.4
1310.0,17.43,68.7
1312.0,17.38,70.1
1314.0,17.44,69.8
1316.0,17.4,67.8
1318.0,17.32,66.8
1320.0,17.27,64.6
1322.0,17.22,66.3
1324.0,17.16,63.8
1326.0,17.1,63.5
1328.0,17.05,63.1
1330.0,17.0,62.2
1332.0,16.93,63.1
1334.0,16.85,63.0
1336.0,16.75,61.0
1338.0,16.64,60.6
1340.0,16.6,60.9
1342.0,16.57,60.1
1344.0,16.52,58.6
1346.0,16.49,57.4
1348.0,16.58,57.3
1350.0,16.52,57.0
1352.0,16.5,55.9
1354.0,16.44,55.2
1356.0,16.41,54.6
1358.0,16.37,55.2
1360.0,16.35,54.2
1362.0,16.32,53.1
1364.0,16.3,52.5
1366.0,16.14,52.3
1368.0,16.08,51.5
1370.0,16.05,50.2
1372.0,16.0,49.9
1374.0,15.97,49.8
1376.0,15.95,49.0
1378.0,15.92,47.6
1380.0,15.87,47.8
1382.0,15.85,46.2
1384.0,15.92,45.6
1386.0,15.93,44.3
1388.0,15.93,43.4
1390.0,15.9,42.9
1392.0,15.87,41.7
1394.0,15.84,41.6
1396.0,15.81,41.7
1398.0,15.77,40.9
1400.0,15.74,40.7
1402.0,15.72,39.9
1404.0,15.69,40.2
1406.0,15.54,40.0
1408.0,15.49,40.3
1410.0,15.46,39.4
1412.0,15.43,38.3
1414.0,15.42,38.4
1416.0,15.4,38.3
1418.0,15.39,37.9
1420.0,15.47,37.7
1422.0,15.47,36.8
1424.0,15.44,37.6
1426.0,15.42,37.1
1428.0,15.41,37.9
1430.0,15.38,38.0
1432.0,15.35,38.5
1434.0,15.34,38.3
1436.0,15.31,37.7
1438.0,15.27,37.6
1440.0,15.25,36.4
1442.0,15.25,35.7
1444.0,15.09,36.4
1446.0,15.05,36.2
1448.0,15.0,36.4
1450.0,15.01,35.3
1452.0,14.98,34.8
1454.0,14.97,34.6
1456.0,15.06,34.8
1458.0,15.05,35.1
1460.0,15.04,34.5
1462.0,15.02,34.8
1464.0,15.0,34.9
1466.0,15.0,34.2
1468.0,14.95,34.7
1470.0,14.94,34.3
1472.0,14.88,34.2
1474.0,14.87,34.5
1476.0,14.78,34.9
1478.0,14.73,35.3
1480.0,14.67,34.2
1482.0,14.62,34.4
1484.0,14.62,33.9
1486.0,14.59,34.8
1488.0,14.55,34.8
1490.0,14.54,34.5
1492.0,14.58,35.0
1494.0,14.64,34.7
1496.0,14.64,34.4
1498.0,14.59,34.0
1500.0,14.57,33.7
1502.0,14.59,33.7
1504.0,14.56,33.7
1506.0,14.54,34.2
1508.0,14.52,34.5
1510.0,14.46,33.6
1512.0,14.4,33.0
1514.0,14.36,32.8
1516.0,14.31,33.0
1518.0,14.25,33.2
1520.0,14.37,33.2
1522.0,14.35,33.8
1524.0,14.31,33.7