File: Wood/Calibration_Data/FSRI/FSRI_Wood_Parallel_Cone_50kW_hor_R3.csv
Time,Mass (g),HRRPUA (kW/m2)
0.0,93.04,4.3
2.0,93.34,6.3
4.0,93.43,8.2
6.0,93.46,10.0
8.0,93.63,12.1
10.0,93.53,13.1
12.0,93.48,12.3
14.0,93.39,10.9
16.0,93.28,9.2
18.0,93.2,7.4
20.0,93.11,5.5
22.0,93.02,3.3
24.0,92.89,2.2
26.0,92.8,1.7
28.0,92.69,1.5
30.0,92.56,1.1
32.0,92.4,0.6
34.0,92.35,0.3
36.0,92.22,0.2
38.0,92.09,0.9
40.0,94.78,1.6
42.0,91.34,2.4
44.0,90.99,3.2
46.0,90.64,3.9
48.0,90.3,3.8
50.0,89.95,23.7
52.0,89.68,102.1
54.0,89.37,182.8
56.0,89.11,246.5
58.0,88.85,281.0
60.0,88.61,286.4
62.0,88.4,286.0
64.0,88.18,273.7
66.0,88.01,263.3
68.0,87.81,247.1
70.0,87.62,229.1
72.0,87.41,217.7
74.0,87.2,212.3
76.0,86.98,205.4
78.0,86.8,193.0
80.0,86.62,184.5
82.0,86.41,178.9
84.0,86.22,174.4
86.0,86.05,172.0
88.0,85.78,169.2
90.0,85.6,164.8
92.0,85.4,165.4
94.0,85.2,162.5
96.0,85.04,162.8
98.0,84.86,160.7
100.0,84.69,160.1
102.0,84.52,155.2
104.0,84.36,153.6
106.0,84.24,149.3
108.0,84.08,147.1
110.0,83.9,147.1
112.0,83.74,142.6
114.0,83.57,142.2
116.0,83.42,139.5
118.0,83.25,140.2
120.0,83.1,139.2
122.0,82.94,137.1
124.0,82.79,133.9
126.0,82.65,132.0
128.0,82.49,130.5
130.0,82.31,131.4
132.0,82.09,129.0
134.0,81.97,131.6
136.0,81.75,126.9
138.0,81.61,130.2
140.0,81.48,131.0
142.0,81.31,127.1
144.0,81.22,126.8
146.0,81.08,129.4
148.0,80.92,128.2
150.0,80.8,126.2
152.0,80.68,124.2
154.0,80.51,122.4
156.0,80.38,121.3
158.0,80.21,121.4
160.0,80.08,122.2
162.0,79.91,121.3
164.0,79.8,120.1
166.0,79.65,120.5
168.0,79.51,121.0
170.0,79.37,116.8
172.0,79.18,117.6
174.0,79.03,117.3
176.0,78.88,117.8
178.0,78.75,117.5
180.0,78.6,117.8
182.0,78.47,117.6
184.0,78.33,117.8
186.0,78.17,116.6
188.0,78.13,116.2
190.0,78.0,116.8
192.0,77.86,118.6
194.0,77.7,117.2
196.0,77.58,118.9
198.0,77.45,118.3
200.0,77.3,118.3
202.0,77.18,117.5
204.0,77.02,115.7
206.0,76.89,116.6
208.0,76.77,114.2
210.0,76.66,114.9
212.0,76.43,115.5
214.0,76.26,114.6
216.0,76.13,114.3
218.0,76.05,112.2
220.0,75.87,115.3
222.0,75.75,113.6
224.0,75.63,113.0
226.0,75.56,112.2
228.0,75.43,112.7
230.0,75.31,111.4
232.0,75.18,111.9
234.0,75.05,110.6
236.0,74.9,111.2
238.0,74.8,110.9
240.0,74.67,110.8
242.0,74.54,110.0
244.0,74.42,109.7
246.0,74.29,110.5
248.0,74.12,110.3
250.0,73.93,108.7
252.0,73.81,108.0
254.0,73.66,109.2
256.0,73.56,107.0
258.0,73.43,104.6
260.0,73.3,107.0
262.0,73.22,105.1
264.0,73.1,105.7
266.0,72.98,105.0
268.0,72.89,102.4
270.0,72.78,105.1
272.0,72.64,104.8
274.0,72.51,103.8
276.0,72.38,104.5
278.0,72.24,105.1
280.0,72.16,105.3
282.0,72.01,105.1
284.0,71.91,103.5
286.0,71.72,104.2
288.0,71.62,103.7
290.0,71.46,103.9
292.0,71.32,104.9
294.0,71.19,102.7
296.0,71.09,102.8
298.0,70.95,104.0
300.0,70.85,103.0
302.0,70.7,102.4
304.0,70.65,101.8
306.0,70.54,104.4
308.0,70.41,100.1
310.0,70.31,101.9
312.0,70.18,101.9
314.0,70.05,101.0
316.0,69.93,102.6
318.0,69.82,100.6
320.0,69.7,99.8
322.0,69.6,101.1
324.0,69.43,101.2
326.0,69.29,99.8
328.0,69.14,99.9
330.0,69.02,100.7
332.0,68.9,99.0
334.0,68.77,100.7
336.0,68.67,101.7
338.0,68.54,101.4
340.0,68.42,100.9
342.0,68.3,100.0
344.0,68.19,100.6
346.0,68.09,99.1
348.0,67.99,98.2
350.0,67.9,97.9
352.0,67.78,97.4
354.0,67.67,95.1
356.0,67.55,96.0
358.0,67.43,95.6
360.0,67.34,95.5
362.0,67.2,94.8
364.0,67.09,93.7
366.0,66.99,95.0
368.0,66.85,95.6
370.0,66.77,95.0
372.0,66.57,96.0
374.0,66.43,97.5
376.0,66.33,96.9
378.0,66.22,94.8
380.0,66.09,94.5
382.0,65.96,95.5
384.0,65.85,93.9
386.0,65.72,94.5
388.0,65.64,93.4
390.0,65.62,91.3
392.0,65.52,93.7
394.0,65.4,91.9
396.0,65.28,92.1
398.0,65.17,90.8
400.0,65.02,90.8
402.0,64.92,91.0
404.0,64.8,91.4
406.0,64.71,90.5
408.0,64.56,91.7
410.0,64.45,91.6
412.0,64.33,91.0
414.0,64.19,92.0
416.0,64.07,92.2
418.0,63.93,89.8
420.0,63.79,90.6
422.0,63.69,89.8
424.0,63.57,88.1
426.0,63.47,88.7
428.0,63.37,89.5
430.0,63.26,89.0
432.0,63.19,89.3
434.0,63.1,88.9
436.0,63.01,89.7
438.0,62.9,92.7
440.0,62.76,91.2
442.0,62.64,91.3
444.0,62.54,90.4
446.0,62.44,88.2
448.0,62.3,89.4
450.0,62.21,90.1
452.0,62.07,91.9
454.0,61.91,91.3
456.0,61.79,89.3
458.0,61.63,88.8
460.0,61.51,89.4
462.0,61.42,88.9
464.0,61.36,88.4
466.0,61.23,89.3
468.0,61.17,87.0
470.0,61.06,88.2
472.0,60.99,88.0
474.0,60.87,87.6
476.0,60.77,87.8
478.0,60.67,86.7
480.0,60.55,87.0
482.0,60.45,87.3
484.0,60.32,87.4
486.0,60.21,89.2
488.0,60.11,91.2
490.0,60.0,88.1
492.0,59.91,87.0
494.0,59.76,86.9
496.0,59.54,87.8
498.0,59.44,88.4
500.0,59.36,88.5
502.0,59.26,90.0
504.0,59.13,88.4
506.0,59.03,87.7
508.0,58.96,87.7
510.0,58.96,85.3
512.0,58.84,86.6
514.0,58.74,85.0
516.0,58.61,85.3
518.0,58.5,85.7
520.0,58.36,85.5
522.0,58.29,84.1
524.0,58.17,86.4
526.0,58.07,86.2
528.0,57.95,86.0
530.0,57.84,84.8
532.0,57.71,85.2
534.0,57.57,85.3
536.0,57.45,85.0
538.0,57.32,84.3
540.0,57.22,85.8
542.0,57.1,84.6
544.0,56.99,85.2
546.0,56.89,84.2
548.0,56.79,84.4
550.0,56.72,85.0
552.0,56.68,85.9
554.0,56.58,86.6
556.0,56.47,86.8
558.0,56.38,85.9
560.0,56.24,86.1
562.0,56.17,84.8
564.0,56.04,84.9
566.0,55.93,86.8
568.0,55.85,86.8
570.0,55.74,85.6
572.0,55.58,85.7
574.0,55.45,86.9
576.0,55.35,86.4
578.0,55.21,86.7
580.0,55.09,89.2
582.0,55.0,88.3
584.0,54.93,86.9
586.0,54.82,87.7
588.0,54.69,86.4
590.0,54.57,88.7
592.0,54.56,87.8
594.0,54.46,84.6
596.0,54.39,85.6
598.0,54.3,88.1
600.0,54.17,85.6
602.0,54.07,85.4
604.0,53.97,87.5
606.0,53.85,87.2
608.0,53.75,86.9
610.0,53.65,87.7
612.0,53.54,87.0
614.0,53.46,86.1
616.0,53.32,86.0
618.0,53.19,86.2
620.0,53.07,86.4
622.0,52.95,86.5
624.0,52.85,84.2
626.0,52.75,84.7
628.0,52.66,85.2
630.0,52.55,84.3
632.0,52.45,84.5
634.0,52.44,84.9
636.0,52.32,86.3
638.0,52.22,85.9
640.0,52.11,86.5
642.0,52.03,86.0
644.0,51.92,86.3
646.0,51.84,85.2
648.0,51.74,87.2
650.0,51.63,87.3
652.0,51.49,86.2
654.0,51.38,87.7
656.0,51.28,86.6
658.0,51.1,84.9
660.0,51.01,86.2
662.0,50.91,86.8
664.0,50.81,87.4
666.0,50.69,87.7
668.0,50.59,87.8
670.0,50.48,86.5
672.0,50.49,85.7
674.0,50.41,83.8
676.0,50.31,86.9
678.0,50.2,89.1
680.0,50.09,86.6
682.0,49.98,86.1
684.0,49.88,88.8
686.0,49.79,87.4
688.0,49.67,87.5
690.0,49.54,87.4
692.0,49.44,88.3
694.0,49.24,89.2
696.0,49.15,88.0
698.0,49.06,89.5
700.0,48.92,90.2
702.0,48.86,87.2
704.0,48.77,88.4
706.0,48.64,89.0
708.0,48.56,88.6
710.0,48.49,88.2
712.0,48.45,87.9
714.0,48.36,87.6
716.0,48.26,87.6
718.0,48.13,87.5
720.0,48.04,87.2
722.0,47.93,87.2
724.0,47.86,87.8
726.0,47.76,88.4
728.0,47.64,89.9
730.0,47.55,88.7
732.0,47.41,88.7
734.0,47.28,89.4
736.0,47.18,90.2
738.0,47.01,90.3
740.0,46.95,92.0
742.0,46.84,88.7
744.0,46.72,92.9
746.0,46.6,90.9
748.0,46.53,91.9
750.0,46.55,93.1
752.0,46.41,90.9
754.0,46.32,93.3
756.0,46.22,93.6
758.0,46.1,91.5
760.0,46.0,92.8
762.0,45.91,93.3
764.0,45.81,93.2
766.0,45.72,92.8
768.0,45.61,94.0
770.0,45.46,93.5
772.0,45.35,92.4
774.0,45.2,92.6
776.0,45.09,93.4
778.0,44.95,91.2
780.0,44.87,91.9
782.0,44.78,91.4
784.0,44.69,90.4
786.0,44.6,92.3
788.0,44.5,91.3
790.0,44.45,93.2
792.0,44.37,91.6
794.0,44.23,92.6
796.0,44.15,94.3
798.0,44.05,93.0
800.0,43.95,92.8
802.0,43.85,93.6
804.0,43.76,93.0
806.0,43.64,93.9
808.0,43.53,94.0
810.0,43.38,92.9
812.0,43.22,93.1
814.0,43.1,95.1
816.0,42.95,93.8
818.0,42.87,94.7
820.0,42.76,94.4
822.0,42.65,92.4
824.0,42.54,94.3
826.0,42.44,93.5
828.0,42.41,93.2
830.0,42.35,94.7
832.0,42.25,94.7
834.0,42.15,95.9
836.0,42.05,95.7
838.0,41.94,97.2
840.0,41.83,96.6
842.0,41.72,98.3
844.0,41.59,95.9
846.0,41.49,96.6
848.0,41.39,95.8
850.0,41.27,96.0
852.0,41.07,96.1
854.0,40.97,94.7
856.0,40.86,97.0
858.0,40.72,95.8
860.0,40.65,95.0
862.0,40.56,94.8
864.0,40.41,96.0
866.0,40.31,95.9
868.0,40.31,94.6
870.0,40.24,95.0
872.0,40.13,94.4
874.0,40.0,96.8
876.0,39.9,96.7
878.0,39.76,95.0
880.0,39.66,96.8
882.0,39.56,97.5
884.0,39.44,95.7
886.0,39.37,98.0
888.0,39.23,96.3
890.0,39.09,96.5
892.0,38.95,95.5
894.0,38.85,96.8
896.0,38.7,94.0
898.0,38.57,95.9
900.0,38.47,94.8
902.0,38.38,97.7
904.0,38.31,96.3
906.0,38.21,98.1
908.0,38.13,99.6
910.0,38.06,97.6
912.0,37.95,96.5
914.0,37.84,96.2
916.0,37.7,97.2
918.0,37.62,96.5
920.0,37.51,96.6
922.0,37.39,95.9
924.0,37.27,95.4
926.0,37.16,97.2
928.0,37.06,96.6
930.0,36.86,97.1
932.0,36.7,98.3
934.0,36.58,96.2
936.0,36.47,99.2
938.0,36.36,99.8
940.0,36.25,97.4
942.0,36.13,99.3
944.0,36.13,100.1
946.0,36.04,97.6
948.0,35.93,98.1
950.0,35.83,99.1
952.0,35.72,97.7
954.0,35.62,97.0
956.0,35.5,100.6
958.0,35.38,100.8
960.0,35.26,101.2
962.0,35.13,99.1
964.0,35.05,99.1
966.0,34.9,99.8
968.0,34.81,101.3
970.0,34.62,101.2
972.0,34.47,100.7
974.0,34.35,100.6
976.0,34.25,101.0
978.0,34.11,98.6
980.0,34.0,100.0
982.0,33.87,100.4
984.0,33.77,102.0
986.0,33.69,102.6
988.0,33.65,104.7
990.0,33.5,104.3
992.0,33.43,105.5
994.0,33.31,104.7
996.0,33.18,104.4
998.0,33.07,104.8
1000.0,32.95,105.7
1002.0,32.84,105.4
1004.0,32.71,103.8
1006.0,32.56,104.2
1008.0,32.45,103.0
1010.0,32.28,103.1
1012.0,32.16,103.9
1014.0,32.05,103.6
1016.0,31.93,103.8
1018.0,31.83,104.3
1020.0,31.72,106.1
1022.0,31.62,105.0
1024.0,31.49,106.0
1026.0,31.4,105.0
1028.0,31.32,104.8
1030.0,31.19,103.4
1032.0,31.08,105.8
1034.0,30.96,104.5
1036.0,30.86,104.7
1038.0,30.74,104.3
1040.0,30.63,104.6
1042.0,30.53,103.1
1044.0,30.41,102.0
1046.0,30.24,100.1
1048.0,30.1,102.7
1050.0,29.96,103.0
1052.0,29.83,102.2
1054.0,29.72,100.8
1056.0,29.6,101.3
1058.0,29.48,103.8
1060.0,29.41,103.9
1062.0,29.33,106.4
1064.0,29.2,105.0
1066.0,29.1,104.0
1068.0,29.0,106.0
1070.0,28.87,104.9
1072.0,28.77,104.3
1074.0,28.67,103.6
1076.0,28.55,105.0
1078.0,28.43,105.7
1080.0,28.33,104.7
1082.0,28.21,104.7
1084.0,28.09,104.5
1086.0,27.9,105.5
1088.0,27.77,105.8
1090.0,27.64,104.0
1092.0,27.5,104.6
1094.0,27.4,103.7
1096.0,27.26,103.8
1098.0,27.13,104.2
1100.0,27.03,103.0
1102.0,26.92,105.1
1104.0,26.89,107.0
1106.0,26.81,104.6
1108.0,26.68,106.5
1110.0,26.57,105.8
1112.0,26.44,105.3
1114.0,26.35,105.8
1116.0,26.23,105.0
1118.0,26.13,107.3
1120.0,25.98,106.0
1122.0,25.88,105.0
1124.0,25.78,105.6
1126.0,25.68,103.2
1128.0,25.52,101.4
1130.0,25.35,100.0
1132.0,25.23,100.5
1134.0,25.11,103.5
1136.0,24.98,102.9
1138.0,24.88,103.8
1140.0,24.76,102.2
1142.0,24.68,103.6
1144.0,24.6,100.7
1146.0,24.51,100.9
1148.0,24.44,101.5
1150.0,24.33,101.6
1152.0,24.24,101.7
1154.0,24.08,101.1
1156.0,23.99,100.0
1158.0,23.85,101.6
1160.0,23.76,101.5
1162.0,23.65,101.1
1164.0,23.53,101.5
1166.0,23.39,102.4
1168.0,23.24,104.1
1170.0,23.11,100.9
1172.0,22.97,102.5
1174.0,22.88,102.1
1176.0,22.77,102.3
1178.0,22.67,104.2
1180.0,22.54,101.4
1182.0,22.45,103.0
1184.0,22.42,100.4
1186.0,22.35,101.1
1188.0,22.23,101.2
1190.0,22.13,101.2
1192.0,22.01,102.3
1194.0,21.91,102.2
1196.0,21.79,101.7
1198.0,21.69,100.7
1200.0,21.61,99.4
1202.0,21.49,98.8
1204.0,21.37,98.7
1206.0,21.25,100.1
1208.0,21.11,98.3
1210.0,20.97,99.8
1212.0,20.87,98.7
1214.0,20.76,96.7
1216.0,20.65,96.9
1218.0,20.57,95.5
1220.0,20.48,97.0
1222.0,20.42,96.2
1224.0,20.38,95.3
1226.0,20.27,97.0
1228.0,20.17,95.9
1230.0,20.08,93.7
1232.0,19.98,93.9
1234.0,19.89,92.3
1236.0,19.81,92.3
1238.0,19.69,91.0
1240.0,19.61,90.3
1242.0,19.54,91.4
1244.0,19.42,92.2
1246.0,19.23,91.3
1248.0,19.13,92.0
1250.0,19.05,89.1
1252.0,18.94,90.0
1254.0,18.87,90.0
1256.0,18.77,90.7
1258.0,18.71,91.1
1260.0,18.59,88.5
1262.0,18.53,88.8
1264.0,18.44,86.2
1266.0,18.47,86.3
1268.0,18.39,85.9
1270.0,18.31,86.8
1272.0,18.2,85.9
1274.0,18.14,84.9
1276.0,18.04,83.9
1278.0,17.98,83.7
1280.0,17.9,82.2
1282.0,17.83,83.5
1284.0,17.76,80.1
1286.0,17.68,81.9
1288.0,17.61,79.8
1290.0,17.44,80.3
1292.0,17.33,78.7
1294.0,17.23,79.0
1296.0,17.15,79.3
1298.0,17.07,76.7
1300.0,17.01,76.4
1302.0,16.94,74.4
1304.0,16.88,75.1
1306.0,16.84,74.0
1308.0,16.9,73.4
1310.0,16.84,72.4
1312.0,16.8,72.3
1314.0,16.72,71.3
1316.0,16.67,69.7
1318.0,16.61,69.3
1320.0,16.55,69.8
1322.0,16.49,67.0
1324.0,16.42,66.1
1326.0,16.37,65.4
1328.0,16.33,64.7
1330.0,16.28,62.8
1332.0,16.11,63.6
1334.0,16.05,62.8
1336.0,15.99,62.7
1338.0,15.93,62.7
1340.0,15.88,62.2
1342.0,15.83,61.8
1344.0,15.77,61.3
1346.0,15.74,61.0
1348.0,15.73,59.8
1350.0,15.75,59.2
1352.0,15.75,59.2
1354.0,15.7,58.9
1356.0,15.66,59.0
1358.0,15.62,57.4
1360.0,15.57,55.8
1362.0,15.53,56.0
1364.0,15.52,55.4
1366.0,15.47,54.3
1368.0,15.4,53.3
1370.0,15.34,52.3
1372.0,15.28,52.1
1374.0,15.18,51.8
1376.0,15.15,50.9
1378.0,15.12,51.0
1380.0,15.08,50.7
1382.0,15.06,49.9
1384.0,15.03,49.0
1386.0,15.04,49.2
1388.0,15.05,48.0
1390.0,15.03,48.1
1392.0,15.06,47.3
1394.0,15.01,47.2
1396.0,14.98,46.6
1398.0,14.97,46.8
1400.0,14.91,46.0
1402.0,14.89,43.8
1404.0,14.88,45.0
1406.0,14.82,43.7
1408.0,14.76,42.5
1410.0,14.69,42.0
1412.0,14.64,40.5
1414.0,14.61,41.1
1416.0,14.57,40.5
1418.0,14.54,39.7
1420.0,14.52,40.7
1422.0,14.5,40.4
1424.0,14.54,41.2
1426.0,14.54,40.8
1428.0,14.56,41.3
1430.0,14.53,41.9
1432.0,14.53,41.1
1434.0,14.48,40.1
1436.0,14.49,39.8
1438.0,14.44,39.9
1440.0,14.41,39.7
1442.0,14.4,40.1
1444.0,14.39,40.2
1446.0,14.35,40.3
1448.0,14.32,39.1
1450.0,14.31,39.1
1452.0,14.23,38.8
1454.0,14.1,39.7
1456.0,14.1,38.3
1458.0,14.08,38.8
1460.0,14.06,37.6
1462.0,14.04,38.0
1464.0,13.99,37.8
1466.0,13.99,38.3
1468.0,13.96,38.2
1470.0,14.04,37.7
1472.0,14.03,38.8
1474.0,14.01,38.5
1476.0,13.99,37.8
1478.0,13.98,38.5
1480.0,13.97,39.4
1482.0,13.96,39.2
1484.0,13.93,38.3
1486.0,13.9,38.3
1488.0,13.84,37.5
1490.0,13.77,36.9
1492.0,13.75,35.8
1494.0,13.66,35.7
1496.0,13.63,35.3
1498.0,13.63,35.8
1500.0,13.59,36.0
1502.0,13.58,35.9
1504.0,13.59,35.6
1506.0,13.68,35.5
1508.0,13.66,35.0
1510.0,13.65,35.2
1512.0,13.62,35.7
1514.0,13.61,35.3
1516.0,13.57,35.6
1518.0,13.58,35.8
1520.0,13.56,36.1
1522.0,13.51,36.1
1524.0,13.48,36.5
1526.0,13.41,36.6
1528.0,13.34,36.3
1530.0,13.31,37.1
1532.0,13.29,36.4
1534.0,13.24,35.3
1536.0,13.24,35.9
1538.0,13.3,36.6
1540.0,13.27,36.3
1542.0,13.21,35.7
1544.0,13.24,36.4
1546.0,13.28,36.0
1548.0,13.26,34.3
1550.0,13.24,34.1
1552.0,13.22,33.8
1554.0,13.16,34.2
1556.0,13.17,34.5
1558.0,13.14,35.7
1560.0,13.09,35.3
1562.0,13.08,34.8
1564.0,13.02,34.2
1566.0,12.91,34.4
1568.0,12.9,34.5