File: Wood/Calibration_Data/FSRI/FSRI_Wood_Perpendicular_Cone_50kW_hor_R3.csv
Time,Mass (g),HRRPUA (kW/m2)
0.0,97.05,3.8
1.0,195.55,4.1
2.0,96.86,4.3
3.0,96.79,4.5
4.0,96.71,4.6
5.0,96.68,4.6
6.0,96.7,4.7
7.0,96.64,4.9
8.0,96.61,6.0
9.0,96.59,7.6
10.0,96.57,8.8
11.0,96.57,9.7
12.0,96.54,10.2
13.0,96.5,11.0
14.0,96.47,12.3
15.0,96.41,12.7
16.0,96.39,13.5
17.0,96.36,13.8
18.0,96.3,14.3
19.0,96.29,14.5
20.0,96.25,14.6
21.0,96.17,13.9
22.0,96.11,13.0
23.0,95.83,11.4
24.0,95.84,9.5
25.0,95.75,7.9
26.0,95.59,6.6
27.0,95.5,5.9
28.0,95.35,5.8
29.0,95.21,7.8
30.0,95.08,13.7
31.0,94.95,24.7
32.0,94.83,40.4
33.0,94.69,54.2
34.0,94.56,64.8
35.0,94.43,84.1
36.0,94.31,98.8
37.0,94.17,118.3
38.0,94.04,134.1
39.0,93.92,153.3
40.0,93.75,164.9
41.0,93.61,177.9
42.0,93.5,185.3
43.0,93.35,197.2
44.0,93.21,200.8
45.0,93.05,205.1
46.0,92.93,210.9
47.0,92.8,211.0
48.0,92.66,212.4
49.0,92.54,218.6
50.0,92.42,221.4
51.0,92.23,220.9
52.0,92.15,222.2
53.0,92.09,219.3
54.0,91.94,222.3
55.0,91.86,223.9
56.0,91.73,213.4
57.0,91.64,217.6
58.0,91.55,214.0
59.0,91.42,214.0
60.0,91.33,209.0
61.0,91.21,211.2
62.0,91.08,208.5
63.0,91.0,203.9
64.0,90.89,205.2
65.0,90.79,201.0
66.0,90.67,199.4
67.0,90.6,194.8
68.0,90.49,193.3
69.0,90.38,192.5
70.0,90.29,185.6
71.0,90.16,188.9
72.0,90.07,188.9
73.0,89.94,185.0
74.0,89.84,182.5
75.0,89.78,182.7
76.0,89.65,183.7
77.0,89.58,183.2
78.0,89.5,175.8
79.0,89.35,180.5
80.0,89.3,177.2
81.0,89.2,174.0
82.0,89.07,174.7
83.0,89.0,169.7
84.0,88.9,173.4
85.0,88.77,169.8
86.0,88.7,167.9
87.0,88.62,167.3
88.0,88.54,163.3
89.0,88.39,164.4
90.0,88.31,161.0
91.0,88.24,157.9
92.0,88.13,158.3
93.0,88.04,154.0
94.0,87.96,154.8
95.0,87.88,152.4
96.0,87.76,152.7
97.0,87.67,152.4
98.0,87.58,150.8
99.0,87.53,148.1
100.0,87.4,146.3
101.0,87.35,143.0
102.0,87.25,145.3
103.0,87.2,143.9
104.0,87.11,141.8
105.0,87.05,144.3
106.0,86.96,143.5
107.0,86.89,140.2
108.0,86.82,136.8
109.0,86.72,137.1
110.0,86.64,135.7
111.0,86.58,136.3
112.0,86.51,135.8
113.0,86.42,131.4
114.0,86.34,133.9
115.0,86.26,133.2
116.0,86.19,130.3
117.0,86.08,129.7
118.0,86.01,129.1
119.0,85.92,128.7
120.0,85.87,127.8
121.0,85.77,129.7
122.0,85.69,129.0
123.0,85.66,125.1
124.0,85.53,129.3
125.0,85.45,125.0
126.0,85.39,125.9
127.0,85.3,126.3
128.0,85.24,125.5
129.0,85.17,125.0
130.0,85.07,123.6
131.0,85.0,124.2
132.0,84.87,122.9
133.0,84.77,122.8
134.0,84.68,119.4
135.0,84.63,119.7
136.0,84.57,118.4
137.0,84.5,118.7
138.0,84.42,118.2
139.0,84.33,118.4
140.0,84.3,117.4
141.0,84.19,118.3
142.0,84.11,115.8
143.0,84.07,114.5
144.0,83.99,115.4
145.0,83.91,115.4
146.0,83.83,113.9
147.0,83.76,116.5
148.0,83.68,116.6
149.0,83.65,114.3
150.0,83.57,115.3
151.0,83.49,115.2
152.0,83.45,115.1
153.0,83.38,114.9
154.0,83.33,113.0
155.0,83.21,112.6
156.0,83.17,110.1
157.0,83.1,108.6
158.0,83.04,110.4
159.0,82.95,109.6
160.0,82.9,111.5
161.0,82.8,107.6
162.0,82.74,107.1
163.0,82.68,106.2
164.0,82.58,106.5
165.0,82.55,106.9
166.0,82.48,106.5
167.0,82.41,105.3
168.0,82.33,107.5
169.0,82.28,105.0
170.0,82.21,105.2
171.0,82.12,105.8
172.0,82.03,104.4
173.0,81.96,103.1
174.0,81.87,103.2
175.0,81.76,102.5
176.0,81.73,103.2
177.0,81.66,101.5
178.0,81.59,100.2
179.0,81.49,99.2
180.0,81.45,100.0
181.0,81.39,100.4
182.0,81.31,99.9
183.0,81.26,98.8
184.0,81.15,99.5
185.0,81.11,99.6
186.0,81.03,99.2
187.0,80.95,100.0
188.0,80.91,97.5
189.0,80.91,98.2
190.0,80.82,97.4
191.0,80.76,98.9
192.0,80.68,98.9
193.0,80.6,98.8
194.0,80.56,98.9
195.0,80.48,100.4
196.0,80.38,100.5
197.0,80.36,101.6
198.0,80.26,103.4
199.0,80.16,104.6
200.0,80.13,103.2
201.0,80.03,102.5
202.0,79.96,100.5
203.0,79.92,101.0
204.0,79.86,99.2
205.0,79.78,98.6
206.0,79.69,95.3
207.0,79.64,96.8
208.0,79.54,95.1
209.0,79.48,92.9
210.0,79.41,91.5
211.0,79.34,93.1
212.0,79.28,90.9
213.0,79.2,89.7
214.0,79.13,88.6
215.0,79.05,88.5
216.0,78.98,89.9
217.0,78.91,89.1
218.0,78.85,90.3
219.0,78.76,91.0
220.0,78.69,88.8
221.0,78.65,88.2
222.0,78.55,88.7
223.0,78.52,87.1
224.0,78.44,86.9
225.0,78.39,87.3
226.0,78.35,88.2
227.0,78.28,87.9
228.0,78.22,89.1
229.0,78.16,87.6
230.0,78.12,90.2
231.0,78.08,89.7
232.0,78.02,89.3
233.0,77.91,90.9
234.0,77.86,89.7
235.0,77.77,88.1
236.0,77.71,89.0
237.0,77.65,88.0
238.0,77.59,87.1
239.0,77.53,86.9
240.0,77.47,87.7
241.0,77.39,86.7
242.0,77.32,86.2
243.0,77.26,85.3
244.0,77.23,83.9
245.0,77.13,83.2
246.0,77.07,83.3
247.0,77.03,80.6
248.0,76.95,81.1
249.0,76.88,83.2
250.0,76.86,83.6
251.0,76.78,80.5
252.0,76.7,80.1
253.0,76.56,80.1
254.0,76.49,79.2
255.0,76.43,79.3
256.0,76.36,79.1
257.0,76.29,78.2
258.0,76.24,78.0
259.0,76.17,78.7
260.0,76.1,77.9
261.0,76.04,76.5
262.0,75.99,78.2
263.0,75.91,79.4
264.0,75.85,77.8
265.0,75.78,77.0
266.0,75.78,76.1
267.0,75.73,75.1
268.0,75.69,75.4
269.0,75.65,74.8
270.0,75.55,75.0
271.0,75.5,74.4
272.0,75.46,73.7
273.0,75.39,73.8
274.0,75.32,73.2
275.0,75.26,73.2
276.0,75.17,73.7
277.0,75.12,73.4
278.0,75.05,72.2
279.0,74.99,73.7
280.0,74.95,72.8
281.0,74.87,73.3
282.0,74.83,73.8
283.0,74.77,73.1
284.0,74.71,74.1
285.0,74.61,72.4
286.0,74.56,73.1
287.0,74.5,72.6
288.0,74.37,72.0
289.0,74.3,71.9
290.0,74.24,71.7
291.0,74.18,71.0
292.0,74.11,70.5
293.0,74.05,71.2
294.0,73.98,70.3
295.0,73.93,70.0
296.0,73.86,70.0
297.0,73.8,71.3
298.0,73.76,69.3
299.0,73.69,70.5
300.0,73.64,70.5
301.0,73.55,70.7
302.0,73.51,68.9
303.0,73.46,68.0
304.0,73.38,67.9
305.0,73.32,69.3
306.0,73.32,68.6
307.0,73.29,69.6
308.0,73.24,68.6
309.0,73.15,69.4
310.0,73.09,67.4
311.0,73.05,69.7
312.0,73.01,68.0
313.0,72.95,68.5
314.0,72.88,70.0
315.0,72.82,68.9
316.0,72.75,67.9
317.0,72.68,68.2
318.0,72.65,68.4
319.0,72.58,68.6
320.0,72.5,69.2
321.0,72.48,68.3
322.0,72.41,68.0
323.0,72.36,68.8
324.0,72.3,67.5
325.0,72.26,66.8
326.0,72.19,67.0
327.0,72.12,67.5
328.0,72.05,67.1
329.0,71.99,67.2
330.0,71.86,67.1
331.0,71.77,66.9
332.0,71.75,66.7
333.0,71.68,66.6
334.0,71.63,66.1
335.0,71.54,65.6
336.0,71.45,66.1
337.0,71.42,65.6
338.0,71.34,66.1
339.0,71.31,65.2
340.0,71.25,64.8
341.0,71.19,64.6
342.0,71.14,63.6
343.0,71.12,63.2
344.0,71.07,63.9
345.0,71.02,63.2
346.0,70.95,63.0
347.0,70.91,62.8
348.0,70.87,63.3
349.0,70.85,62.6
350.0,70.78,63.2
351.0,70.72,64.0
352.0,70.67,62.7
353.0,70.64,62.6
354.0,70.58,62.8
355.0,70.51,64.2
356.0,70.47,63.8
357.0,70.38,63.4
358.0,70.31,63.4
359.0,70.26,64.0
360.0,70.2,64.1
361.0,70.16,63.3
362.0,70.12,62.6
363.0,70.05,63.0
364.0,70.01,63.3
365.0,69.94,61.5
366.0,69.86,62.5
367.0,69.81,62.9
368.0,69.73,63.5
369.0,69.68,62.7
370.0,69.64,63.1
371.0,69.5,64.3
372.0,69.43,64.7
373.0,69.39,64.7
374.0,69.32,64.1
375.0,69.25,63.0
376.0,69.19,63.4
377.0,69.17,63.8
378.0,69.1,64.2
379.0,69.03,62.9
380.0,68.96,61.7
381.0,68.91,62.6
382.0,68.87,62.6
383.0,68.81,62.8
384.0,68.78,62.4
385.0,68.71,61.8
386.0,68.66,62.0
387.0,68.58,62.0
388.0,68.62,61.8
389.0,68.51,62.5
390.0,68.53,62.4
391.0,68.48,63.1
392.0,68.42,62.2
393.0,68.35,61.8
394.0,68.3,62.1
395.0,68.21,60.8
396.0,68.16,61.1
397.0,68.12,59.4
398.0,68.08,59.3
399.0,68.0,59.7
400.0,67.97,59.8
401.0,67.9,60.2
402.0,67.87,60.3
403.0,67.82,60.0
404.0,67.78,59.7
405.0,67.73,61.0
406.0,67.67,61.0
407.0,67.63,60.6
408.0,67.56,60.4
409.0,67.51,60.1
410.0,67.44,60.4
411.0,67.37,60.4
412.0,67.3,59.3
413.0,67.22,60.3
414.0,67.16,60.3
415.0,67.1,59.4
416.0,67.05,59.6
417.0,66.98,58.9
418.0,66.93,59.7
419.0,66.89,59.5
420.0,66.83,58.9
421.0,66.77,60.2
422.0,66.72,59.5
423.0,66.66,60.3
424.0,66.59,59.7
425.0,66.55,58.3
426.0,66.51,59.5
427.0,66.44,59.5
428.0,66.4,60.5
429.0,66.33,60.3
430.0,66.27,60.7
431.0,66.22,60.8
432.0,66.19,60.7
433.0,66.19,59.8
434.0,66.15,60.1
435.0,66.11,59.8
436.0,66.06,59.8
437.0,66.0,59.5
438.0,65.96,59.4
439.0,65.93,60.3
440.0,65.87,58.2
441.0,65.83,58.0
442.0,65.77,58.9
443.0,65.7,59.4
444.0,65.64,60.2
445.0,65.61,59.4
446.0,65.56,59.8
447.0,65.51,60.2
448.0,65.44,61.3
449.0,65.39,60.3
450.0,65.33,59.8
451.0,65.27,60.8
452.0,65.23,59.9
453.0,65.19,59.2
454.0,65.12,59.7
455.0,65.03,58.9
456.0,65.0,59.7
457.0,64.94,60.1
458.0,64.91,59.1
459.0,64.82,59.4
460.0,64.74,59.0
461.0,64.67,59.1
462.0,64.6,59.5
463.0,64.56,59.2
464.0,64.5,58.6
465.0,64.47,59.3
466.0,64.39,59.4
467.0,64.36,58.3
468.0,64.29,58.4
469.0,64.25,57.5
470.0,64.19,58.5
471.0,64.15,56.5
472.0,64.09,58.1
473.0,64.07,56.4
474.0,64.02,57.0
475.0,64.01,57.8
476.0,63.93,57.0
477.0,63.9,57.6
478.0,63.87,57.9
479.0,63.83,57.5
480.0,63.77,57.5
481.0,63.72,57.7
482.0,63.64,57.9
483.0,63.59,58.0
484.0,63.54,57.3
485.0,63.49,56.5
486.0,63.45,57.7
487.0,63.39,56.7
488.0,63.34,57.0
489.0,63.31,58.2
490.0,63.26,57.1
491.0,63.21,57.3
492.0,63.17,57.0
493.0,63.1,56.6
494.0,63.07,56.8
495.0,62.99,56.5
496.0,62.93,56.3
497.0,62.89,57.1
498.0,62.8,56.9
499.0,62.71,56.6
500.0,62.67,56.6
501.0,62.63,56.3
502.0,62.58,55.3
503.0,62.49,55.8
504.0,62.44,55.6
505.0,62.38,55.7
506.0,62.35,56.2
507.0,62.3,55.7
508.0,62.24,55.4
509.0,62.18,54.1
510.0,62.13,55.2
511.0,62.07,54.8
512.0,62.02,54.8
513.0,61.99,54.6
514.0,61.94,55.3
515.0,61.89,54.3
516.0,61.83,54.4
517.0,61.79,55.5
518.0,61.75,56.0
519.0,61.72,56.6
520.0,61.69,56.2
521.0,61.69,56.9
522.0,61.62,57.1
523.0,61.57,57.4
524.0,61.52,56.7
525.0,61.48,57.8
526.0,61.44,57.5
527.0,61.37,58.0
528.0,61.32,56.7
529.0,61.27,58.7
530.0,61.21,56.8
531.0,61.19,57.1
532.0,61.13,58.0
533.0,61.07,56.9
534.0,61.01,57.3
535.0,60.96,57.6
536.0,60.92,57.8
537.0,60.85,56.4
538.0,60.8,57.2
539.0,60.75,56.9
540.0,60.68,57.6
541.0,60.61,58.0
542.0,60.55,59.5
543.0,60.49,59.6
544.0,60.43,59.6
545.0,60.37,60.1
546.0,60.33,61.1
547.0,60.27,60.6
548.0,60.23,59.8
549.0,60.16,59.4
550.0,60.1,58.9
551.0,60.06,59.5
552.0,60.0,59.5
553.0,59.98,58.8
554.0,59.93,59.5
555.0,59.87,59.5
556.0,59.8,58.8
557.0,59.76,59.4
558.0,59.75,60.8
559.0,59.72,61.4
560.0,59.69,60.9
561.0,59.67,61.4
562.0,59.64,61.9
563.0,59.59,60.6
564.0,59.55,60.3
565.0,59.47,60.9
566.0,59.4,60.1
567.0,59.35,59.5
568.0,59.29,59.1
569.0,59.29,59.5
570.0,59.22,59.1
571.0,59.16,58.7
572.0,59.06,59.3
573.0,59.08,58.7
574.0,59.05,59.2
575.0,58.98,60.4
576.0,58.94,58.9
577.0,58.89,59.5
578.0,58.82,58.3
579.0,58.79,59.2
580.0,58.72,59.6
581.0,58.68,58.2
582.0,58.54,58.5
583.0,58.56,58.6
584.0,58.44,58.8
585.0,58.39,58.8
586.0,58.34,59.9
587.0,58.27,59.9
588.0,58.25,60.7
589.0,58.2,60.2
590.0,58.14,60.6
591.0,58.09,60.3
592.0,58.04,60.7
593.0,58.01,59.7
594.0,57.96,59.7
595.0,57.89,59.5
596.0,57.84,59.6
597.0,57.79,59.5
598.0,57.75,60.7
599.0,57.68,59.9
600.0,57.64,58.8
601.0,57.62,58.4
602.0,57.58,58.4
603.0,57.52,58.9
604.0,57.51,58.7
605.0,57.44,58.7
606.0,57.42,58.4
607.0,57.37,58.2
608.0,57.33,58.9
609.0,57.27,59.1
610.0,57.22,59.1
611.0,57.2,58.9
612.0,57.14,59.0
613.0,57.08,60.9
614.0,57.02,59.9
615.0,57.01,59.5
616.0,56.92,59.4
617.0,56.88,60.5
618.0,56.81,61.3
619.0,56.79,61.5
620.0,56.72,61.2
621.0,56.69,61.0
622.0,56.63,60.8
623.0,56.6,60.8
624.0,56.53,60.9
625.0,56.47,61.1
626.0,56.4,62.7
627.0,56.36,61.2
628.0,56.28,61.9
629.0,56.23,62.8
630.0,56.16,62.5
631.0,56.08,63.8
632.0,56.05,62.3
633.0,56.0,62.0
634.0,55.97,62.1
635.0,55.93,61.9
636.0,55.86,61.9
637.0,55.83,62.6
638.0,55.8,62.1
639.0,55.77,63.2
640.0,55.76,64.0
641.0,55.71,63.0
642.0,55.7,63.2
643.0,55.67,63.8
644.0,55.61,63.3
645.0,55.55,63.2
646.0,55.5,62.2
647.0,55.43,62.9
648.0,55.37,63.3
649.0,55.32,63.7
650.0,55.24,63.4
651.0,55.21,64.2
652.0,55.12,63.8
653.0,55.09,64.5
654.0,55.04,64.4
655.0,55.0,66.1
656.0,54.96,65.4
657.0,54.94,65.8
658.0,54.88,65.5
659.0,54.81,65.5
660.0,54.77,66.3
661.0,54.7,65.8
662.0,54.61,65.8
663.0,54.58,65.7
664.0,54.5,65.6
665.0,54.48,66.4
666.0,54.38,66.1
667.0,54.33,67.1
668.0,54.35,67.5
669.0,54.3,68.3
670.0,54.18,68.8
671.0,54.13,68.4
672.0,54.05,68.5
673.0,54.01,67.0
674.0,53.95,70.0
675.0,53.91,70.6
676.0,53.87,69.1
677.0,53.83,68.5
678.0,53.79,69.6
679.0,53.75,69.5
680.0,53.68,69.2
681.0,53.66,69.8
682.0,53.65,69.3
683.0,53.57,69.1
684.0,53.52,69.9
685.0,53.5,69.4
686.0,53.44,69.9
687.0,53.39,69.8
688.0,53.31,70.1
689.0,53.25,69.5
690.0,53.23,71.1
691.0,53.16,70.3
692.0,53.09,70.0
693.0,53.03,70.1
694.0,52.97,70.4
695.0,52.91,71.4
696.0,52.84,69.6
697.0,52.79,70.5
698.0,52.73,70.9
699.0,52.69,71.1
700.0,52.65,72.1
701.0,52.61,71.4
702.0,52.53,71.6
703.0,52.49,71.7
704.0,52.43,72.2
705.0,52.37,71.7
706.0,52.31,72.4
707.0,52.27,71.1
708.0,52.22,72.1
709.0,52.13,72.7
710.0,52.06,71.9
711.0,52.0,73.1
712.0,51.97,74.1
713.0,51.91,71.5
714.0,51.87,73.2
715.0,51.79,73.5
716.0,51.75,72.4
717.0,51.69,74.6
718.0,51.65,75.2
719.0,51.6,74.5
720.0,51.55,74.6
721.0,51.5,75.4
722.0,51.45,75.3
723.0,51.39,76.3
724.0,51.34,76.3
725.0,51.31,75.5
726.0,51.25,77.5
727.0,51.19,78.5
728.0,51.14,78.4
729.0,51.08,78.4
730.0,51.03,78.2
731.0,50.96,77.5
732.0,50.92,78.4
733.0,50.87,78.8
734.0,50.8,77.7
735.0,50.74,78.8
736.0,50.68,77.3
737.0,50.63,79.1
738.0,50.57,78.4
739.0,50.51,80.2
740.0,50.46,80.2
741.0,50.41,79.4
742.0,50.39,80.5
743.0,50.34,80.1
744.0,50.21,80.5
745.0,50.15,80.8
746.0,50.1,80.6
747.0,50.03,81.5
748.0,50.0,81.9
749.0,49.94,81.9
750.0,49.86,83.0
751.0,49.78,82.4
752.0,49.72,81.0
753.0,49.66,81.6
754.0,49.57,84.3
755.0,49.53,84.0
756.0,49.46,84.4
757.0,49.42,84.1
758.0,49.38,85.9
759.0,49.28,85.4
760.0,49.27,86.0
761.0,49.21,85.7
762.0,49.16,87.9
763.0,49.11,85.6
764.0,49.05,87.7
765.0,49.0,89.0
766.0,48.91,87.9
767.0,48.87,88.0
768.0,48.81,88.8
769.0,48.76,88.1
770.0,48.67,89.4
771.0,48.6,89.9
772.0,48.56,89.6
773.0,48.48,88.1
774.0,48.41,89.2
775.0,48.38,88.9
776.0,48.28,89.2
777.0,48.22,89.5
778.0,48.14,89.3
779.0,48.07,88.7
780.0,48.01,89.8
781.0,47.94,91.9
782.0,47.87,89.8
783.0,47.83,90.7
784.0,47.76,89.8
785.0,47.7,92.6
786.0,47.63,91.8
787.0,47.54,91.9
788.0,47.48,91.1
789.0,47.4,90.7
790.0,47.33,91.2
791.0,47.27,93.1
792.0,47.2,92.6
793.0,47.14,93.6
794.0,47.08,93.4
795.0,46.99,94.1
796.0,46.95,94.1
797.0,46.87,94.3
798.0,46.82,94.4
799.0,46.74,94.4
800.0,46.68,95.8
801.0,46.61,95.2
802.0,46.55,96.1
803.0,46.46,97.0
804.0,46.38,96.6
805.0,46.36,96.6
806.0,46.29,96.3
807.0,46.22,97.1
808.0,46.13,98.0
809.0,46.09,99.5
810.0,46.04,98.0
811.0,45.97,98.9
812.0,45.85,100.8
813.0,45.81,98.9
814.0,45.75,100.0
815.0,45.68,99.1
816.0,45.61,102.8
817.0,45.51,102.4
818.0,45.44,103.2
819.0,45.4,102.9
820.0,45.29,103.7
821.0,45.25,104.1
822.0,45.16,105.1
823.0,45.09,106.4
824.0,45.02,106.8
825.0,44.95,106.2
826.0,44.87,109.5
827.0,44.79,108.8
828.0,44.7,109.2
829.0,44.63,110.5
830.0,44.54,109.7
831.0,44.48,109.6
832.0,44.42,111.5
833.0,44.31,109.4
834.0,44.28,110.3
835.0,44.17,109.4
836.0,44.06,111.8
837.0,43.99,111.3
838.0,43.94,110.5
839.0,43.86,112.4
840.0,43.77,110.0
841.0,43.72,112.7
842.0,43.62,110.2
843.0,43.55,112.2
844.0,43.48,113.3
845.0,43.46,113.6
846.0,43.4,115.9
847.0,43.29,115.7
848.0,43.21,114.1
849.0,43.12,117.5
850.0,43.05,116.6
851.0,42.97,117.1
852.0,42.91,117.1
853.0,42.81,119.2
854.0,42.72,117.2
855.0,42.66,118.8
856.0,42.57,119.3
857.0,42.49,119.7
858.0,42.43,118.7
859.0,42.35,119.5
860.0,42.28,118.4
861.0,42.19,119.3
862.0,42.12,120.0
863.0,42.05,118.5
864.0,41.95,118.5
865.0,41.86,119.5
866.0,41.76,119.9
867.0,41.7,119.6
868.0,41.61,118.5
869.0,41.52,121.4
870.0,41.44,118.5
871.0,41.36,122.3
872.0,41.27,124.4
873.0,41.18,122.9
874.0,41.07,122.3
875.0,40.98,125.3
876.0,40.89,124.7
877.0,40.81,124.5
878.0,40.75,125.8
879.0,40.64,124.5
880.0,40.57,125.7
881.0,40.47,126.2
882.0,40.39,125.3
883.0,40.3,127.3
884.0,40.22,126.8
885.0,40.14,127.9
886.0,40.06,126.8
887.0,39.99,127.7
888.0,39.93,129.9
889.0,39.85,129.9
890.0,39.78,132.8
891.0,39.69,133.0
892.0,39.59,131.3
893.0,39.49,136.1
894.0,39.41,135.5
895.0,39.33,132.0
896.0,39.24,134.0
897.0,39.15,134.1
898.0,39.07,134.3
899.0,38.98,135.6
900.0,38.87,137.4
901.0,38.79,135.5
902.0,38.68,138.4
903.0,38.61,135.4
904.0,38.48,136.9
905.0,38.43,136.6
906.0,38.32,137.6
907.0,38.25,135.8
908.0,38.13,135.5
909.0,38.07,136.7
910.0,37.97,139.5
911.0,37.88,136.0
912.0,37.75,138.0
913.0,37.62,139.3
914.0,37.58,140.0
915.0,37.52,139.4
916.0,37.43,140.3
917.0,37.35,141.4
918.0,37.23,141.7
919.0,37.14,142.0
920.0,37.05,141.5
921.0,36.95,137.3
922.0,36.84,144.5
923.0,36.77,142.5
924.0,36.7,143.5
925.0,36.64,141.0
926.0,36.55,142.0
927.0,36.44,140.7
928.0,36.36,142.7
929.0,36.27,142.0
930.0,36.15,142.5
931.0,36.08,142.7
932.0,35.97,145.5
933.0,35.89,144.6
934.0,35.77,145.7
935.0,35.69,144.7
936.0,35.6,146.0
937.0,35.53,146.5
938.0,35.45,145.7
939.0,35.34,148.9
940.0,35.22,148.0
941.0,35.14,147.1
942.0,35.07,148.3
943.0,34.98,148.7
944.0,34.86,148.8
945.0,34.78,149.3
946.0,34.69,150.5
947.0,34.58,150.5
948.0,34.47,149.5
949.0,34.36,149.3
950.0,34.27,147.4
951.0,34.16,145.7
952.0,34.07,151.1
953.0,33.98,149.4
954.0,33.88,148.8
955.0,33.77,150.3
956.0,33.7,149.9
957.0,33.62,151.3
958.0,33.53,148.2
959.0,33.44,150.2
960.0,33.34,150.4
961.0,33.23,148.7
962.0,33.18,148.4
963.0,33.13,147.3
964.0,33.04,148.2
965.0,32.92,153.7
966.0,32.81,150.2
967.0,32.72,151.0
968.0,32.63,152.8
969.0,32.51,151.5
970.0,32.45,152.0
971.0,32.36,154.4
972.0,32.23,150.5
973.0,32.18,151.5
974.0,32.08,149.0
975.0,32.01,149.5
976.0,31.9,152.6
977.0,31.81,151.5
978.0,31.69,151.8
979.0,31.6,152.8
980.0,31.51,151.7
981.0,31.45,154.3
982.0,31.34,153.3
983.0,31.26,154.4
984.0,31.16,152.4
985.0,31.04,152.2
986.0,30.98,151.4
987.0,30.89,155.0
988.0,30.78,150.5
989.0,30.7,147.3
990.0,30.64,150.2
991.0,30.51,153.0
992.0,30.4,150.3
993.0,30.33,151.8
994.0,30.21,152.0
995.0,30.07,153.1
996.0,30.0,150.1
997.0,29.93,151.1
998.0,29.82,150.9
999.0,29.74,153.0
1000.0,29.64,151.1
1001.0,29.56,151.2
1002.0,29.48,150.4
1003.0,29.37,151.0
1004.0,29.28,148.6
1005.0,29.14,152.1
1006.0,29.1,148.6
1007.0,29.03,153.0
1008.0,28.96,152.4
1009.0,28.87,150.4
1010.0,28.82,152.2
1011.0,28.71,154.3
1012.0,28.62,147.8
1013.0,28.51,153.0
1014.0,28.46,150.6
1015.0,28.35,150.8
1016.0,28.25,150.4
1017.0,28.17,151.6
1018.0,28.1,150.7
1019.0,28.0,151.4
1020.0,27.94,150.3
1021.0,27.84,149.8
1022.0,27.77,149.7
1023.0,27.67,146.8
1024.0,27.56,148.4
1025.0,27.5,148.7
1026.0,27.43,144.6
1027.0,27.34,147.1
1028.0,27.26,148.1
1029.0,27.17,148.2
1030.0,27.06,149.5
1031.0,27.0,147.1
1032.0,26.88,146.2
1033.0,26.81,144.4
1034.0,26.72,146.1
1035.0,26.62,145.8
1036.0,26.52,148.3
1037.0,26.43,147.1
1038.0,26.37,148.8
1039.0,26.31,147.8
1040.0,26.23,149.2
1041.0,26.17,146.3
1042.0,26.08,145.0
1043.0,26.01,145.2
1044.0,25.91,141.5
1045.0,25.85,143.0
1046.0,25.74,145.4
1047.0,25.66,144.5
1048.0,25.61,143.2
1049.0,25.52,140.8
1050.0,25.44,141.6
1051.0,25.42,140.0
1052.0,25.36,139.9
1053.0,25.29,139.1
1054.0,25.2,138.9
1055.0,25.15,139.0
1056.0,25.09,138.5
1057.0,25.02,136.4
1058.0,24.98,138.3
1059.0,24.91,135.7
1060.0,24.81,134.6
1061.0,24.73,132.9
1062.0,24.69,133.9
1063.0,24.61,137.2
1064.0,24.56,133.6
1065.0,24.48,131.2
1066.0,24.42,132.1
1067.0,24.36,131.1
1068.0,24.27,132.5
1069.0,24.21,133.9
1070.0,24.15,130.8
1071.0,24.1,130.1
1072.0,24.09,129.3
1073.0,24.04,127.9
1074.0,23.94,125.1
1075.0,23.87,125.4
1076.0,23.71,124.0
1077.0,23.67,126.2
1078.0,23.62,126.3
1079.0,23.6,124.2
1080.0,23.49,126.3
1081.0,23.47,126.2
1082.0,23.42,126.0
1083.0,23.35,126.4
1084.0,23.3,122.7
1085.0,23.25,121.7
1086.0,23.19,122.8
1087.0,23.14,120.5
1088.0,23.08,118.6
1089.0,23.0,118.7
1090.0,22.92,118.6
1091.0,22.88,117.0
1092.0,22.89,115.5
1093.0,22.84,113.9
1094.0,22.78,113.2
1095.0,22.73,112.7
1096.0,22.69,111.8
1097.0,22.63,110.8
1098.0,22.6,107.2
1099.0,22.55,107.4
1100.0,22.49,107.0
1101.0,22.43,105.7
1102.0,22.38,104.1
1103.0,22.33,104.8
1104.0,22.28,102.2
1105.0,22.22,99.7
1106.0,22.19,100.9
1107.0,22.17,101.8
1108.0,22.13,100.4
1109.0,22.08,100.8
1110.0,22.04,99.6
1111.0,22.0,97.4
1112.0,21.96,96.8
1113.0,21.9,96.5
1114.0,21.85,96.3
1115.0,21.83,96.6
1116.0,21.76,95.8
1117.0,21.68,94.4
1118.0,21.66,92.0
1119.0,21.6,93.8
1120.0,21.6,91.3
1121.0,21.54,89.5
1122.0,21.5,88.7
1123.0,21.47,89.4
1124.0,21.44,87.5
1125.0,21.42,84.3
1126.0,21.39,84.0
1127.0,21.35,82.8
1128.0,21.31,81.4
1129.0,21.34,80.9
1130.0,21.37,81.3
1131.0,21.34,80.4
1132.0,21.33,78.9
1133.0,21.29,76.8
1134.0,21.25,75.9
1135.0,21.21,76.2
1136.0,21.21,75.6
1137.0,21.17,73.5
1138.0,21.16,73.5
1139.0,21.13,72.3
1140.0,21.11,72.4
1141.0,21.07,71.8
1142.0,21.03,71.7
1143.0,21.03,70.7
1144.0,21.0,69.6
1145.0,20.98,69.7
1146.0,20.98,67.8
1147.0,21.01,66.8
1148.0,20.91,66.6
1149.0,20.84,65.1
1150.0,20.82,64.8
1151.0,20.79,63.8
1152.0,20.77,63.5
1153.0,20.75,62.9
1154.0,20.72,62.2
1155.0,20.66,62.2
1156.0,20.69,61.6
1157.0,20.66,61.3
1158.0,20.65,60.5
1159.0,20.62,60.0
1160.0,20.6,59.6
1161.0,20.57,58.9
1162.0,20.57,58.3
1163.0,20.59,56.8
1164.0,20.6,56.3
1165.0,20.59,55.9
1166.0,20.58,55.9
1167.0,20.56,54.7
1168.0,20.54,53.4
1169.0,20.53,52.8
1170.0,20.51,53.4
1171.0,20.5,52.4
1172.0,20.47,51.7
1173.0,20.46,51.1
1174.0,20.44,51.3
1175.0,20.45,50.4
1176.0,20.43,49.6
1177.0,20.41,49.8
1178.0,20.41,49.2
1179.0,20.35,48.8
1180.0,20.34,48.4
1181.0,20.33,47.7
1182.0,20.31,45.8
1183.0,20.31,46.3
1184.0,20.31,45.1
1185.0,20.31,44.6
1186.0,20.23,45.5
1187.0,20.21,45.9
1188.0,20.19,45.4
1189.0,20.15,46.0
1190.0,20.14,45.3
1191.0,20.12,45.1
1192.0,20.11,46.1
1193.0,20.09,44.3
1194.0,20.07,45.3
1195.0,20.05,44.4
1196.0,20.03,44.1
1197.0,20.0,44.1
1198.0,20.0,43.7
1199.0,20.0,43.9
1200.0,20.01,42.7
1201.0,19.99,43.4
1202.0,20.04,42.8
1203.0,20.03,43.4
1204.0,20.01,43.4
1205.0,20.01,43.8
1206.0,20.01,43.3
1207.0,20.0,43.1
1208.0,19.99,43.2
1209.0,20.0,43.2
1210.0,20.0,43.3
1211.0,19.99,42.8
1212.0,19.98,42.3
1213.0,19.96,41.7
1214.0,19.95,41.9
1215.0,19.93,41.9
1216.0,19.92,41.7
1217.0,19.91,42.0
1218.0,19.89,41.1
1219.0,19.89,41.8
1220.0,19.86,41.8
1221.0,19.87,41.9
1222.0,19.83,41.2
1223.0,19.83,41.3
1224.0,19.81,40.8
1225.0,19.8,40.1
1226.0,19.79,40.1
1227.0,19.78,40.0
1228.0,19.76,40.5
1229.0,19.73,40.8
1230.0,19.65,40.7
1231.0,19.64,40.5
1232.0,19.67,41.1
1233.0,19.61,41.1
1234.0,19.61,41.5
1235.0,19.58,41.3
1236.0,19.58,41.2
1237.0,19.57,41.5
1238.0,19.55,42.1
1239.0,19.54,42.2
1240.0,19.52,41.2
1241.0,19.52,40.7
1242.0,19.48,40.7
1243.0,19.48,40.5
1244.0,19.5,40.6
1245.0,19.49,40.0
1246.0,19.5,39.9
1247.0,19.56,39.9
1248.0,19.55,40.0
1249.0,19.52,40.2
1250.0,19.53,39.4
1251.0,19.51,39.5
1252.0,19.49,39.4
1253.0,19.46,39.9
1254.0,19.48,39.6
1255.0,19.44,38.6
1256.0,19.45,37.6
1257.0,19.44,38.6
1258.0,19.41,38.5
1259.0,19.41,38.1
1260.0,19.4,37.7
1261.0,19.39,37.7
1262.0,19.39,38.0
1263.0,19.38,37.4
1264.0,19.36,38.0
1265.0,19.34,37.5
1266.0,19.33,37.2
1267.0,19.3,37.6
1268.0,19.27,37.1
1269.0,19.25,36.8
1270.0,19.22,37.4
1271.0,19.22,37.4
1272.0,19.2,37.2
1273.0,19.18,37.7
1274.0,19.16,37.8
1275.0,19.15,38.4
1276.0,19.12,37.9
1277.0,19.13,37.8
1278.0,19.13,37.5
1279.0,19.12,36.9
1280.0,19.12,37.0
1281.0,19.09,37.0
1282.0,19.07,36.3
1283.0,19.06,37.1
1284.0,19.05,36.7
1285.0,19.09,36.4
1286.0,19.08,36.4
1287.0,19.09,35.3
1288.0,19.1,35.5
1289.0,19.09,35.5
1290.0,19.09,35.5
1291.0,19.07,35.2
1292.0,19.06,34.7
1293.0,19.06,35.1
1294.0,19.05,34.4
1295.0,19.01,34.7
1296.0,19.03,34.9
1297.0,19.0,35.2
1298.0,18.99,34.8
1299.0,18.97,34.5
1300.0,19.0,34.1
1301.0,18.99,34.4
1302.0,18.99,34.4
1303.0,18.97,34.3
1304.0,18.97,34.3
1305.0,18.95,34.9
1306.0,18.86,34.7
1307.0,18.83,34.5
1308.0,18.83,34.9
1309.0,18.81,34.5
1310.0,18.79,34.5
1311.0,18.76,34.5
1312.0,18.74,34.5
1313.0,18.73,34.7
1314.0,18.72,34.3
1315.0,18.7,35.4
1316.0,18.71,34.7
1317.0,18.68,34.4
1318.0,18.68,34.1
1319.0,18.68,34.6
1320.0,18.69,34.8
1321.0,18.67,33.8
1322.0,18.66,34.5
1323.0,18.66,34.7
1324.0,18.65,34.9
1325.0,18.72,34.9
1326.0,18.67,34.7
1327.0,18.71,34.7
1328.0,18.68,35.6
1329.0,18.73,35.1
1330.0,18.71,34.6
1331.0,18.71,34.7
1332.0,18.68,35.1