File: Wood/Calibration_Data/FSRI/FSRI_TGA_N2_3K_R1.csv
Time (s),Temperature (K),Mass (mg)
0,323.5,3.969
29.5338,324.0,3.970
49.3902,324.5,3.971
66.0306,325.0,3.970
81.1026,325.5,3.970
95.2674,326.0,3.971
108.8172,326.5,3.972
121.962,327.0,3.972
134.7888,327.5,3.971
147.273,328.0,3.972
159.5166,328.5,3.972
171.4632,329.0,3.972
183.24,329.5,3.973
194.8428,330.0,3.972
206.229,330.5,3.972
217.5024,331.0,3.971
228.5652,331.5,3.972
239.5392,332.0,3.973
250.455,332.5,3.972
261.2844,333.0,3.972
272.0526,333.5,3.972
282.7488,334.0,3.973
293.3418,334.5,3.973
303.864,335.0,3.973
314.3484,335.5,3.974
324.7362,336.0,3.973
335.1132,336.5,3.972
345.429,337.0,3.972
355.7286,337.5,3.972
366.018,338.0,3.972
376.2594,338.5,3.972
386.4558,339.0,3.972
396.6132,339.5,3.972
406.7496,340.0,3.972
416.8644,340.5,3.971
426.9756,341.0,3.971
437.0628,341.5,3.971
447.1074,342.0,3.972
457.1622,342.5,3.971
467.0892,343.0,3.971
477.0168,343.5,3.971
486.945,344.0,3.971
496.8216,344.5,3.971
506.7972,345.0,3.971
516.7578,345.5,3.971
526.7058,346.0,3.971
536.613,346.5,3.972
546.531,347.0,3.972
556.4904,347.5,3.971
566.4414,348.0,3.970
576.471,348.5,3.970
586.4208,349.0,3.970
596.337,349.5,3.971
606.237,350.0,3.971
616.1022,350.5,3.971
625.9398,351.0,3.971
635.8026,351.5,3.971
645.6546,352.0,3.971
655.5192,352.5,3.971
665.4228,353.0,3.971
675.3078,353.5,3.971
685.1766,354.0,3.970
695.0268,354.5,3.970
704.8704,355.0,3.970
714.6804,355.5,3.970
724.5324,356.0,3.969
734.3826,356.5,3.971
744.267,357.0,3.970
754.1556,357.5,3.970
764.007,358.0,3.970
773.8308,358.5,3.969
783.6504,359.0,3.969
793.473,359.5,3.968
803.2788,360.0,3.969
813.0714,360.5,3.969
822.8946,361.0,3.969
832.7262,361.5,3.970
842.5038,362.0,3.969
852.327,362.5,3.969
862.1532,363.0,3.969
871.9248,363.5,3.969
881.6658,364.0,3.969
891.3594,364.5,3.968
901.0188,365.0,3.968
910.695,365.5,3.968
920.4486,366.0,3.968
930.2328,366.5,3.967
940.0482,367.0,3.967
949.8552,367.5,3.967
959.7204,368.0,3.967
969.5946,368.5,3.967
979.4718,369.0,3.967
989.3376,369.5,3.966
999.1104,370.0,3.966
1008.85,370.5,3.966
1018.63,371.0,3.966
1028.403,371.5,3.965
1038.18,372.0,3.966
1047.95,372.5,3.965
1057.71,373.0,3.966
1067.51,373.5,3.966
1077.3,374.0,3.965
1087.11,374.5,3.966
1096.94,375.0,3.966
1106.76,375.5,3.965
1116.561,376.0,3.966
1126.37,376.5,3.967
1136.15,377.0,3.966
1145.83,377.5,3.966
1155.54,378.0,3.966
1165.24,378.5,3.964
1174.91,379.0,3.966
1184.69,379.5,3.966
1194.48,380.0,3.964
1204.24,380.5,3.966
1214.04,381.0,3.966
1223.86,381.5,3.965
1233.62,382.0,3.964
1243.45,382.5,3.965
1253.3,383.0,3.966
1263.147,383.5,3.964
1273.01,384.0,3.964
1282.84,384.5,3.963
1292.643,385.0,3.964
1302.42,385.5,3.963
1312.2,386.0,3.963
1321.977,386.5,3.964
1331.73,387.0,3.964
1341.46,387.5,3.964
1351.13,388.0,3.964
1360.81,388.5,3.964
1370.54,389.0,3.964
1380.24,389.5,3.964
1389.99,390.0,3.965
1399.77,390.5,3.964
1409.499,391.0,3.964
1419.26,391.5,3.964
1429.02,392.0,3.966
1438.76,392.5,3.964
1448.52,393.0,3.964
1458.264,393.5,3.964
1467.996,394.0,3.964
1477.74,394.5,3.965
1487.51,395.0,3.966
1497.3,395.5,3.965
1507.05,396.0,3.965
1516.77,396.5,3.965
1526.481,397.0,3.964
1536.171,397.5,3.964
1545.87,398.0,3.964
1555.59,398.5,3.963
1565.29,399.0,3.963
1574.991,399.5,3.963
1584.67,400.0,3.962
1594.35,400.5,3.961
1604.02,401.0,3.961
1613.7,401.5,3.961
1623.38,402.0,3.962
1633.08,402.5,3.963
1642.74,403.0,3.961
1652.45,403.5,3.961
1662.15,404.0,3.961
1671.831,404.5,3.962
1681.542,405.0,3.961
1691.29,405.5,3.961
1701.04,406.0,3.961
1710.78,406.5,3.961
1720.55,407.0,3.961
1730.27,407.5,3.961
1739.958,408.0,3.960
1749.69,408.5,3.960
1759.422,409.0,3.961
1769.14,409.5,3.961
1778.88,410.0,3.961
1788.57,410.5,3.961
1798.23,411.0,3.961
1807.9,411.5,3.960
1817.6,412.0,3.961
1827.32,412.5,3.961
1837.02,413.0,3.961
1846.71,413.5,3.961
1856.421,414.0,3.961
1866.09,414.5,3.961
1875.79,415.0,3.960
1885.51,415.5,3.960
1895.21,416.0,3.960
1904.919,416.5,3.960
1914.62,417.0,3.960
1924.3,417.5,3.960
1933.93,418.0,3.960
1943.586,418.5,3.961
1953.26,419.0,3.960
1962.95,419.5,3.960
1972.68,420.0,3.960
1982.36,420.5,3.960
1992.09,421.0,3.960
2001.8,421.5,3.960
2011.5,422.0,3.960
2021.21,422.5,3.960
2030.88,423.0,3.960
2040.52,423.5,3.960
2050.206,424.0,3.960
2059.89,424.5,3.960
2069.59,425.0,3.960
2079.261,425.5,3.960
2088.93,426.0,3.960
2098.6,426.5,3.960
2108.26,427.0,3.959
2117.93,427.5,3.959
2127.61,428.0,3.959
2137.3,428.5,3.959
2146.96,429.0,3.959
2156.658,429.5,3.959
2166.35,430.0,3.959
2176.03,430.5,3.959
2185.722,431.0,3.959
2195.41,431.5,3.959
2205.11,432.0,3.959
2214.81,432.5,3.958
2224.491,433.0,3.958
2234.2,433.5,3.958
2243.88,434.0,3.959
2253.57,434.5,3.959
2263.28,435.0,3.959
2272.96,435.5,3.959
2282.64,436.0,3.959
2292.33,436.5,3.959
2302.035,437.0,3.959
2311.73,437.5,3.959
2321.47,438.0,3.958
2331.22,438.5,3.958
2340.94,439.0,3.958
2350.7,439.5,3.958
2360.43,440.0,3.958
2370.09,440.5,3.958
2379.825,441.0,3.958
2389.51,441.5,3.958
2399.22,442.0,3.958
2408.946,442.5,3.958
2418.65,443.0,3.958
2428.341,443.5,3.958
2438.06,444.0,3.957
2447.78,444.5,3.957
2457.45,445.0,3.957
2467.149,445.5,3.957
2476.87,446.0,3.957
2486.586,446.5,3.957
2496.315,447.0,3.957
2506.08,447.5,3.957
2515.81,448.0,3.957
2525.52,448.5,3.957
2535.24,449.0,3.957
2544.98,449.5,3.957
2554.689,450.0,3.957
2564.45,450.5,3.957
2574.17,451.0,3.957
2583.879,451.5,3.957
2593.6,452.0,3.957
2603.289,452.5,3.957
2612.982,453.0,3.957
2622.64,453.5,3.957
2632.29,454.0,3.957
2641.96,454.5,3.957
2651.63,455.0,3.957
2661.3,455.5,3.957
2670.972,456.0,3.957
2680.629,456.5,3.957
2690.3,457.0,3.956
2700,457.5,3.956
2709.726,458.0,3.956
2719.431,458.5,3.956
2729.12,459.0,3.956
2738.83,459.5,3.956
2748.5,460.0,3.957
2758.209,460.5,3.957
2767.93,461.0,3.957
2777.59,461.5,3.957
2787.29,462.0,3.957
2796.99,462.5,3.957
2806.65,463.0,3.957
2816.34,463.5,3.957
2826.039,464.0,3.957
2835.71,464.5,3.955
2845.35,465.0,3.955
2854.95,465.5,3.955
2864.53,466.0,3.955
2874.11,466.5,3.955
2883.792,467.0,3.955
2893.51,467.5,3.955
2903.28,468.0,3.955
2913.02,468.5,3.955
2922.726,469.0,3.955
2932.404,469.5,3.954
2942.07,470.0,3.954
2951.84,470.5,3.954
2961.56,471.0,3.954
2971.25,471.5,3.953
2980.96,472.0,3.953
2990.63,472.5,3.953
3000.3,473.0,3.953
3009.93,473.5,3.953
3019.599,474.0,3.953
3029.31,474.5,3.952
3038.98,475.0,3.951
3048.71,475.5,3.951
3058.37,476.0,3.951
3068.07,476.5,3.950
3077.748,477.0,3.950
3087.43,477.5,3.950
3097.12,478.0,3.950
3106.79,478.5,3.949
3116.48,479.0,3.947
3126.14,479.5,3.947
3135.81,480.0,3.947
3145.49,480.5,3.947
3155.16,481.0,3.947
3164.84,481.5,3.946
3174.53,482.0,3.946
3184.2,482.5,3.946
3193.89,483.0,3.945
3203.56,483.5,3.945
3213.23,484.0,3.945
3222.93,484.5,3.946
3232.6,485.0,3.945
3242.29,485.5,3.945
3252,486.0,3.945
3261.68,486.5,3.944
3271.32,487.0,3.943
3281.05,487.5,3.943
3290.76,488.0,3.942
3300.49,488.5,3.941
3310.26,489.0,3.941
3319.99,489.5,3.940
3329.71,490.0,3.939
3339.4,490.5,3.939
3349.122,491.0,3.938
3358.82,491.5,3.938
3368.541,492.0,3.937
3378.25,492.5,3.937
3387.999,493.0,3.936
3397.74,493.5,3.935
3407.46,494.0,3.935
3417.19,494.5,3.934
3426.903,495.0,3.934
3436.56,495.5,3.932
3446.25,496.0,3.932
3455.94,496.5,3.932
3465.639,497.0,3.931
3475.39,497.5,3.931
3485.11,498.0,3.930
3494.82,498.5,3.930
3504.53,499.0,3.929
3514.22,499.5,3.928
3523.87,500.0,3.927
3533.58,500.5,3.927
3543.29,501.0,3.927
3553.014,501.5,3.926
3562.77,502.0,3.926
3572.48,502.5,3.925
3582.19,503.0,3.923
3591.87,503.5,3.923
3601.56,504.0,3.921
3611.25,504.5,3.920
3620.913,505.0,3.920
3630.59,505.5,3.918
3640.26,506.0,3.918
3649.932,506.5,3.916
3659.61,507.0,3.916
3669.26,507.5,3.915
3678.96,508.0,3.915
3688.65,508.5,3.913
3698.37,509.0,3.913
3708.05,509.5,3.912
3717.77,510.0,3.910
3727.48,510.5,3.909
3737.2,511.0,3.908
3746.96,511.5,3.907
3756.729,512.0,3.906
3766.485,512.5,3.905
3776.202,513.0,3.904
3785.98,513.5,3.902
3795.71,514.0,3.902
3805.461,514.5,3.901
3815.232,515.0,3.900
3824.93,515.5,3.899
3834.65,516.0,3.898
3844.38,516.5,3.896
3854.09,517.0,3.895
3863.79,517.5,3.894
3873.51,518.0,3.893
3883.2,518.5,3.893
3892.92,519.0,3.892
3902.625,519.5,3.891
3912.36,520.0,3.890
3922.13,520.5,3.889
3931.86,521.0,3.888
3941.61,521.5,3.888
3951.34,522.0,3.887
3961.07,522.5,3.886
3970.81,523.0,3.885
3980.49,523.5,3.884
3990.22,524.0,3.883
3999.96,524.5,3.883
4009.68,525.0,3.882
4019.487,525.5,3.880
4029.28,526.0,3.879
4039.04,526.5,3.878
4048.77,527.0,3.876
4058.47,527.5,3.875
4068.17,528.0,3.874
4077.84,528.5,3.873
4087.54,529.0,3.872
4097.25,529.5,3.871
4106.98,530.0,3.869
4116.69,530.5,3.867
4126.42,531.0,3.867
4136.12,531.5,3.866
4145.85,532.0,3.865
4155.564,532.5,3.863
4165.28,533.0,3.861
4175,533.5,3.860
4184.72,534.0,3.858
4194.41,534.5,3.856
4204.116,535.0,3.855
4213.82,535.5,3.853
4223.53,536.0,3.852
4233.258,536.5,3.849
4242.98,537.0,3.848
4252.67,537.5,3.846
4262.4,538.0,3.844
4272.09,538.5,3.842
4281.82,539.0,3.840
4291.57,539.5,3.839
4301.328,540.0,3.837
4311.05,540.5,3.836
4320.819,541.0,3.835
4330.53,541.5,3.834
4340.23,542.0,3.831
4349.97,542.5,3.831
4359.69,543.0,3.829
4369.43,543.5,3.827
4379.16,544.0,3.826
4388.865,544.5,3.823
4398.58,545.0,3.821
4408.332,545.5,3.819
4418.07,546.0,3.817
4427.85,546.5,3.815
4437.621,547.0,3.813
4447.389,547.5,3.811
4457.16,548.0,3.809
4466.946,548.5,3.807
4476.7,549.0,3.805
4486.482,549.5,3.802
4496.25,550.0,3.801
4506.05,550.5,3.799
4515.83,551.0,3.796
4525.64,551.5,3.794
4535.43,552.0,3.792
4545.24,552.5,3.790
4555.047,553.0,3.788
4564.81,553.5,3.785
4574.57,554.0,3.783
4584.354,554.5,3.780
4594.14,555.0,3.778
4603.935,555.5,3.776
4613.78,556.0,3.773
4623.57,556.5,3.771
4633.34,557.0,3.768
4643.11,557.5,3.766
4652.83,558.0,3.763
4662.59,558.5,3.760
4672.35,559.0,3.757
4682.07,559.5,3.754
4691.84,560.0,3.752
4701.58,560.5,3.749
4711.27,561.0,3.746
4721,561.5,3.743
4730.73,562.0,3.739
4740.47,562.5,3.736
4750.24,563.0,3.732
4760.03,563.5,3.729
4769.8,564.0,3.726
4779.56,564.5,3.723
4789.29,565.0,3.720
4799.05,565.5,3.717
4808.76,566.0,3.713
4818.5,566.5,3.710
4828.28,567.0,3.706
4838.06,567.5,3.703
4847.82,568.0,3.700
4857.61,568.5,3.696
4867.37,569.0,3.693
4877.14,569.5,3.689
4886.89,570.0,3.686
4896.67,570.5,3.683
4906.43,571.0,3.680
4916.232,571.5,3.677
4926.07,572.0,3.673
4935.87,572.5,3.669
4945.656,573.0,3.666
4955.45,573.5,3.661
4965.19,574.0,3.658
4974.95,574.5,3.654
4984.73,575.0,3.650
4994.5,575.5,3.646
5004.25,576.0,3.642
5013.99,576.5,3.638
5023.73,577.0,3.634
5033.46,577.5,3.629
5043.24,578.0,3.624
5053.01,578.5,3.620
5062.8,579.0,3.615
5072.59,579.5,3.611
5082.36,580.0,3.607
5092.13,580.5,3.602
5101.93,581.0,3.598
5111.697,581.5,3.594
5121.49,582.0,3.589
5131.266,582.5,3.585
5141.06,583.0,3.580
5150.85,583.5,3.575
5160.64,584.0,3.570
5170.464,584.5,3.564
5180.25,585.0,3.559
5190.05,585.5,3.554
5199.84,586.0,3.549
5209.63,586.5,3.545
5219.41,587.0,3.538
5229.2,587.5,3.534
5238.98,588.0,3.528
5248.73,588.5,3.522
5258.48,589.0,3.517
5268.28,589.5,3.511
5278.08,590.0,3.505
5287.92,590.5,3.500
5297.75,591.0,3.493
5307.5,591.5,3.487
5317.25,592.0,3.480
5326.98,592.5,3.473
5336.727,593.0,3.468
5346.51,593.5,3.462
5356.28,594.0,3.455
5366.09,594.5,3.450
5375.913,595.0,3.443
5385.738,595.5,3.436
5395.58,596.0,3.430
5405.42,596.5,3.421
5415.282,597.0,3.415
5425.137,597.5,3.408
5434.99,598.0,3.401
5444.82,598.5,3.395
5454.65,599.0,3.387
5464.51,599.5,3.379
5474.38,600.0,3.372
5484.243,600.5,3.363
5494.1,601.0,3.356
5503.968,601.5,3.348
5513.799,602.0,3.340
5523.64,602.5,3.333
5533.461,603.0,3.325
5543.29,603.5,3.317
5553.13,604.0,3.311
5562.951,604.5,3.301
5572.776,605.0,3.294
5582.59,605.5,3.285
5592.35,606.0,3.277
5602.098,606.5,3.269
5611.85,607.0,3.259
5621.625,607.5,3.251
5631.5,608.0,3.242
5641.4,608.5,3.232
5651.292,609.0,3.224
5661.16,609.5,3.214
5670.99,610.0,3.203
5680.8,610.5,3.195
5690.58,611.0,3.185
5700.39,611.5,3.177
5710.24,612.0,3.168
5720.109,612.5,3.157
5730.04,613.0,3.149
5739.96,613.5,3.138
5749.85,614.0,3.127
5759.77,614.5,3.118
5769.68,615.0,3.106
5779.58,615.5,3.096
5789.469,616.0,3.086
5799.348,616.5,3.074
5809.23,617.0,3.065
5819.1,617.5,3.055
5829.01,618.0,3.043
5838.89,618.5,3.034
5848.75,619.0,3.022
5858.6,619.5,3.012
5868.42,620.0,3.002
5878.24,620.5,2.990
5888.05,621.0,2.981
5897.86,621.5,2.969
5907.66,622.0,2.957
5917.5,622.5,2.947
5927.35,623.0,2.934
5937.201,623.5,2.923
5947.089,624.0,2.912
5956.91,624.5,2.899
5966.73,625.0,2.889
5976.54,625.5,2.877
5986.35,626.0,2.865
5996.17,626.5,2.855
6006,627.0,2.842
6015.83,627.5,2.831
6025.641,628.0,2.820
6035.44,628.5,2.805
6045.22,629.0,2.795
6055.005,629.5,2.783
6064.797,630.0,2.770
6074.53,630.5,2.759
6084.25,631.0,2.745
6093.98,631.5,2.734
6103.71,632.0,2.722
6113.47,632.5,2.708
6123.23,633.0,2.697
6132.99,633.5,2.684
6142.74,634.0,2.671
6152.48,634.5,2.659
6162.25,635.0,2.644
6171.987,635.5,2.633
6181.75,636.0,2.620
6191.5,636.5,2.606
6201.285,637.0,2.593
6211.086,637.5,2.579
6220.88,638.0,2.566
6230.69,638.5,2.554
6240.49,639.0,2.539
6250.33,639.5,2.527
6260.16,640.0,2.514
6269.99,640.5,2.498
6279.85,641.0,2.487
6289.7,641.5,2.471
6299.53,642.0,2.459
6309.33,642.5,2.446
6319.16,643.0,2.429
6328.97,643.5,2.417
6338.83,644.0,2.402
6348.69,644.5,2.387
6358.59,645.0,2.374
6368.48,645.5,2.357
6378.37,646.0,2.344
6388.26,646.5,2.330
6398.145,647.0,2.314
6408.04,647.5,2.300
6417.942,648.0,2.283
6427.85,648.5,2.268
6437.769,649.0,2.253
6447.705,649.5,2.235
6457.62,650.0,2.221
6467.54,650.5,2.204
6477.46,651.0,2.187
6487.37,651.5,2.173
6497.26,652.0,2.156
6507.15,652.5,2.141
6517.03,653.0,2.125
6526.91,653.5,2.105
6536.81,654.0,2.090
6546.7,654.5,2.072
6556.6,655.0,2.055
6566.48,655.5,2.039
6576.366,656.0,2.019
6586.22,656.5,2.004
6596.11,657.0,1.986
6606,657.5,1.967
6615.88,658.0,1.950
6625.81,658.5,1.929
6635.7,659.0,1.913
6645.59,659.5,1.895
6655.51,660.0,1.874
6665.44,660.5,1.857
6675.36,661.0,1.838
6685.31,661.5,1.820
6695.23,662.0,1.803
6705.17,662.5,1.781
6715.14,663.0,1.765
6725.09,663.5,1.746
6735.04,664.0,1.727
6744.984,664.5,1.710
6754.9,665.0,1.690
6764.862,665.5,1.673
6774.807,666.0,1.655
6784.75,666.5,1.634
6794.661,667.0,1.619
6804.53,667.5,1.600
6814.41,668.0,1.582
6824.31,668.5,1.567
6834.22,669.0,1.547
6844.17,669.5,1.533
6854.09,670.0,1.517
6863.994,670.5,1.498
6873.91,671.0,1.485
6883.83,671.5,1.469
6893.754,672.0,1.453
6903.69,672.5,1.439
6913.63,673.0,1.424
6923.568,673.5,1.411
6933.528,674.0,1.398
6943.5,674.5,1.383
6953.47,675.0,1.373
6963.41,675.5,1.361
6973.31,676.0,1.348
6983.23,676.5,1.339
6993.141,677.0,1.327
7003.06,677.5,1.318
7013.05,678.0,1.309
7023.02,678.5,1.298
7032.99,679.0,1.290
7042.95,679.5,1.282
7052.913,680.0,1.273
7062.84,680.5,1.267
7072.74,681.0,1.260
7082.66,681.5,1.253
7092.58,682.0,1.247
7102.488,682.5,1.241
7112.415,683.0,1.236
7122.3,683.5,1.231
7132.2,684.0,1.225
7142.16,684.5,1.221
7152.17,685.0,1.217
7162.227,685.5,1.214
7172.26,686.0,1.212
7182.243,686.5,1.208
7192.2,687.0,1.205
7202.136,687.5,1.202
7212.09,688.0,1.198
7222.03,688.5,1.196
7231.98,689.0,1.194
7241.88,689.5,1.191
7251.78,690.0,1.189
7261.686,690.5,1.186
7271.595,691.0,1.185
7281.49,691.5,1.183
7291.4,692.0,1.182
7301.31,692.5,1.181
7311.18,693.0,1.179
7321.09,693.5,1.177
7331,694.0,1.174
7340.9,694.5,1.172
7350.85,695.0,1.171
7360.794,695.5,1.169
7370.75,696.0,1.167
7380.72,696.5,1.165
7390.68,697.0,1.163
7400.66,697.5,1.162
7410.65,698.0,1.160
7420.632,698.5,1.159
7430.565,699.0,1.157
7440.52,699.5,1.155
7450.44,700.0,1.154
7460.36,700.5,1.152
7470.3,701.0,1.150
7480.22,701.5,1.147
7490.14,702.0,1.146
7500.1,702.5,1.145
7510.07,703.0,1.143
7520.03,703.5,1.142
7529.99,704.0,1.142
7539.94,704.5,1.140
7549.9,705.0,1.139
7559.913,705.5,1.137
7569.91,706.0,1.136
7579.91,706.5,1.135
7589.93,707.0,1.133
7599.909,707.5,1.132
7609.93,708.0,1.131
7619.88,708.5,1.128
7629.82,709.0,1.127
7639.716,709.5,1.126
7649.65,710.0,1.126
7659.63,710.5,1.124
7669.63,711.0,1.122
7679.68,711.5,1.120
7689.64,712.0,1.117
7699.6,712.5,1.115
7709.55,713.0,1.114
7719.504,713.5,1.112
7729.47,714.0,1.111
7739.42,714.5,1.109
7749.4,715.0,1.109
7759.35,715.5,1.108
7769.34,716.0,1.108
7779.363,716.5,1.107
7789.4,717.0,1.107
7799.43,717.5,1.105
7809.45,718.0,1.104
7819.45,718.5,1.103
7829.44,719.0,1.101
7839.42,719.5,1.100
7849.39,720.0,1.099
7859.36,720.5,1.098
7869.35,721.0,1.096
7879.35,721.5,1.095
7889.325,722.0,1.094
7899.294,722.5,1.093
7909.269,723.0,1.092
7919.23,723.5,1.090
7929.21,724.0,1.089
7939.22,724.5,1.088
7949.24,725.0,1.087
7959.26,725.5,1.085
7969.29,726.0,1.084
7979.31,726.5,1.083
7989.27,727.0,1.081
7999.26,727.5,1.080
8009.235,728.0,1.079
8019.18,728.5,1.078
8029.21,729.0,1.078
8039.21,729.5,1.077
8049.17,730.0,1.076
8059.16,730.5,1.076
8069.12,731.0,1.075
8079.1,731.5,1.074
8089.12,732.0,1.072
8099.13,732.5,1.071
8109.13,733.0,1.069
8119.11,733.5,1.068
8129.08,734.0,1.067
8139.08,734.5,1.065
8149.05,735.0,1.065
8159.02,735.5,1.063
8168.99,736.0,1.063
8178.93,736.5,1.062
8188.881,737.0,1.060
8198.83,737.5,1.058
8208.82,738.0,1.057
8218.803,738.5,1.055
8228.82,739.0,1.054
8238.82,739.5,1.052
8248.81,740.0,1.051
8258.83,740.5,1.049
8268.834,741.0,1.048
8278.86,741.5,1.046
8288.89,742.0,1.044
8298.87,742.5,1.043
8308.86,743.0,1.042
8318.83,743.5,1.042
8328.79,744.0,1.040
8338.77,744.5,1.040
8348.74,745.0,1.038
8358.71,745.5,1.037
8368.68,746.0,1.037
8378.655,746.5,1.035
8388.612,747.0,1.035
8398.587,747.5,1.034
8408.56,748.0,1.033
8418.51,748.5,1.032
8428.49,749.0,1.033
8438.47,749.5,1.034
8448.45,750.0,1.034
8458.44,750.5,1.033
8468.44,751.0,1.031
8478.42,751.5,1.030
8488.42,752.0,1.029
8498.42,752.5,1.026
8508.43,753.0,1.026
8518.47,753.5,1.025
8528.487,754.0,1.023
8538.51,754.5,1.022
8548.53,755.0,1.020
8558.54,755.5,1.019
8568.57,756.0,1.018
8578.6,756.5,1.018
8588.65,757.0,1.018
8598.7,757.5,1.018
8608.72,758.0,1.016
8618.76,758.5,1.016
8628.71,759.0,1.016
8638.65,759.5,1.015
8648.6,760.0,1.015
8658.606,760.5,1.013
8668.65,761.0,1.012
8678.69,761.5,1.011
8688.74,762.0,1.010
8698.752,762.5,1.008
8708.781,763.0,1.008
8718.81,763.5,1.006
8728.87,764.0,1.006
8738.922,764.5,1.005
8748.993,765.0,1.005
8759.08,765.5,1.004
8769.15,766.0,1.003
8779.23,766.5,1.003
8789.3,767.0,1.002
8799.36,767.5,1.002
8809.43,768.0,1.001
8819.46,768.5,1.000
8829.48,769.0,0.999
8839.52,769.5,0.999
8849.59,770.0,0.999
8859.68,770.5,0.998
8869.76,771.0,0.996
8879.895,771.5,0.995
8890.02,772.0,0.995
8900.13,772.5,0.994
8910.261,773.0,0.994
8920.36,773.5,0.993
8930.43,774.0,0.993
8940.52,774.5,0.993
8950.61,775.0,0.992
8960.7,775.5,0.992
8970.78,776.0,0.992
8980.84,776.5,0.991
8990.86,777.0,0.991
9000.86,777.5,0.989
9010.87,778.0,0.989
9020.89,778.5,0.988
9030.89,779.0,0.988
9040.91,779.5,0.987
9050.9,780.0,0.987
9060.88,780.5,0.985
9070.87,781.0,0.985
9080.83,781.5,0.984
9090.82,782.0,0.984
9100.81,782.5,0.984
9110.796,783.0,0.984
9120.81,783.5,0.982
9130.8,784.0,0.982
9140.769,784.5,0.983
9150.73,785.0,0.983
9160.731,785.5,0.982
9170.73,786.0,0.982
9180.74,786.5,0.982
9190.8,787.0,0.981
9200.83,787.5,0.980
9210.88,788.0,0.979
9220.93,788.5,0.979
9230.99,789.0,0.978
9241.06,789.5,0.977
9251.09,790.0,0.977
9261.14,790.5,0.975
9271.16,791.0,0.975
9281.17,791.5,0.973
9291.21,792.0,0.973
9301.26,792.5,0.973
9311.34,793.0,0.972
9321.384,793.5,0.972
9331.428,794.0,0.972
9341.47,794.5,0.972
9351.45,795.0,0.972
9361.44,795.5,0.973
9371.44,796.0,0.973
9381.44,796.5,0.973
9391.5,797.0,0.972
9401.55,797.5,0.971
9411.62,798.0,0.969
9421.68,798.5,0.968
9431.74,799.0,0.966
9441.825,799.5,0.965
9451.85,800.0,0.965
9461.9,800.5,0.963
9471.939,801.0,0.964
9481.95,801.5,0.962
9491.985,802.0,0.962
9502.03,802.5,0.962
9512.02,803.0,0.961
9522.087,803.5,0.961
9532.15,804.0,0.961
9542.23,804.5,0.960
9552.31,805.0,0.960
9562.32,805.5,0.959
9572.34,806.0,0.958
9582.366,806.5,0.958
9592.42,807.0,0.957
9602.469,807.5,0.957
9612.51,808.0,0.956
9622.548,808.5,0.955
9632.6,809.0,0.955
9642.672,809.5,0.955
9652.74,810.0,0.954
9662.8,810.5,0.954
9672.825,811.0,0.954
9682.88,811.5,0.954
9692.949,812.0,0.954
9703.04,812.5,0.954
9713.14,813.0,0.954
9723.2,813.5,0.954
9733.23,814.0,0.953
9743.29,814.5,0.953
9753.34,815.0,0.953
9763.34,815.5,0.952
9773.41,816.0,0.951
9783.46,816.5,0.951
9793.52,817.0,0.951
9803.56,817.5,0.950
9813.564,818.0,0.949
9823.59,818.5,0.948
9833.64,819.0,0.947
9843.75,819.5,0.947
9853.89,820.0,0.946
9863.98,820.5,0.946
9874.04,821.0,0.946
9884.12,821.5,0.945
9894.18,822.0,0.945
9904.26,822.5,0.945
9914.34,823.0,0.945
9924.393,823.5,0.944
9934.45,824.0,0.943
9944.52,824.5,0.943
9954.56,825.0,0.945
9964.605,825.5,0.945
9974.65,826.0,0.945
9984.73,826.5,0.945
9994.82,827.0,0.943
10004.9,827.5,0.943
10015,828.0,0.943
10025.2,828.5,0.942
10035.4,829.0,0.942
10045.5,829.5,0.940
10055.646,830.0,0.940
10065.8,830.5,0.939
10075.9,831.0,0.938
10085.973,831.5,0.937
10096.1,832.0,0.937
10106.2,832.5,0.936
10116.3,833.0,0.936
10126.4,833.5,0.936
10136.5,834.0,0.935
10146.6,834.5,0.934
10156.8,835.0,0.934
10166.8,835.5,0.933
10176.903,836.0,0.932
10186.941,836.5,0.931
10197,837.0,0.931
10207,837.5,0.931
10217,838.0,0.930
10227.1,838.5,0.930
10237.1,839.0,0.929
10247.1,839.5,0.929
10257.1,840.0,0.929
10267.1,840.5,0.929
10277.112,841.0,0.929
10287.135,841.5,0.927
10297.2,842.0,0.927
10307.2,842.5,0.927
10317.327,843.0,0.926
10327.4,843.5,0.926
10337.5,844.0,0.924
10347.5,844.5,0.924
10357.6,845.0,0.924
10367.706,845.5,0.923
10377.9,846.0,0.923
10388.1,846.5,0.923
10398.282,847.0,0.923
10408.488,847.5,0.923
10418.6,848.0,0.922
10428.8,848.5,0.922
10438.9,849.0,0.922
10448.961,849.5,0.922
10459.1,850.0,0.923
10469.1,850.5,0.923
10479.1,851.0,0.922
10489.2,851.5,0.922
10499.3,852.0,0.921
10509.3,852.5,0.920
10519.4,853.0,0.921
10529.517,853.5,0.920
10539.6,854.0,0.920
10549.662,854.5,0.920
10559.7,855.0,0.919
10569.8,855.5,0.919
10579.9,856.0,0.919
10590,856.5,0.918
10600.1,857.0,0.918
10610.175,857.5,0.918
10620.2,858.0,0.917
10630.4,858.5,0.916
10640.5,859.0,0.916
10650.6,859.5,0.916
10660.7,860.0,0.917
10670.8,860.5,0.917
10680.834,861.0,0.916
10690.9,861.5,0.916
10701,862.0,0.916
10711,862.5,0.916
10721.1,863.0,0.916
10731.1,863.5,0.915
10741.3,864.0,0.915
10751.4,864.5,0.915
10761.483,865.0,0.915
10771.6,865.5,0.913
10781.697,866.0,0.912
10791.8,866.5,0.912
10801.881,867.0,0.912
10812,867.5,0.911
10822.1,868.0,0.911
10832.2,868.5,0.909
10842.4,869.0,0.910
10852.5,869.5,0.909
10862.6,870.0,0.908
10872.7,870.5,0.908
10882.8,871.0,0.909
10892.9,871.5,0.909
10902.963,872.0,0.909
10913,872.5,0.908
10923.1,873.0,0.907
10933.2,873.5,0.907
10943.2,874.0,0.907
10953.4,874.5,0.906
10963.4,875.0,0.906
10973.5,875.5,0.905
10983.6,876.0,0.905
10993.7,876.5,0.904
11003.8,877.0,0.903
11013.882,877.5,0.903
11024,878.0,0.902
11034.1,878.5,0.902
11044.2,879.0,0.901
11054.3,879.5,0.900
11064.4,880.0,0.900
11074.5,880.5,0.899
11084.7,881.0,0.899
11094.8,881.5,0.899
11104.9,882.0,0.899
11115,882.5,0.898
11125.1,883.0,0.899
11135.1,883.5,0.899
11145.24,884.0,0.899
11155.3,884.5,0.899
11165.4,885.0,0.898
11175.453,885.5,0.897
11185.533,886.0,0.897
11195.6,886.5,0.896
11205.8,887.0,0.896
11215.9,887.5,0.896
11226.1,888.0,0.896
11236.203,888.5,0.895
11246.3,889.0,0.894
11256.45,889.5,0.894
11266.605,890.0,0.894
11276.805,890.5,0.893
11287,891.0,0.892
11297.2,891.5,0.892
11307.4,892.0,0.893
11317.5,892.5,0.894
11327.7,893.0,0.892
11337.8,893.5,0.892
11347.9,894.0,0.892
11358.1,894.5,0.892
11368.194,895.0,0.891
11378.3,895.5,0.891
11388.5,896.0,0.891
11398.6,896.5,0.891
11408.8,897.0,0.891
11419,897.5,0.891
11429.1,898.0,0.890
11439.2,898.5,0.890
11449.4,899.0,0.890
11459.499,899.5,0.890
11469.6,900.0,0.889
11479.8,900.5,0.888
11490,901.0,0.889
11500.1,901.5,0.889
11510.256,902.0,0.888
11520.4,902.5,0.888
11530.578,903.0,0.888
11540.7,903.5,0.886
11550.9,904.0,0.887
11561.1,904.5,0.886
11571.2,905.0,0.885
11581.398,905.5,0.885
11591.6,906.0,0.885
11601.7,906.5,0.884
11611.9,907.0,0.884
11622.042,907.5,0.884
11632.1,908.0,0.884
11642.3,908.5,0.884
11652.4,909.0,0.883
11662.4,909.5,0.883
11672.5,910.0,0.883
11682.6,910.5,0.883
11692.7,911.0,0.881
11702.8,911.5,0.881
11713.1,912.0,0.881
11723.3,912.5,0.880
11733.6,913.0,0.880
11743.9,913.5,0.880
11754.1,914.0,0.880
11764.2,914.5,0.880
11774.4,915.0,0.880
11784.546,915.5,0.880
11794.683,916.0,0.879
11804.9,916.5,0.879
11815.1,917.0,0.879
11825.3,917.5,0.879
11835.5,918.0,0.879
11845.5,918.5,0.879
11855.514,919.0,0.879
11865.5,919.5,0.877
11875.5,920.0,0.878
11885.6,920.5,0.878
11895.7,921.0,0.879
11905.9,921.5,0.877
11916,922.0,0.877
11926.3,922.5,0.877
11936.5,923.0,0.877
11946.675,923.5,0.877
11956.9,924.0,0.876
11967.2,924.5,0.876
11977.4,925.0,0.876
11987.7,925.5,0.875
11997.9,926.0,0.875
12008.2,926.5,0.875
12018.3,927.0,0.874
12028.518,927.5,0.873
12038.7,928.0,0.873
12048.9,928.5,0.873
12059.061,929.0,0.873
12069.267,929.5,0.873
12079.5,930.0,0.872
12089.7,930.5,0.872
12099.9,931.0,0.872
12110,931.5,0.872
12120.105,932.0,0.872
12130.2,932.5,0.872
12140.3,933.0,0.872
12150.4,933.5,0.871
12160.476,934.0,0.871
12170.616,934.5,0.871
12180.7,935.0,0.871
12190.9,935.5,0.871
12201,936.0,0.870
12211.1,936.5,0.870
12221.2,937.0,0.870
12231.3,937.5,0.871
12241.4,938.0,0.871
12251.5,938.5,0.871
12261.7,939.0,0.871
12271.9,939.5,0.870
12282.1,940.0,0.870
12292.2,940.5,0.870
12302.4,941.0,0.870
12312.6,941.5,0.868
12322.8,942.0,0.868
12332.973,942.5,0.868
12343.182,943.0,0.868
12353.4,943.5,0.867
12363.5,944.0,0.867
12373.7,944.5,0.867
12383.9,945.0,0.867
12394.1,945.5,0.867
12404.3,946.0,0.867
12414.5,946.5,0.867
12424.7,947.0,0.867
12434.886,947.5,0.866
12445.1,948.0,0.866
12455.229,948.5,0.866
12465.4,949.0,0.866
12475.47,949.5,0.865
12485.6,950.0,0.864
12495.7,950.5,0.864
12505.812,951.0,0.864
12516,951.5,0.864
12526.2,952.0,0.864
12536.3,952.5,0.863
12546.5,953.0,0.863
12556.719,953.5,0.863
12566.9,954.0,0.862
12577.116,954.5,0.862
12587.3,955.0,0.862
12597.5,955.5,0.862
12607.7,956.0,0.860
12617.9,956.5,0.860
12628.1,957.0,0.860
12638.4,957.5,0.860
12648.6,958.0,0.860
12658.8,958.5,0.859
12668.961,959.0,0.859
12679.1,959.5,0.859
12689.2,960.0,0.860
12699.3,960.5,0.860
12709.4,961.0,0.860
12719.4,961.5,0.860
12729.5,962.0,0.860
12739.6,962.5,0.860
12749.7,963.0,0.860
12759.9,963.5,0.860
12770.007,964.0,0.859
12780.129,964.5,0.859
12790.3,965.0,0.858
12800.5,965.5,0.858
12810.7,966.0,0.858
12820.9,966.5,0.858
12831.1,967.0,0.857
12841.3,967.5,0.857
12851.5,968.0,0.857
12861.7,968.5,0.857
12871.8,969.0,0.857
12882,969.5,0.857
12892.2,970.0,0.856
12902.4,970.5,0.856
12912.5,971.0,0.856
12922.7,971.5,0.856
12932.8,972.0,0.856
12942.9,972.5,0.856
12953,973.0,0.856
12963.153,973.5,0.856
12973.3,974.0,0.854
12983.4,974.5,0.855
12993.6,975.0,0.855
13003.8,975.5,0.855
13013.9,976.0,0.854
13024.1,976.5,0.854
13034.253,977.0,0.854
13044.5,977.5,0.853
13054.692,978.0,0.853
13065,978.5,0.853
13075.2,979.0,0.853
13085.5,979.5,0.852
13095.8,980.0,0.853
13106,980.5,0.854
13116.2,981.0,0.852
13126.4,981.5,0.853
13136.532,982.0,0.853
13146.7,982.5,0.853
13156.8,983.0,0.853
13167,983.5,0.853
13177.2,984.0,0.854
13187.4,984.5,0.853
13197.6,985.0,0.853
13207.74,985.5,0.853
13217.9,986.0,0.853
13228.131,986.5,0.853
13238.4,987.0,0.853
13248.6,987.5,0.853
13258.8,988.0,0.853
13269.1,988.5,0.853
13279.269,989.0,0.853
13289.49,989.5,0.853
13299.7,990.0,0.852
13309.9,990.5,0.852
13320.132,991.0,0.851
13330.3,991.5,0.851
13340.5,992.0,0.851
13350.7,992.5,0.852
13360.959,993.0,0.851
13371.2,993.5,0.851
13381.4,994.0,0.850
13391.553,994.5,0.850
13401.7,995.0,0.850
13411.9,995.5,0.850
13422.1,996.0,0.850
13432.3,996.5,0.850
13442.5,997.0,0.850
13452.6,997.5,0.849
13462.8,998.0,0.848
13472.952,998.5,0.848
13483.1,999.0,0.848
13493.3,999.5,0.848
13503.45,1000.0,0.847
13513.6,1000.5,0.847
13523.7,1001.0,0.847
13533.843,1001.5,0.847
13543.9,1002.0,0.847
13554.006,1002.5,0.847
13564.1,1003.0,0.846
13574.2,1003.5,0.846
13584.3,1004.0,0.846
13594.5,1004.5,0.846
13604.8,1005.0,0.845
13615.134,1005.5,0.847
13625.415,1006.0,0.847
13635.7,1006.5,0.847
13645.95,1007.0,0.846
13656.2,1007.5,0.845
13666.5,1008.0,0.844
13676.7,1008.5,0.844
13687,1009.0,0.844
13697.2,1009.5,0.843
13707.5,1010.0,0.843
13717.725,1010.5,0.843
13728,1011.0,0.844
13738.3,1011.5,0.844
13748.5,1012.0,0.844
13758.8,1012.5,0.844
13769,1013.0,0.844
13779.207,1013.5,0.844
13789.4,1014.0,0.844
13799.55,1014.5,0.844
13809.7,1015.0,0.843
13819.9,1015.5,0.843
13830,1016.0,0.843
13840.3,1016.5,0.843
13850.5,1017.0,0.844
13860.714,1017.5,0.844
13870.9,1018.0,0.844
13881.147,1018.5,0.844
13891.4,1019.0,0.844
13901.6,1019.5,0.845
13911.8,1020.0,0.845
13922.052,1020.5,0.845
13932.309,1021.0,0.845
13942.5,1021.5,0.843
13952.7,1022.0,0.844
13962.855,1022.5,0.844
13973,1023.0,0.844
13983.1,1023.5,0.843
13993.3,1024.0,0.842
14003.523,1024.5,0.843
14013.7,1025.0,0.843
14023.8,1025.5,0.843
14033.9,1026.0,0.843
14044.032,1026.5,0.843
14054.1,1027.0,0.843
14064.3,1027.5,0.843
14074.6,1028.0,0.842
14084.8,1028.5,0.842
14095.1,1029.0,0.842
14105.3,1029.5,0.842
14115.453,1030.0,0.843
14125.7,1030.5,0.843
14135.904,1031.0,0.843
14146.1,1031.5,0.842
14156.3,1032.0,0.842
14166.5,1032.5,0.842
14176.6,1033.0,0.842
14186.763,1033.5,0.842
14197,1034.0,0.841
14207.2,1034.5,0.840
14217.3,1035.0,0.840
14227.5,1035.5,0.840
14237.622,1036.0,0.840
14247.8,1036.5,0.839
14257.9,1037.0,0.839
14268.09,1037.5,0.839
14278.3,1038.0,0.839
14288.6,1038.5,0.839
14298.9,1039.0,0.839
14309.3,1039.5,0.839
14319.6,1040.0,0.839
14329.8,1040.5,0.839
14340.1,1041.0,0.839
14350.4,1041.5,0.839
14360.6,1042.0,0.839
14370.837,1042.5,0.839
14381,1043.0,0.839
14391.2,1043.5,0.839
14401.4,1044.0,0.839
14411.6,1044.5,0.838
14421.8,1045.0,0.838
14431.9,1045.5,0.838
14442.1,1046.0,0.839
14452.1,1046.5,0.838
14462.1,1047.0,0.838
14472.1,1047.5,0.838
14482.1,1048.0,0.838
14492.1,1048.5,0.838
14502.2,1049.0,0.838
14512.3,1049.5,0.837
14522.5,1050.0,0.837
14532.8,1050.5,0.837
14543,1051.0,0.836
14553.4,1051.5,0.836
14563.6,1052.0,0.836
14573.9,1052.5,0.835
14584.2,1053.0,0.835
14594.5,1053.5,0.835
14604.9,1054.0,0.835
14615.2,1054.5,0.835
14625.5,1055.0,0.835
14635.8,1055.5,0.834
14646.1,1056.0,0.834
14656.23,1056.5,0.834
14666.4,1057.0,0.834
14676.5,1057.5,0.834
14686.6,1058.0,0.834
14696.7,1058.5,0.834
14706.8,1059.0,0.834
14717,1059.5,0.834
14727.1,1060.0,0.834
14737.23,1060.5,0.834
14747.4,1061.0,0.834
14757.6,1061.5,0.834
14767.8,1062.0,0.834