File: Wood/Calibration_Data/FSRI/FSRI_Wood_Perpendicular_Cone_25kW_hor_R1.csv
Time,Mass (g),HRRPUA (kW/m2)
0.0,102.06,-3.5
2.0,101.97,-2.9
4.0,101.94,-2.1
6.0,101.88,0.3
8.0,101.85,3.3
10.0,101.79,6.9
12.0,101.74,11.1
14.0,101.68,13.4
16.0,101.66,14.3
18.0,101.64,14.0
20.0,101.62,12.5
22.0,101.63,9.4
24.0,101.6,7.5
26.0,101.56,4.5
28.0,101.58,2.0
30.0,101.55,0.2
32.0,101.48,-0.7
34.0,101.48,-1.6
36.0,101.44,-1.9
38.0,101.44,-2.1
40.0,101.4,-1.4
42.0,101.37,-1.0
44.0,101.35,-0.9
46.0,101.31,-1.0
48.0,101.28,-1.1
50.0,101.22,-0.8
52.0,101.17,-0.1
54.0,101.14,0.9
56.0,101.1,1.7
58.0,101.06,2.2
60.0,101.05,2.3
62.0,101.04,2.5
64.0,101.06,3.7
66.0,101.06,5.4
68.0,101.03,6.3
70.0,101.01,6.8
72.0,100.97,6.9
74.0,100.95,7.0
76.0,100.93,7.1
78.0,100.89,8.0
80.0,100.86,9.1
82.0,100.82,10.1
84.0,100.8,11.1
86.0,100.77,11.2
88.0,100.75,11.3
90.0,100.64,10.2
92.0,100.62,9.7
94.0,100.59,9.4
96.0,100.58,9.5
98.0,100.53,10.5
100.0,100.51,10.8
102.0,100.47,10.9
104.0,100.39,10.8
106.0,100.24,10.8
108.0,100.07,10.9
110.0,99.91,11.5
112.0,99.74,13.4
114.0,99.57,19.8
116.0,99.38,37.7
118.0,99.19,61.7
120.0,99.01,82.6
122.0,98.8,104.3
124.0,98.62,121.7
126.0,98.46,130.6
128.0,98.24,138.5
130.0,98.04,146.6
132.0,97.84,149.8
134.0,97.67,152.8
136.0,97.5,154.8
138.0,97.33,155.7
140.0,97.2,155.0
142.0,97.05,150.7
144.0,96.93,148.2
146.0,96.77,145.2
148.0,96.62,142.1
150.0,96.47,138.2
152.0,96.32,138.4
154.0,96.17,134.0
156.0,96.01,131.3
158.0,95.88,127.9
160.0,95.74,125.9
162.0,95.58,125.1
164.0,95.46,125.6
166.0,95.33,121.5
168.0,95.2,119.7
170.0,95.07,115.5
172.0,94.91,113.8
174.0,94.7,111.7
176.0,94.57,111.2
178.0,94.44,111.8
180.0,94.34,106.5
182.0,94.24,105.7
184.0,94.15,105.0
186.0,94.01,102.5
188.0,93.89,99.9
190.0,93.78,99.1
192.0,93.68,99.5
194.0,93.54,100.2
196.0,93.42,100.3
198.0,93.3,99.4
200.0,93.2,100.2
202.0,93.09,98.7
204.0,92.96,97.1
206.0,92.85,95.1
208.0,92.71,94.0
210.0,92.57,92.0
212.0,92.45,91.0
214.0,92.33,90.9
216.0,92.18,87.4
218.0,92.07,86.8
220.0,91.96,85.9
222.0,91.89,84.8
224.0,91.83,84.3
226.0,91.73,82.5
228.0,91.62,82.6
230.0,91.52,80.7
232.0,91.38,79.7
234.0,91.29,79.2
236.0,91.18,78.2
238.0,91.06,78.0
240.0,90.98,78.4
242.0,90.87,78.1
244.0,90.76,76.2
246.0,90.68,76.1
248.0,90.55,74.2
250.0,90.45,74.6
252.0,90.3,73.0
254.0,90.2,72.8
256.0,90.03,72.6
258.0,89.93,72.5
260.0,89.86,72.8
262.0,89.75,72.4
264.0,89.73,70.9
266.0,89.61,70.9
268.0,89.52,69.9
270.0,89.41,69.2
272.0,89.28,69.1
274.0,89.2,68.2
276.0,89.08,68.0
278.0,88.98,68.2
280.0,88.85,67.6
282.0,88.75,67.8
284.0,88.67,68.4
286.0,88.58,68.2
288.0,88.46,67.3
290.0,88.34,67.8
292.0,88.23,66.1
294.0,88.11,64.1
296.0,87.96,66.3
298.0,87.87,63.6
300.0,87.76,64.4
302.0,87.69,64.6
304.0,87.62,62.7
306.0,87.52,64.5
308.0,87.44,62.7
310.0,87.33,64.1
312.0,87.23,63.1
314.0,87.12,63.0
316.0,87.03,63.2
318.0,86.9,63.8
320.0,86.82,62.9
322.0,86.73,62.2
324.0,86.61,62.4
326.0,86.51,62.5
328.0,86.4,61.6
330.0,86.3,61.7
332.0,86.22,62.1
334.0,86.01,60.5
336.0,85.93,60.2
338.0,85.82,60.5
340.0,85.71,58.8
342.0,85.6,58.2
344.0,85.58,57.6
346.0,85.49,57.2
348.0,85.4,56.9
350.0,85.31,56.4
352.0,85.22,55.7
354.0,85.1,55.8
356.0,84.99,55.1
358.0,84.88,55.6
360.0,84.79,54.4
362.0,84.7,55.2
364.0,84.58,54.5
366.0,84.51,54.1
368.0,84.41,54.3
370.0,84.32,54.4
372.0,84.2,52.6
374.0,84.09,53.6
376.0,83.95,52.1
378.0,83.84,52.3
380.0,83.72,52.7
382.0,83.63,52.0
384.0,83.54,52.7
386.0,83.49,51.4
388.0,83.43,51.2
390.0,83.32,50.3
392.0,83.24,51.7
394.0,83.13,51.1
396.0,83.03,51.3
398.0,82.94,50.8
400.0,82.85,50.6
402.0,82.74,50.0
404.0,82.66,49.8
406.0,82.57,49.7
408.0,82.46,49.8
410.0,82.37,49.6
412.0,82.27,49.3
414.0,82.2,49.2
416.0,82.04,48.8
418.0,81.92,48.4
420.0,81.81,48.6
422.0,81.72,48.1
424.0,81.67,47.8
426.0,81.6,48.1
428.0,81.54,48.2
430.0,81.44,47.7
432.0,81.36,47.0
434.0,81.26,47.0
436.0,81.15,46.4
438.0,81.05,46.0
440.0,80.97,46.9
442.0,80.88,46.7
444.0,80.79,46.6
446.0,80.7,46.3
448.0,80.61,46.0
450.0,80.52,45.0
452.0,80.42,44.1
454.0,80.24,45.0
456.0,80.15,46.2
458.0,80.05,45.5
460.0,79.96,46.2
462.0,79.89,46.0
464.0,79.8,46.3
466.0,79.79,46.1
468.0,79.69,45.5
470.0,79.6,46.6
472.0,79.52,45.6
474.0,79.42,44.7
476.0,79.35,45.4
478.0,79.25,45.4
480.0,79.16,44.6
482.0,79.08,44.4
484.0,79.0,44.1
486.0,78.89,43.9
488.0,78.8,44.2
490.0,78.73,44.7
492.0,78.61,45.1
494.0,78.48,44.7
496.0,78.39,44.2
498.0,78.27,43.0
500.0,78.18,41.8
502.0,78.09,41.5
504.0,78.04,40.8
506.0,77.97,41.4
508.0,77.89,40.6
510.0,77.82,40.4
512.0,77.72,40.6
514.0,77.63,40.7
516.0,77.55,40.5
518.0,77.47,40.4
520.0,77.38,40.3
522.0,77.29,39.5
524.0,77.21,40.5
526.0,77.13,39.8
528.0,77.05,39.5
530.0,76.97,39.6
532.0,76.86,39.2
534.0,76.76,39.8
536.0,76.67,40.2
538.0,76.59,39.4
540.0,76.45,39.2
542.0,76.35,39.7
544.0,76.29,38.5
546.0,76.22,39.1
548.0,76.15,39.3
550.0,76.1,39.5
552.0,76.01,39.3
554.0,75.93,38.6
556.0,75.86,39.0
558.0,75.76,38.7
560.0,75.68,38.1
562.0,75.61,36.7
564.0,75.51,37.5
566.0,75.44,36.7
568.0,75.35,36.4
570.0,75.28,37.6
572.0,75.18,38.1
574.0,75.1,37.8
576.0,75.02,37.5
578.0,74.88,36.6
580.0,74.75,36.5
582.0,74.66,36.1
584.0,74.59,36.6
586.0,74.51,35.7
588.0,74.49,35.2
590.0,74.43,35.4
592.0,74.35,35.9
594.0,74.28,36.5
596.0,74.2,36.2
598.0,74.1,37.3
600.0,74.02,36.9
602.0,73.95,36.2
604.0,73.87,35.6
606.0,73.79,36.0
608.0,73.71,36.1
610.0,73.63,35.5
612.0,73.56,34.9
614.0,73.47,34.8
616.0,73.38,35.3
618.0,73.27,35.0
620.0,73.19,34.1
622.0,73.09,34.9
624.0,73.0,35.3
626.0,72.92,34.1
628.0,72.84,33.6
630.0,72.79,33.6
632.0,72.75,33.7
634.0,72.68,34.3
636.0,72.62,34.0
638.0,72.53,33.7
640.0,72.45,33.5
642.0,72.37,33.0
644.0,72.3,33.5
646.0,72.22,33.7
648.0,72.13,32.8
650.0,72.03,32.4
652.0,71.96,32.8
654.0,71.9,33.2
656.0,71.83,33.2
658.0,71.75,34.5
660.0,71.66,34.0
662.0,71.59,34.7
664.0,71.44,34.6
666.0,71.35,35.0
668.0,71.28,34.7
670.0,71.2,34.9
672.0,71.21,35.1
674.0,71.15,35.1
676.0,71.07,35.9
678.0,71.01,36.4
680.0,70.93,37.3
682.0,70.84,37.0
684.0,70.8,37.0
686.0,70.68,37.1
688.0,70.62,36.8
690.0,70.54,37.6
692.0,70.46,37.7
694.0,70.41,38.1
696.0,70.32,38.0
698.0,70.23,39.0
700.0,70.15,38.8
702.0,70.07,38.0
704.0,69.95,36.8
706.0,69.88,36.3
708.0,69.79,36.6
710.0,69.71,36.4
712.0,69.69,35.9
714.0,69.64,36.1
716.0,69.57,35.9
718.0,69.51,35.3
720.0,69.43,35.0
722.0,69.36,35.0
724.0,69.28,35.8
726.0,69.2,36.9
728.0,69.14,37.2
730.0,69.07,36.5
732.0,69.0,36.0
734.0,68.93,35.1
736.0,68.85,35.3
738.0,68.78,35.1
740.0,68.71,35.1
742.0,68.61,35.2
744.0,68.54,35.2
746.0,68.46,35.2
748.0,68.37,35.3
750.0,68.29,34.6
752.0,68.2,33.9
754.0,68.14,34.3
756.0,68.09,35.4
758.0,68.06,34.3
760.0,68.01,34.6
762.0,67.95,34.2
764.0,67.88,33.9
766.0,67.79,32.6
768.0,67.72,32.3
770.0,67.66,31.5
772.0,67.59,31.3
774.0,67.52,31.3
776.0,67.46,30.7
778.0,67.38,30.6
780.0,67.34,30.7
782.0,67.27,30.7
784.0,67.22,31.0
786.0,67.15,31.8
788.0,67.06,32.1
790.0,66.97,32.5
792.0,66.87,33.3
794.0,66.75,33.2
796.0,66.68,33.3
798.0,66.62,33.7
800.0,66.58,33.9
802.0,66.52,34.0
804.0,66.5,34.5
806.0,66.43,34.9
808.0,66.37,33.9
810.0,66.3,33.3
812.0,66.25,33.7
814.0,66.15,34.0
816.0,66.09,34.4
818.0,66.02,35.1
820.0,65.96,34.5
822.0,65.9,34.7
824.0,65.83,34.0
826.0,65.75,34.4
828.0,65.67,33.8
830.0,65.61,34.0
832.0,65.56,34.5
834.0,65.48,33.8
836.0,65.37,34.1
838.0,65.3,33.6
840.0,65.19,33.9
842.0,65.12,34.5
844.0,65.05,35.9
846.0,65.03,35.9
848.0,64.98,36.0
850.0,64.93,37.0
852.0,64.88,36.3
854.0,64.81,36.3
856.0,64.75,36.9
858.0,64.67,37.0
860.0,64.62,37.6
862.0,64.54,37.7
864.0,64.46,37.5
866.0,64.38,36.9
868.0,64.33,36.5
870.0,64.25,36.2
872.0,64.17,35.9
874.0,64.11,36.0
876.0,64.05,37.6
878.0,63.98,38.2
880.0,63.89,37.8
882.0,63.8,38.5
884.0,63.71,40.3
886.0,63.64,39.8
888.0,63.57,40.9
890.0,63.48,40.7
892.0,63.44,40.6
894.0,63.4,41.2
896.0,63.36,42.3
898.0,63.28,41.8
900.0,63.2,42.5
902.0,63.13,43.2
904.0,63.08,42.8
906.0,63.0,44.3
908.0,62.94,44.0
910.0,62.86,44.3
912.0,62.78,43.6
914.0,62.71,43.0
916.0,62.64,43.5
918.0,62.57,43.3
920.0,62.49,44.1
922.0,62.42,43.5
924.0,62.33,43.3
926.0,62.25,42.9
928.0,62.13,43.2
930.0,62.06,42.1
932.0,61.98,42.4
934.0,61.93,42.3
936.0,61.95,42.8
938.0,61.84,43.2
940.0,61.81,42.9
942.0,61.72,43.0
944.0,61.65,43.2
946.0,61.57,43.3
948.0,61.51,44.0
950.0,61.43,42.5
952.0,61.36,42.7
954.0,61.29,42.7
956.0,61.19,42.6
958.0,61.1,42.3
960.0,61.04,43.3
962.0,60.98,43.0
964.0,60.91,43.2
966.0,60.79,43.2
968.0,60.68,43.2
970.0,60.59,44.0
972.0,60.52,45.0
974.0,60.43,45.0
976.0,60.39,45.2
978.0,60.35,46.2
980.0,60.28,46.8
982.0,60.2,48.7
984.0,60.13,49.6
986.0,60.08,50.1
988.0,59.99,49.1
990.0,59.91,49.2
992.0,59.84,49.1
994.0,59.74,48.7
996.0,59.68,49.0
998.0,59.57,47.8
1000.0,59.51,48.6
1002.0,59.45,47.9
1004.0,59.37,47.7
1006.0,59.29,49.2
1008.0,59.21,49.3
1010.0,59.11,49.9
1012.0,59.03,51.1
1014.0,58.9,51.2
1016.0,58.83,50.7
1018.0,58.73,52.4
1020.0,58.7,52.5
1022.0,58.67,52.7
1024.0,58.56,52.8
1026.0,58.51,54.5
1028.0,58.42,54.5
1030.0,58.34,55.3
1032.0,58.25,55.1
1034.0,58.16,55.3
1036.0,58.09,55.3
1038.0,58.0,55.6
1040.0,57.93,57.1
1042.0,57.84,57.6
1044.0,57.75,57.4
1046.0,57.67,57.4
1048.0,57.54,58.3
1050.0,57.42,58.4
1052.0,57.34,58.4
1054.0,57.23,59.7
1056.0,57.15,59.4
1058.0,57.15,59.9
1060.0,57.07,61.7
1062.0,57.01,60.8
1064.0,56.9,61.8
1066.0,56.86,61.2
1068.0,56.73,60.5
1070.0,56.65,60.8
1072.0,56.56,60.7
1074.0,56.46,59.9
1076.0,56.39,59.8
1078.0,56.28,61.2
1080.0,56.21,60.9
1082.0,56.12,61.9
1084.0,56.03,61.3
1086.0,55.94,63.2
1088.0,55.86,64.1
1090.0,55.75,64.8
1092.0,55.57,65.7
1094.0,55.5,67.4
1096.0,55.41,67.8
1098.0,55.32,68.1
1100.0,55.25,69.3
1102.0,55.22,69.7
1104.0,55.11,68.8
1106.0,55.02,70.0
1108.0,54.92,71.0
1110.0,54.81,71.1
1112.0,54.72,71.9
1114.0,54.62,72.4
1116.0,54.53,70.2
1118.0,54.43,69.7
1120.0,54.33,69.0
1122.0,54.26,68.6
1124.0,54.15,69.5
1126.0,54.04,68.9
1128.0,53.96,70.5
1130.0,53.84,70.1
1132.0,53.75,70.2
1134.0,53.66,70.8
1136.0,53.47,72.1
1138.0,53.36,72.8
1140.0,53.27,73.3
1142.0,53.25,74.6
1144.0,53.17,75.4
1146.0,53.07,74.2
1148.0,52.96,75.0
1150.0,52.85,74.6
1152.0,52.73,74.4
1154.0,52.63,74.4
1156.0,52.55,75.1
1158.0,52.47,76.6
1160.0,52.33,76.3
1162.0,52.25,76.3
1164.0,52.15,76.6
1166.0,52.04,77.6
1168.0,51.94,78.4
1170.0,51.82,77.7
1172.0,51.69,79.0
1174.0,51.6,77.9
1176.0,51.5,78.4
1178.0,51.37,76.6
1180.0,51.2,77.1
1182.0,51.08,76.7
1184.0,51.0,77.6
1186.0,50.93,76.4
1188.0,50.85,76.3
1190.0,50.74,77.1
1192.0,50.62,79.3
1194.0,50.51,81.0
1196.0,50.42,80.9
1198.0,50.29,81.3
1200.0,50.2,82.0
1202.0,50.09,83.5
1204.0,49.97,84.1
1206.0,49.87,83.4
1208.0,49.76,85.8
1210.0,49.65,86.1
1212.0,49.53,86.3
1214.0,49.42,87.7
1216.0,49.3,88.7
1218.0,49.21,86.7
1220.0,49.06,84.4
1222.0,48.9,84.7
1224.0,48.78,86.0
1226.0,48.68,85.6
1228.0,48.6,85.5
1230.0,48.55,84.2
1232.0,48.43,86.3
1234.0,48.33,85.4
1236.0,48.22,85.6
1238.0,48.1,85.5
1240.0,47.97,87.8
1242.0,47.87,85.5
1244.0,47.76,87.4
1246.0,47.65,85.9
1248.0,47.54,86.9
1250.0,47.43,86.7
1252.0,47.29,86.7
1254.0,47.21,87.8
1256.0,47.03,87.3
1258.0,46.91,87.8
1260.0,46.78,87.9
1262.0,46.65,89.5
1264.0,46.51,88.8
1266.0,46.43,88.6
1268.0,46.35,88.8
1270.0,46.25,86.9
1272.0,46.15,87.4
1274.0,46.03,87.0
1276.0,45.92,86.0
1278.0,45.84,86.4
1280.0,45.72,88.0
1282.0,45.62,87.6
1284.0,45.48,87.9
1286.0,45.38,88.1
1288.0,45.23,87.9
1290.0,45.13,88.6
1292.0,45.03,89.8
1294.0,44.91,90.6
1296.0,44.81,91.6
1298.0,44.7,90.9
1300.0,44.5,90.4
1302.0,44.38,91.6
1304.0,44.26,91.3
1306.0,44.15,91.3
1308.0,44.04,94.4
1310.0,43.92,95.5
1312.0,43.84,95.6
1314.0,43.77,96.7
1316.0,43.64,98.7
1318.0,43.54,97.5
1320.0,43.44,97.1
1322.0,43.31,97.6
1324.0,43.18,94.2
1326.0,43.08,97.7
1328.0,42.97,98.0
1330.0,42.87,95.4
1332.0,42.77,95.6
1334.0,42.64,97.0
1336.0,42.51,97.3
1338.0,42.4,95.5
1340.0,42.22,95.1
1342.0,42.09,97.0
1344.0,41.96,97.5
1346.0,41.84,97.2
1348.0,41.74,96.2
1350.0,41.67,95.4
1352.0,41.59,95.4
1354.0,41.47,97.0
1356.0,41.35,94.7
1358.0,41.25,97.9
1360.0,41.14,96.3
1362.0,41.04,97.6
1364.0,40.92,94.4
1366.0,40.81,95.3
1368.0,40.69,96.0
1370.0,40.59,96.1
1372.0,40.48,93.6
1374.0,40.37,93.4
1376.0,40.23,92.8
1378.0,40.12,93.1
1380.0,40.01,92.8
1382.0,39.88,92.0
1384.0,39.75,92.0
1386.0,39.64,92.0
1388.0,39.48,91.5
1390.0,39.35,90.8
1392.0,39.27,90.9
1394.0,39.16,91.8
1396.0,39.1,92.0
1398.0,39.03,90.1
1400.0,38.91,93.3
1402.0,38.78,92.1
1404.0,38.69,93.3
1406.0,38.58,92.1
1408.0,38.48,92.4
1410.0,38.35,92.4
1412.0,38.24,90.9
1414.0,38.12,90.9
1416.0,38.02,90.9
1418.0,37.94,91.4
1420.0,37.83,91.3
1422.0,37.72,92.5
1424.0,37.62,92.1
1426.0,37.43,93.5
1428.0,37.29,94.6
1430.0,37.18,94.0
1432.0,37.07,92.8
1434.0,36.97,91.5
1436.0,36.88,91.0
1438.0,36.82,90.9
1440.0,36.76,90.1
1442.0,36.65,89.7
1444.0,36.51,90.7
1446.0,36.44,90.1
1448.0,36.32,89.7
1450.0,36.23,89.4
1452.0,36.12,89.8
1454.0,36.03,89.4
1456.0,35.91,89.9
1458.0,35.84,88.0
1460.0,35.71,87.7
1462.0,35.62,89.5
1464.0,35.52,87.7
1466.0,35.42,87.7
1468.0,35.32,87.9
1470.0,35.15,87.7
1472.0,35.01,88.0
1474.0,34.89,87.3
1476.0,34.8,88.8
1478.0,34.73,86.8
1480.0,34.64,86.6
1482.0,34.61,86.9
1484.0,34.52,85.9
1486.0,34.45,86.7
1488.0,34.32,84.8
1490.0,34.24,84.6
1492.0,34.13,84.5
1494.0,34.03,85.5
1496.0,33.95,82.9
1498.0,33.84,84.5
1500.0,33.75,85.9
1502.0,33.66,85.0
1504.0,33.57,83.1
1506.0,33.46,83.8
1508.0,33.34,83.1
1510.0,33.22,84.5
1512.0,33.07,84.9
1514.0,32.99,84.7
1516.0,32.92,84.8
1518.0,32.85,82.1
1520.0,32.82,82.5
1522.0,32.73,82.4
1524.0,32.62,83.1
1526.0,32.54,82.6
1528.0,32.46,81.9
1530.0,32.36,81.8
1532.0,32.28,79.5
1534.0,32.2,81.1
1536.0,32.11,80.2
1538.0,32.01,80.5
1540.0,31.91,79.6
1542.0,31.82,80.7
1544.0,31.73,78.9
1546.0,31.66,78.5
1548.0,31.54,78.7
1550.0,31.44,79.2
1552.0,31.3,78.1
1554.0,31.23,78.1
1556.0,31.12,77.7
1558.0,31.05,77.6
1560.0,31.01,78.2
1562.0,30.94,76.8
1564.0,30.87,79.0
1566.0,30.79,77.4
1568.0,30.69,77.2
1570.0,30.61,76.8
1572.0,30.52,77.6
1574.0,30.42,76.3
1576.0,30.35,77.3
1578.0,30.27,76.3
1580.0,30.19,76.5
1582.0,30.12,75.6
1584.0,30.01,74.5
1586.0,29.96,75.2
1588.0,29.88,74.4
1590.0,29.79,74.1
1592.0,29.7,76.0
1594.0,29.59,74.5
1596.0,29.49,76.2
1598.0,29.38,76.5
1600.0,29.28,76.0
1602.0,29.24,76.2
1604.0,29.17,75.4
1606.0,29.12,75.4
1608.0,29.06,74.0
1610.0,29.0,73.9
1612.0,28.93,74.6
1614.0,28.83,73.6
1616.0,28.75,73.6
1618.0,28.66,73.4
1620.0,28.57,73.3
1622.0,28.5,72.0
1624.0,28.44,71.8
1626.0,28.36,70.9
1628.0,28.27,70.1
1630.0,28.21,70.6
1632.0,28.09,70.1
1634.0,28.04,70.8
1636.0,27.97,69.2
1638.0,27.86,70.5
1640.0,27.77,69.6
1642.0,27.69,70.0
1644.0,27.59,71.3
1646.0,27.52,70.4
1648.0,27.47,70.4
1650.0,27.4,71.0
1652.0,27.35,71.2
1654.0,27.28,71.0
1656.0,27.2,69.4
1658.0,27.14,69.1
1660.0,27.07,69.7
1662.0,26.98,69.2
1664.0,26.93,68.2
1666.0,26.88,66.8
1668.0,26.8,68.0
1670.0,26.75,67.7
1672.0,26.65,66.9
1674.0,26.58,66.7
1676.0,26.52,67.4
1678.0,26.44,66.4
1680.0,26.38,66.8
1682.0,26.22,66.3
1684.0,26.14,66.4
1686.0,26.08,66.7
1688.0,26.0,66.8
1690.0,25.97,65.7
1692.0,25.92,65.2
1694.0,25.92,65.2
1696.0,25.85,66.0
1698.0,25.8,64.4
1700.0,25.71,64.0
1702.0,25.63,64.1
1704.0,25.57,63.9
1706.0,25.54,63.6
1708.0,25.46,62.3
1710.0,25.39,63.1
1712.0,25.34,63.4
1714.0,25.28,62.4
1716.0,25.19,62.8
1718.0,25.15,62.5
1720.0,25.1,62.0
1722.0,25.05,61.8
1724.0,24.93,62.1
1726.0,24.83,62.4
1728.0,24.78,62.2
1730.0,24.73,62.0
1732.0,24.74,61.1
1734.0,24.66,61.1
1736.0,24.58,59.1
1738.0,24.57,58.5
1740.0,24.5,58.6
1742.0,24.47,58.4
1744.0,24.4,58.1
1746.0,24.34,57.6
1748.0,24.29,57.0
1750.0,24.23,55.8
1752.0,24.19,55.9
1754.0,24.15,55.8
1756.0,24.1,55.8
1758.0,24.05,57.4
1760.0,23.98,58.5
1762.0,23.92,60.1
1764.0,23.8,60.6
1766.0,23.75,59.7
1768.0,23.69,59.1
1770.0,23.71,58.0
1772.0,23.66,56.9
1774.0,23.64,56.1
1776.0,23.58,54.6
1778.0,23.55,53.4
1780.0,23.49,53.3
1782.0,23.46,52.4
1784.0,23.41,51.9
1786.0,23.35,52.4
1788.0,23.3,51.6
1790.0,23.27,50.2
1792.0,23.23,48.9
1794.0,23.18,48.2
1796.0,23.13,48.6
1798.0,23.08,49.2
1800.0,23.03,48.3
1802.0,23.0,48.0
1804.0,22.89,48.3
1806.0,22.85,48.6
1808.0,22.83,49.1
1810.0,22.8,52.0
1812.0,22.79,52.7
1814.0,22.78,52.5
1816.0,22.73,52.1
1818.0,22.69,51.1
1820.0,22.63,50.0
1822.0,22.61,49.5
1824.0,22.56,49.8
1826.0,22.53,48.7
1828.0,22.49,48.7
1830.0,22.44,47.9
1832.0,22.39,47.1
1834.0,22.36,47.3
1836.0,22.32,46.5
1838.0,22.3,45.6
1840.0,22.26,45.5
1842.0,22.16,44.6
1844.0,22.11,44.0
1846.0,22.07,42.4
1848.0,22.04,42.7
1850.0,21.99,42.0
1852.0,22.04,42.0
1854.0,22.01,42.0
1856.0,21.99,42.6
1858.0,21.96,41.4
1860.0,21.94,40.7
1862.0,21.88,40.4
1864.0,21.86,39.7
1866.0,21.84,39.5
1868.0,21.82,39.7
1870.0,21.79,39.8
1872.0,21.75,39.2
1874.0,21.72,39.3
1876.0,21.69,39.6
1878.0,21.67,39.2
1880.0,21.64,39.2
1882.0,21.61,39.0
1884.0,21.58,37.6
1886.0,21.45,36.8
1888.0,21.42,36.9
1890.0,21.39,36.8
1892.0,21.39,37.0
1894.0,21.44,36.8
1896.0,21.41,36.5
1898.0,21.39,35.5
1900.0,21.35,36.7
1902.0,21.34,36.6
1904.0,21.31,36.0
1906.0,21.3,36.4
1908.0,21.27,36.3
1910.0,21.25,35.1
1912.0,21.23,36.2
1914.0,21.2,36.4
1916.0,21.19,36.9
1918.0,21.17,36.9
1920.0,21.14,36.7
1922.0,21.08,35.1
1924.0,21.03,34.1
1926.0,20.93,34.5
1928.0,20.94,36.0
1930.0,20.91,37.2
1932.0,20.91,38.2
1934.0,20.94,38.3
1936.0,20.94,38.6
1938.0,20.92,37.0
1940.0,20.87,35.9
1942.0,20.86,34.7
1944.0,20.85,34.7
1946.0,20.83,34.7
1948.0,20.81,35.8
1950.0,20.8,35.8
1952.0,20.77,34.6
1954.0,20.74,34.3
1956.0,20.72,33.8
1958.0,20.72,32.5
1960.0,20.71,31.4
1962.0,20.68,31.0
1964.0,20.67,30.2
1966.0,20.63,28.8
1968.0,20.53,27.8
1970.0,20.52,26.5
1972.0,20.48,25.9
1974.0,20.5,25.8
1976.0,20.44,25.3
1978.0,20.5,25.3
1980.0,20.44,24.9
1982.0,20.51,24.4
1984.0,20.45,24.1
1986.0,20.42,24.2
1988.0,20.42,23.8
1990.0,20.4,23.5
1992.0,20.39,24.0
1994.0,20.37,24.6
1996.0,20.34,25.9
1998.0,20.31,26.0
2000.0,20.31,26.5
2002.0,20.28,27.2
2004.0,20.26,26.7
2006.0,20.19,27.1
2008.0,20.16,26.9
2010.0,20.12,27.3
2012.0,20.1,26.5
2014.0,20.08,26.7
2016.0,20.08,26.2
2018.0,20.08,25.1
2020.0,20.09,24.0
2022.0,20.08,23.9
2024.0,20.06,23.9
2026.0,20.04,24.1
2028.0,20.02,23.9
2030.0,20.01,23.8
2032.0,20.0,24.3
2034.0,19.97,23.9
2036.0,19.96,24.7
2038.0,19.94,25.2
2040.0,19.92,25.1
2042.0,19.91,25.5
2044.0,19.9,25.1
2046.0,19.88,25.1
2048.0,19.84,24.9
2050.0,19.81,24.9
2052.0,19.78,25.3
2054.0,19.74,25.5
2056.0,19.7,24.9
2058.0,19.69,24.8
2060.0,19.7,25.0
2062.0,19.74,25.4
2064.0,19.73,25.0
2066.0,19.69,24.8
2068.0,19.67,25.2
2070.0,19.65,25.5
2072.0,19.64,25.4
2074.0,19.62,24.8
2076.0,19.63,25.1
2077.0,19.61,24.8