File: Wood/Calibration_Data/FSRI/FSRI_CAPA_N2_60kW_R1.csv
Time [s],Mass [g],Back Surface Temperature [K],Top Surface Temperature [K]
0,13.1137,296.323,396.361
1,13.1342,296.358,539.481
2,13.1124,296.22,578.571
3,13.0523,296.277,609.505
4,13.0362,296.248,633.552
5,13.0281,296.214,648.489
6,12.9379,296.236,
7,12.9619,296.279,
8,12.9841,296.239,
9,12.9528,296.406,
10,12.9089,296.312,
11,12.8473,296.461,
12,12.845,296.541,
13,12.7946,296.483,
14,12.7452,296.579,
15,12.7314,296.684,
16,12.6598,296.927,
17,12.6551,297.033,
18,12.5991,297.204,
19,12.5214,297.419,
20,12.5016,297.681,
21,12.4459,298.015,
22,12.4132,298.385,
23,12.4125,298.649,
24,12.3528,299.066,
25,12.348,299.514,
26,12.2912,299.969,
27,12.242,300.462,
28,12.2088,300.926,
29,12.1489,301.508,
30,12.1321,302.102,
31,12.0962,302.705,
32,12.0517,303.338,
33,11.9887,304.043,
34,11.9673,304.797,
35,11.9278,305.515,
36,11.882,306.199,
37,11.8327,306.832,
38,11.8082,307.603,
39,11.807,308.29,
40,11.7227,309.093,
41,11.6866,309.875,
42,11.6851,310.647,
43,11.6386,311.447,
44,11.623,312.34,
45,11.5813,313.231,
46,11.5574,313.961,
47,11.5528,314.685,
48,11.4921,315.623,
49,11.4504,316.479,
50,11.4319,317.303,
51,11.4224,318.071,
52,11.3786,318.945,
53,11.3618,319.83,
54,11.311,320.764,
55,11.2524,321.629,
56,11.2463,322.524,
57,11.2134,323.317,
58,11.2226,324.136,
59,11.1825,325.08,
60,11.128,325.923,
61,11.1188,326.737,
62,11.0592,327.722,
63,11.0201,328.517,
64,11.0018,329.366,
65,11.0124,330.206,
66,10.9556,331.052,
67,10.9298,331.914,
68,10.908,332.837,
69,10.8455,333.639,
70,10.8154,334.508,
71,10.768,335.159,
72,10.7549,336.023,
73,10.7592,336.832,
74,10.7376,337.641,
75,10.6947,338.328,
76,10.6733,339.198,
77,10.6527,340.011,
78,10.5879,340.728,
79,10.6025,341.433,
80,10.5458,342.32,
81,10.4662,342.987,
82,10.5216,343.719,
83,10.5004,344.548,
84,10.425,345.212,
85,10.4103,345.948,
86,10.4384,346.602,
87,10.3713,347.32,
88,10.328,347.984,
89,10.3216,348.608,
90,10.2939,349.253,
91,10.2641,349.972,
92,10.2101,350.505,
93,10.1431,351.109,
94,10.1609,351.766,
95,10.159,352.337,
96,10.1491,353.024,
97,10.1004,353.6,
98,10.0998,354.131,
99,10.0423,354.432,
100,9.96048,354.83,
101,9.93435,355.2,
102,9.92059,355.481,
103,9.9079,355.716,
104,9.90713,356.03,
105,9.88724,356.236,
106,9.85931,356.553,
107,9.86097,356.724,
108,9.8377,356.875,
109,9.7864,356.941,
110,9.76372,357.039,
111,9.74229,357.141,
112,9.70408,357.268,
113,9.68262,357.438,
114,9.69764,357.507,
115,9.64785,357.506,
116,9.59317,357.704,
117,9.56882,357.828,
118,9.53533,357.871,
119,9.54338,357.97,
120,9.50891,358.094,
121,9.48626,358.189,
122,9.46775,358.333,
123,9.42781,358.393,
124,9.39681,358.519,
125,9.37224,358.585,
126,9.35416,358.689,
127,9.35385,358.7,
128,9.33771,358.862,
129,9.28734,358.969,
130,9.26512,359.173,
131,9.2278,359.299,
132,9.22205,359.512,
133,9.18818,359.709,
134,9.1283,359.829,
135,9.14705,360.096,
136,9.11784,360.231,
137,9.09726,360.383,
138,9.08785,360.714,
139,9.04404,360.911,
140,9.02008,361.2,
141,9.0079,361.419,
142,8.98414,361.684,
143,8.97208,362.1,
144,8.92576,362.28,
145,8.90172,362.637,
146,8.90326,362.983,
147,8.87456,363.267,
148,8.85264,363.534,
149,8.82193,364.045,
150,8.78667,364.396,
151,8.74411,364.778,
152,8.7245,365.229,
153,8.76206,365.695,
154,8.75272,366.208,
155,8.7292,366.755,
156,8.7244,367.255,
157,8.66625,367.968,
158,8.61928,368.528,
159,8.60529,369.21,
160,8.55056,369.79,
161,8.5552,370.37,
162,8.5866,370.969,
163,8.54443,371.752,
164,8.53758,372.515,
165,8.53265,373.214,
166,8.46199,373.972,
167,8.41322,374.774,
168,8.42271,375.648,
169,8.38915,376.581,
170,8.37665,377.325,
171,8.35407,378.334,
172,8.32062,379.121,
173,8.32351,379.855,
174,8.34235,380.84,
175,8.29618,381.664,
176,8.24797,382.573,
177,8.24827,383.626,
178,8.22432,384.521,
179,8.24018,385.782,
180,8.17959,386.662,
181,8.13374,387.616,
182,8.09892,388.437,
183,8.11725,389.42,
184,8.1381,390.247,
185,8.09895,391.299,
186,8.08129,392.52,
187,8.07197,393.42,
188,8.03296,394.334,
189,7.99326,395.204,
190,7.9708,395.98,
191,7.97614,396.673,
192,7.96998,397.683,
193,7.94158,398.597,
194,7.88627,399.716,
195,7.8644,400.722,
196,7.88129,401.693,
197,7.8488,402.331,
198,7.81414,403.26,
199,7.791,404.032,
200,7.76607,404.757,
201,7.73454,406.092,
202,7.67684,407.211,
203,7.67113,407.932,
204,7.67947,407.904,
205,7.67782,409.251,
206,7.67528,410.047,
207,7.67617,411.187,
208,7.65044,411.726,
209,7.62296,412.583,
210,7.56275,412.99,
211,7.53005,414.041,
212,7.5106,414.153,
213,7.50842,415.344,
214,7.5031,415.718,
215,7.4945,416.16,
216,7.48936,416.858,
217,7.45916,417.815,
218,7.37271,418.205,
219,7.35474,419.354,
220,7.33678,420.388,
221,7.31445,420.797,
222,7.31377,421.083,
223,7.29183,422.295,
224,7.26498,423.039,
225,7.24066,423.037,
226,7.23425,423.702,
227,7.22213,424.665,
228,7.18366,424.921,
229,7.18199,425.905,
230,7.17027,426.659,
231,7.1279,425.661,
232,7.08917,426.4031,
233,7.04349,427.237,
234,6.96461,428.866,
235,6.96029,429.372,
236,6.97275,429.977,
237,6.98521,430.405,
238,6.95332,430.31,
239,6.90749,431.525,
240,6.89151,432.018,
241,6.87372,433.072,
242,6.85326,432.673,
243,6.83744,433.497,
244,6.83125,433.362,
245,6.81595,435.019,
246,6.77111,435.948,
247,6.70009,436.074,
248,6.66112,436.016,
249,6.68677,436.176,
250,6.64652,436.987,
251,6.65208,437.113,
252,6.6618,436.641,
253,6.62125,438.407,
254,6.59809,438.568,
255,6.58447,439.19,
256,6.5487,440.001,
257,6.54221,440.218,
258,6.52111,440.394,
259,6.51855,439.216,
260,6.4658,441.368,
261,6.4256,441.422,
262,6.42835,442.178,
263,6.3962,442.685,
264,6.34287,442.502,
265,6.34682,443.409,
266,6.33525,443.796,
267,6.29778,443.367,
268,6.3018,441.916,
269,6.25345,442.126,
270,6.2285,444.052,
271,6.21523,440.632,
272,6.16827,443.885,
273,6.18035,445.592,
274,6.16218,444.995,
275,6.11961,442.281,
276,6.08092,443.152,
277,6.03732,446.036,
278,6.06152,442.668,
279,6.05464,442.941,
280,6.03134,445.521,
281,6.01369,445.892,
282,5.99869,444.429,
283,5.97019,444.1531,
284,5.95638,445.0845,
285,5.92856,445.8,
286,5.90477,447.0672,
287,5.87451,447.9578,
288,5.88191,446.0511,
289,5.83871,445.7812,
290,5.82989,446.9827,
291,5.81737,446.328,
292,5.77498,447.507,
293,5.72567,448.744,
294,5.70833,448.199,
295,5.71876,447.276,
296,5.71076,449.762,
297,5.66776,449.522,
298,5.65842,450.446,
299,5.62644,447.695,
300,5.60744,447.811,
301,5.60173,447.932,
302,5.5574,450.16,
303,5.52078,447.87,
304,5.4888,448.731,
305,5.49706,448.806,
306,5.45983,448.465,
307,5.44552,451.491,
308,5.47018,450.885,
309,5.45221,449.538,
310,5.40879,449.594,
311,5.37531,451.224,
312,5.36309,453.315,
313,5.36568,452.736,
314,5.30336,453.639,
315,5.28052,453.389,
316,5.25201,453.632,
317,5.25458,454.109,
318,5.26,452.936,
319,5.23088,454.881,
320,5.21647,454.926,
321,5.20964,454.445,
322,5.18195,453.862,
323,5.17694,454.137,
324,5.14486,453.961,
325,5.1463,455.773,
326,5.12189,456.366,
327,5.0802,456.848,
328,5.08936,456.716,
329,5.07897,456.384,
330,5.0431,457.351,
331,5.02739,456.924,
332,5.01204,458.449,
333,5.01151,458.992,
334,4.97846,458.848,
335,4.93709,458.857,
336,4.94003,458.698,
337,4.93064,457.741,
338,4.91739,459.571,
339,4.88001,460.442,
340,4.84734,460.337,
341,4.84908,458.099,
342,4.80311,460.357,
343,4.78098,460.027,
344,4.8017,459.407,
345,4.76434,458.636,
346,4.706,460.432,
347,4.73943,461.757,
348,4.72464,461.236,
349,4.71566,461.416,
350,4.71237,462.039,
351,4.72484,462.552,
352,4.69208,462.564,
353,4.66492,463.208,
354,4.65061,463.898,
355,4.61334,464.964,
356,4.56712,463.651,
357,4.56282,463.487,
358,4.6004,463.924,
359,4.60369,465.081,
360,4.57173,464.864,
361,4.56673,465.24,
362,4.54742,466.894,
363,4.50719,467.738,
364,4.4644,466.347,
365,4.44453,466.618,
366,4.43593,465.729,
367,4.44486,465.998,
368,4.46235,467.848,
369,4.43837,467.887,
370,4.38735,467.422,
371,4.41055,468.238,
372,4.40271,467.952,
373,4.34992,468.196,
374,4.34048,468.005,
375,4.3471,467.529,
376,4.29274,469.387,
377,4.2837,469.295,
378,4.31772,469.992,
379,4.30658,470.477,
380,4.28572,470.111,
381,4.28612,470.418,
382,4.23275,470.873,
383,4.22657,471.532,
384,4.19049,471.667,
385,4.13927,472.157,
386,4.15616,471.762,
387,4.14202,471.843,
388,4.1439,471.913,
389,4.15486,472.496,
390,4.15351,472.392,
391,4.15089,473.121,
392,4.11584,473.562,
393,4.10732,473.477,
394,4.10104,473.451,
395,4.11763,473.595,
396,4.0974,472.633,
397,4.06384,472.231,
398,4.04404,473.331,
399,4.01724,474.491,
400,4.02737,474.477,
401,4.01143,474.7,
402,3.98133,474.536,
403,3.96156,474.216,
404,3.96859,474.705,
405,3.9968,475.134,
406,3.99571,475.964,
407,3.94337,476.212,
408,3.94205,476.656,
409,3.92422,476.719,
410,3.8874,477.275,
411,3.8967,476.466,
412,3.85518,477.066,
413,3.83402,477.476,
414,3.85839,477.89,
415,3.82158,477.583,
416,3.82385,478.239,
417,3.83084,477.673,
418,3.85831,478.476,
419,3.82237,478.262,
420,3.77221,478.745,
421,3.79326,478.614,
422,3.8151,478.875,
423,3.79468,479.333,
424,3.74635,479.289,
425,3.72884,479.18,
426,3.70412,479.714,
427,3.68099,479.9,
428,3.71402,479.447,
429,3.72953,480.036,
430,3.70304,479.876,
431,3.69955,479.537,
432,3.71935,480.23,
433,3.68127,480.187,
434,3.62534,480.252,
435,3.65298,480.714,
436,3.67217,480.921,
437,3.64998,481.354,
438,3.60199,481.53,
439,3.62168,481.522,
440,3.64985,481.343,
441,3.632,480.495,
442,3.6146,481.001,
443,3.61081,481.322,
444,3.60393,482.182,
445,3.58423,481.77,
446,3.57268,482.572,
447,3.55402,482.87,
448,3.57049,482.979,
449,3.55474,482.722,
450,3.53014,483.068,
451,3.55308,483.64,
452,3.55472,483.393,
453,3.51883,484.159,
454,3.50715,483.798,
455,3.52098,483.872,
456,3.5191,484.014,
457,3.48696,483.105,
458,3.47519,484.118,
459,3.47441,484.444,
460,3.45027,484.751,
461,3.43877,484.407,
462,3.45141,485.319,
463,3.47197,485.429,
464,3.50196,485.418,
465,3.49989,485.639,
466,3.49066,486.264,
467,3.50077,486.354,
468,3.4703,486.815,
469,3.43257,486.502,
470,3.45582,485.67,
471,3.41903,485.769,
472,3.39343,486.25,
473,3.39771,486.546,
474,3.39963,486.947,
475,3.39302,487.026,
476,3.41185,486.946,
477,3.40045,487.126,
478,3.38928,487.304,
479,3.38656,486.77,
480,3.40187,487.393,
481,3.40931,487.328,
482,3.36332,487.194,
483,3.32709,487.746,
484,3.34133,487.872,
485,3.3717,488.233,
486,3.36235,488.167,
487,3.32461,487.772,
488,3.30706,488.341,
489,3.29812,487.745,
490,3.33934,487.864,
491,3.30464,487.821,
492,3.28858,488.705,
493,3.29663,488.75,
494,3.28325,488.232,
495,3.31467,488.023,
496,3.3205,488.199,
497,3.26894,488.577,
498,3.23625,488.668,
499,3.24578,488.277,
500,3.25311,488.35,
501,3.26355,488.357,
502,3.24625,489.332,
503,3.1981,489.929,
504,3.21255,489.897,
505,3.24334,488.919,
506,3.25286,489.727,
507,3.22149,489.966,
508,3.27286,490.424,
509,3.24909,489.742,
510,3.16614,489.749,
511,3.20914,489.728,
512,3.21767,490.184,
513,3.19923,490.172,
514,3.23778,490.573,
515,3.22748,489.806,
516,3.22292,489.874,
517,3.21977,490.115,
518,3.20862,490.358,
519,3.1931,490.322,
520,3.16193,490.5,
521,3.18628,490.778,
522,3.18466,490.56,
523,3.14314,491.251,
524,3.14539,491.718,
525,3.15242,491.114,
526,3.15367,490.965,
527,3.13131,490.793,
528,3.13828,491.025,
529,3.16064,491.343,
530,3.1594,491.717,
531,3.15741,491.788,
532,3.15009,491.616,
533,3.15962,491.955,
534,3.14662,491.726,
535,3.12593,491.893,
536,3.12732,492.031,
537,3.10721,492.059,
538,3.09851,492.538,
539,3.11035,492.635,
540,3.12584,492.454,
541,3.10765,492.725,
542,3.07498,492.934,
543,3.0863,492.995,
544,3.09011,493.29,
545,3.09141,493.473,
546,3.12315,493.867,
547,3.11622,493.484,
548,3.09477,493.57,
549,3.12617,493.684,
550,3.1379,493.629,
551,3.13268,493.182,
552,3.11411,493.311,
553,3.06635,493.582,
554,3.07889,493.58,
555,3.07385,493.747,
556,3.08425,493.781,
557,3.08747,493.822,
558,3.04614,493.392,
559,3.03953,493.661,
560,3.08034,493.97,
561,3.05433,494.012,
562,3.0687,494.055,
563,3.09098,494.253,
564,3.02864,494.019,
565,3.01739,494.299,
566,3.05884,494.384,
567,3.06998,494.427,
568,3.07278,494.296,
569,3.05265,494.212,
570,3.03228,494.994,
571,3.049,495.289,
572,3.03941,495.334,
573,3.04891,494.642,
574,3.0622,494.317,
575,3.063,494.426,
576,3.04792,495.069,
577,3.05559,494.693,
578,3.01565,495.025,
579,3.00826,495.337,
580,3.01889,495.398,
581,3.03332,495.525,
582,3.02947,495.198,
583,3.04347,495.47,
584,3.04873,495.662,
585,3.01946,495.463,
586,3.01362,496.079,
587,3.02387,496.467,
588,2.96836,496.02,
589,2.98217,495.15,
590,3.02914,495.51,
591,2.98347,495.657,
592,2.98907,495.826,
593,3.041,496.062,
594,3.02682,496.031,
595,3.05291,496.2456,
596,3.04262,496.251,
597,3.00877,496.205,
598,2.99833,496.154,
599,3.01447,496.343,
600,3.0315,496.324,
601,3.00309,496.356,1024.08
602,2.97801,496.657,1021.88
603,2.95893,496.425,1019.89
604,2.98935,496.488,1019.79
605,3.00108,496.337,1016.65
606,2.98707,496.023,1025.23
607,2.9817,496.53,1020
608,2.94142,496.379,1018.43
609,2.92966,496.203,1023.76
610,2.938,496.085,1023.24
611,2.98285,496.276,1025.23
612,2.95091,496.289,1029.21
613,2.94865,496.588,1026.9
614,2.98683,496.59,1024.29
615,2.98539,496.604,1031.82
616,2.9977,496.402,1040.62
617,2.96889,496.338,1036.64
618,2.90267,496.435,1031.09
619,2.92209,496.676,1023.45
620,2.93103,496.568,1022.61
621,2.93191,496.157,1028.26
622,2.92837,496.047,1028.89
623,2.94572,495.947,1024.39
624,2.91882,496.184,1023.76
625,2.93309,496.884,1029.83
626,2.97562,496.631,1029.1
627,2.96441,496.669,1025.96
628,2.92815,496.3263,1028.68
629,2.89789,496.1905,1024.29
630,2.91682,496.4048,1028.06
631,2.96015,496.5659,1035.07
632,2.93676,496.5312,1025.334
633,2.91195,496.4443,1028.58
634,2.94528,496.6126,1026.9
635,2.93304,496.6003,1031.61
636,2.94687,496.8377,1026.49
637,2.97445,496.5904,1026.59
638,2.96176,496.621,1028.26
639,2.95956,496.66,1024.08
640,2.95635,496.901,1026.28
641,2.90322,496.979,1036.95
642,2.93214,497.158,1027.74
643,2.92167,497.223,1032.03
644,2.87599,497.193,1036.64
645,2.87314,497.212,1035.38
646,2.93895,496.899,1032.45
647,2.9381,496.874,1027.64
648,2.96411,496.991,1025.12
649,2.93975,497.077,1025.54
650,2.89466,497.194,1026.17
651,2.88698,497.212,1031.72
652,2.89078,497.28,1025.44
653,2.89953,497.279,1031.41
654,2.87979,497.403,1032.35
655,2.92726,497.405,1037.58
656,2.93457,497.309,1029.21
657,2.89165,497.241,1036.22
658,2.925,497.254,1032.14
659,2.89022,497.031,1025.86
660,2.88719,497.013,1034.65
661,2.89565,497.614,1024.5
662,2.93212,497.654,1043.23
663,2.92184,497.497,1033.08
664,2.87495,497.425,1036.64
665,2.91056,497.578,1036.85
666,2.87868,497.66,1039.15
667,2.89204,497.747,1027.43
668,2.90564,497.559,1038.52
669,2.89803,497.133,1038.42
670,2.93008,496.66,1030.88
671,2.90662,497.447,1034.34
672,2.89742,497.523,1030.78
673,2.885,497.428,1026.59
674,2.86408,496.989,1029.21
675,2.88875,496.941,1030.15
676,2.87625,496.698,1028.89
677,2.86599,497.345,1034.86
678,2.88566,497.431,1026.28
679,2.87462,497.749,1033.08
680,2.86009,497.833,1029
681,2.86998,497.477,1030.78
682,2.87059,497.525,1039.05
683,2.8434,497.307,1033.39
684,2.86378,497.503,1031.72
685,2.87043,497.764,1028.58
686,2.8716,497.935,1032.35
687,2.88467,497.799,1031.09
688,2.88328,497.786,1033.81
689,2.87245,497.817,1036.43
690,2.84324,497.767,1029.63