File: Wood/Calibration_Data/FSRI/FSRI_DSC_N2_10K_R3.csv
Time (s),Temperature (K),Heat Flow Rate (W/g)
0,324.5,0.024
17.109,325,0.048
27.369,325.5,0.063
35.6106,326,0.079
42.7338,326.5,0.09
49.0644,327,0.102
54.909,327.5,0.112
60.3648,328,0.12
65.5602,328.5,0.125
70.4958,329,0.133
75.2352,329.5,0.14
79.8192,330,0.144
84.3222,330.5,0.15
88.704,331,0.155
92.9862,331.5,0.16
97.1592,332,0.165
101.22,332.5,0.168
105.2154,333,0.172
109.212,333.5,0.174
113.1858,334,0.178
117.1458,334.5,0.18
121.0146,335,0.181
124.8114,335.5,0.185
128.5836,336,0.189
132.3414,336.5,0.189
136.086,337,0.192
139.7994,337.5,0.194
143.4534,338,0.196
147.0882,338.5,0.199
150.7068,339,0.201
154.2936,339.5,0.202
157.8606,340,0.204
161.3964,340.5,0.206
164.9196,341,0.21
168.4416,341.5,0.21
171.9426,342,0.211
175.4046,342.5,0.214
178.8612,343,0.215
182.2836,343.5,0.216
185.7072,344,0.219
189.1248,344.5,0.219
192.5382,345,0.222
195.9222,345.5,0.223
199.2984,346,0.225
202.6518,346.5,0.227
205.9812,347,0.229
209.3082,347.5,0.23
212.6298,348,0.232
215.9244,348.5,0.233
219.2184,349,0.236
222.4938,349.5,0.237
225.7398,350,0.239
229.002,350.5,0.24
232.2378,351,0.242
235.4838,351.5,0.245
238.6896,352,0.244
241.9104,352.5,0.246
245.1264,353,0.248
248.3094,353.5,0.249
251.5386,354,0.249
254.6922,354.5,0.251
257.832,355,0.252
260.9982,355.5,0.255
264.1656,356,0.257
267.3258,356.5,0.256
270.498,357,0.257
273.6492,357.5,0.258
276.7638,358,0.261
279.8958,358.5,0.26
283.0188,359,0.26
286.1202,359.5,0.261
289.2096,360,0.263
292.3008,360.5,0.263
295.3782,361,0.265
298.4364,361.5,0.266
301.5084,362,0.265
304.551,362.5,0.266
307.593,363,0.268
310.6464,363.5,0.268
313.695,364,0.267
316.7358,364.5,0.268
319.7712,365,0.269
322.7952,365.5,0.269
325.8024,366,0.27
328.8144,366.5,0.269
331.8114,367,0.27
334.8144,367.5,0.27
337.8234,368,0.272
340.7916,368.5,0.272
343.7892,369,0.273
346.7694,369.5,0.272
349.7394,370,0.273
352.7052,370.5,0.271
355.6692,371,0.272
358.6446,371.5,0.272
361.5942,372,0.271
364.59,372.5,0.272
367.5432,373,0.273
370.5018,373.5,0.273
373.4634,374,0.274
376.4154,374.5,0.273
379.3416,375,0.273
382.2852,375.5,0.271
385.2294,376,0.274
388.176,376.5,0.272
391.1442,377,0.274
394.1094,377.5,0.274
397.0452,378,0.275
399.978,378.5,0.274
402.8958,379,0.274
405.8088,379.5,0.274
408.7098,380,0.273
411.6234,380.5,0.275
414.549,381,0.275
417.4704,381.5,0.276
420.3966,382,0.275
423.315,382.5,0.275
426.2298,383,0.274
429.132,383.5,0.274
432.0432,384,0.274
434.9604,384.5,0.275
437.8584,385,0.275
440.769,385.5,0.274
443.6754,386,0.275
446.5746,386.5,0.276
449.4588,387,0.273
452.361,387.5,0.276
455.2662,388,0.274
458.1876,388.5,0.275
461.1234,389,0.277
464.0508,389.5,0.275
466.968,390,0.275
469.8636,390.5,0.276
472.7616,391,0.278
475.6668,391.5,0.278
478.5672,392,0.277
481.4712,392.5,0.277
484.3818,393,0.277
487.2876,393.5,0.277
490.1814,394,0.277
493.083,394.5,0.277
495.9678,395,0.277
498.8514,395.5,0.277
501.744,396,0.278
504.63,396.5,0.279
507.5106,397,0.279
510.3864,397.5,0.278
513.2658,398,0.28
516.141,398.5,0.28
519.024,399,0.279
521.9022,399.5,0.279
524.7786,400,0.28
527.6562,400.5,0.28
530.5332,401,0.28
533.4144,401.5,0.283
536.2884,402,0.282
539.1606,402.5,0.284
542.0334,403,0.284
544.9026,403.5,0.285
547.7586,404,0.284
550.6164,404.5,0.285
553.4802,405,0.286
556.3308,405.5,0.286
559.2024,406,0.285
562.0662,406.5,0.286
564.9354,407,0.287
567.8034,407.5,0.289
570.666,408,0.289
573.525,408.5,0.289
576.3822,409,0.29
579.2466,409.5,0.289
582.0936,410,0.289
584.9508,410.5,0.29
587.8224,411,0.292
590.6754,411.5,0.291
593.5392,412,0.293
596.3994,412.5,0.293
599.2578,413,0.294
602.1,413.5,0.295
604.9428,414,0.296
607.776,414.5,0.296
610.6242,415,0.294
613.4712,415.5,0.293
616.3164,416,0.296
619.1604,416.5,0.296
622.0122,417,0.295
624.8544,417.5,0.297
627.693,418,0.297
630.5412,418.5,0.298
633.372,419,0.297
636.2124,419.5,0.299
639.0522,420,0.299
641.8944,420.5,0.3
644.7486,421,0.301
647.6058,421.5,0.301
650.4498,422,0.301
653.295,422.5,0.302
656.1318,423,0.302
658.9668,423.5,0.304
661.7952,424,0.304
664.6272,424.5,0.303
667.4676,425,0.305
670.308,425.5,0.306
673.14,426,0.306
675.9684,426.5,0.307
678.7962,427,0.307
681.6342,427.5,0.308
684.456,428,0.309
687.2964,428.5,0.31
690.1452,429,0.312
692.9796,429.5,0.313
695.82,430,0.313
698.6544,430.5,0.314
701.4864,431,0.313
704.2974,431.5,0.315
707.1282,432,0.314
709.965,432.5,0.316
712.7988,433,0.317
715.626,433.5,0.317
718.4322,434,0.318
721.2558,434.5,0.32
724.0794,435,0.32
726.9204,435.5,0.321
729.7782,436,0.321
732.6162,436.5,0.323
735.4458,437,0.322
738.2712,437.5,0.322
741.0966,438,0.323
743.934,438.5,0.327
746.7696,439,0.327
749.6046,439.5,0.327
752.445,440,0.326
755.2854,440.5,0.328
758.127,441,0.328
760.965,441.5,0.328
763.803,442,0.33
766.6224,442.5,0.33
769.4376,443,0.333
772.2624,443.5,0.337
775.092,444,0.336
777.9288,444.5,0.339
780.768,445,0.338
783.6096,445.5,0.34
786.4434,446,0.339
789.267,446.5,0.339
792.0816,447,0.34
794.9016,447.5,0.342
797.7312,448,0.341
800.568,448.5,0.343
803.3964,449,0.342
806.2476,449.5,0.343
809.0772,450,0.343
811.9014,450.5,0.344
814.734,451,0.345
817.5672,451.5,0.347
820.4016,452,0.347
823.2336,452.5,0.347
826.0656,453,0.349
828.894,453.5,0.348
831.7206,454,0.347
834.5466,454.5,0.347
837.3762,455,0.349
840.207,455.5,0.35
843.0366,456,0.35
845.862,456.5,0.35
848.6754,457,0.349
851.5092,457.5,0.351
854.331,458,0.352
857.1408,458.5,0.353
859.9794,459,0.354
862.8102,459.5,0.355
865.6332,460,0.355
868.4778,460.5,0.356
871.3164,461,0.358
874.1448,461.5,0.359
876.978,462,0.359
879.8142,462.5,0.36
882.6342,463,0.36
885.4578,463.5,0.36
888.282,464,0.362
891.114,464.5,0.361
893.943,465,0.361
896.7726,465.5,0.363
899.598,466,0.363
902.418,466.5,0.364
905.2476,467,0.364
908.079,467.5,0.366
910.911,468,0.367
913.7394,468.5,0.367
916.572,469,0.368
919.3998,469.5,0.369
922.2084,470,0.368
925.035,470.5,0.369
927.8712,471,0.371
930.7032,471.5,0.37
933.5538,472,0.371
936.3972,472.5,0.372
939.2328,473,0.376
942.0534,473.5,0.376
944.8788,474,0.377
947.6964,474.5,0.377
950.5122,475,0.378
953.3346,475.5,0.378
956.1612,476,0.378
958.9926,476.5,0.379
961.8186,477,0.381
964.6452,477.5,0.381
967.4712,478,0.379
970.2894,478.5,0.38
973.1094,479,0.382
975.9354,479.5,0.383
978.765,480,0.385
981.5994,480.5,0.384
984.42,481,0.385
987.249,481.5,0.385
990.0858,482,0.385
992.9112,482.5,0.385
995.751,483,0.388
998.5824,483.5,0.389
1001.415,484,0.391
1004.24,484.5,0.39
1007.08,485,0.391
1009.92,485.5,0.392
1012.74,486,0.392
1015.569,486.5,0.394
1018.4,487,0.395
1021.23,487.5,0.394
1024.06,488,0.398
1026.87,488.5,0.397
1029.67,489,0.397
1032.49,489.5,0.398
1035.3,490,0.398
1038.12,490.5,0.397
1040.97,491,0.399
1043.81,491.5,0.398
1046.64,492,0.398
1049.47,492.5,0.397
1052.3,493,0.399
1055.13,493.5,0.398
1057.96,494,0.401
1060.79,494.5,0.4
1063.623,495,0.402
1066.46,495.5,0.403
1069.3,496,0.402
1072.13,496.5,0.402
1074.97,497,0.402
1077.8,497.5,0.403
1080.63,498,0.403
1083.45,498.5,0.405
1086.26,499,0.405
1089.1,499.5,0.405
1091.93,500,0.406
1094.76,500.5,0.407
1097.613,501,0.407
1100.45,501.5,0.406
1103.29,502,0.406
1106.12,502.5,0.408
1108.94,503,0.409
1111.77,503.5,0.406
1114.599,504,0.406
1117.43,504.5,0.409
1120.28,505,0.41
1123.122,505.5,0.41
1125.96,506,0.41
1128.79,506.5,0.409
1131.63,507,0.412
1134.465,507.5,0.413
1137.29,508,0.412
1140.135,508.5,0.412
1142.97,509,0.412
1145.81,509.5,0.414
1148.64,510,0.413
1151.478,510.5,0.417
1154.32,511,0.417
1157.16,511.5,0.418
1160.01,512,0.419
1162.85,512.5,0.419
1165.68,513,0.419
1168.52,513.5,0.42
1171.347,514,0.417
1174.17,514.5,0.416
1176.996,515,0.417
1179.825,515.5,0.415
1182.66,516,0.416
1185.5,516.5,0.416
1188.35,517,0.415
1191.19,517.5,0.416
1194.024,518,0.418
1196.856,518.5,0.419
1199.697,519,0.418
1202.526,519.5,0.417
1205.35,520,0.418
1208.193,520.5,0.418
1211.03,521,0.416
1213.87,521.5,0.416
1216.71,522,0.418
1219.56,522.5,0.418
1222.4,523,0.42
1225.24,523.5,0.421
1228.08,524,0.417
1230.927,524.5,0.421
1233.74,525,0.42
1236.59,525.5,0.42
1239.44,526,0.421
1242.276,526.5,0.417
1245.117,527,0.419
1247.967,527.5,0.418
1250.79,528,0.419
1253.619,528.5,0.419
1256.46,529,0.417
1259.31,529.5,0.42
1262.15,530,0.42
1265,530.5,0.419
1267.85,531,0.421
1270.69,531.5,0.421
1273.545,532,0.419
1276.4,532.5,0.42
1279.25,533,0.421
1282.086,533.5,0.418
1284.93,534,0.419
1287.76,534.5,0.418
1290.6,535,0.419
1293.45,535.5,0.418
1296.306,536,0.418
1299.16,536.5,0.419
1302.015,537,0.418
1304.86,537.5,0.419
1307.7,538,0.421
1310.55,538.5,0.421
1313.4,539,0.422
1316.24,539.5,0.42
1319.08,540,0.421
1321.93,540.5,0.421
1324.773,541,0.42
1327.61,541.5,0.419
1330.45,542,0.418
1333.31,542.5,0.419
1336.15,543,0.419
1339,543.5,0.42
1341.85,544,0.419
1344.7,544.5,0.421
1347.55,545,0.42
1350.4,545.5,0.419
1353.25,546,0.421
1356.09,546.5,0.42
1358.93,547,0.42
1361.78,547.5,0.421
1364.64,548,0.421
1367.49,548.5,0.421
1370.34,549,0.423
1373.2,549.5,0.421
1376.05,550,0.421
1378.896,550.5,0.423
1381.75,551,0.424
1384.6,551.5,0.425
1387.45,552,0.424
1390.3,552.5,0.424
1393.16,553,0.423
1396.01,553.5,0.422
1398.86,554,0.422
1401.72,554.5,0.423
1404.57,555,0.423
1407.43,555.5,0.422
1410.288,556,0.423
1413.15,556.5,0.423
1416,557,0.424
1418.86,557.5,0.424
1421.72,558,0.423
1424.58,558.5,0.424
1427.44,559,0.423
1430.28,559.5,0.424
1433.14,560,0.425
1435.97,560.5,0.425
1438.83,561,0.425
1441.692,561.5,0.425
1444.57,562,0.426
1447.43,562.5,0.427
1450.3,563,0.428
1453.15,563.5,0.428
1456.01,564,0.426
1458.89,564.5,0.427
1461.75,565,0.429
1464.618,565.5,0.428
1467.48,566,0.431
1470.33,566.5,0.43
1473.18,567,0.431
1476.03,567.5,0.43
1478.9,568,0.43
1481.76,568.5,0.43
1484.64,569,0.431
1487.52,569.5,0.432
1490.38,570,0.43
1493.24,570.5,0.432
1496.11,571,0.432
1498.97,571.5,0.432
1501.836,572,0.436
1504.692,572.5,0.437
1507.55,573,0.437
1510.416,573.5,0.437
1513.275,574,0.44
1516.14,574.5,0.442
1519,575,0.443
1521.867,575.5,0.444
1524.735,576,0.445
1527.6,576.5,0.446
1530.48,577,0.449
1533.35,577.5,0.451
1536.21,578,0.452
1539.06,578.5,0.454
1541.928,579,0.457
1544.79,579.5,0.46
1547.66,580,0.46
1550.52,580.5,0.462
1553.385,581,0.461
1556.24,581.5,0.463
1559.1,582,0.466
1561.96,582.5,0.468
1564.82,583,0.47
1567.69,583.5,0.469
1570.557,584,0.471
1573.44,584.5,0.472
1576.31,585,0.475
1579.18,585.5,0.475
1582.04,586,0.48
1584.9,586.5,0.481
1587.76,587,0.482
1590.633,587.5,0.483
1593.5,588,0.487
1596.37,588.5,0.488
1599.246,589,0.489
1602.11,589.5,0.492
1604.97,590,0.492
1607.847,590.5,0.497
1610.712,591,0.499
1613.58,591.5,0.501
1616.45,592,0.502
1619.32,592.5,0.505
1622.184,593,0.503
1625.06,593.5,0.506
1627.93,594,0.506
1630.8,594.5,0.506
1633.67,595,0.509
1636.54,595.5,0.513
1639.41,596,0.514
1642.28,596.5,0.517
1645.17,597,0.519
1648.06,597.5,0.52
1650.942,598,0.524
1653.83,598.5,0.526
1656.702,599,0.529
1659.58,599.5,0.53
1662.45,600,0.531
1665.33,600.5,0.532
1668.21,601,0.533
1671.09,601.5,0.535
1673.97,602,0.535
1676.84,602.5,0.539
1679.73,603,0.541
1682.62,603.5,0.543
1685.526,604,0.546
1688.418,604.5,0.547
1691.3,605,0.549
1694.19,605.5,0.55
1697.07,606,0.553
1699.96,606.5,0.553
1702.848,607,0.557
1705.737,607.5,0.559
1708.62,608,0.559
1711.51,608.5,0.564
1714.4,609,0.566
1717.29,609.5,0.567
1720.18,610,0.57
1723.07,610.5,0.569
1725.96,611,0.574
1728.85,611.5,0.572
1731.74,612,0.577
1734.63,612.5,0.579
1737.51,613,0.58
1740.38,613.5,0.583
1743.26,614,0.585
1746.14,614.5,0.589
1749.03,615,0.592
1751.95,615.5,0.594
1754.84,616,0.596
1757.73,616.5,0.598
1760.62,617,0.602
1763.51,617.5,0.606
1766.41,618,0.608
1769.29,618.5,0.611
1772.18,619,0.614
1775.07,619.5,0.617
1777.95,620,0.622
1780.84,620.5,0.623
1783.74,621,0.631
1786.62,621.5,0.632
1789.51,622,0.635
1792.4,622.5,0.641
1795.31,623,0.645
1798.209,623.5,0.649
1801.11,624,0.654
1804.014,624.5,0.659
1806.92,625,0.663
1809.819,625.5,0.668
1812.72,626,0.673
1815.615,626.5,0.679
1818.51,627,0.683
1821.39,627.5,0.69
1824.28,628,0.693
1827.2,628.5,0.698
1830.09,629,0.705
1833.01,629.5,0.713
1835.94,630,0.718
1838.847,630.5,0.725
1841.775,631,0.729
1844.7,631.5,0.735
1847.61,632,0.741
1850.52,632.5,0.748
1853.43,633,0.753
1856.346,633.5,0.759
1859.259,634,0.764
1862.175,634.5,0.771
1865.1,635,0.775
1868.01,635.5,0.783
1870.93,636,0.785
1873.86,636.5,0.792
1876.77,637,0.798
1879.68,637.5,0.801
1882.6,638,0.805
1885.52,638.5,0.809
1888.43,639,0.813
1891.34,639.5,0.818
1894.248,640,0.819
1897.15,640.5,0.819
1900.06,641,0.821
1902.97,641.5,0.822
1905.87,642,0.821
1908.76,642.5,0.821
1911.65,643,0.822
1914.546,643.5,0.82
1917.43,644,0.815
1920.32,644.5,0.81
1923.24,645,0.805
1926.12,645.5,0.798
1929.01,646,0.793
1931.883,646.5,0.782
1934.76,647,0.774
1937.63,647.5,0.763
1940.5,648,0.754
1943.39,648.5,0.739
1946.26,649,0.724
1949.14,649.5,0.711
1952,650,0.694
1954.86,650.5,0.677
1957.716,651,0.658
1960.563,651.5,0.637
1963.416,652,0.62
1966.28,652.5,0.599
1969.13,653,0.576
1971.99,653.5,0.553
1974.837,654,0.531
1977.69,654.5,0.507
1980.54,655,0.479
1983.387,655.5,0.457
1986.237,656,0.433
1989.09,656.5,0.408
1991.94,657,0.381
1994.787,657.5,0.359
1997.616,658,0.337
2000.47,658.5,0.311
2003.32,659,0.289
2006.169,659.5,0.27
2009.03,660,0.247
2011.91,660.5,0.23
2014.77,661,0.211
2017.644,661.5,0.195
2020.51,662,0.18
2023.38,662.5,0.166
2026.25,663,0.156
2029.12,663.5,0.142
2032,664,0.133
2034.87,664.5,0.122
2037.77,665,0.114
2040.66,665.5,0.109
2043.56,666,0.101
2046.47,666.5,0.097
2049.37,667,0.094
2052.28,667.5,0.087
2055.19,668,0.085
2058.09,668.5,0.083
2060.98,669,0.08
2063.88,669.5,0.079
2066.79,670,0.078
2069.71,670.5,0.077
2072.637,671,0.075
2075.57,671.5,0.074
2078.49,672,0.072
2081.42,672.5,0.07
2084.33,673,0.068
2087.25,673.5,0.067
2090.17,674,0.067
2093.082,674.5,0.065
2096,675,0.059
2098.93,675.5,0.058
2101.854,676,0.058
2104.77,676.5,0.055
2107.7,677,0.054
2110.62,677.5,0.052
2113.52,678,0.049
2116.434,678.5,0.049
2119.362,679,0.049
2122.27,679.5,0.048
2125.2,680,0.044
2128.14,680.5,0.043
2131.07,681,0.042
2134,681.5,0.042
2136.94,682,0.04
2139.86,682.5,0.039
2142.77,683,0.038
2145.687,683.5,0.038
2148.6,684,0.034
2151.5,684.5,0.036
2154.42,685,0.034
2157.34,685.5,0.031
2160.27,686,0.029
2163.19,686.5,0.029
2166.108,687,0.03
2169.03,687.5,0.026
2171.95,688,0.025
2174.87,688.5,0.025
2177.79,689,0.023
2180.7,689.5,0.023
2183.63,690,0.022
2186.56,690.5,0.021
2189.48,691,0.018
2192.43,691.5,0.016
2195.35,692,0.017
2198.28,692.5,0.014
2201.21,693,0.013
2204.13,693.5,0.014
2207.064,694,0.015
2210,694.5,0.012
2212.93,695,0.012
2215.86,695.5,0.009
2218.8,696,0.008
2221.73,696.5,0.007
2224.66,697,0.006
2227.59,697.5,0.005
2230.52,698,0.004
2233.452,698.5,0.005
2236.395,699,0.004
2239.3,699.5,0.004
2242.22,700,0.004
2245.16,700.5,0.005
2248.09,701,0.005
2251.05,701.5,0.004
2254.01,702,0.005
2256.945,702.5,0.005
2259.882,703,0.007
2262.81,703.5,0.005
2265.75,704,0.005
2268.69,704.5,0.005
2271.633,705,0.006
2274.57,705.5,0.004
2277.51,706,0.007
2280.444,706.5,0.006
2283.381,707,0.005
2286.315,707.5,0.008
2289.25,708,0.008
2292.19,708.5,0.007
2295.12,709,0.006
2298.06,709.5,0.006
2300.99,710,0.008
2303.93,710.5,0.006
2306.86,711,0.006
2309.78,711.5,0.007
2312.724,712,0.008
2315.66,712.5,0.009
2318.61,713,0.01
2321.57,713.5,0.01
2324.52,714,0.012
2327.47,714.5,0.01
2330.41,715,0.01
2333.36,715.5,0.017
2336.31,716,0.015
2339.244,716.5,0.022
2342.18,717,0.023
2345.121,717.5,0.025
2348.06,718,0.025
2351,718.5,0.027
2353.95,719,0.028
2356.88,719.5,0.027
2359.83,720,0.03
2362.77,720.5,0.029
2365.72,721,0.03
2368.67,721.5,0.031
2371.617,722,0.032
2374.55,722.5,0.032
2377.5,723,0.037
2380.44,723.5,0.034
2383.39,724,0.036
2386.34,724.5,0.038
2389.3,725,0.038
2392.24,725.5,0.037
2395.19,726,0.04
2398.14,726.5,0.042
2401.1,727,0.044
2404.059,727.5,0.045
2407.01,728,0.049
2409.95,728.5,0.044
2412.897,729,0.045
2415.843,729.5,0.042
2418.8,730,0.043
2421.75,730.5,0.046
2424.69,731,0.047
2427.63,731.5,0.047
2430.59,732,0.048
2433.55,732.5,0.052
2436.51,733,0.053
2439.46,733.5,0.053
2442.408,734,0.054
2445.35,734.5,0.058
2448.32,735,0.058
2451.28,735.5,0.058
2454.25,736,0.06
2457.21,736.5,0.064
2460.16,737,0.065
2463.111,737.5,0.067
2466.06,738,0.067
2469.02,738.5,0.071
2471.97,739,0.068
2474.92,739.5,0.069
2477.88,740,0.068
2480.84,740.5,0.073
2483.8,741,0.07
2486.75,741.5,0.069
2489.7,742,0.071
2492.64,742.5,0.071
2495.592,743,0.072
2498.54,743.5,0.074
2501.49,744,0.075
2504.45,744.5,0.075
2507.4,745,0.077
2510.37,745.5,0.079
2513.33,746,0.079
2516.29,746.5,0.079
2519.24,747,0.081
2522.184,747.5,0.082
2525.13,748,0.082
2528.07,748.5,0.083
2531.02,749,0.086
2533.977,749.5,0.088
2536.926,750,0.089
2539.89,750.5,0.087
2542.86,751,0.09
2545.82,751.5,0.091
2548.79,752,0.09
2551.75,752.5,0.093
2554.698,753,0.095
2557.65,753.5,0.094
2560.61,754,0.095
2563.56,754.5,0.095
2566.5,755,0.094
2569.46,755.5,0.095
2572.42,756,0.094
2575.377,756.5,0.098
2578.36,757,0.098
2581.33,757.5,0.099
2584.29,758,0.096
2587.242,758.5,0.099
2590.2,759,0.098
2593.15,759.5,0.098
2596.11,760,0.101
2599.077,760.5,0.102
2602.03,761,0.097
2604.99,761.5,0.096
2607.96,762,0.099
2610.921,762.5,0.098
2613.888,763,0.099
2616.85,763.5,0.099
2619.81,764,0.1
2622.78,764.5,0.1
2625.744,765,0.1
2628.72,765.5,0.101
2631.69,766,0.102
2634.65,766.5,0.104
2637.62,767,0.105
2640.58,767.5,0.105
2643.543,768,0.104
2646.5,768.5,0.105
2649.45,769,0.105
2652.42,769.5,0.106
2655.38,770,0.106
2658.34,770.5,0.106
2661.32,771,0.11
2664.29,771.5,0.106
2667.264,772,0.106
2670.24,772.5,0.105
2673.21,773,0.105
2676.183,773.5,0.104
2679.156,774,0.105
2682.129,774.5,0.104
2685.11,775,0.107
2688.08,775.5,0.106
2691.06,776,0.104
2694.03,776.5,0.105
2697,777,0.106
2699.98,777.5,0.107
2702.95,778,0.106
2705.916,778.5,0.105
2708.89,779,0.107
2711.841,779.5,0.109
2714.805,780,0.111
2717.775,780.5,0.112
2720.74,781,0.112
2723.74,781.5,0.112
2726.7,782,0.113
2729.67,782.5,0.11
2732.64,783,0.114
2735.586,783.5,0.115
2738.56,784,0.115
2741.53,784.5,0.115
2744.499,785,0.114
2747.49,785.5,0.115
2750.463,786,0.114
2753.44,786.5,0.116
2756.42,787,0.114
2759.41,787.5,0.112
2762.382,788,0.113
2765.35,788.5,0.11
2768.32,789,0.112
2771.29,789.5,0.114
2774.259,790,0.111
2777.23,790.5,0.112
2780.211,791,0.114
2783.172,791.5,0.113
2786.136,792,0.112
2789.106,792.5,0.113
2792.08,793,0.114
2795.064,793.5,0.115
2798.05,794,0.117
2801.02,794.5,0.114
2804,795,0.114
2806.97,795.5,0.114
2809.93,796,0.116
2812.9,796.5,0.116
2815.88,797,0.116
2818.87,797.5,0.117
2821.87,798,0.119
2824.85,798.5,0.118
2827.81,799,0.12
2830.78,799.5,0.118
2833.75,800,0.118
2836.72,800.5,0.118
2839.71,801,0.12
2842.72,801.5,0.117
2845.69,802,0.116
2848.677,802.5,0.117
2851.656,803,0.117
2854.64,803.5,0.115
2857.62,804,0.115
2860.617,804.5,0.114
2863.6,805,0.117
2866.58,805.5,0.117
2869.57,806,0.116
2872.536,806.5,0.115
2875.503,807,0.117
2878.48,807.5,0.116
2881.45,808,0.113
2884.43,808.5,0.115
2887.43,809,0.114
2890.41,809.5,0.114
2893.377,810,0.113
2896.35,810.5,0.114
2899.332,811,0.112
2902.32,811.5,0.112
2905.31,812,0.112
2908.3,812.5,0.112
2911.28,813,0.113
2914.26,813.5,0.114
2917.24,814,0.115
2920.22,814.5,0.116
2923.2,815,0.114
2926.18,815.5,0.115
2929.17,816,0.118
2932.16,816.5,0.118
2935.14,817,0.12
2938.128,817.5,0.12
2941.13,818,0.12
2944.12,818.5,0.122
2947.116,819,0.124
2950.11,819.5,0.125
2953.1,820,0.124
2956.086,820.5,0.125
2959.071,821,0.127
2962.07,821.5,0.127
2965.06,822,0.126
2968.05,822.5,0.13
2971.03,823,0.131
2974.01,823.5,0.13
2976.99,824,0.128
2979.98,824.5,0.13
2982.96,825,0.13
2985.94,825.5,0.13
2988.9,826,0.13
2991.885,826.5,0.129
2994.87,827,0.132
2997.86,827.5,0.129
3000.87,828,0.132
3003.86,828.5,0.132
3006.86,829,0.13
3009.85,829.5,0.129
3012.846,830,0.131
3015.83,830.5,0.13
3018.81,831,0.132
3021.8,831.5,0.131
3024.8,832,0.13
3027.792,832.5,0.13
3030.786,833,0.131
3033.76,833.5,0.128
3036.74,834,0.128
3039.73,834.5,0.13
3042.72,835,0.128
3045.73,835.5,0.129
3048.72,836,0.132
3051.72,836.5,0.128
3054.73,837,0.129
3057.72,837.5,0.129
3060.72,838,0.129
3063.72,838.5,0.128
3066.71,839,0.129
3069.7,839.5,0.131
3072.66,840,0.132
3075.67,840.5,0.129
3078.67,841,0.13
3081.66,841.5,0.129
3084.675,842,0.128
3087.67,842.5,0.129
3090.67,843,0.128
3093.67,843.5,0.131
3096.67,844,0.128
3099.66,844.5,0.13
3102.66,845,0.129
3105.67,845.5,0.126
3108.67,846,0.127
3111.68,846.5,0.126
3114.67,847,0.128
3117.669,847.5,0.125
3120.66,848,0.128
3123.666,848.5,0.125
3126.669,849,0.127
3129.67,849.5,0.126
3132.672,850,0.126
3135.66,850.5,0.126
3138.65,851,0.125
3141.64,851.5,0.127
3144.63,852,0.127
3147.64,852.5,0.127
3150.64,853,0.124
3153.64,853.5,0.123
3156.64,854,0.121
3159.64,854.5,0.121
3162.64,855,0.122
3165.633,855.5,0.123
3168.64,856,0.12
3171.65,856.5,0.117
3174.64,857,0.116
3177.65,857.5,0.118
3180.651,858,0.116
3183.65,858.5,0.113
3186.663,859,0.113
3189.66,859.5,0.113
3192.666,860,0.111
3195.669,860.5,0.114
3198.67,861,0.113
3201.67,861.5,0.113
3204.67,862,0.112
3207.66,862.5,0.115
3210.657,863,0.112
3213.657,863.5,0.11
3216.66,864,0.109
3219.66,864.5,0.109
3222.65,865,0.111
3225.65,865.5,0.108
3228.63,866,0.11
3231.63,866.5,0.109
3234.62,867,0.108
3237.62,867.5,0.107
3240.63,868,0.108
3243.62,868.5,0.108
3246.64,869,0.109
3249.64,869.5,0.111
3252.64,870,0.11
3255.63,870.5,0.11
3258.64,871,0.111
3261.65,871.5,0.112
3264.64,872,0.11
3267.66,872.5,0.11
3270.66,873,0.111
3273.65,873.5,0.109
3276.65,874,0.108
3279.65,874.5,0.108
3282.66,875,0.106
3285.67,875.5,0.108
3288.68,876,0.107
3291.69,876.5,0.105
3294.69,877,0.104
3297.67,877.5,0.105
3300.67,878,0.105
3303.68,878.5,0.104
3306.7,879,0.103
3309.72,879.5,0.103
3312.73,880,0.103
3315.74,880.5,0.099
3318.753,881,0.099
3321.76,881.5,0.102
3324.771,882,0.098
3327.78,882.5,0.098
3330.78,883,0.095
3333.78,883.5,0.098
3336.79,884,0.095
3339.79,884.5,0.098
3342.8,885,0.096
3345.807,885.5,0.098
3348.81,886,0.098
3351.82,886.5,0.098
3354.82,887,0.096
3357.83,887.5,0.097
3360.84,888,0.097
3363.84,888.5,0.093
3366.84,889,0.093
3369.83,889.5,0.093
3372.83,890,0.094
3375.83,890.5,0.093
3378.828,891,0.093
3381.828,891.5,0.093
3384.83,892,0.093
3387.82,892.5,0.092
3390.82,893,0.091
3393.831,893.5,0.091
3396.83,894,0.093
3399.84,894.5,0.094
3402.84,895,0.091
3405.84,895.5,0.091
3408.84,896,0.091
3411.84,896.5,0.091
3414.83,897,0.09
3417.82,897.5,0.089
3420.82,898,0.09
3423.83,898.5,0.09
3426.85,899,0.089
3429.86,899.5,0.089
3432.87,900,0.088
3435.87,900.5,0.086
3438.87,901,0.083
3441.86,901.5,0.085
3444.87,902,0.086
3447.87,902.5,0.085
3450.88,903,0.085
3453.88,903.5,0.085
3456.89,904,0.084
3459.9,904.5,0.084
3462.9,905,0.081
3465.906,905.5,0.083
3468.91,906,0.081
3471.92,906.5,0.08
3474.94,907,0.083
3477.94,907.5,0.085
3480.94,908,0.082
3483.95,908.5,0.081
3486.96,909,0.08
3489.98,909.5,0.082
3493,910,0.083
3496.01,910.5,0.085
3499.02,911,0.083
3502.03,911.5,0.084
3505.04,912,0.084
3508.05,912.5,0.083
3511.05,913,0.082
3514.06,913.5,0.082
3517.07,914,0.077
3520.08,914.5,0.077
3523.08,915,0.079
3526.09,915.5,0.077
3529.1,916,0.079
3532.11,916.5,0.081
3535.113,917,0.079
3538.13,917.5,0.08
3541.13,918,0.082
3544.16,918.5,0.08
3547.16,919,0.079
3550.16,919.5,0.078
3553.19,920,0.08
3556.21,920.5,0.08
3559.25,921,0.08
3562.302,921.5,0.078
3565.32,922,0.077
3568.35,922.5,0.081
3571.38,923,0.082
3574.39,923.5,0.079
3577.41,924,0.081
3580.43,924.5,0.079
3583.46,925,0.08
3586.49,925.5,0.08
3589.53,926,0.081
3592.55,926.5,0.077
3595.58,927,0.077
3598.61,927.5,0.08
3601.63,928,0.078
3604.67,928.5,0.08
3607.7,929,0.079
3610.73,929.5,0.078
3613.76,930,0.079
3616.78,930.5,0.079
3619.8,931,0.076
3622.84,931.5,0.078
3625.86,932,0.079
3628.89,932.5,0.079
3631.92,933,0.08
3634.94,933.5,0.08
3637.96,934,0.081
3640.98,934.5,0.08
3644.01,935,0.077
3647.034,935.5,0.077
3650.06,936,0.079
3653.08,936.5,0.078
3656.11,937,0.079
3659.12,937.5,0.077
3662.14,938,0.075
3665.16,938.5,0.074
3668.18,939,0.076
3671.2,939.5,0.078
3674.22,940,0.077
3677.24,940.5,0.076
3680.26,941,0.076
3683.29,941.5,0.076
3686.31,942,0.072
3689.33,942.5,0.074
3692.35,943,0.072
3695.37,943.5,0.075
3698.39,944,0.075
3701.403,944.5,0.075
3704.41,945,0.076
3707.43,945.5,0.073
3710.45,946,0.072
3713.47,946.5,0.072
3716.51,947,0.074
3719.54,947.5,0.073
3722.57,948,0.071
3725.61,948.5,0.071
3728.63,949,0.073
3731.67,949.5,0.076
3734.7,950,0.074
3737.72,950.5,0.076
3740.76,951,0.076
3743.78,951.5,0.076
3746.8,952,0.076
3749.84,952.5,0.074
3752.87,953,0.075
3755.89,953.5,0.077
3758.928,954,0.075
3761.96,954.5,0.078
3765,955,0.075
3768.04,955.5,0.076
3771.08,956,0.075
3774.11,956.5,0.075
3777.126,957,0.076
3780.15,957.5,0.079
3783.18,958,0.078
3786.21,958.5,0.076
3789.25,959,0.075
3792.29,959.5,0.076
3795.33,960,0.076
3798.36,960.5,0.074
3801.38,961,0.078
3804.41,961.5,0.075
3807.44,962,0.081
3810.471,962.5,0.079
3813.51,963,0.076
3816.54,963.5,0.075
3819.58,964,0.075
3822.61,964.5,0.077
3825.65,965,0.076
3828.69,965.5,0.074
3831.72,966,0.08
3834.77,966.5,0.074
3837.807,967,0.072
3840.85,967.5,0.072
3843.9,968,0.071
3846.94,968.5,0.069
3849.98,969,0.068
3853.01,969.5,0.071
3856.04,970,0.069
3859.06,970.5,0.066
3862.09,971,0.068
3865.12,971.5,0.069
3868.149,972,0.071
3871.18,972.5,0.07
3874.206,973,0.068
3877.23,973.5,0.07
3880.27,974,0.07
3883.3,974.5,0.068
3886.33,975,0.069
3889.37,975.5,0.071
3892.4,976,0.071
3895.44,976.5,0.069
3898.47,977,0.073
3901.506,977.5,0.071
3904.53,978,0.073
3907.56,978.5,0.073
3910.58,979,0.072
3913.61,979.5,0.071
3916.65,980,0.071
3919.68,980.5,0.071
3922.7,981,0.073
3925.73,981.5,0.069
3928.74,982,0.069
3931.77,982.5,0.072
3934.81,983,0.074
3937.84,983.5,0.068
3940.88,984,0.069
3943.91,984.5,0.073
3946.94,985,0.074
3949.96,985.5,0.077
3952.99,986,0.076
3956.02,986.5,0.077
3959.04,987,0.077
3962.06,987.5,0.075
3965.11,988,0.075
3968.14,988.5,0.077
3971.2,989,0.078
3974.268,989.5,0.078
3977.319,990,0.082
3980.37,990.5,0.078
3983.42,991,0.077
3986.48,991.5,0.081
3989.52,992,0.081
3992.57,992.5,0.08
3995.613,993,0.082
3998.66,993.5,0.081
4001.7,994,0.084
4004.74,994.5,0.082
4007.79,995,0.083
4010.83,995.5,0.082
4013.86,996,0.082
4016.89,996.5,0.086
4019.92,997,0.084
4022.943,997.5,0.085
4025.98,998,0.085
4029.03,998.5,0.087
4032.087,999,0.087
4035.13,999.5,0.084
4038.17,1000,0.082
4041.21,1000.5,0.082
4044.25,1001,0.08
4047.3,1001.5,0.082
4050.333,1002,0.081
4053.38,1002.5,0.081
4056.42,1003,0.08
4059.45,1003.5,0.079
4062.51,1004,0.084
4065.555,1004.5,0.084
4068.6,1005,0.083
4071.66,1005.5,0.082
4074.7,1006,0.084
4077.75,1006.5,0.087
4080.79,1007,0.086
4083.83,1007.5,0.085
4086.87,1008,0.085
4089.909,1008.5,0.085
4092.945,1009,0.087
4095.984,1009.5,0.086
4099.02,1010,0.086
4102.06,1010.5,0.083
4105.1,1011,0.084
4108.14,1011.5,0.086
4111.18,1012,0.084
4114.23,1012.5,0.084
4117.28,1013,0.085
4120.31,1013.5,0.088
4123.35,1014,0.089
4126.39,1014.5,0.089
4129.43,1015,0.089
4132.49,1015.5,0.088
4135.53,1016,0.091
4138.581,1016.5,0.088
4141.62,1017,0.091
4144.668,1017.5,0.093
4147.71,1018,0.094
4150.74,1018.5,0.094
4153.78,1019,0.092
4156.81,1019.5,0.093
4159.84,1020,0.094
4162.87,1020.5,0.094
4165.902,1021,0.092
4168.93,1021.5,0.091
4171.968,1022,0.091
4174.99,1022.5,0.093
4178.01,1023,0.091
4181.05,1023.5,0.091
4184.09,1024,0.093
4187.14,1024.5,0.094
4190.19,1025,0.096
4193.232,1025.5,0.092
4196.27,1026,0.097
4199.3,1026.5,0.097
4202.331,1027,0.097
4205.373,1027.5,0.099
4208.403,1028,0.1
4211.448,1028.5,0.097
4214.49,1029,0.096
4217.52,1029.5,0.097
4220.56,1030,0.097
4223.592,1030.5,0.092
4226.63,1031,0.095
4229.68,1031.5,0.093
4232.727,1032,0.097
4235.77,1032.5,0.1
4238.8,1033,0.1
4241.83,1033.5,0.098
4244.87,1034,0.099
4247.9,1034.5,0.099
4250.94,1035,0.102
4253.98,1035.5,0.101
4257.03,1036,0.103
4260.087,1036.5,0.102
4263.14,1037,0.104
4266.19,1037.5,0.101
4269.24,1038,0.102
4272.291,1038.5,0.107
4275.35,1039,0.109
4278.4,1039.5,0.107
4281.46,1040,0.111
4284.52,1040.5,0.111
4287.56,1041,0.111
4290.63,1041.5,0.113
4293.69,1042,0.115
4296.75,1042.5,0.113
4299.83,1043,0.116
4302.89,1043.5,0.117
4305.96,1044,0.115
4309.04,1044.5,0.117
4312.107,1045,0.119
4315.17,1045.5,0.119
4318.23,1046,0.115
4321.29,1046.5,0.119
4324.35,1047,0.116
4327.4,1047.5,0.117
4330.44,1048,0.116
4333.5,1048.5,0.114
4336.551,1049,0.113
4339.61,1049.5,0.12
4342.68,1050,0.12
4345.73,1050.5,0.119
4348.8,1051,0.118
4351.87,1051.5,0.124
4354.94,1052,0.121
4358.01,1052.5,0.12
4361.067,1053,0.122
4364.12,1053.5,0.122
4367.17,1054,0.123
4370.229,1054.5,0.124
4373.28,1055,0.121
4376.34,1055.5,0.121
4379.4,1056,0.119
4382.45,1056.5,0.119
4385.517,1057,0.122
4388.59,1057.5,0.124
4391.65,1058,0.127
4394.73,1058.5,0.127
4397.8,1059,0.129
4400.87,1059.5,0.132
4403.94,1060,0.132
4407.01,1060.5,0.133
4410.069,1061,0.133
4413.123,1061.5,0.13
4416.17,1062,0.135
4419.23,1062.5,0.134
4422.27,1063,0.13
4425.32,1063.5,0.133
4428.363,1064,0.137
4431.41,1064.5,0.134
4434.46,1065,0.137
4437.519,1065.5,0.133
4440.58,1066,0.135
4443.63,1066.5,0.136
4446.684,1067,0.135
4449.72,1067.5,0.137
4452.78,1068,0.134
4455.84,1068.5,0.129
4458.9,1069,0.128
4461.96,1069.5,0.134