File: Wood/Calibration_Data/FSRI/FSRI_Wood_Perpendicular_Cone_25kW_hor_R2.csv
Time,Mass (g),HRRPUA (kW/m2)
0.0,94.03,5.1
2.0,94.27,5.7
4.0,94.3,5.9
6.0,94.26,5.5
8.0,94.25,5.5
10.0,94.21,4.9
12.0,94.19,4.6
14.0,94.22,4.5
16.0,94.17,4.4
18.0,94.15,4.4
20.0,94.12,3.8
22.0,94.08,3.5
24.0,94.05,2.9
26.0,94.02,2.4
28.0,94.0,2.1
30.0,93.98,2.1
32.0,93.95,2.2
34.0,93.93,1.6
36.0,93.88,1.3
38.0,93.84,1.3
40.0,93.78,1.9
42.0,93.76,2.1
44.0,93.74,2.0
46.0,93.7,1.9
48.0,93.67,1.9
50.0,93.72,2.2
52.0,93.7,2.9
54.0,93.68,3.7
56.0,93.66,4.4
58.0,93.63,5.1
60.0,93.6,4.9
62.0,93.58,4.6
64.0,93.56,4.1
66.0,93.53,2.8
68.0,93.52,1.4
70.0,93.48,0.8
72.0,93.44,-0.2
74.0,93.4,-0.4
76.0,93.36,-0.4
78.0,93.31,-0.5
80.0,93.27,0.1
82.0,93.26,0.5
84.0,93.25,0.6
86.0,93.22,0.7
88.0,93.23,0.7
90.0,93.2,0.8
92.0,93.17,0.8
94.0,93.13,0.6
96.0,93.11,0.4
98.0,93.07,0.4
100.0,93.04,0.6
102.0,93.02,1.3
104.0,92.99,2.1
106.0,92.95,3.3
108.0,92.86,3.8
110.0,92.74,4.0
112.0,92.6,4.2
114.0,92.43,4.8
116.0,92.27,5.0
118.0,92.1,6.8
120.0,91.94,18.5
122.0,91.77,33.4
124.0,91.6,52.9
126.0,91.41,71.6
128.0,91.23,90.1
130.0,91.04,112.2
132.0,90.86,127.1
134.0,90.69,138.2
136.0,90.5,145.2
138.0,90.32,147.3
140.0,90.18,149.8
142.0,90.0,148.2
144.0,89.84,152.2
146.0,89.7,149.1
148.0,89.5,149.8
150.0,89.33,141.7
152.0,89.16,141.5
154.0,89.02,137.9
156.0,88.87,133.7
158.0,88.76,129.8
160.0,88.61,127.5
162.0,88.48,127.8
164.0,88.36,122.7
166.0,88.22,121.4
168.0,88.07,118.8
170.0,87.94,117.1
172.0,87.8,114.9
174.0,87.68,113.5
176.0,87.55,111.9
178.0,87.42,109.5
180.0,87.31,107.6
182.0,87.18,105.8
184.0,87.05,102.7
186.0,86.91,100.9
188.0,86.78,98.7
190.0,86.64,97.0
192.0,86.51,95.3
194.0,86.38,95.8
196.0,86.29,94.3
198.0,86.24,92.9
200.0,86.12,90.9
202.0,86.01,88.5
204.0,85.9,85.4
206.0,85.79,83.3
208.0,85.68,84.7
210.0,85.58,81.4
212.0,85.47,81.8
214.0,85.36,80.0
216.0,85.27,79.7
218.0,85.17,79.5
220.0,85.05,77.5
222.0,84.94,78.1
224.0,84.79,76.4
226.0,84.68,76.2
228.0,84.59,76.6
230.0,84.54,75.0
232.0,84.48,72.4
234.0,84.34,70.4
236.0,84.27,71.8
238.0,84.16,71.0
240.0,84.04,70.8
242.0,83.96,72.1
244.0,83.86,70.7
246.0,83.77,70.8
248.0,83.67,69.6
250.0,83.58,70.2
252.0,83.51,67.5
254.0,83.38,68.6
256.0,83.3,66.6
258.0,83.21,67.1
260.0,83.03,67.0
262.0,82.92,65.7
264.0,82.85,64.6
266.0,82.74,64.4
268.0,82.71,63.8
270.0,82.63,62.4
272.0,82.53,63.2
274.0,82.46,63.0
276.0,82.37,63.1
278.0,82.27,62.7
280.0,82.17,61.8
282.0,82.09,60.7
284.0,81.99,61.3
286.0,81.91,60.4
288.0,81.82,59.2
290.0,81.73,59.0
292.0,81.63,58.9
294.0,81.53,58.2
296.0,81.38,57.6
298.0,81.29,57.8
300.0,81.19,57.2
302.0,81.11,57.1
304.0,81.05,56.4
306.0,80.98,55.4
308.0,80.9,55.7
310.0,80.82,54.6
312.0,80.7,55.5
314.0,80.62,55.5
316.0,80.55,56.6
318.0,80.45,54.1
320.0,80.36,54.1
322.0,80.28,54.2
324.0,80.19,54.0
326.0,80.11,54.1
328.0,80.02,53.9
330.0,79.93,53.7
332.0,79.79,54.6
334.0,79.65,54.4
336.0,79.53,54.2
338.0,79.46,53.5
340.0,79.39,52.7
342.0,79.28,53.7
344.0,79.27,52.0
346.0,79.19,52.3
348.0,79.09,51.8
350.0,78.99,51.4
352.0,78.9,51.3
354.0,78.82,50.0
356.0,78.77,49.2
358.0,78.63,49.4
360.0,78.57,48.8
362.0,78.5,49.5
364.0,78.39,48.5
366.0,78.31,48.0
368.0,78.22,47.4
370.0,78.13,48.5
372.0,77.99,48.4
374.0,77.85,47.9
376.0,77.76,47.7
378.0,77.68,48.5
380.0,77.62,49.3
382.0,77.58,49.6
384.0,77.5,49.1
386.0,77.4,48.3
388.0,77.33,46.7
390.0,77.24,46.9
392.0,77.15,45.9
394.0,77.08,45.8
396.0,77.0,44.7
398.0,76.91,45.8
400.0,76.83,46.2
402.0,76.73,46.2
404.0,76.64,46.0
406.0,76.57,45.4
408.0,76.49,45.4
410.0,76.4,44.3
412.0,76.24,44.6
414.0,76.17,45.0
416.0,76.1,44.5
418.0,76.08,44.7
420.0,76.02,44.6
422.0,75.92,44.5
424.0,75.84,44.1
426.0,75.77,43.9
428.0,75.68,43.0
430.0,75.6,43.5
432.0,75.53,42.9
434.0,75.43,43.7
436.0,75.35,42.9
438.0,75.28,41.5
440.0,75.18,42.0
442.0,75.09,42.4
444.0,74.97,43.2
446.0,74.88,43.7
448.0,74.78,43.6
450.0,74.71,42.7
452.0,74.68,42.3
454.0,74.62,42.5
456.0,74.55,42.3
458.0,74.46,41.5
460.0,74.39,42.1
462.0,74.32,41.8
464.0,74.24,41.6
466.0,74.16,41.3
468.0,74.07,40.8
470.0,73.99,40.8
472.0,73.9,39.7
474.0,73.83,39.7
476.0,73.75,40.4
478.0,73.63,40.2
480.0,73.55,40.1
482.0,73.46,40.1
484.0,73.38,39.1
486.0,73.32,38.7
488.0,73.25,38.3
490.0,73.2,38.1
492.0,73.13,38.1
494.0,73.06,38.1
496.0,72.97,38.9
498.0,72.91,38.2
500.0,72.83,37.0
502.0,72.75,36.8
504.0,72.67,36.2
506.0,72.6,36.5
508.0,72.53,36.7
510.0,72.47,37.2
512.0,72.38,37.0
514.0,72.27,36.5
516.0,72.2,36.8
518.0,72.1,37.4
520.0,72.01,37.0
522.0,71.93,37.0
524.0,71.88,36.9
526.0,71.83,37.1
528.0,71.78,37.3
530.0,71.69,37.1
532.0,71.62,37.6
534.0,71.56,35.7
536.0,71.49,36.0
538.0,71.41,35.5
540.0,71.32,35.7
542.0,71.26,35.5
544.0,71.18,34.4
546.0,71.11,33.8
548.0,71.03,33.9
550.0,70.95,33.4
552.0,70.88,32.9
554.0,70.8,32.0
556.0,70.66,31.5
558.0,70.58,32.7
560.0,70.49,31.8
562.0,70.49,32.0
564.0,70.44,32.3
566.0,70.37,31.8
568.0,70.29,32.1
570.0,70.23,32.3
572.0,70.17,32.0
574.0,70.1,32.6
576.0,70.02,33.1
578.0,69.94,32.4
580.0,69.86,32.3
582.0,69.79,31.4
584.0,69.72,31.4
586.0,69.67,30.5
588.0,69.52,30.8
590.0,69.44,30.8
592.0,69.36,30.7
594.0,69.29,30.7
596.0,69.28,31.0
598.0,69.23,31.2
600.0,69.14,31.7
602.0,69.07,31.8
604.0,69.01,31.4
606.0,68.95,30.0
608.0,68.88,29.5
610.0,68.79,28.5
612.0,68.74,28.7
614.0,68.67,28.7
616.0,68.59,28.6
618.0,68.52,28.2
620.0,68.44,27.0
622.0,68.33,24.9
624.0,68.25,23.4
626.0,68.17,22.4
628.0,68.11,21.0
630.0,68.03,20.5
632.0,68.02,19.9
634.0,67.93,19.8
636.0,67.91,20.0
638.0,67.83,20.0
640.0,67.76,20.2
642.0,67.7,20.1
644.0,67.64,19.9
646.0,67.57,19.8
648.0,67.51,20.0
650.0,67.45,20.6
652.0,67.37,20.6
654.0,67.31,21.2
656.0,67.23,21.0
658.0,67.16,20.9
660.0,67.1,20.9
662.0,67.05,21.8
664.0,66.9,22.9
666.0,66.83,23.0
668.0,66.77,23.8
670.0,66.69,24.7
672.0,66.61,23.5
674.0,66.6,22.2
676.0,66.54,22.0
678.0,66.47,22.2
680.0,66.41,22.2
682.0,66.37,22.2
684.0,66.31,22.1
686.0,66.23,22.0
688.0,66.16,22.2
690.0,66.11,21.9
692.0,66.03,21.3
694.0,65.96,21.6
696.0,65.89,21.8
698.0,65.81,22.5
700.0,65.75,22.1
702.0,65.69,22.6
704.0,65.61,22.3
706.0,65.5,22.4
708.0,65.43,23.1
710.0,65.36,23.0
712.0,65.35,23.1
714.0,65.29,23.2
716.0,65.24,22.8
718.0,65.19,22.3
720.0,65.1,22.6
722.0,65.04,22.5
724.0,64.98,22.5
726.0,64.91,22.3
728.0,64.84,22.2
730.0,64.8,21.7
732.0,64.74,21.3
734.0,64.68,21.3
736.0,64.61,20.9
738.0,64.53,21.5
740.0,64.45,21.1
742.0,64.33,20.7
744.0,64.28,20.5
746.0,64.22,19.9
748.0,64.17,20.3
750.0,64.14,21.6
752.0,64.11,21.7
754.0,64.05,21.9
756.0,63.99,22.1
758.0,63.93,22.3
760.0,63.87,22.3
762.0,63.82,22.7
764.0,63.74,23.3
766.0,63.69,23.3
768.0,63.62,23.3
770.0,63.57,23.3
772.0,63.5,22.5
774.0,63.45,22.5
776.0,63.37,22.3
778.0,63.3,22.6
780.0,63.22,22.8
782.0,63.1,22.9
784.0,63.04,22.6
786.0,62.99,22.1
788.0,63.01,22.3
790.0,62.96,22.6
792.0,62.91,22.6
794.0,62.85,22.3
796.0,62.78,21.9
798.0,62.74,21.6
800.0,62.67,21.6
802.0,62.61,20.8
804.0,62.55,21.3
806.0,62.5,21.3
808.0,62.43,21.3
810.0,62.37,21.5
812.0,62.32,20.7
814.0,62.26,20.5
816.0,62.18,19.5
818.0,62.12,19.2
820.0,62.0,19.4
822.0,61.94,19.1
824.0,61.88,19.0
826.0,61.88,19.1
828.0,61.84,18.9
830.0,61.79,18.1
832.0,61.74,18.9
834.0,61.67,19.7
836.0,61.61,19.9
838.0,61.56,19.4
840.0,61.49,19.1
842.0,61.44,19.1
844.0,61.38,19.3
846.0,61.33,19.5
848.0,61.25,19.7
850.0,61.18,19.7
852.0,61.14,19.5
854.0,61.01,20.3
856.0,60.95,20.1
858.0,60.9,20.7
860.0,60.83,20.7
862.0,60.78,21.2
864.0,60.79,21.8
866.0,60.75,21.6
868.0,60.69,21.4
870.0,60.62,21.1
872.0,60.56,20.9
874.0,60.51,20.9
876.0,60.46,18.8
878.0,60.4,18.6
880.0,60.34,18.8
882.0,60.27,19.3
884.0,60.23,20.1
886.0,60.17,21.0
888.0,60.11,21.1
890.0,59.96,21.4
892.0,59.91,21.2
894.0,59.85,21.0
896.0,59.78,21.5
898.0,59.75,22.2
900.0,59.75,22.9
902.0,59.71,23.0
904.0,59.65,23.1
906.0,59.59,23.4
908.0,59.53,23.2
910.0,59.46,23.2
912.0,59.41,23.0
914.0,59.36,22.4
916.0,59.3,22.6
918.0,59.25,22.8
920.0,59.2,22.5
922.0,59.13,22.9
924.0,59.08,23.0
926.0,58.94,22.8
928.0,58.87,22.7
930.0,58.81,23.1
932.0,58.76,23.0
934.0,58.74,22.0
936.0,58.68,21.9
938.0,58.65,21.6
940.0,58.6,21.9
942.0,58.53,21.7
944.0,58.48,21.7
946.0,58.43,22.1
948.0,58.37,22.4
950.0,58.31,22.2
952.0,58.23,21.9
954.0,58.19,21.8
956.0,58.13,21.5
958.0,58.07,21.3
960.0,57.96,21.3
962.0,57.89,21.3
964.0,57.8,21.3
966.0,57.76,21.6
968.0,57.71,21.2
970.0,57.69,20.7
972.0,57.65,22.1
974.0,57.61,22.4
976.0,57.55,22.5
978.0,57.48,23.2
980.0,57.42,23.3
982.0,57.37,23.2
984.0,57.31,23.2
986.0,57.25,22.9
988.0,57.18,23.0
990.0,57.14,23.4
992.0,57.07,23.0
994.0,57.01,22.0
996.0,56.93,21.8
998.0,56.8,21.6
1000.0,56.74,21.0
1002.0,56.67,21.5
1004.0,56.62,21.2
1006.0,56.59,21.1
1008.0,56.55,21.3
1010.0,56.51,21.5
1012.0,56.46,21.3
1014.0,56.4,21.6
1016.0,56.34,23.9
1018.0,56.27,26.9
1020.0,56.2,28.7
1022.0,56.12,29.1
1024.0,56.07,30.8
1026.0,56.01,31.6
1028.0,55.93,32.0
1030.0,55.84,31.3
1032.0,55.79,31.9
1034.0,55.74,32.1
1036.0,55.64,32.6
1038.0,55.55,33.2
1040.0,55.48,34.0
1042.0,55.41,34.8
1044.0,55.41,35.9
1046.0,55.34,36.1
1048.0,55.29,36.3
1050.0,55.2,36.0
1052.0,55.12,36.1
1054.0,55.07,35.6
1056.0,54.98,36.3
1058.0,54.93,35.5
1060.0,54.86,36.1
1062.0,54.81,35.9
1064.0,54.76,36.7
1066.0,54.66,36.5
1068.0,54.6,37.7
1070.0,54.52,38.2
1072.0,54.45,39.1
1074.0,54.32,38.6
1076.0,54.26,39.9
1078.0,54.21,40.5
1080.0,54.19,41.5
1082.0,54.11,41.5
1084.0,54.05,42.0
1086.0,53.98,42.6
1088.0,53.91,43.3
1090.0,53.83,43.1
1092.0,53.75,44.0
1094.0,53.67,43.7
1096.0,53.62,44.5
1098.0,53.54,44.6
1100.0,53.45,44.6
1102.0,53.37,45.2
1104.0,53.31,45.5
1106.0,53.24,45.9
1108.0,53.18,46.6
1110.0,53.04,46.5
1112.0,52.93,45.8
1114.0,52.87,46.2
1116.0,52.85,46.5
1118.0,52.8,46.7
1120.0,52.74,45.4
1122.0,52.65,46.5
1124.0,52.56,47.9
1126.0,52.48,48.3
1128.0,52.43,48.9
1130.0,52.34,49.6
1132.0,52.26,50.3
1134.0,52.18,50.8
1136.0,52.13,50.1
1138.0,52.04,50.4
1140.0,51.98,51.3
1142.0,51.87,51.2
1144.0,51.79,51.9
1146.0,51.71,52.0
1148.0,51.62,52.5
1150.0,51.49,52.6
1152.0,51.43,52.5
1154.0,51.37,52.8
1156.0,51.28,51.2
1158.0,51.24,52.8
1160.0,51.14,51.8
1162.0,51.08,53.5
1164.0,51.01,53.4
1166.0,50.9,54.5
1168.0,50.85,53.6
1170.0,50.78,52.9
1172.0,50.7,53.1
1174.0,50.59,53.6
1176.0,50.51,52.6
1178.0,50.42,53.1
1180.0,50.35,53.5
1182.0,50.25,53.2
1184.0,50.15,54.1
1186.0,50.05,54.6
1188.0,49.92,54.6
1190.0,49.89,55.9
1192.0,49.83,56.1
1194.0,49.78,56.7
1196.0,49.7,57.2
1198.0,49.58,56.7
1200.0,49.47,58.4
1202.0,49.42,58.6
1204.0,49.33,60.1
1206.0,49.25,60.1
1208.0,49.13,62.1
1210.0,49.05,61.7
1212.0,48.96,62.1
1214.0,48.87,62.0
1216.0,48.79,61.3
1218.0,48.7,63.5
1220.0,48.62,63.8
1222.0,48.51,63.9
1224.0,48.45,63.3
1226.0,48.33,65.8
1228.0,48.16,69.7
1230.0,48.07,70.1
1232.0,48.02,71.3
1234.0,47.92,72.7
1236.0,47.87,73.5
1238.0,47.8,70.3
1240.0,47.7,71.8
1242.0,47.6,69.9
1244.0,47.53,69.2
1246.0,47.42,68.9
1248.0,47.33,68.8
1250.0,47.21,69.1
1252.0,47.13,68.1
1254.0,47.04,67.4
1256.0,46.95,66.2
1258.0,46.85,67.8
1260.0,46.75,67.9
1262.0,46.6,68.7
1264.0,46.48,68.8
1266.0,46.38,70.4
1268.0,46.29,72.1
1270.0,46.19,71.5
1272.0,46.15,70.3
1274.0,46.03,71.0
1276.0,45.96,73.3
1278.0,45.88,71.9
1280.0,45.8,72.7
1282.0,45.69,73.2
1284.0,45.56,72.1
1286.0,45.49,73.2
1288.0,45.39,73.8
1290.0,45.26,74.4
1292.0,45.16,73.4
1294.0,45.06,74.3
1296.0,44.96,73.5
1298.0,44.78,73.4
1300.0,44.66,73.9
1302.0,44.55,74.5
1304.0,44.45,75.6
1306.0,44.4,75.7
1308.0,44.31,75.3
1310.0,44.2,75.9
1312.0,44.09,75.1
1314.0,43.99,76.7
1316.0,43.87,77.0
1318.0,43.78,76.7
1320.0,43.68,78.6
1322.0,43.56,78.8
1324.0,43.53,78.8
1326.0,43.41,78.0
1328.0,43.31,77.1
1330.0,43.15,77.5
1332.0,43.05,77.6
1334.0,42.92,78.7
1336.0,42.74,77.5
1338.0,42.61,79.1
1340.0,42.47,78.2
1342.0,42.43,78.3
1344.0,42.4,79.7
1346.0,42.27,80.0
1348.0,42.15,80.1
1350.0,42.05,81.1
1352.0,41.88,81.0
1354.0,41.8,81.9
1356.0,41.6,82.2
1358.0,41.59,84.2
1360.0,41.48,84.9
1362.0,41.35,85.5
1364.0,41.25,86.6
1366.0,41.14,85.7
1368.0,41.04,86.0
1370.0,40.86,86.0
1372.0,40.71,85.9
1374.0,40.61,86.3
1376.0,40.53,87.0
1378.0,40.42,88.0
1380.0,40.32,86.6
1382.0,40.22,88.2
1384.0,40.09,88.5
1386.0,39.98,87.5
1388.0,39.87,85.8
1390.0,39.77,88.3
1392.0,39.63,87.4
1394.0,39.51,89.1
1396.0,39.42,88.4
1398.0,39.29,89.5
1400.0,39.16,90.0
1402.0,39.06,88.1
1404.0,38.95,89.4
1406.0,38.79,90.4
1408.0,38.66,90.7
1410.0,38.53,89.5
1412.0,38.39,89.2
1414.0,38.27,89.1
1416.0,38.19,89.4
1418.0,38.09,89.6
1420.0,37.97,90.6
1422.0,37.85,90.6
1424.0,37.73,90.9
1426.0,37.6,93.3
1428.0,37.5,92.7
1430.0,37.38,93.4
1432.0,37.28,94.6
1434.0,37.16,95.1
1436.0,37.0,95.9
1438.0,36.9,93.2
1440.0,36.78,92.2
1442.0,36.68,92.6
1444.0,36.56,92.6
1446.0,36.37,94.0
1448.0,36.24,95.0
1450.0,36.09,92.6
1452.0,36.02,92.3
1454.0,35.97,93.1
1456.0,35.85,94.4
1458.0,35.72,94.8
1460.0,35.6,93.7
1462.0,35.52,94.6
1464.0,35.41,95.2
1466.0,35.29,95.9
1468.0,35.16,93.5
1470.0,35.04,95.0
1472.0,34.87,94.5
1474.0,34.77,94.8
1476.0,34.66,94.4
1478.0,34.53,92.9
1480.0,34.42,94.2
1482.0,34.3,94.4
1484.0,34.18,91.4
1486.0,33.98,94.9
1488.0,33.86,95.5
1490.0,33.75,94.7
1492.0,33.62,95.1
1494.0,33.54,95.4
1496.0,33.46,96.1
1498.0,33.39,95.9
1500.0,33.26,96.3
1502.0,33.16,96.4
1504.0,33.04,94.5
1506.0,32.91,93.9
1508.0,32.79,95.6
1510.0,32.68,95.2
1512.0,32.56,94.9
1514.0,32.44,95.5
1516.0,32.31,94.9
1518.0,32.22,95.2
1520.0,32.1,97.5
1522.0,31.98,96.4
1524.0,31.86,93.8
1526.0,31.75,93.7
1528.0,31.64,94.6
1530.0,31.55,94.6
1532.0,31.43,94.1
1534.0,31.33,92.1
1536.0,31.26,91.8
1538.0,31.18,90.8
1540.0,31.06,91.5
1542.0,30.97,91.4
1544.0,30.85,91.5
1546.0,30.74,90.5
1548.0,30.66,92.4
1550.0,30.54,92.2
1552.0,30.44,91.5
1554.0,30.34,89.8
1556.0,30.25,91.6
1558.0,30.13,91.9
1560.0,29.98,88.7
1562.0,29.85,88.7
1564.0,29.74,88.7
1566.0,29.66,85.2
1568.0,29.57,84.8
1570.0,29.52,84.5
1572.0,29.45,84.7
1574.0,29.35,84.9
1576.0,29.25,83.4
1578.0,29.15,83.8
1580.0,29.06,88.0
1582.0,28.99,89.7
1584.0,28.91,88.0
1586.0,28.78,88.7
1588.0,28.7,88.2
1590.0,28.62,85.3
1592.0,28.54,84.7
1594.0,28.42,82.2
1596.0,28.32,81.5
1598.0,28.22,78.7
1600.0,28.08,79.0
1602.0,28.0,76.7
1604.0,27.91,77.5
1606.0,27.84,77.0
1608.0,27.83,77.0
1610.0,27.74,76.1
1612.0,27.64,72.6
1614.0,27.55,73.3
1616.0,27.48,71.8
1618.0,27.39,73.2
1620.0,27.33,72.7
1622.0,27.22,72.6
1624.0,27.14,72.5
1626.0,27.07,71.7
1628.0,27.0,71.8
1630.0,26.92,70.0
1632.0,26.81,69.2
1634.0,26.73,69.0
1636.0,26.6,69.0
1638.0,26.52,68.0
1640.0,26.47,69.2
1642.0,26.45,67.6
1644.0,26.37,67.4
1646.0,26.28,67.6
1648.0,26.21,67.7
1650.0,26.17,68.1
1652.0,26.08,67.1
1654.0,26.02,66.6
1656.0,25.94,67.5
1658.0,25.85,66.6
1660.0,25.76,65.4
1662.0,25.71,65.1
1664.0,25.65,64.8
1666.0,25.58,64.6
1668.0,25.52,64.4
1670.0,25.42,64.2
1672.0,25.34,61.6
1674.0,25.26,61.7
1676.0,25.18,60.1
1678.0,25.13,60.5
1680.0,25.1,60.1
1682.0,25.04,59.5
1684.0,25.0,59.7
1686.0,24.95,58.9
1688.0,24.9,57.8
1690.0,24.83,58.3
1692.0,24.77,57.7
1694.0,24.72,57.6
1696.0,24.65,58.6
1698.0,24.58,57.0
1700.0,24.52,57.0
1702.0,24.49,56.3
1704.0,24.4,55.1
1706.0,24.35,54.3
1708.0,24.29,53.2
1710.0,24.24,52.3
1712.0,24.11,50.9
1714.0,24.05,48.3
1716.0,23.99,48.8
1718.0,23.95,47.2
1720.0,23.97,47.9
1722.0,23.93,46.7
1724.0,23.86,45.7
1726.0,23.83,44.3
1728.0,23.78,43.6
1730.0,23.74,43.1
1732.0,23.69,42.8
1734.0,23.64,43.0
1736.0,23.6,42.4
1738.0,23.53,41.6
1740.0,23.51,41.6
1742.0,23.46,41.3
1744.0,23.42,40.9
1746.0,23.37,39.7
1748.0,23.32,39.0
1750.0,23.22,39.0
1752.0,23.15,38.5
1754.0,23.11,38.7
1756.0,23.08,38.3
1758.0,23.03,37.8
1760.0,23.07,38.0
1762.0,23.02,37.6
1764.0,22.98,37.6
1766.0,22.92,35.8
1768.0,22.9,35.4
1770.0,22.85,34.3
1772.0,22.8,33.2
1774.0,22.76,34.1
1776.0,22.72,32.7
1778.0,22.69,32.2
1780.0,22.67,31.9
1782.0,22.63,31.8
1784.0,22.6,31.5
1786.0,22.56,31.5
1788.0,22.52,31.6
1790.0,22.39,31.2
1792.0,22.37,31.1
1794.0,22.34,30.6
1796.0,22.32,30.7
1798.0,22.34,31.1
1800.0,22.32,30.2
1802.0,22.28,29.3
1804.0,22.24,29.4
1806.0,22.23,28.6
1808.0,22.18,28.5
1810.0,22.15,27.7
1812.0,22.12,28.1
1814.0,22.09,28.2
1816.0,22.05,28.1
1818.0,22.02,27.4
1820.0,22.01,27.8
1822.0,21.97,27.5
1824.0,21.95,26.8
1826.0,21.9,26.5
1828.0,21.84,27.0
1830.0,21.77,27.5
1832.0,21.75,27.0
1834.0,21.73,26.8
1836.0,21.76,26.6
1838.0,21.73,26.9
1840.0,21.71,27.2
1842.0,21.68,28.4
1844.0,21.66,28.6
1846.0,21.61,28.9
1848.0,21.58,27.3
1850.0,21.57,27.2
1852.0,21.52,26.9
1854.0,21.48,26.5
1856.0,21.44,26.2
1858.0,21.45,26.6
1860.0,21.42,25.7
1862.0,21.38,25.5
1864.0,21.28,25.5
1866.0,21.26,24.9
1868.0,21.24,25.0
1870.0,21.2,25.8
1872.0,21.2,25.9
1874.0,21.25,26.4
1876.0,21.23,26.7
1878.0,21.2,26.5
1880.0,21.18,26.5
1882.0,21.14,26.9
1884.0,21.11,26.9
1886.0,21.08,26.7
1888.0,21.05,26.7
1890.0,21.03,26.5
1892.0,21.01,26.8
1894.0,20.99,26.5
1896.0,20.97,25.6
1898.0,20.93,25.9
1900.0,20.9,27.0
1902.0,20.87,26.8
1904.0,20.79,27.6
1906.0,20.76,27.5
1908.0,20.8,27.8
1910.0,20.78,27.8
1912.0,20.76,27.1
1914.0,20.73,27.1
1916.0,20.72,27.3
1918.0,20.7,27.9
1920.0,20.67,27.1
1922.0,20.65,27.1
1924.0,20.63,27.3
1926.0,20.61,26.2
1928.0,20.59,26.4
1930.0,20.55,25.6
1932.0,20.55,25.0
1934.0,20.53,24.8
1936.0,20.48,24.6
1938.0,20.4,24.0
1940.0,20.38,23.6
1942.0,20.36,23.6
1944.0,20.39,23.4
1946.0,20.36,23.4
1948.0,20.37,23.4
1950.0,20.35,22.1
1952.0,20.31,22.1
1954.0,20.3,21.9
1956.0,20.27,21.8
1958.0,20.25,21.8
1960.0,20.23,21.7
1962.0,20.21,21.9
1964.0,20.19,21.8
1966.0,20.17,21.2
1968.0,20.15,21.4
1970.0,20.13,21.6
1972.0,20.12,21.9
1974.0,20.03,22.3
1976.0,20.01,22.8
1978.0,20.0,23.0
1980.0,19.98,23.2
1982.0,20.03,22.9
1984.0,20.01,22.1
1986.0,19.98,22.0
1988.0,19.96,22.7
1990.0,19.93,22.4
1992.0,19.91,22.3
1994.0,19.91,22.6
1996.0,19.88,22.3
1998.0,19.85,22.3
2000.0,19.84,22.5
2002.0,19.83,22.0
2004.0,19.81,22.5
2006.0,19.79,22.4
2008.0,19.77,22.2
2010.0,19.68,22.3
2012.0,19.66,22.2
2014.0,19.63,22.8
2016.0,19.64,23.3
2018.0,19.68,24.1
2020.0,19.66,25.3
2022.0,19.62,25.6
2024.0,19.63,25.7
2026.0,19.62,25.4
2028.0,19.59,25.0
2030.0,19.56,22.9
2032.0,19.54,21.7
2034.0,19.5,20.9
2036.0,19.49,20.3
2038.0,19.49,20.1
2040.0,19.46,20.1
2042.0,19.4,20.5
2044.0,19.37,20.9
2046.0,19.35,20.2
2048.0,19.32,19.8
2050.0,19.34,20.0
2052.0,19.33,19.7
2054.0,19.31,19.4
2056.0,19.31,19.7
2058.0,19.29,19.9
2060.0,19.3,20.2
2062.0,19.27,20.1
2064.0,19.26,19.5
2066.0,19.23,19.3
2068.0,19.22,19.4
2070.0,19.2,18.7
2072.0,19.18,18.5
2074.0,19.17,18.3
2076.0,19.16,18.5
2078.0,19.14,19.1
2080.0,19.1,19.6
2082.0,19.1,19.5
2084.0,19.07,18.9
2086.0,18.99,19.1
2088.0,18.96,19.6
2090.0,18.95,20.0
2092.0,18.94,20.1
2094.0,18.99,19.9
2096.0,18.99,19.6
2098.0,18.97,19.3
2100.0,18.95,18.7
2102.0,18.94,18.5
2104.0,18.92,18.0
2106.0,18.9,17.6
2108.0,18.88,17.4
2110.0,18.85,17.3
2112.0,18.85,17.2
2114.0,18.84,17.1
2116.0,18.82,17.1
2118.0,18.79,17.4
2120.0,18.77,17.6
2121.0,18.75,17.5