File: Wood/Calibration_Data/FSRI/FSRI_CAPA_N2_40kW_R1.csv
Time [s],Mass [g],Back Surface Temperature [K],Top Surface Temperature [K]
0,12.377,293.104,416.511
1,12.3461,293.191,442.975
2,12.3646,293.168,483.756
3,12.3719,293.205,511.619
4,12.372,293.198,541.077
5,12.3757,293.099,561.597
6,12.3509,293.186,580.199
7,12.3291,293.158,595.148
8,12.2997,293.124,608.889
9,12.2574,293.108,620.24
10,12.2543,293.226,628.687
11,12.2989,293.176,639.058
12,12.2785,293.157,639.497
13,12.2666,293.218,683.486
14,12.2725,293.193,
15,12.2776,293.316,
16,12.246,293.221,
17,12.1939,293.382,
18,12.1853,293.425,
19,12.1565,293.448,
20,12.1757,293.521,
21,12.1866,293.655,
22,12.161,293.864,
23,12.1413,293.947,
24,12.0802,294.109,
25,12.0325,294.328,
26,12.0382,294.562,
27,12.001,294.828,
28,11.9837,295.163,
29,12.0078,295.475,
30,11.9647,295.838,
31,11.9579,296.281,
32,11.9461,296.638,
33,11.891,297.126,
34,11.8634,297.641,
35,11.8609,298.005,
36,11.8427,298.64,
37,11.825,299.21,
38,11.8098,299.786,
39,11.7975,300.396,
40,11.7725,301.054,
41,11.7351,301.671,
42,11.712,302.368,
43,11.6919,303.064,
44,11.6645,303.846,
45,11.6494,304.54,
46,11.6056,305.343,
47,11.5768,306.169,
48,11.5579,306.93,
49,11.558,307.742,
50,11.5452,308.662,
51,11.4982,309.408,
52,11.4844,310.191,
53,11.4912,311.083,
54,11.4544,311.965,
55,11.4303,312.833,
56,11.3846,313.706,
57,11.3633,314.584,
58,11.3734,315.477,
59,11.3591,316.348,
60,11.308,317.257,
61,11.3059,318.188,
62,11.3014,319.061,
63,11.286,319.993,
64,11.2807,320.848,
65,11.2565,321.58,
66,11.2587,322.517,
67,11.2035,323.464,
68,11.1648,324.352,
69,11.1309,325.27,
70,11.1061,326.179,
71,11.1139,327.04,
72,11.075,327.962,
73,11.0364,328.858,
74,10.9977,329.791,
75,11.0215,330.632,
76,11.0182,331.521,
77,11.0146,332.393,
78,10.9677,333.271,
79,10.951,334.181,
80,10.9628,334.994,
81,10.9333,335.844,
82,10.9225,336.744,
83,10.9471,337.517,
84,10.877,338.32,
85,10.8161,339.238,
86,10.814,340.063,
87,10.7761,340.778,
88,10.7624,341.576,
89,10.7582,342.326,
90,10.7658,343.153,
91,10.7296,343.801,
92,10.6813,344.591,
93,10.6807,345.354,
94,10.6837,346.025,
95,10.6779,346.818,
96,10.6279,347.502,
97,10.5752,348.215,
98,10.616,348.904,
99,10.6352,349.572,
100,10.592,350.279,
101,10.5068,350.944,
102,10.5077,351.626,
103,10.5018,352.312,
104,10.4535,352.958,
105,10.4178,353.604,
106,10.3711,354.2,
107,10.3615,354.857,
108,10.3915,355.498,
109,10.3874,356.014,
110,10.3826,356.526,
111,10.3667,357.057,
112,10.3398,357.667,
113,10.318,358.2,
114,10.3004,358.706,
115,10.2634,359.08,
116,10.2225,359.478,
117,10.2202,359.885,
118,10.2241,360.158,
119,10.2141,360.495,
120,10.1978,360.831,
121,10.2082,361.173,
122,10.141,361.457,
123,10.0942,361.62,
124,10.1085,361.82,
125,10.0917,361.985,
126,10.0922,362.181,
127,10.0746,362.224,
128,10.0573,362.311,
129,10.0531,362.292,
130,10.015,362.253,
131,10.0073,362.11,
132,10.0182,362.017,
133,9.95554,361.909,
134,9.9102,361.895,
135,9.90649,361.839,
136,9.95709,361.869,
137,9.91835,361.865,
138,9.85062,361.894,
139,9.84917,361.947,
140,9.83638,362.089,
141,9.83002,362.219,
142,9.82367,362.282,
143,9.7686,362.342,
144,9.73721,362.479,
145,9.71887,362.615,
146,9.7351,362.742,
147,9.75859,362.889,
148,9.7045,363.08,
149,9.67146,363.26,
150,9.66648,363.484,
151,9.66863,363.688,
152,9.6613,363.853,
153,9.61965,364.071,
154,9.5164,364.265,
155,9.57646,364.48,
156,9.60102,364.726,
157,9.53488,364.983,
158,9.52665,365.24,
159,9.51816,365.517,
160,9.45837,365.734,
161,9.43691,366.007,
162,9.43262,366.303,
163,9.42494,366.598,
164,9.40943,366.912,
165,9.39211,367.225,
166,9.38693,367.531,
167,9.38216,367.89,
168,9.40335,368.234,
169,9.37878,368.598,
170,9.30805,368.987,
171,9.30959,369.312,
172,9.30036,369.66,
173,9.24679,370.105,
174,9.21546,370.514,
175,9.2375,370.985,
176,9.21075,371.458,
177,9.20937,371.92,
178,9.2056,372.39,
179,9.16844,372.874,
180,9.15609,373.328,
181,9.1182,373.842,
182,9.12394,374.359,
183,9.11779,374.913,
184,9.11486,375.513,
185,9.12133,376.054,
186,9.06794,376.683,
187,9.04689,377.203,
188,9.01169,377.841,
189,9.00132,378.46,
190,9.00061,379.09,
191,8.94778,379.677,
192,8.95276,380.296,
193,8.97136,381.004,
194,8.9648,381.663,
195,8.95685,382.364,
196,8.96349,383.051,
197,8.94318,383.714,
198,8.91988,384.432,
199,8.90191,385.117,
200,8.90483,385.895,
201,8.88121,386.591,
202,8.87738,387.28,
203,8.88659,388.035,
204,8.88219,388.8,
205,8.87058,389.551,
206,8.82264,390.265,
207,8.79171,390.889,
208,8.77026,391.674,
209,8.78376,392.368,
210,8.74294,393.146,
211,8.71931,393.903,
212,8.71612,394.638,
213,8.70625,395.422,
214,8.72263,396.15,
215,8.72487,396.885,
216,8.71183,397.65,
217,8.71619,398.424,
218,8.6594,399.088,
219,8.58099,399.872,
220,8.59563,400.596,
221,8.61481,401.366,
222,8.56713,402.095,
223,8.54525,402.826,
224,8.55794,403.496,
225,8.54557,404.319,
226,8.53308,404.963,
227,8.52346,405.745,
228,8.49527,406.513,
229,8.48255,407.143,
230,8.47762,407.811,
231,8.4517,408.527,
232,8.45768,409.257,
233,8.44938,409.918,
234,8.43205,410.629,
235,8.41084,411.303,
236,8.34507,411.961,
237,8.36278,412.61,
238,8.39927,413.302,
239,8.35342,413.982,
240,8.34362,414.646,
241,8.30365,415.322,
242,8.29546,415.944,
243,8.3299,416.632,
244,8.3283,417.23,
245,8.31489,417.896,
246,8.2585,418.502,
247,8.25241,419.169,
248,8.22806,419.817,
249,8.23979,420.345,
250,8.19054,420.947,
251,8.19078,421.607,
252,8.17807,422.207,
253,8.18877,422.787,
254,8.15269,423.438,
255,8.08239,423.876,
256,8.14067,424.419,
257,8.12659,425.033,
258,8.1024,425.626,
259,8.12522,426.189,
260,8.08252,426.726,
261,8.03626,427.281,
262,8.02266,427.71,
263,8.06718,428.246,
264,8.04003,428.854,
265,8.00891,429.334,
266,7.99831,429.856,
267,7.9601,430.421,
268,7.95665,430.929,
269,7.95994,431.354,
270,7.95988,431.942,
271,7.95144,432.506,
272,7.88488,432.921,
273,7.83574,433.369,
274,7.84328,433.894,
275,7.83897,434.349,
276,7.84904,434.871,
277,7.82555,435.2786,
278,7.76874,435.8623,
279,7.75065,436.2487,
280,7.78529,436.7402,
281,7.76456,437.1572,
282,7.7417,437.645,
283,7.72313,438.058,
284,7.70266,438.3941,
285,7.70467,438.8129,
286,7.70027,439.2062,
287,7.66851,439.668,
288,7.63583,440.059,
289,7.61934,440.434,
290,7.59991,440.971,
291,7.58841,441.382,
292,7.60041,441.809,
293,7.58623,442.09,
294,7.57552,442.6,
295,7.56617,442.901,
296,7.53319,443.303,
297,7.49413,443.689,
298,7.47225,444.111,
299,7.47547,444.512,
300,7.5239,444.876,
301,7.46984,445.245,
302,7.40459,445.591,
303,7.39288,445.984,
304,7.36851,446.296,
305,7.37581,446.667,
306,7.39052,447.063,
307,7.38467,447.43,
308,7.34503,447.748,
309,7.32855,448.031,
310,7.32196,448.395,
311,7.32906,448.751,
312,7.3222,449.131,
313,7.28757,449.449,
314,7.254,449.74,
315,7.24812,450.067,
316,7.18563,450.419,
317,7.14033,450.69,
318,7.18952,451.046,
319,7.1778,451.447,
320,7.1878,451.711,
321,7.18157,451.925,
322,7.11126,452.0339,
323,7.09398,452.234,
324,7.12555,452.51,
325,7.12193,452.808,
326,7.09071,453.148,
327,7.09448,453.463,
328,7.07525,453.682,
329,7.06202,453.921,
330,7.05992,454.284,
331,7.0052,454.561,
332,6.98471,454.701,
333,6.99803,455.07,
334,6.97312,455.353,
335,6.96797,455.638,
336,6.95181,455.954,
337,6.90554,456.144,
338,6.91243,456.469,
339,6.90025,456.725,
340,6.85849,457.009,
341,6.89603,457.207,
342,6.86615,457.41,
343,6.80714,457.447,
344,6.80323,457.875,
345,6.78163,458.138,
346,6.78985,458.332,
347,6.78295,458.574,
348,6.74185,458.815,
349,6.68638,458.915,
350,6.71633,459.067,
351,6.73998,459.383,
352,6.70702,459.52,
353,6.66014,459.765,
354,6.66464,459.978,
355,6.62729,460.104,
356,6.61573,460.408,
357,6.64349,460.675,
358,6.62937,460.798,
359,6.59885,461.067,
360,6.61889,461.155,
361,6.55232,461.491,
362,6.51867,461.844,
363,6.52254,462.032,
364,6.49735,462.017,
365,6.49103,462.202,
366,6.52788,462.501,
367,6.53279,462.877,
368,6.49742,462.993,
369,6.47316,463.061,
370,6.46546,463.212,
371,6.44242,463.352,
372,6.44426,463.611,
373,6.43385,463.766,
374,6.40693,463.87,
375,6.38354,464.064,
376,6.38899,464.136,
377,6.36597,464.297,
378,6.35343,464.416,
379,6.33271,464.658,
380,6.30001,464.732,
381,6.29082,464.919,
382,6.28528,465.073,
383,6.30326,465.135,
384,6.33369,465.179,
385,6.31691,465.463,
386,6.28107,465.748,
387,6.24194,465.662,
388,6.226,465.679,
389,6.2241,466.026,
390,6.2037,466.273,
391,6.21422,466.417,
392,6.1908,466.594,
393,6.13448,466.469,
394,6.13545,466.703,
395,6.17476,466.806,
396,6.14946,466.998,
397,6.13759,467.236,
398,6.10696,467.277,
399,6.09812,467.487,
400,6.10939,467.396,
401,6.12123,467.475,
402,6.08704,467.608,
403,6.05302,467.904,
404,6.04425,467.874,
405,6.05936,467.68,
406,6.06652,467.679,
407,6.04693,468.025,
408,6.03318,468.249,
409,6.00779,468.349,
410,6.00448,468.41,
411,6.00236,468.531,
412,5.97511,468.751,
413,5.99081,468.911,
414,5.98849,468.917,
415,5.95129,468.943,
416,5.9331,469.171,
417,5.93449,469.464,
418,5.93725,469.626,
419,5.91547,469.598,
420,5.91011,469.673,
421,5.87345,469.856,
422,5.87384,470.145,
423,5.88347,469.971,
424,5.86533,469.629,
425,5.85032,469.703,
426,5.87746,470.441,
427,5.81411,470.697,
428,5.77904,470.75,
429,5.75415,471.042,
430,5.74636,471.188,
431,5.77236,471.322,
432,5.77987,471.338,
433,5.7793,471.54,
434,5.77174,471.603,
435,5.72813,471.666,
436,5.71343,471.814,
437,5.74071,471.875,
438,5.69706,472.142,
439,5.67095,472.221,
440,5.69197,472.202,
441,5.68784,472.441,
442,5.66106,472.719,
443,5.63956,472.769,
444,5.66561,473.062,
445,5.64111,472.924,
446,5.6644,473.161,
447,5.67568,473.2,
448,5.65928,473.281,
449,5.61797,473.418,
450,5.60737,473.374,
451,5.56498,473.664,
452,5.59995,473.872,
453,5.62565,474.052,
454,5.59689,474.204,
455,5.54321,473.952,
456,5.52606,474.303,
457,5.56688,474.221,
458,5.56745,474.203,
459,5.55094,474.61,
460,5.55976,474.95,
461,5.50398,475.167,
462,5.49415,475.231,
463,5.52847,475.123,
464,5.49675,475.212,
465,5.48232,475.364,
466,5.47581,475.285,
467,5.48471,475.568,
468,5.49592,475.733,
469,5.46748,475.887,
470,5.45089,475.751,
471,5.47614,475.742,
472,5.45994,475.837,
473,5.4198,476.129,
474,5.42693,476.182,
475,5.43271,476.254,
476,5.39199,476.349,
477,5.38423,476.359,
478,5.39627,476.519,
479,5.42365,476.807,
480,5.39577,476.913,
481,5.33015,477.129,
482,5.37537,477.071,
483,5.36661,477.245,
484,5.33645,477.183,
485,5.35224,477.4,
486,5.32441,477.535,
487,5.29777,477.7,
488,5.29164,477.757,
489,5.30899,477.823,
490,5.30726,477.954,
491,5.29942,478.081,
492,5.3053,478.265,
493,5.3051,478.271,
494,5.2961,478.43,
495,5.27533,478.391,
496,5.2581,477.982,
497,5.25881,478.43,
498,5.25103,478.611,
499,5.22001,478.739,
500,5.23659,478.793,
501,5.25765,478.742,
502,5.23819,479.013,
503,5.24068,479.135,
504,5.22331,479.036,
505,5.23541,479.197,
506,5.18356,479.067,
507,5.14947,479.18,
508,5.16297,479.252,
509,5.19167,479.496,
510,5.17151,479.724,
511,5.13119,479.603,
512,5.15412,479.786,
513,5.17277,479.963,
514,5.13773,480.039,
515,5.10456,480.182,
516,5.12641,480.241,
517,5.10083,480.222,
518,5.10596,480.389,
519,5.13046,480.498,
520,5.11738,480.589,
521,5.11012,480.855,
522,5.11884,480.832,
523,5.11845,480.91,
524,5.11665,480.684,
525,5.0651,480.558,
526,5.05964,480.785,
527,5.03377,481.022,
528,5.00717,481.148,
529,4.98372,481.214,
530,4.99462,481.239,
531,4.98043,481.518,
532,5.02616,481.259,
533,5.05454,481.265,
534,5.06224,481.684,
535,5.02012,481.693,
536,5.00191,481.773,
537,4.99796,481.471,
538,4.97506,481.439,
539,4.96627,481.857,
540,4.9945,481.79,
541,4.94882,481.675,
542,4.93008,482.205,
543,4.94211,481.878,
544,4.9422,482.109,
545,4.98801,482.255,
546,4.93784,482.449,
547,4.9083,482.487,
548,4.92875,482.63,
549,4.93384,482.502,
550,4.95012,482.63,
551,4.94966,482.889,
552,4.93372,482.901,
553,4.92952,482.754,
554,4.91515,482.851,
555,4.88522,482.929,
556,4.86194,483.121,
557,4.8683,483.099,
558,4.90857,483.342,
559,4.9091,483.367,
560,4.85251,483.132,
561,4.83234,483.192,
562,4.85807,483.552,
563,4.85691,483.546,
564,4.87556,483.583,
565,4.87443,483.494,
566,4.87734,483.79,
567,4.85998,483.612,
568,4.83254,483.518,
569,4.85223,483.621,
570,4.85665,483.72,
571,4.86307,483.862,
572,4.8389,484.083,
573,4.82161,483.996,
574,4.8251,484.093,
575,4.81589,484.228,
576,4.79885,484.099,
577,4.783,484.226,
578,4.79726,483.904,
579,4.76928,484.34,
580,4.78081,484.455,
581,4.78286,484.412,
582,4.76515,484.61,
583,4.79072,484.928,
584,4.7854,485.064,
585,4.76526,485.223,
586,4.76372,485.212,
587,4.77111,485.017,
588,4.78148,485.007,
589,4.77146,485.221,
590,4.77849,485.586,
591,4.75051,485.387,
592,4.75211,485.393,
593,4.74457,485.461,
594,4.7472,485.288,
595,4.73932,485.383,
596,4.71192,485.443,
597,4.70081,485.61,
598,4.72347,485.606,
599,4.72494,485.695,
600,4.71589,485.769,
601,4.73878,485.658,
602,4.7376,485.746,
603,4.72697,485.785,
604,4.67995,485.895,
605,4.64771,485.983,
606,4.6672,485.692,
607,4.70257,485.473,
608,4.7023,485.923,
609,4.67835,485.546,
610,4.70169,486.078,
611,4.70385,485.896,
612,4.68239,486.328,
613,4.69413,486.359,
614,4.65184,486.413,
615,4.61986,486.085,
616,4.64897,486.227,
617,4.63918,486.432,
618,4.64812,486.592,
619,4.65251,486.556,
620,4.63834,486.737,
621,4.66261,486.922,
622,4.64766,486.929,
623,4.61407,486.7302,
624,4.59373,486.6262,
625,4.59263,486.6661,
626,4.60198,486.8271,
627,4.63693,486.5902,
628,4.61057,486.7027,
629,4.62027,486.5656,
630,4.63426,486.4952,
631,4.59839,486.7762,
632,4.58749,486.9504,
633,4.60271,487.048,
634,4.59644,487.33,
635,4.60025,487.323,
636,4.59134,487.391,
637,4.58318,487.541,
638,4.59688,487.485,
639,4.56166,487.531,
640,4.5386,487.381,
641,4.53115,487.332,
642,4.49506,487.166,
643,4.51368,487.371,
644,4.56312,487.526,
645,4.5516,487.337,
646,4.5439,487.67,
647,4.52331,487.407,
648,4.52202,487.763,
649,4.52559,488.209,
650,4.5141,488.163,
651,4.5389,488.087,
652,4.55178,487.961,
653,4.52847,487.975,
654,4.52728,487.88,
655,4.51392,488.21,
656,4.47866,488.368,
657,4.5182,488.105,
658,4.47915,488.153,
659,4.48277,487.883,
660,4.50524,488.347,
661,4.49997,488.549,
662,4.50667,488.657,
663,4.51529,488.514,
664,4.50361,488.334,
665,4.46609,488.436,
666,4.45933,488.38,
667,4.46973,488.643,
668,4.47947,488.894,
669,4.47909,488.897,
670,4.45861,488.865,
671,4.4426,488.523,
672,4.44958,488.682,
673,4.4567,488.619,
674,4.44991,488.721,
675,4.4582,488.49,
676,4.47979,488.483,
677,4.46535,488.475,
678,4.44692,488.896,
679,4.45975,488.882,
680,4.4625,488.798,
681,4.45663,488.73,
682,4.41983,488.975,
683,4.39957,489.19,
684,4.3865,489.178,
685,4.40015,489.085,
686,4.40958,489.319,
687,4.40625,489.31,
688,4.42608,489.378,
689,4.40687,489.525,
690,4.37995,489.529,
691,4.37241,489.482,
692,4.40678,489.299,
693,4.41465,489.39,
694,4.40763,489.46,
695,4.41149,489.329,
696,4.39104,489.554,
697,4.38192,489.599,
698,4.37939,489.669,
699,4.35657,489.815,
700,4.38239,489.362,
701,4.39801,489.362,
702,4.35154,489.598,
703,4.37492,489.634,
704,4.35986,489.507,
705,4.36562,489.477,
706,4.3922,489.762,
707,4.36885,489.716,
708,4.37264,489.623,
709,4.35214,489.867,
710,4.33418,489.871,
711,4.32316,489.748,
712,4.34596,489.986,
713,4.33523,489.893,
714,4.35009,490.035,
715,4.35309,490.087,
716,4.34334,490.371,
717,4.33545,490.263,
718,4.35213,490.096,
719,4.35431,490.246,
720,4.32464,490.519,
721,4.32099,490.456,
722,4.30761,490.379,
723,4.32453,490.497,
724,4.32176,490.355,
725,4.3106,490.295,
726,4.28572,490.519,
727,4.28861,490.553,
728,4.31551,490.618,
729,4.303,490.444,
730,4.322,490.547,
731,4.34918,490.695,
732,4.33183,490.449,
733,4.34032,490.874,
734,4.30255,490.632,
735,4.28273,490.863,
736,4.30951,490.835,
737,4.29297,490.57,
738,4.3024,490.539,
739,4.30042,490.598,
740,4.29888,490.51,
741,4.278,490.645,
742,4.27133,490.797,
743,4.3122,490.73,
744,4.29105,490.812,
745,4.26733,490.963,
746,4.30218,491.063,
747,4.29455,490.891,
748,4.30711,491.04,
749,4.31032,491.033,
750,4.29538,491.215,
751,4.25744,491.307,
752,4.281,491.362,
753,4.26814,491.294,
754,4.23007,491.532,
755,4.21254,491.334,
756,4.22115,491.443,
757,4.20527,491.643,
758,4.22743,491.718,
759,4.24362,491.588,
760,4.22791,491.694,
761,4.22375,491.703,
762,4.26428,491.767,
763,4.28233,491.864,
764,4.27909,491.825,
765,4.25738,491.763,
766,4.2338,491.856,
767,4.24836,491.986,
768,4.20994,491.89,
769,4.21324,491.88,
770,4.2178,491.912,
771,4.17088,491.881,
772,4.18478,491.962,
773,4.21023,492.044,
774,4.20831,492.058,
775,4.189,492.001,
776,4.20984,492.01,
777,4.21037,492.031,
778,4.22809,492.027,
779,4.20679,491.991,
780,4.18178,492.104,
781,4.21157,492.05,
782,4.21638,492.065,
783,4.19827,492.104,
784,4.19972,491.889,
785,4.20244,491.97,
786,4.22903,491.818,
787,4.2136,492.004,
788,4.15318,492.002,
789,4.19957,491.709,
790,4.20699,492.103,
791,4.19197,492.085,
792,4.16227,492.264,
793,4.14834,492.314,
794,4.17462,492.384,
795,4.20074,492.343,
796,4.19615,492.229,
797,4.1705,492.165,
798,4.21261,492.299,
799,4.19296,492.126,
800,4.16519,492.226,
801,4.15536,492.111,
802,4.15605,492.218,
803,4.13233,492.508,
804,4.15968,492.482,
805,4.17209,492.28,
806,4.11899,492.179,
807,4.11793,492.181,
808,4.1274,492.347,
809,4.13544,492.575,
810,4.15535,492.505,
811,4.19386,492.682,
812,4.18885,492.632,
813,4.15028,492.556,
814,4.16821,492.567,
815,4.17879,492.763,
816,4.10277,492.649,
817,4.07537,492.579,
818,4.10822,492.716,
819,4.15025,492.687,
820,4.16516,492.826,
821,4.15838,492.722,
822,4.11741,492.786,
823,4.10365,492.616,
824,4.13293,492.539,
825,4.15353,492.666,
826,4.12943,492.743,
827,4.13943,492.78,
828,4.13984,492.936,
829,4.1465,492.872,
830,4.14111,493.025,
831,4.13638,493.004,
832,4.1155,493.019,
833,4.12215,493.128,
834,4.1086,493.088,
835,4.10383,493.175,
836,4.11404,493.368,
837,4.12731,493.358,
838,4.1146,493.231,
839,4.12065,493.092,
840,4.11156,493.078,
841,4.08947,493.225,
842,4.05269,493.244,
843,4.06759,493.152,
844,4.08335,493.201,
845,4.03934,493.29,
846,4.071,493.321,
847,4.0937,493.272,
848,4.08055,493.264,
849,4.07774,493.216,
850,4.0759,492.706,
851,4.10032,493.201,
852,4.08503,493.148,
853,4.04492,493.337,
854,4.03619,493.292,
855,4.03884,493.327,
856,4.03431,493.341,
857,4.04664,493.175,
858,4.07458,493.211,
859,4.0876,493.227,
860,4.093,493.426,
861,4.07582,493.467,
862,4.08369,493.342,
863,4.07749,493.31,
864,4.07786,492.93,
865,4.06925,493.478,
866,4.0795,493.54,
867,4.05234,493.709,
868,4.0439,493.679,
869,4.06283,493.665,
870,4.07721,493.664,
871,4.09123,493.526,
872,4.05552,493.549,
873,4.04531,493.203,
874,4.0591,493.674,
875,4.05254,493.543,
876,4.04842,493.499,
877,4.00725,493.562,
878,3.9963,493.485,
879,3.99422,493.52,
880,4.00549,493.374,
881,4.04439,493.487,
882,4.05578,493.745,
883,4.0642,493.788,
884,4.08428,493.659,
885,4.03998,493.736,
886,4.05867,493.793,
887,4.07352,493.75,
888,4.05676,493.813,
889,4.03429,493.707,
890,4.01984,493.896,
891,4.06108,493.953,
892,4.03356,494,
893,3.99508,494.016,
894,4.02365,494.023,
895,4.03371,494.058,
896,4.0417,494.107,
897,4.01294,494.052,
898,3.98206,494.078,
899,3.99108,494.1,
900,3.99052,493.967,
901,4.00649,493.744,
902,4.04259,493.942,
903,4.01527,494.03,
904,3.99989,494.022,
905,4.0179,494.177,
906,4.04121,494.185,
907,4.00397,494.224,
908,3.98751,494.246,
909,3.98433,494.184,
910,3.96116,494.339,
911,3.96605,494.177,
912,3.99243,494.086,
913,3.99601,493.991,
914,3.98032,494.26,
915,3.97058,494.424,
916,3.97979,494.047,
917,3.97321,494.41,
918,3.98702,494.374,
919,3.99666,494.328,
920,3.98289,494.515,
921,3.99247,494.342,
922,4.00156,494.551,
923,3.98521,494.473,
924,3.97259,494.449,
925,3.9974,494.423,
926,3.95655,494.541,
927,3.92299,494.535,
928,3.95826,494.64,
929,3.95971,494.7,
930,3.96495,494.624,
931,3.97105,494.647,
932,3.95412,494.683,
933,3.95255,494.756,
934,3.96295,494.798,
935,3.95103,494.761,
936,3.91848,494.793,
937,3.96482,494.716,
938,3.98444,494.616,
939,3.96344,494.629,
940,3.98949,494.629,
941,3.99687,494.681,
942,3.96648,494.661,
943,3.91554,494.788,
944,3.92904,494.827,
945,3.97852,494.732,
946,3.96312,494.829,
947,3.97442,494.781,
948,4.00493,494.571,
949,3.97742,494.705,
950,3.94951,494.77,
951,3.92932,494.759,
952,3.93637,494.885,
953,3.9373,494.972,
954,3.93429,494.853,
955,3.93805,494.843,
956,3.93779,494.817,
957,3.9199,494.874,
958,3.94849,494.882,
959,3.99281,494.822,
960,3.91775,494.825,
961,3.91967,494.836,
962,3.9519,494.838,
963,3.94395,494.78,
964,3.93146,494.807,
965,3.94416,494.704,
966,3.95832,494.85,
967,3.9483,494.917,
968,3.9649,494.846,
969,3.94201,494.8304,
970,3.94679,494.7758,
971,3.93869,494.9139,
972,3.92746,494.9333,
973,3.94597,494.9279,
974,3.93064,494.8692,
975,3.91286,494.8852,
976,3.92858,495.019,
977,3.93811,494.9849,
978,3.93942,494.7933,
979,3.9081,494.751,
980,3.89704,494.911,
981,3.89622,494.941,
982,3.87444,494.891,
983,3.86447,494.867,
984,3.88528,494.971,
985,3.91353,494.95,
986,3.88369,495.1,
987,3.87772,495.134,
988,3.88295,495.007,
989,3.83579,495.074,
990,3.86932,494.898,
991,3.8914,494.945,
992,3.89152,495.147,
993,3.91128,495.06,
994,3.92321,495.211,
995,3.91181,495.252,
996,3.91921,495.04,
997,3.93645,495.192,
998,3.92803,495.19,
999,3.89209,495.271,
1000,3.89712,495.205,
1001,3.88938,495.166,
1002,3.85622,495.15,
1003,3.83927,495.194,
1004,3.89145,495.285,
1005,3.91112,495.198,
1006,3.89268,495.3,
1007,3.8748,495.263,
1008,3.8547,495.084,
1009,3.89436,494.929,
1010,3.90694,494.922,
1011,3.90671,494.919,
1012,3.90503,495.001,
1013,3.87822,495.134,
1014,3.85994,495.183,
1015,3.86299,494.989,
1016,3.86021,494.977,
1017,3.87301,495.224,
1018,3.86669,495.297,
1019,3.88962,495.352,
1020,3.88799,495.277,
1021,3.88061,495.249,
1022,3.82976,495.344,
1023,3.78153,495.27,887.64
1024,3.82614,495.199,899.704
1025,3.85099,495.265,909.361
1026,3.86566,495.316,905.887
1027,3.86012,495.347,908.736
1028,3.82673,495.406,908.255
1029,3.85961,495.363,909.455
1030,3.86713,495.403,906.608
1031,3.82493,495.487,909.813
1032,3.83144,495.543,909.277
1033,3.82597,495.577,907.455
1034,3.84745,495.621,907.773
1035,3.88492,495.576,909.07
1036,3.87793,495.268,908.276
1037,3.84999,495.346,904.575
1038,3.81294,495.459,906.996
1039,3.85498,495.563,908.298
1040,3.83899,495.553,909.751
1041,3.85449,495.564,911.418
1042,3.86873,495.58,910.436
1043,3.83029,495.622,909.271
1044,3.83752,495.685,908.653
1045,3.84529,495.672,911.803
1046,3.87227,495.646,914.703
1047,3.83824,495.658,910.506
1048,3.79181,495.697,906.849
1049,3.78707,495.746,909.795
1050,3.82824,495.727,912.521
1051,3.82962,495.801,912.213
1052,3.86351,495.751,912.36
1053,3.85073,495.663,909.167
1054,3.8101,495.609,906.698
1055,3.80331,495.816,907.023
1056,3.84919,495.91,909.02
1057,3.86042,495.925,912.61
1058,3.85057,495.916,909.507
1059,3.85123,495.948,906.557
1060,3.82605,496.035,909.597
1061,3.82619,496.03,911.556
1062,3.82599,495.976,910.826
1063,3.8338,495.906,907.719
1064,3.84508,495.829,910.717
1065,3.86303,495.783,910.717
1066,3.84905,495.909,911.015
1067,3.81787,495.899,917.002
1068,3.82796,495.939,914.555
1069,3.83155,495.916,909.116
1070,3.81357,496.03,911.033
1071,3.83149,495.991,909.461
1072,3.83722,496.008,912.639
1073,3.80563,495.962,911.42
1074,3.78065,495.912,911.239
1075,3.76871,495.881,912.646
1076,3.79009,495.959,909.982
1077,3.82845,495.932,911.342
1078,3.81318,495.896,909.289
1079,3.81883,495.833,915.667
1080,3.83668,496.037,911.763
1081,3.8302,495.977,908.585
1082,3.82896,495.992,918.68
1083,3.81764,495.991,915.703
1084,3.81999,495.983,917.439
1085,3.81222,496.119,914.43
1086,3.82372,496.078,908.456
1087,3.86741,496.063,911.91
1088,3.81838,496.121,910.513
1089,3.79162,496.031,913.067
1090,3.79329,496.128,912.2
1091,3.79168,496.139,910.606
1092,3.80848,496.224,912.061
1093,3.79647,496.185,917.141
1094,3.79189,496.216,915.824
1095,3.80693,496.18,913.4
1096,3.796,496.192,916.974
1097,3.81107,495.991,915.376
1098,3.7959,496.153,910.268
1099,3.7979,496.149,911.996
1100,3.81239,496.143,915.257
1101,3.78376,496.11,911.51
1102,3.80129,496.232,921.045
1103,3.77365,496.26,922.768
1104,3.77082,496.303,910.934
1105,3.79565,496.369,913.962
1106,3.77123,496.21,916.912
1107,3.75042,496.228,914.224
1108,3.75277,496.351,911.239
1109,3.78846,496.326,910.628
1110,3.79965,496.381,915.833
1111,3.76728,496.342,918.656
1112,3.76469,496.336,913.907
1113,3.78322,496.343,905.932