File: Wood/Calibration_Data/FSRI/FSRI_DSC_N2_3K_R1.csv
Time (s),Temperature (K),Heat Flow Rate (W/g)
0,323.5,0.010
29.5338,324.0,0.026
49.3902,324.5,0.036
66.0306,325.0,0.041
81.1026,325.5,0.047
95.2674,326.0,0.050
108.8172,326.5,0.053
121.962,327.0,0.055
134.7888,327.5,0.058
147.273,328.0,0.061
159.5166,328.5,0.062
171.4632,329.0,0.065
183.24,329.5,0.067
194.8428,330.0,0.068
206.229,330.5,0.068
217.5024,331.0,0.070
228.5652,331.5,0.074
239.5392,332.0,0.075
250.455,332.5,0.076
261.2844,333.0,0.076
272.0526,333.5,0.076
282.7488,334.0,0.077
293.3418,334.5,0.079
303.864,335.0,0.079
314.3484,335.5,0.080
324.7362,336.0,0.082
335.1132,336.5,0.082
345.429,337.0,0.083
355.7286,337.5,0.084
366.018,338.0,0.085
376.2594,338.5,0.086
386.4558,339.0,0.087
396.6132,339.5,0.089
406.7496,340.0,0.088
416.8644,340.5,0.090
426.9756,341.0,0.090
437.0628,341.5,0.089
447.1074,342.0,0.089
457.1622,342.5,0.089
467.0892,343.0,0.089
477.0168,343.5,0.092
486.945,344.0,0.093
496.8216,344.5,0.092
506.7972,345.0,0.091
516.7578,345.5,0.089
526.7058,346.0,0.090
536.613,346.5,0.091
546.531,347.0,0.089
556.4904,347.5,0.090
566.4414,348.0,0.089
576.471,348.5,0.088
586.4208,349.0,0.089
596.337,349.5,0.090
606.237,350.0,0.088
616.1022,350.5,0.088
625.9398,351.0,0.088
635.8026,351.5,0.088
645.6546,352.0,0.088
655.5192,352.5,0.088
665.4228,353.0,0.088
675.3078,353.5,0.088
685.1766,354.0,0.089
695.0268,354.5,0.088
704.8704,355.0,0.088
714.6804,355.5,0.088
724.5324,356.0,0.087
734.3826,356.5,0.087
744.267,357.0,0.088
754.1556,357.5,0.087
764.007,358.0,0.085
773.8308,358.5,0.087
783.6504,359.0,0.086
793.473,359.5,0.084
803.2788,360.0,0.087
813.0714,360.5,0.084
822.8946,361.0,0.087
832.7262,361.5,0.085
842.5038,362.0,0.087
852.327,362.5,0.085
862.1532,363.0,0.087
871.9248,363.5,0.085
881.6658,364.0,0.086
891.3594,364.5,0.085
901.0188,365.0,0.086
910.695,365.5,0.087
920.4486,366.0,0.085
930.2328,366.5,0.087
940.0482,367.0,0.086
949.8552,367.5,0.086
959.7204,368.0,0.087
969.5946,368.5,0.084
979.4718,369.0,0.085
989.3376,369.5,0.085
999.1104,370.0,0.087
1008.85,370.5,0.085
1018.63,371.0,0.084
1028.403,371.5,0.085
1038.18,372.0,0.086
1047.95,372.5,0.087
1057.71,373.0,0.087
1067.51,373.5,0.085
1077.3,374.0,0.083
1087.11,374.5,0.084
1096.94,375.0,0.085
1106.76,375.5,0.087
1116.561,376.0,0.084
1126.37,376.5,0.084
1136.15,377.0,0.084
1145.83,377.5,0.085
1155.54,378.0,0.083
1165.24,378.5,0.084
1174.91,379.0,0.082
1184.69,379.5,0.084
1194.48,380.0,0.083
1204.24,380.5,0.082
1214.04,381.0,0.085
1223.86,381.5,0.086
1233.62,382.0,0.085
1243.45,382.5,0.087
1253.3,383.0,0.086
1263.147,383.5,0.087
1273.01,384.0,0.087
1282.84,384.5,0.089
1292.643,385.0,0.088
1302.42,385.5,0.087
1312.2,386.0,0.087
1321.977,386.5,0.088
1331.73,387.0,0.088
1341.46,387.5,0.088
1351.13,388.0,0.088
1360.81,388.5,0.089
1370.54,389.0,0.088
1380.24,389.5,0.088
1389.99,390.0,0.088
1399.77,390.5,0.089
1409.499,391.0,0.090
1419.26,391.5,0.091
1429.02,392.0,0.091
1438.76,392.5,0.090
1448.52,393.0,0.091
1458.264,393.5,0.092
1467.996,394.0,0.090
1477.74,394.5,0.091
1487.51,395.0,0.090
1497.3,395.5,0.089
1507.05,396.0,0.088
1516.77,396.5,0.091
1526.481,397.0,0.089
1536.171,397.5,0.088
1545.87,398.0,0.088
1555.59,398.5,0.090
1565.29,399.0,0.090
1574.991,399.5,0.091
1584.67,400.0,0.090
1594.35,400.5,0.091
1604.02,401.0,0.094
1613.7,401.5,0.094
1623.38,402.0,0.092
1633.08,402.5,0.094
1642.74,403.0,0.093
1652.45,403.5,0.095
1662.15,404.0,0.095
1671.831,404.5,0.095
1681.542,405.0,0.097
1691.29,405.5,0.094
1701.04,406.0,0.096
1710.78,406.5,0.098
1720.55,407.0,0.096
1730.27,407.5,0.097
1739.958,408.0,0.095
1749.69,408.5,0.098
1759.422,409.0,0.099
1769.14,409.5,0.098
1778.88,410.0,0.097
1788.57,410.5,0.098
1798.23,411.0,0.097
1807.9,411.5,0.098
1817.6,412.0,0.098
1827.32,412.5,0.099
1837.02,413.0,0.099
1846.71,413.5,0.098
1856.421,414.0,0.100
1866.09,414.5,0.099
1875.79,415.0,0.100
1885.51,415.5,0.100
1895.21,416.0,0.100
1904.919,416.5,0.103
1914.62,417.0,0.102
1924.3,417.5,0.102
1933.93,418.0,0.102
1943.586,418.5,0.102
1953.26,419.0,0.102
1962.95,419.5,0.100
1972.68,420.0,0.100
1982.36,420.5,0.101
1992.09,421.0,0.102
2001.8,421.5,0.103
2011.5,422.0,0.104
2021.21,422.5,0.102
2030.88,423.0,0.103
2040.52,423.5,0.102
2050.206,424.0,0.104
2059.89,424.5,0.105
2069.59,425.0,0.106
2079.261,425.5,0.106
2088.93,426.0,0.105
2098.6,426.5,0.105
2108.26,427.0,0.106
2117.93,427.5,0.107
2127.61,428.0,0.106
2137.3,428.5,0.108
2146.96,429.0,0.106
2156.658,429.5,0.108
2166.35,430.0,0.107
2176.03,430.5,0.107
2185.722,431.0,0.107
2195.41,431.5,0.106
2205.11,432.0,0.107
2214.81,432.5,0.105
2224.491,433.0,0.104
2234.2,433.5,0.108
2243.88,434.0,0.107
2253.57,434.5,0.107
2263.28,435.0,0.105
2272.96,435.5,0.107
2282.64,436.0,0.107
2292.33,436.5,0.107
2302.035,437.0,0.106
2311.73,437.5,0.106
2321.47,438.0,0.106
2331.22,438.5,0.107
2340.94,439.0,0.106
2350.7,439.5,0.106
2360.43,440.0,0.106
2370.09,440.5,0.106
2379.825,441.0,0.107
2389.51,441.5,0.107
2399.22,442.0,0.107
2408.946,442.5,0.108
2418.65,443.0,0.111
2428.341,443.5,0.110
2438.06,444.0,0.109
2447.78,444.5,0.112
2457.45,445.0,0.110
2467.149,445.5,0.111
2476.87,446.0,0.109
2486.586,446.5,0.111
2496.315,447.0,0.112
2506.08,447.5,0.113
2515.81,448.0,0.113
2525.52,448.5,0.113
2535.24,449.0,0.113
2544.98,449.5,0.114
2554.689,450.0,0.115
2564.45,450.5,0.115
2574.17,451.0,0.112
2583.879,451.5,0.112
2593.6,452.0,0.114
2603.289,452.5,0.112
2612.982,453.0,0.112
2622.64,453.5,0.112
2632.29,454.0,0.115
2641.96,454.5,0.112
2651.63,455.0,0.114
2661.3,455.5,0.114
2670.972,456.0,0.115
2680.629,456.5,0.114
2690.3,457.0,0.114
2700,457.5,0.114
2709.726,458.0,0.114
2719.431,458.5,0.113
2729.12,459.0,0.115
2738.83,459.5,0.114
2748.5,460.0,0.114
2758.209,460.5,0.114
2767.93,461.0,0.115
2777.59,461.5,0.115
2787.29,462.0,0.115
2796.99,462.5,0.116
2806.65,463.0,0.114
2816.34,463.5,0.116
2826.039,464.0,0.115
2835.71,464.5,0.117
2845.35,465.0,0.116
2854.95,465.5,0.117
2864.53,466.0,0.117
2874.11,466.5,0.116
2883.792,467.0,0.117
2893.51,467.5,0.117
2903.28,468.0,0.118
2913.02,468.5,0.117
2922.726,469.0,0.119
2932.404,469.5,0.118
2942.07,470.0,0.117
2951.84,470.5,0.116
2961.56,471.0,0.115
2971.25,471.5,0.115
2980.96,472.0,0.114
2990.63,472.5,0.116
3000.3,473.0,0.116
3009.93,473.5,0.114
3019.599,474.0,0.116
3029.31,474.5,0.117
3038.98,475.0,0.115
3048.71,475.5,0.115
3058.37,476.0,0.117
3068.07,476.5,0.116
3077.748,477.0,0.116
3087.43,477.5,0.116
3097.12,478.0,0.115
3106.79,478.5,0.115
3116.48,479.0,0.115
3126.14,479.5,0.116
3135.81,480.0,0.116
3145.49,480.5,0.118
3155.16,481.0,0.116
3164.84,481.5,0.116
3174.53,482.0,0.116
3184.2,482.5,0.117
3193.89,483.0,0.116
3203.56,483.5,0.116
3213.23,484.0,0.118
3222.93,484.5,0.120
3232.6,485.0,0.118
3242.29,485.5,0.118
3252,486.0,0.119
3261.68,486.5,0.120
3271.32,487.0,0.120
3281.05,487.5,0.118
3290.76,488.0,0.119
3300.49,488.5,0.118
3310.26,489.0,0.117
3319.99,489.5,0.116
3329.71,490.0,0.115
3339.4,490.5,0.119
3349.122,491.0,0.116
3358.82,491.5,0.117
3368.541,492.0,0.116
3378.25,492.5,0.117
3387.999,493.0,0.118
3397.74,493.5,0.119
3407.46,494.0,0.120
3417.19,494.5,0.118
3426.903,495.0,0.119
3436.56,495.5,0.120
3446.25,496.0,0.120
3455.94,496.5,0.119
3465.639,497.0,0.119
3475.39,497.5,0.120
3485.11,498.0,0.119
3494.82,498.5,0.121
3504.53,499.0,0.120
3514.22,499.5,0.120
3523.87,500.0,0.120
3533.58,500.5,0.121
3543.29,501.0,0.122
3553.014,501.5,0.122
3562.77,502.0,0.122
3572.48,502.5,0.123
3582.19,503.0,0.122
3591.87,503.5,0.122
3601.56,504.0,0.122
3611.25,504.5,0.120
3620.913,505.0,0.119
3630.59,505.5,0.121
3640.26,506.0,0.122
3649.932,506.5,0.121
3659.61,507.0,0.119
3669.26,507.5,0.119
3678.96,508.0,0.120
3688.65,508.5,0.121
3698.37,509.0,0.121
3708.05,509.5,0.124
3717.77,510.0,0.123
3727.48,510.5,0.123
3737.2,511.0,0.122
3746.96,511.5,0.122
3756.729,512.0,0.120
3766.485,512.5,0.120
3776.202,513.0,0.122
3785.98,513.5,0.123
3795.71,514.0,0.123
3805.461,514.5,0.123
3815.232,515.0,0.123
3824.93,515.5,0.124
3834.65,516.0,0.124
3844.38,516.5,0.125
3854.09,517.0,0.123
3863.79,517.5,0.125
3873.51,518.0,0.124
3883.2,518.5,0.124
3892.92,519.0,0.123
3902.625,519.5,0.122
3912.36,520.0,0.123
3922.13,520.5,0.122
3931.86,521.0,0.120
3941.61,521.5,0.121
3951.34,522.0,0.123
3961.07,522.5,0.121
3970.81,523.0,0.122
3980.49,523.5,0.121
3990.22,524.0,0.121
3999.96,524.5,0.122
4009.68,525.0,0.122
4019.487,525.5,0.123
4029.28,526.0,0.121
4039.04,526.5,0.122
4048.77,527.0,0.123
4058.47,527.5,0.125
4068.17,528.0,0.125
4077.84,528.5,0.124
4087.54,529.0,0.125
4097.25,529.5,0.123
4106.98,530.0,0.123
4116.69,530.5,0.124
4126.42,531.0,0.124
4136.12,531.5,0.125
4145.85,532.0,0.125
4155.564,532.5,0.126
4165.28,533.0,0.125
4175,533.5,0.125
4184.72,534.0,0.127
4194.41,534.5,0.128
4204.116,535.0,0.127
4213.82,535.5,0.127
4223.53,536.0,0.126
4233.258,536.5,0.126
4242.98,537.0,0.127
4252.67,537.5,0.125
4262.4,538.0,0.124
4272.09,538.5,0.124
4281.82,539.0,0.126
4291.57,539.5,0.125
4301.328,540.0,0.126
4311.05,540.5,0.125
4320.819,541.0,0.125
4330.53,541.5,0.125
4340.23,542.0,0.127
4349.97,542.5,0.126
4359.69,543.0,0.125
4369.43,543.5,0.125
4379.16,544.0,0.125
4388.865,544.5,0.125
4398.58,545.0,0.127
4408.332,545.5,0.128
4418.07,546.0,0.127
4427.85,546.5,0.126
4437.621,547.0,0.125
4447.389,547.5,0.126
4457.16,548.0,0.127
4466.946,548.5,0.129
4476.7,549.0,0.129
4486.482,549.5,0.129
4496.25,550.0,0.130
4506.05,550.5,0.131
4515.83,551.0,0.130
4525.64,551.5,0.130
4535.43,552.0,0.132
4545.24,552.5,0.131
4555.047,553.0,0.133
4564.81,553.5,0.133
4574.57,554.0,0.133
4584.354,554.5,0.135
4594.14,555.0,0.134
4603.935,555.5,0.137
4613.78,556.0,0.137
4623.57,556.5,0.136
4633.34,557.0,0.137
4643.11,557.5,0.137
4652.83,558.0,0.139
4662.59,558.5,0.139
4672.35,559.0,0.140
4682.07,559.5,0.140
4691.84,560.0,0.140
4701.58,560.5,0.142
4711.27,561.0,0.140
4721,561.5,0.142
4730.73,562.0,0.142
4740.47,562.5,0.144
4750.24,563.0,0.143
4760.03,563.5,0.143
4769.8,564.0,0.146
4779.56,564.5,0.143
4789.29,565.0,0.145
4799.05,565.5,0.146
4808.76,566.0,0.150
4818.5,566.5,0.149
4828.28,567.0,0.151
4838.06,567.5,0.151
4847.82,568.0,0.150
4857.61,568.5,0.151
4867.37,569.0,0.153
4877.14,569.5,0.154
4886.89,570.0,0.154
4896.67,570.5,0.154
4906.43,571.0,0.155
4916.232,571.5,0.155
4926.07,572.0,0.155
4935.87,572.5,0.158
4945.656,573.0,0.158
4955.45,573.5,0.159
4965.19,574.0,0.160
4974.95,574.5,0.161
4984.73,575.0,0.162
4994.5,575.5,0.161
5004.25,576.0,0.161
5013.99,576.5,0.163
5023.73,577.0,0.162
5033.46,577.5,0.163
5043.24,578.0,0.166
5053.01,578.5,0.167
5062.8,579.0,0.166
5072.59,579.5,0.169
5082.36,580.0,0.169
5092.13,580.5,0.169
5101.93,581.0,0.171
5111.697,581.5,0.171
5121.49,582.0,0.173
5131.266,582.5,0.174
5141.06,583.0,0.175
5150.85,583.5,0.175
5160.64,584.0,0.178
5170.464,584.5,0.179
5180.25,585.0,0.179
5190.05,585.5,0.179
5199.84,586.0,0.181
5209.63,586.5,0.180
5219.41,587.0,0.182
5229.2,587.5,0.185
5238.98,588.0,0.184
5248.73,588.5,0.182
5258.48,589.0,0.183
5268.28,589.5,0.184
5278.08,590.0,0.185
5287.92,590.5,0.184
5297.75,591.0,0.185
5307.5,591.5,0.184
5317.25,592.0,0.186
5326.98,592.5,0.186
5336.727,593.0,0.188
5346.51,593.5,0.189
5356.28,594.0,0.187
5366.09,594.5,0.191
5375.913,595.0,0.191
5385.738,595.5,0.191
5395.58,596.0,0.191
5405.42,596.5,0.191
5415.282,597.0,0.191
5425.137,597.5,0.192
5434.99,598.0,0.195
5444.82,598.5,0.194
5454.65,599.0,0.197
5464.51,599.5,0.197
5474.38,600.0,0.199
5484.243,600.5,0.201
5494.1,601.0,0.201
5503.968,601.5,0.200
5513.799,602.0,0.202
5523.64,602.5,0.203
5533.461,603.0,0.204
5543.29,603.5,0.206
5553.13,604.0,0.209
5562.951,604.5,0.211
5572.776,605.0,0.210
5582.59,605.5,0.213
5592.35,606.0,0.213
5602.098,606.5,0.213
5611.85,607.0,0.216
5621.625,607.5,0.219
5631.5,608.0,0.222
5641.4,608.5,0.222
5651.292,609.0,0.226
5661.16,609.5,0.228
5670.99,610.0,0.228
5680.8,610.5,0.230
5690.58,611.0,0.229
5700.39,611.5,0.234
5710.24,612.0,0.235
5720.109,612.5,0.236
5730.04,613.0,0.240
5739.96,613.5,0.242
5749.85,614.0,0.243
5759.77,614.5,0.247
5769.68,615.0,0.247
5779.58,615.5,0.250
5789.469,616.0,0.249
5799.348,616.5,0.250
5809.23,617.0,0.250
5819.1,617.5,0.250
5829.01,618.0,0.251
5838.89,618.5,0.251
5848.75,619.0,0.252
5858.6,619.5,0.255
5868.42,620.0,0.253
5878.24,620.5,0.252
5888.05,621.0,0.252
5897.86,621.5,0.251
5907.66,622.0,0.249
5917.5,622.5,0.245
5927.35,623.0,0.243
5937.201,623.5,0.239
5947.089,624.0,0.237
5956.91,624.5,0.236
5966.73,625.0,0.229
5976.54,625.5,0.227
5986.35,626.0,0.224
5996.17,626.5,0.218
6006,627.0,0.213
6015.83,627.5,0.204
6025.641,628.0,0.198
6035.44,628.5,0.188
6045.22,629.0,0.182
6055.005,629.5,0.174
6064.797,630.0,0.166
6074.53,630.5,0.156
6084.25,631.0,0.150
6093.98,631.5,0.141
6103.71,632.0,0.130
6113.47,632.5,0.120
6123.23,633.0,0.113
6132.99,633.5,0.102
6142.74,634.0,0.096
6152.48,634.5,0.085
6162.25,635.0,0.077
6171.987,635.5,0.068
6181.75,636.0,0.060
6191.5,636.5,0.054
6201.285,637.0,0.045
6211.086,637.5,0.040
6220.88,638.0,0.034
6230.69,638.5,0.030
6240.49,639.0,0.025
6250.33,639.5,0.021
6260.16,640.0,0.017
6269.99,640.5,0.014
6279.85,641.0,0.009
6289.7,641.5,0.008
6299.53,642.0,0.007
6309.33,642.5,0.008
6319.16,643.0,0.006
6328.97,643.5,0.003
6338.83,644.0,0.003
6348.69,644.5,0.001
6358.59,645.0,0.000
6368.48,645.5,0.002
6378.37,646.0,0.001
6388.26,646.5,0.000
6398.145,647.0,0.000
6408.04,647.5,-0.003
6417.942,648.0,-0.002
6427.85,648.5,-0.002
6437.769,649.0,-0.001
6447.705,649.5,-0.003
6457.62,650.0,-0.003
6467.54,650.5,-0.005
6477.46,651.0,-0.004
6487.37,651.5,-0.007
6497.26,652.0,-0.008
6507.15,652.5,-0.007
6517.03,653.0,-0.009
6526.91,653.5,-0.007
6536.81,654.0,-0.010
6546.7,654.5,-0.011
6556.6,655.0,-0.008
6566.48,655.5,-0.010
6576.366,656.0,-0.009
6586.22,656.5,-0.010
6596.11,657.0,-0.010
6606,657.5,-0.012
6615.88,658.0,-0.013
6625.81,658.5,-0.013
6635.7,659.0,-0.014
6645.59,659.5,-0.017
6655.51,660.0,-0.015
6665.44,660.5,-0.017
6675.36,661.0,-0.018
6685.31,661.5,-0.019
6695.23,662.0,-0.019
6705.17,662.5,-0.019
6715.14,663.0,-0.020
6725.09,663.5,-0.020
6735.04,664.0,-0.022
6744.984,664.5,-0.021
6754.9,665.0,-0.023
6764.862,665.5,-0.023
6774.807,666.0,-0.024
6784.75,666.5,-0.023
6794.661,667.0,-0.024
6804.53,667.5,-0.024
6814.41,668.0,-0.026
6824.31,668.5,-0.027
6834.22,669.0,-0.027
6844.17,669.5,-0.029
6854.09,670.0,-0.029
6863.994,670.5,-0.030
6873.91,671.0,-0.031
6883.83,671.5,-0.034
6893.754,672.0,-0.033
6903.69,672.5,-0.033
6913.63,673.0,-0.034
6923.568,673.5,-0.035
6933.528,674.0,-0.034
6943.5,674.5,-0.034
6953.47,675.0,-0.035
6963.41,675.5,-0.035
6973.31,676.0,-0.036
6983.23,676.5,-0.037
6993.141,677.0,-0.036
7003.06,677.5,-0.036
7013.05,678.0,-0.040
7023.02,678.5,-0.040
7032.99,679.0,-0.040
7042.95,679.5,-0.042
7052.913,680.0,-0.043
7062.84,680.5,-0.043
7072.74,681.0,-0.042
7082.66,681.5,-0.043
7092.58,682.0,-0.044
7102.488,682.5,-0.043
7112.415,683.0,-0.045
7122.3,683.5,-0.044
7132.2,684.0,-0.044
7142.16,684.5,-0.044
7152.17,685.0,-0.044
7162.227,685.5,-0.046
7172.26,686.0,-0.048
7182.243,686.5,-0.047
7192.2,687.0,-0.048
7202.136,687.5,-0.047
7212.09,688.0,-0.049
7222.03,688.5,-0.048
7231.98,689.0,-0.050
7241.88,689.5,-0.049
7251.78,690.0,-0.051
7261.686,690.5,-0.051
7271.595,691.0,-0.048
7281.49,691.5,-0.049
7291.4,692.0,-0.050
7301.31,692.5,-0.052
7311.18,693.0,-0.051
7321.09,693.5,-0.050
7331,694.0,-0.051
7340.9,694.5,-0.049
7350.85,695.0,-0.050
7360.794,695.5,-0.050
7370.75,696.0,-0.050
7380.72,696.5,-0.050
7390.68,697.0,-0.050
7400.66,697.5,-0.049
7410.65,698.0,-0.049
7420.632,698.5,-0.048
7430.565,699.0,-0.048
7440.52,699.5,-0.049
7450.44,700.0,-0.047
7460.36,700.5,-0.048
7470.3,701.0,-0.047
7480.22,701.5,-0.046
7490.14,702.0,-0.045
7500.1,702.5,-0.043
7510.07,703.0,-0.046
7520.03,703.5,-0.043
7529.99,704.0,-0.042
7539.94,704.5,-0.043
7549.9,705.0,-0.040
7559.913,705.5,-0.042
7569.91,706.0,-0.042
7579.91,706.5,-0.042
7589.93,707.0,-0.041
7599.909,707.5,-0.040
7609.93,708.0,-0.042
7619.88,708.5,-0.039
7629.82,709.0,-0.040
7639.716,709.5,-0.038
7649.65,710.0,-0.041
7659.63,710.5,-0.038
7669.63,711.0,-0.039
7679.68,711.5,-0.040
7689.64,712.0,-0.038
7699.6,712.5,-0.036
7709.55,713.0,-0.036
7719.504,713.5,-0.034
7729.47,714.0,-0.032
7739.42,714.5,-0.033
7749.4,715.0,-0.033
7759.35,715.5,-0.035
7769.34,716.0,-0.034
7779.363,716.5,-0.031
7789.4,717.0,-0.032
7799.43,717.5,-0.029
7809.45,718.0,-0.030
7819.45,718.5,-0.030
7829.44,719.0,-0.030
7839.42,719.5,-0.029
7849.39,720.0,-0.032
7859.36,720.5,-0.031
7869.35,721.0,-0.031
7879.35,721.5,-0.029
7889.325,722.0,-0.026
7899.294,722.5,-0.027
7909.269,723.0,-0.028
7919.23,723.5,-0.026
7929.21,724.0,-0.026
7939.22,724.5,-0.027
7949.24,725.0,-0.029
7959.26,725.5,-0.030
7969.29,726.0,-0.027
7979.31,726.5,-0.028
7989.27,727.0,-0.026
7999.26,727.5,-0.027
8009.235,728.0,-0.027
8019.18,728.5,-0.029
8029.21,729.0,-0.029
8039.21,729.5,-0.027
8049.17,730.0,-0.028
8059.16,730.5,-0.030
8069.12,731.0,-0.033
8079.1,731.5,-0.033
8089.12,732.0,-0.032
8099.13,732.5,-0.032
8109.13,733.0,-0.032
8119.11,733.5,-0.032
8129.08,734.0,-0.033
8139.08,734.5,-0.035
8149.05,735.0,-0.034
8159.02,735.5,-0.035
8168.99,736.0,-0.035
8178.93,736.5,-0.036
8188.881,737.0,-0.033
8198.83,737.5,-0.035
8208.82,738.0,-0.036
8218.803,738.5,-0.035
8228.82,739.0,-0.037
8238.82,739.5,-0.034
8248.81,740.0,-0.034
8258.83,740.5,-0.037
8268.834,741.0,-0.036
8278.86,741.5,-0.037
8288.89,742.0,-0.036
8298.87,742.5,-0.036
8308.86,743.0,-0.034
8318.83,743.5,-0.036
8328.79,744.0,-0.034
8338.77,744.5,-0.035
8348.74,745.0,-0.036
8358.71,745.5,-0.036
8368.68,746.0,-0.036
8378.655,746.5,-0.035
8388.612,747.0,-0.036
8398.587,747.5,-0.036
8408.56,748.0,-0.037
8418.51,748.5,-0.038
8428.49,749.0,-0.038
8438.47,749.5,-0.040
8448.45,750.0,-0.040
8458.44,750.5,-0.042
8468.44,751.0,-0.040
8478.42,751.5,-0.040
8488.42,752.0,-0.039
8498.42,752.5,-0.037
8508.43,753.0,-0.037
8518.47,753.5,-0.037
8528.487,754.0,-0.037
8538.51,754.5,-0.035
8548.53,755.0,-0.036
8558.54,755.5,-0.036
8568.57,756.0,-0.035
8578.6,756.5,-0.036
8588.65,757.0,-0.038
8598.7,757.5,-0.036
8608.72,758.0,-0.037
8618.76,758.5,-0.034
8628.71,759.0,-0.036
8638.65,759.5,-0.037
8648.6,760.0,-0.038
8658.606,760.5,-0.036
8668.65,761.0,-0.037
8678.69,761.5,-0.037
8688.74,762.0,-0.033
8698.752,762.5,-0.032
8708.781,763.0,-0.034
8718.81,763.5,-0.032
8728.87,764.0,-0.033
8738.922,764.5,-0.034
8748.993,765.0,-0.034
8759.08,765.5,-0.032
8769.15,766.0,-0.033
8779.23,766.5,-0.033
8789.3,767.0,-0.033
8799.36,767.5,-0.031
8809.43,768.0,-0.030
8819.46,768.5,-0.030
8829.48,769.0,-0.028
8839.52,769.5,-0.029
8849.59,770.0,-0.028
8859.68,770.5,-0.028
8869.76,771.0,-0.029
8879.895,771.5,-0.029
8890.02,772.0,-0.028
8900.13,772.5,-0.028
8910.261,773.0,-0.029
8920.36,773.5,-0.030
8930.43,774.0,-0.030
8940.52,774.5,-0.031
8950.61,775.0,-0.031
8960.7,775.5,-0.033
8970.78,776.0,-0.034
8980.84,776.5,-0.031
8990.86,777.0,-0.032
9000.86,777.5,-0.033
9010.87,778.0,-0.033
9020.89,778.5,-0.034
9030.89,779.0,-0.034
9040.91,779.5,-0.033
9050.9,780.0,-0.036
9060.88,780.5,-0.035
9070.87,781.0,-0.034
9080.83,781.5,-0.036
9090.82,782.0,-0.037
9100.81,782.5,-0.035
9110.796,783.0,-0.037
9120.81,783.5,-0.034
9130.8,784.0,-0.035
9140.769,784.5,-0.036
9150.73,785.0,-0.038
9160.731,785.5,-0.035
9170.73,786.0,-0.037
9180.74,786.5,-0.036
9190.8,787.0,-0.035
9200.83,787.5,-0.036
9210.88,788.0,-0.034
9220.93,788.5,-0.034
9230.99,789.0,-0.033
9241.06,789.5,-0.034
9251.09,790.0,-0.033
9261.14,790.5,-0.036
9271.16,791.0,-0.034
9281.17,791.5,-0.035
9291.21,792.0,-0.034
9301.26,792.5,-0.036
9311.34,793.0,-0.033
9321.384,793.5,-0.035
9331.428,794.0,-0.034
9341.47,794.5,-0.033
9351.45,795.0,-0.034
9361.44,795.5,-0.034
9371.44,796.0,-0.035
9381.44,796.5,-0.038
9391.5,797.0,-0.038
9401.55,797.5,-0.037
9411.62,798.0,-0.035
9421.68,798.5,-0.035
9431.74,799.0,-0.037
9441.825,799.5,-0.039
9451.85,800.0,-0.039
9461.9,800.5,-0.037
9471.939,801.0,-0.038
9481.95,801.5,-0.038
9491.985,802.0,-0.037
9502.03,802.5,-0.035
9512.02,803.0,-0.038
9522.087,803.5,-0.038
9532.15,804.0,-0.040
9542.23,804.5,-0.039
9552.31,805.0,-0.038
9562.32,805.5,-0.038
9572.34,806.0,-0.041
9582.366,806.5,-0.040
9592.42,807.0,-0.041
9602.469,807.5,-0.039
9612.51,808.0,-0.040
9622.548,808.5,-0.042
9632.6,809.0,-0.041
9642.672,809.5,-0.042
9652.74,810.0,-0.045
9662.8,810.5,-0.040
9672.825,811.0,-0.042
9682.88,811.5,-0.041
9692.949,812.0,-0.042
9703.04,812.5,-0.044
9713.14,813.0,-0.043
9723.2,813.5,-0.042
9733.23,814.0,-0.044
9743.29,814.5,-0.044
9753.34,815.0,-0.046
9763.34,815.5,-0.045
9773.41,816.0,-0.044
9783.46,816.5,-0.044
9793.52,817.0,-0.045
9803.56,817.5,-0.046
9813.564,818.0,-0.046
9823.59,818.5,-0.045
9833.64,819.0,-0.049
9843.75,819.5,-0.048
9853.89,820.0,-0.049
9863.98,820.5,-0.046
9874.04,821.0,-0.049
9884.12,821.5,-0.044
9894.18,822.0,-0.047
9904.26,822.5,-0.046
9914.34,823.0,-0.046
9924.393,823.5,-0.046
9934.45,824.0,-0.046
9944.52,824.5,-0.046
9954.56,825.0,-0.046
9964.605,825.5,-0.046
9974.65,826.0,-0.047
9984.73,826.5,-0.046
9994.82,827.0,-0.045
10004.9,827.5,-0.043
10015,828.0,-0.042
10025.2,828.5,-0.043
10035.4,829.0,-0.043
10045.5,829.5,-0.042
10055.646,830.0,-0.045
10065.8,830.5,-0.046
10075.9,831.0,-0.046
10085.973,831.5,-0.043
10096.1,832.0,-0.046
10106.2,832.5,-0.046
10116.3,833.0,-0.043
10126.4,833.5,-0.047
10136.5,834.0,-0.042
10146.6,834.5,-0.041
10156.8,835.0,-0.043
10166.8,835.5,-0.046
10176.903,836.0,-0.044
10186.941,836.5,-0.044
10197,837.0,-0.042
10207,837.5,-0.041
10217,838.0,-0.045
10227.1,838.5,-0.046
10237.1,839.0,-0.044
10247.1,839.5,-0.042
10257.1,840.0,-0.040
10267.1,840.5,-0.045
10277.112,841.0,-0.044
10287.135,841.5,-0.046
10297.2,842.0,-0.043
10307.2,842.5,-0.045
10317.327,843.0,-0.040
10327.4,843.5,-0.040
10337.5,844.0,-0.044
10347.5,844.5,-0.043
10357.6,845.0,-0.045
10367.706,845.5,-0.044
10377.9,846.0,-0.043
10388.1,846.5,-0.044
10398.282,847.0,-0.042
10408.488,847.5,-0.043
10418.6,848.0,-0.038
10428.8,848.5,-0.037
10438.9,849.0,-0.039
10448.961,849.5,-0.038
10459.1,850.0,-0.039
10469.1,850.5,-0.037
10479.1,851.0,-0.038
10489.2,851.5,-0.038
10499.3,852.0,-0.038
10509.3,852.5,-0.037
10519.4,853.0,-0.034
10529.517,853.5,-0.034
10539.6,854.0,-0.035
10549.662,854.5,-0.033
10559.7,855.0,-0.035
10569.8,855.5,-0.035
10579.9,856.0,-0.035
10590,856.5,-0.035
10600.1,857.0,-0.034
10610.175,857.5,-0.035
10620.2,858.0,-0.033
10630.4,858.5,-0.036
10640.5,859.0,-0.037
10650.6,859.5,-0.036
10660.7,860.0,-0.036
10670.8,860.5,-0.039
10680.834,861.0,-0.037
10690.9,861.5,-0.039
10701,862.0,-0.039
10711,862.5,-0.040
10721.1,863.0,-0.042
10731.1,863.5,-0.041
10741.3,864.0,-0.042
10751.4,864.5,-0.039
10761.483,865.0,-0.040
10771.6,865.5,-0.043
10781.697,866.0,-0.042
10791.8,866.5,-0.044
10801.881,867.0,-0.041
10812,867.5,-0.041
10822.1,868.0,-0.038
10832.2,868.5,-0.043
10842.4,869.0,-0.039
10852.5,869.5,-0.043
10862.6,870.0,-0.044
10872.7,870.5,-0.042
10882.8,871.0,-0.040
10892.9,871.5,-0.037
10902.963,872.0,-0.038
10913,872.5,-0.040
10923.1,873.0,-0.038
10933.2,873.5,-0.035
10943.2,874.0,-0.038
10953.4,874.5,-0.035
10963.4,875.0,-0.036
10973.5,875.5,-0.035
10983.6,876.0,-0.037
10993.7,876.5,-0.037
11003.8,877.0,-0.038
11013.882,877.5,-0.037
11024,878.0,-0.039
11034.1,878.5,-0.039
11044.2,879.0,-0.041
11054.3,879.5,-0.042
11064.4,880.0,-0.041
11074.5,880.5,-0.039
11084.7,881.0,-0.040
11094.8,881.5,-0.038
11104.9,882.0,-0.040
11115,882.5,-0.043
11125.1,883.0,-0.041
11135.1,883.5,-0.039
11145.24,884.0,-0.039
11155.3,884.5,-0.035
11165.4,885.0,-0.039
11175.453,885.5,-0.037
11185.533,886.0,-0.037
11195.6,886.5,-0.037
11205.8,887.0,-0.033
11215.9,887.5,-0.036
11226.1,888.0,-0.034
11236.203,888.5,-0.033
11246.3,889.0,-0.032
11256.45,889.5,-0.026
11266.605,890.0,-0.032
11276.805,890.5,-0.034
11287,891.0,-0.030
11297.2,891.5,-0.029
11307.4,892.0,-0.030
11317.5,892.5,-0.029
11327.7,893.0,-0.028
11337.8,893.5,-0.029
11347.9,894.0,-0.030
11358.1,894.5,-0.031
11368.194,895.0,-0.029
11378.3,895.5,-0.030
11388.5,896.0,-0.029
11398.6,896.5,-0.027
11408.8,897.0,-0.028
11419,897.5,-0.028
11429.1,898.0,-0.029
11439.2,898.5,-0.030
11449.4,899.0,-0.026
11459.499,899.5,-0.028
11469.6,900.0,-0.026
11479.8,900.5,-0.027
11490,901.0,-0.030
11500.1,901.5,-0.026
11510.256,902.0,-0.029
11520.4,902.5,-0.033
11530.578,903.0,-0.030
11540.7,903.5,-0.031
11550.9,904.0,-0.032
11561.1,904.5,-0.030
11571.2,905.0,-0.029
11581.398,905.5,-0.031
11591.6,906.0,-0.031
11601.7,906.5,-0.028
11611.9,907.0,-0.030
11622.042,907.5,-0.033
11632.1,908.0,-0.029
11642.3,908.5,-0.033
11652.4,909.0,-0.032
11662.4,909.5,-0.030
11672.5,910.0,-0.030
11682.6,910.5,-0.029
11692.7,911.0,-0.028
11702.8,911.5,-0.028
11713.1,912.0,-0.028
11723.3,912.5,-0.025
11733.6,913.0,-0.011
11743.9,913.5,-0.010
11754.1,914.0,-0.008
11764.2,914.5,-0.009
11774.4,915.0,-0.006
11784.546,915.5,-0.002
11794.683,916.0,-0.004
11804.9,916.5,-0.002
11815.1,917.0,-0.004
11825.3,917.5,-0.008
11835.5,918.0,-0.005
11845.5,918.5,-0.001
11855.514,919.0,-0.002
11865.5,919.5,-0.020
11875.5,920.0,-0.016
11885.6,920.5,-0.015
11895.7,921.0,-0.010
11905.9,921.5,-0.012
11916,922.0,-0.009
11926.3,922.5,-0.012
11936.5,923.0,-0.012
11946.675,923.5,-0.011
11956.9,924.0,-0.009
11967.2,924.5,-0.006
11977.4,925.0,-0.005
11987.7,925.5,-0.007
11997.9,926.0,-0.010
12008.2,926.5,-0.009
12018.3,927.0,-0.008
12028.518,927.5,-0.011
12038.7,928.0,-0.010
12048.9,928.5,-0.011
12059.061,929.0,-0.007
12069.267,929.5,-0.011
12079.5,930.0,-0.007
12089.7,930.5,-0.010
12099.9,931.0,-0.011
12110,931.5,-0.008
12120.105,932.0,-0.014
12130.2,932.5,-0.018
12140.3,933.0,-0.020
12150.4,933.5,-0.024
12160.476,934.0,-0.023
12170.616,934.5,-0.021
12180.7,935.0,-0.020
12190.9,935.5,-0.017
12201,936.0,-0.016
12211.1,936.5,-0.017
12221.2,937.0,-0.015
12231.3,937.5,-0.013
12241.4,938.0,-0.017
12251.5,938.5,-0.014
12261.7,939.0,-0.015
12271.9,939.5,-0.016
12282.1,940.0,-0.010
12292.2,940.5,-0.010
12302.4,941.0,-0.008
12312.6,941.5,-0.009
12322.8,942.0,-0.009
12332.973,942.5,-0.010
12343.182,943.0,-0.008
12353.4,943.5,-0.009
12363.5,944.0,-0.009
12373.7,944.5,-0.008
12383.9,945.0,-0.010
12394.1,945.5,-0.007
12404.3,946.0,-0.007
12414.5,946.5,-0.005
12424.7,947.0,-0.002
12434.886,947.5,-0.001
12445.1,948.0,-0.004
12455.229,948.5,-0.006
12465.4,949.0,-0.006
12475.47,949.5,-0.007
12485.6,950.0,-0.008
12495.7,950.5,-0.008
12505.812,951.0,-0.007
12516,951.5,-0.009
12526.2,952.0,-0.009
12536.3,952.5,-0.007
12546.5,953.0,-0.008
12556.719,953.5,-0.006
12566.9,954.0,-0.007
12577.116,954.5,-0.009
12587.3,955.0,-0.010
12597.5,955.5,-0.007
12607.7,956.0,-0.006
12617.9,956.5,-0.008
12628.1,957.0,-0.008
12638.4,957.5,-0.005
12648.6,958.0,-0.004
12658.8,958.5,-0.009
12668.961,959.0,-0.006
12679.1,959.5,-0.006
12689.2,960.0,-0.008
12699.3,960.5,-0.005
12709.4,961.0,-0.006
12719.4,961.5,-0.007
12729.5,962.0,-0.008
12739.6,962.5,-0.005
12749.7,963.0,-0.006
12759.9,963.5,-0.006
12770.007,964.0,-0.007
12780.129,964.5,-0.008
12790.3,965.0,-0.011
12800.5,965.5,-0.013
12810.7,966.0,-0.010
12820.9,966.5,-0.012
12831.1,967.0,-0.015
12841.3,967.5,-0.013
12851.5,968.0,-0.010
12861.7,968.5,-0.017
12871.8,969.0,-0.022
12882,969.5,-0.020
12892.2,970.0,-0.028
12902.4,970.5,-0.030
12912.5,971.0,-0.032
12922.7,971.5,-0.031
12932.8,972.0,-0.029
12942.9,972.5,-0.026
12953,973.0,-0.029
12963.153,973.5,-0.027
12973.3,974.0,-0.032
12983.4,974.5,-0.033
12993.6,975.0,-0.034
13003.8,975.5,-0.037
13013.9,976.0,-0.039
13024.1,976.5,-0.039
13034.253,977.0,-0.040
13044.5,977.5,-0.041
13054.692,978.0,-0.041
13065,978.5,-0.039
13075.2,979.0,-0.038
13085.5,979.5,-0.039
13095.8,980.0,-0.043
13106,980.5,-0.044
13116.2,981.0,-0.046
13126.4,981.5,-0.050
13136.532,982.0,-0.046
13146.7,982.5,-0.047
13156.8,983.0,-0.048
13167,983.5,-0.051
13177.2,984.0,-0.053
13187.4,984.5,-0.050
13197.6,985.0,-0.051
13207.74,985.5,-0.052
13217.9,986.0,-0.052
13228.131,986.5,-0.052
13238.4,987.0,-0.052
13248.6,987.5,-0.049
13258.8,988.0,-0.048
13269.1,988.5,-0.051
13279.269,989.0,-0.049
13289.49,989.5,-0.049
13299.7,990.0,-0.049
13309.9,990.5,-0.051
13320.132,991.0,-0.048
13330.3,991.5,-0.051
13340.5,992.0,-0.051
13350.7,992.5,-0.049
13360.959,993.0,-0.054
13371.2,993.5,-0.050
13381.4,994.0,-0.050
13391.553,994.5,-0.048
13401.7,995.0,-0.047
13411.9,995.5,-0.049
13422.1,996.0,-0.054
13432.3,996.5,-0.050
13442.5,997.0,-0.054
13452.6,997.5,-0.051
13462.8,998.0,-0.049
13472.952,998.5,-0.050
13483.1,999.0,-0.054
13493.3,999.5,-0.052
13503.45,1000.0,-0.050
13513.6,1000.5,-0.052
13523.7,1001.0,-0.054
13533.843,1001.5,-0.050
13543.9,1002.0,-0.054
13554.006,1002.5,-0.051
13564.1,1003.0,-0.052
13574.2,1003.5,-0.056
13584.3,1004.0,-0.050
13594.5,1004.5,-0.051
13604.8,1005.0,-0.054
13615.134,1005.5,-0.055
13625.415,1006.0,-0.051
13635.7,1006.5,-0.049
13645.95,1007.0,-0.052
13656.2,1007.5,-0.049
13666.5,1008.0,-0.049
13676.7,1008.5,-0.048
13687,1009.0,-0.048
13697.2,1009.5,-0.048
13707.5,1010.0,-0.048
13717.725,1010.5,-0.049
13728,1011.0,-0.048
13738.3,1011.5,-0.046
13748.5,1012.0,-0.042
13758.8,1012.5,-0.043
13769,1013.0,-0.044
13779.207,1013.5,-0.038
13789.4,1014.0,-0.037
13799.55,1014.5,-0.037
13809.7,1015.0,-0.037
13819.9,1015.5,-0.039
13830,1016.0,-0.036
13840.3,1016.5,-0.035
13850.5,1017.0,-0.032
13860.714,1017.5,-0.032
13870.9,1018.0,-0.032
13881.147,1018.5,-0.033
13891.4,1019.0,-0.027
13901.6,1019.5,-0.029
13911.8,1020.0,-0.030
13922.052,1020.5,-0.032
13932.309,1021.0,-0.028
13942.5,1021.5,-0.025
13952.7,1022.0,-0.025
13962.855,1022.5,-0.026
13973,1023.0,-0.027
13983.1,1023.5,-0.025
13993.3,1024.0,-0.025
14003.523,1024.5,-0.026
14013.7,1025.0,-0.027
14023.8,1025.5,-0.028
14033.9,1026.0,-0.025
14044.032,1026.5,-0.025
14054.1,1027.0,-0.023
14064.3,1027.5,-0.020
14074.6,1028.0,-0.020
14084.8,1028.5,-0.022
14095.1,1029.0,-0.024
14105.3,1029.5,-0.030
14115.453,1030.0,-0.027
14125.7,1030.5,-0.028
14135.904,1031.0,-0.027
14146.1,1031.5,-0.028
14156.3,1032.0,-0.025
14166.5,1032.5,-0.027
14176.6,1033.0,-0.031
14186.763,1033.5,-0.030
14197,1034.0,-0.033
14207.2,1034.5,-0.035
14217.3,1035.0,-0.036
14227.5,1035.5,-0.035
14237.622,1036.0,-0.037
14247.8,1036.5,-0.033
14257.9,1037.0,-0.034
14268.09,1037.5,-0.031
14278.3,1038.0,-0.034
14288.6,1038.5,-0.028
14298.9,1039.0,-0.029
14309.3,1039.5,-0.026
14319.6,1040.0,-0.027
14329.8,1040.5,-0.024
14340.1,1041.0,-0.029
14350.4,1041.5,-0.029
14360.6,1042.0,-0.028
14370.837,1042.5,-0.030
14381,1043.0,-0.029
14391.2,1043.5,-0.026
14401.4,1044.0,-0.026
14411.6,1044.5,-0.026
14421.8,1045.0,-0.025
14431.9,1045.5,-0.015
14442.1,1046.0,-0.015
14452.1,1046.5,-0.017
14462.1,1047.0,-0.019
14472.1,1047.5,-0.021
14482.1,1048.0,-0.023
14492.1,1048.5,-0.025
14502.2,1049.0,-0.021
14512.3,1049.5,-0.022
14522.5,1050.0,-0.020
14532.8,1050.5,-0.014
14543,1051.0,-0.012
14553.4,1051.5,-0.010
14563.6,1052.0,-0.017
14573.9,1052.5,-0.011
14584.2,1053.0,-0.012
14594.5,1053.5,-0.014
14604.9,1054.0,-0.011
14615.2,1054.5,-0.008
14625.5,1055.0,-0.006
14635.8,1055.5,-0.004
14646.1,1056.0,-0.004
14656.23,1056.5,-0.005
14666.4,1057.0,-0.008
14676.5,1057.5,-0.009
14686.6,1058.0,-0.008
14696.7,1058.5,-0.007
14706.8,1059.0,-0.005
14717,1059.5,-0.007
14727.1,1060.0,-0.006
14737.23,1060.5,-0.002
14747.4,1061.0,0.000
14757.6,1061.5,0.001
14767.8,1062.0,-0.002