File: Wood/Calibration_Data/FSRI/FSRI_DSC_N2_30K_R2.csv
Time (s),Temperature (K),Heat Flow Rate (W/g)
0,325.0,5.37E-03
11.0946,325.5,3.42E-02
17.5674,326.0,5.98E-02
22.4322,326.5,8.14E-02
26.5146,327.0,1.01E-01
30.0996,327.5,1.19E-01
33.2916,328.0,1.37E-01
36.2526,328.5,1.51E-01
39.0438,329.0,1.67E-01
41.6352,329.5,1.82E-01
44.0814,330.0,1.95E-01
46.383,330.5,2.08E-01
48.5784,331.0,2.18E-01
50.7072,331.5,2.30E-01
52.8204,332.0,2.41E-01
54.8514,332.5,2.53E-01
56.7996,333.0,2.63E-01
58.6908,333.5,2.73E-01
60.5274,334.0,2.82E-01
62.3316,334.5,2.91E-01
64.0896,335.0,3.00E-01
65.8224,335.5,3.10E-01
67.5054,336.0,3.18E-01
69.162,336.5,3.25E-01
70.7844,337.0,3.36E-01
72.3954,337.5,3.43E-01
73.9782,338.0,3.50E-01
75.5448,338.5,3.58E-01
77.0778,339.0,3.66E-01
78.5694,339.5,3.71E-01
80.0622,340.0,3.78E-01
81.5424,340.5,3.85E-01
83.0208,341.0,3.92E-01
84.492,341.5,4.00E-01
85.9284,342.0,4.04E-01
87.3534,342.5,4.11E-01
88.7694,343.0,4.16E-01
90.1686,343.5,4.24E-01
91.5594,344.0,4.28E-01
92.9412,344.5,4.35E-01
94.3062,345.0,4.42E-01
95.6664,345.5,4.48E-01
97.02,346.0,4.54E-01
98.3526,346.5,4.56E-01
99.6846,347.0,4.63E-01
101.007,347.5,4.71E-01
102.3174,348.0,4.74E-01
103.6254,348.5,4.81E-01
104.922,349.0,4.85E-01
106.2126,349.5,4.90E-01
107.5002,350.0,4.93E-01
108.7782,350.5,5.00E-01
110.049,351.0,5.04E-01
111.3132,351.5,5.08E-01
112.5684,352.0,5.13E-01
113.8206,352.5,5.17E-01
115.0734,353.0,5.21E-01
116.3124,353.5,5.25E-01
117.5532,354.0,5.29E-01
118.776,354.5,5.35E-01
120.0048,355.0,5.38E-01
121.23,355.5,5.42E-01
122.4528,356.0,5.44E-01
123.663,356.5,5.49E-01
124.8738,357.0,5.53E-01
126.0756,357.5,5.58E-01
127.2756,358.0,5.62E-01
128.4708,358.5,5.67E-01
129.6624,359.0,5.69E-01
130.8498,359.5,5.73E-01
132.0342,360.0,5.77E-01
133.2108,360.5,5.82E-01
134.3808,361.0,5.86E-01
135.5472,361.5,5.89E-01
136.7124,362.0,5.92E-01
137.8662,362.5,5.98E-01
139.0206,363.0,6.00E-01
140.178,363.5,6.03E-01
141.3342,364.0,6.09E-01
142.4778,364.5,6.11E-01
143.622,365.0,6.15E-01
144.7566,365.5,6.16E-01
145.8852,366.0,6.20E-01
147.0114,366.5,6.24E-01
148.1448,367.0,6.27E-01
149.2686,367.5,6.31E-01
150.4026,368.0,6.35E-01
151.53,368.5,6.37E-01
152.6562,369.0,6.39E-01
153.7722,369.5,6.44E-01
154.89,370.0,6.46E-01
155.9988,370.5,6.48E-01
157.1106,371.0,6.52E-01
158.217,371.5,6.53E-01
159.3276,372.0,6.57E-01
160.4328,372.5,6.60E-01
161.5386,373.0,6.64E-01
162.6396,373.5,6.66E-01
163.7388,374.0,6.65E-01
164.8368,374.5,6.69E-01
165.9342,375.0,6.74E-01
167.0226,375.5,6.75E-01
168.1128,376.0,6.75E-01
169.1988,376.5,6.79E-01
170.2794,377.0,6.81E-01
171.3582,377.5,6.82E-01
172.434,378.0,6.86E-01
173.5158,378.5,6.88E-01
174.5958,379.0,6.89E-01
175.671,379.5,6.89E-01
176.7504,380.0,6.91E-01
177.8334,380.5,6.91E-01
178.9032,381.0,6.93E-01
179.9784,381.5,6.95E-01
181.0548,382.0,6.93E-01
182.1222,382.5,6.96E-01
183.1884,383.0,6.99E-01
184.2588,383.5,6.98E-01
185.3208,384.0,6.98E-01
186.384,384.5,7.01E-01
187.4436,385.0,7.01E-01
188.5026,385.5,7.00E-01
189.5562,386.0,7.01E-01
190.6158,386.5,7.02E-01
191.6742,387.0,7.06E-01
192.735,387.5,7.07E-01
193.7934,388.0,7.08E-01
194.8392,388.5,7.08E-01
195.8916,389.0,7.11E-01
196.9428,389.5,7.11E-01
197.9892,390.0,7.11E-01
199.0362,390.5,7.11E-01
200.094,391.0,7.12E-01
201.144,391.5,7.10E-01
202.1868,392.0,7.11E-01
203.22,392.5,7.12E-01
204.261,393.0,7.14E-01
205.299,393.5,7.13E-01
206.3316,394.0,7.13E-01
207.3654,394.5,7.13E-01
208.4022,395.0,7.14E-01
209.4372,395.5,7.14E-01
210.4686,396.0,7.14E-01
211.5012,396.5,7.14E-01
212.529,397.0,7.15E-01
213.5598,397.5,7.17E-01
214.59,398.0,7.16E-01
215.6136,398.5,7.13E-01
216.636,399.0,7.17E-01
217.6572,399.5,7.16E-01
218.6754,400.0,7.14E-01
219.6924,400.5,7.16E-01
220.7124,401.0,7.17E-01
221.7282,401.5,7.20E-01
222.7452,402.0,7.20E-01
223.7616,402.5,7.20E-01
224.7726,403.0,7.22E-01
225.7818,403.5,7.20E-01
226.7916,404.0,7.20E-01
227.7978,404.5,7.21E-01
228.8016,405.0,7.25E-01
229.8054,405.5,7.25E-01
230.8068,406.0,7.25E-01
231.81,406.5,7.26E-01
232.8084,407.0,7.26E-01
233.8098,407.5,7.28E-01
234.8124,408.0,7.27E-01
235.8048,408.5,7.29E-01
236.8032,409.0,7.30E-01
237.7968,409.5,7.30E-01
238.794,410.0,7.30E-01
239.781,410.5,7.32E-01
240.7746,411.0,7.35E-01
241.7646,411.5,7.37E-01
242.754,412.0,7.38E-01
243.744,412.5,7.37E-01
244.7316,413.0,7.37E-01
245.715,413.5,7.39E-01
246.7044,414.0,7.40E-01
247.6914,414.5,7.42E-01
248.6742,415.0,7.44E-01
249.6552,415.5,7.44E-01
250.6392,416.0,7.45E-01
251.6202,416.5,7.47E-01
252.5946,417.0,7.49E-01
253.5678,417.5,7.52E-01
254.5422,418.0,7.51E-01
255.5184,418.5,7.52E-01
256.491,419.0,7.53E-01
257.466,419.5,7.56E-01
258.4404,420.0,7.57E-01
259.4136,420.5,7.58E-01
260.3844,421.0,7.59E-01
261.3546,421.5,7.61E-01
262.3254,422.0,7.62E-01
263.2908,422.5,7.65E-01
264.2586,423.0,7.66E-01
265.224,423.5,7.67E-01
266.1858,424.0,7.69E-01
267.1446,424.5,7.71E-01
268.1082,425.0,7.73E-01
269.0748,425.5,7.75E-01
270.0384,426.0,7.76E-01
271.0038,426.5,7.75E-01
271.968,427.0,7.80E-01
272.9292,427.5,7.82E-01
273.8892,428.0,7.82E-01
274.8456,428.5,7.82E-01
275.802,429.0,7.84E-01
276.759,429.5,7.87E-01
277.7178,430.0,7.91E-01
278.6742,430.5,7.94E-01
279.6318,431.0,7.95E-01
280.5876,431.5,7.95E-01
281.5422,432.0,7.96E-01
282.4974,432.5,7.98E-01
283.4502,433.0,8.02E-01
284.4018,433.5,8.02E-01
285.3516,434.0,8.02E-01
286.305,434.5,8.05E-01
287.2572,435.0,8.07E-01
288.2058,435.5,8.08E-01
289.158,436.0,8.10E-01
290.1054,436.5,8.12E-01
291.0558,437.0,8.11E-01
292.0068,437.5,8.16E-01
292.953,438.0,8.17E-01
293.9022,438.5,8.17E-01
294.8496,439.0,8.20E-01
295.8012,439.5,8.22E-01
296.7462,440.0,8.26E-01
297.6906,440.5,8.26E-01
298.6374,441.0,8.30E-01
299.583,441.5,8.31E-01
300.5262,442.0,8.32E-01
301.4676,442.5,8.35E-01
302.4132,443.0,8.37E-01
303.357,443.5,8.40E-01
304.2996,444.0,8.42E-01
305.241,444.5,8.45E-01
306.183,445.0,8.47E-01
307.1244,445.5,8.46E-01
308.0622,446.0,8.49E-01
308.997,446.5,8.50E-01
309.9276,447.0,8.53E-01
310.8654,447.5,8.53E-01
311.799,448.0,8.56E-01
312.7314,448.5,8.60E-01
313.6674,449.0,8.62E-01
314.6052,449.5,8.63E-01
315.5454,450.0,8.64E-01
316.4778,450.5,8.66E-01
317.4126,451.0,8.68E-01
318.3462,451.5,8.72E-01
319.2792,452.0,8.74E-01
320.2122,452.5,8.76E-01
321.1416,453.0,8.80E-01
322.065,453.5,8.82E-01
322.9962,454.0,8.87E-01
323.9238,454.5,8.86E-01
324.8526,455.0,8.89E-01
325.7796,455.5,8.91E-01
326.7096,456.0,8.94E-01
327.6438,456.5,8.96E-01
328.5666,457.0,8.97E-01
329.4918,457.5,8.97E-01
330.4158,458.0,8.99E-01
331.3374,458.5,9.01E-01
332.2614,459.0,9.03E-01
333.1854,459.5,9.05E-01
334.101,460.0,9.08E-01
335.0214,460.5,9.11E-01
335.943,461.0,9.11E-01
336.8634,461.5,9.14E-01
337.7814,462.0,9.18E-01
338.7006,462.5,9.20E-01
339.6258,463.0,9.23E-01
340.545,463.5,9.26E-01
341.4642,464.0,9.26E-01
342.3816,464.5,9.29E-01
343.2996,465.0,9.30E-01
344.2074,465.5,9.32E-01
345.1176,466.0,9.35E-01
346.0254,466.5,9.35E-01
346.9326,467.0,9.37E-01
347.847,467.5,9.40E-01
348.762,468.0,9.41E-01
349.6842,468.5,9.44E-01
350.6076,469.0,9.47E-01
351.5304,469.5,9.50E-01
352.4526,470.0,9.52E-01
353.3658,470.5,9.55E-01
354.2808,471.0,9.57E-01
355.1928,471.5,9.57E-01
356.1024,472.0,9.59E-01
357.0126,472.5,9.61E-01
357.9234,473.0,9.64E-01
358.8354,473.5,9.67E-01
359.7438,474.0,9.71E-01
360.6552,474.5,9.74E-01
361.5654,475.0,9.75E-01
362.4726,475.5,9.78E-01
363.3804,476.0,9.80E-01
364.29,476.5,9.82E-01
365.202,477.0,9.85E-01
366.1116,477.5,9.86E-01
367.02,478.0,9.88E-01
367.9308,478.5,9.92E-01
368.8404,479.0,9.93E-01
369.7476,479.5,9.97E-01
370.6524,480.0,9.97E-01
371.5536,480.5,1.00E+00
372.4608,481.0,1.00E+00
373.3674,481.5,1.00E+00
374.2758,482.0,1.00E+00
375.18,482.5,1.01E+00
376.086,483.0,1.01E+00
376.9968,483.5,1.01E+00
377.9046,484.0,1.01E+00
378.8106,484.5,1.02E+00
379.7148,485.0,1.02E+00
380.622,485.5,1.02E+00
381.5274,486.0,1.02E+00
382.4328,486.5,1.02E+00
383.3358,487.0,1.03E+00
384.2406,487.5,1.03E+00
385.1448,488.0,1.03E+00
386.0478,488.5,1.03E+00
386.9538,489.0,1.03E+00
387.8574,489.5,1.04E+00
388.7604,490.0,1.04E+00
389.6616,490.5,1.04E+00
390.5658,491.0,1.04E+00
391.47,491.5,1.04E+00
392.3712,492.0,1.05E+00
393.2766,492.5,1.05E+00
394.1814,493.0,1.05E+00
395.085,493.5,1.05E+00
395.9868,494.0,1.05E+00
396.888,494.5,1.06E+00
397.7916,495.0,1.06E+00
398.6874,495.5,1.06E+00
399.588,496.0,1.06E+00
400.4886,496.5,1.06E+00
401.3898,497.0,1.07E+00
402.2928,497.5,1.07E+00
403.1934,498.0,1.07E+00
404.0976,498.5,1.07E+00
404.9988,499.0,1.08E+00
405.8988,499.5,1.08E+00
406.7988,500.0,1.08E+00
407.6982,500.5,1.08E+00
408.5994,501.0,1.08E+00
409.5,501.5,1.09E+00
410.4,502.0,1.09E+00
411.3024,502.5,1.09E+00
412.2012,503.0,1.09E+00
413.1,503.5,1.09E+00
413.9964,504.0,1.10E+00
414.8934,504.5,1.10E+00
415.7916,505.0,1.10E+00
416.688,505.5,1.10E+00
417.588,506.0,1.10E+00
418.4868,506.5,1.10E+00
419.3862,507.0,1.10E+00
420.288,507.5,1.11E+00
421.1862,508.0,1.11E+00
422.0838,508.5,1.11E+00
422.982,509.0,1.11E+00
423.8766,509.5,1.11E+00
424.7742,510.0,1.12E+00
425.6706,510.5,1.12E+00
426.5694,511.0,1.12E+00
427.4658,511.5,1.12E+00
428.3622,512.0,1.12E+00
429.2586,512.5,1.12E+00
430.1562,513.0,1.12E+00
431.052,513.5,1.13E+00
431.9466,514.0,1.13E+00
432.8436,514.5,1.13E+00
433.7394,515.0,1.13E+00
434.6388,515.5,1.13E+00
435.5334,516.0,1.13E+00
436.4292,516.5,1.13E+00
437.325,517.0,1.13E+00
438.2208,517.5,1.14E+00
439.1172,518.0,1.14E+00
440.0052,518.5,1.14E+00
440.9016,519.0,1.14E+00
441.798,519.5,1.14E+00
442.695,520.0,1.14E+00
443.5926,520.5,1.14E+00
444.4884,521.0,1.14E+00
445.3914,521.5,1.14E+00
446.2854,522.0,1.14E+00
447.18,522.5,1.15E+00
448.0734,523.0,1.14E+00
448.965,523.5,1.15E+00
449.8572,524.0,1.15E+00
450.75,524.5,1.15E+00
451.6428,525.0,1.15E+00
452.5332,525.5,1.15E+00
453.4272,526.0,1.15E+00
454.3236,526.5,1.15E+00
455.2128,527.0,1.15E+00
456.105,527.5,1.15E+00
457.0026,528.0,1.15E+00
457.8948,528.5,1.15E+00
458.7864,529.0,1.15E+00
459.6762,529.5,1.16E+00
460.5708,530.0,1.16E+00
461.4642,530.5,1.16E+00
462.3492,531.0,1.16E+00
463.2402,531.5,1.16E+00
464.1276,532.0,1.16E+00
465.0192,532.5,1.16E+00
465.912,533.0,1.16E+00
466.8036,533.5,1.16E+00
467.7012,534.0,1.16E+00
468.5964,534.5,1.16E+00
469.494,535.0,1.16E+00
470.3874,535.5,1.16E+00
471.2784,536.0,1.16E+00
472.1664,536.5,1.16E+00
473.0598,537.0,1.16E+00
473.9514,537.5,1.16E+00
474.8436,538.0,1.16E+00
475.7352,538.5,1.16E+00
476.6292,539.0,1.16E+00
477.5256,539.5,1.16E+00
478.4172,540.0,1.16E+00
479.3064,540.5,1.16E+00
480.1962,541.0,1.16E+00
481.086,541.5,1.16E+00
481.9758,542.0,1.16E+00
482.8662,542.5,1.16E+00
483.7542,543.0,1.16E+00
484.6458,543.5,1.16E+00
485.5368,544.0,1.16E+00
486.429,544.5,1.16E+00
487.32,545.0,1.16E+00
488.2092,545.5,1.16E+00
489.1014,546.0,1.16E+00
489.9906,546.5,1.16E+00
490.8828,547.0,1.16E+00
491.7732,547.5,1.16E+00
492.6636,548.0,1.16E+00
493.5552,548.5,1.16E+00
494.4444,549.0,1.15E+00
495.3372,549.5,1.15E+00
496.2282,550.0,1.15E+00
497.1162,550.5,1.15E+00
498.006,551.0,1.15E+00
498.8952,551.5,1.15E+00
499.7862,552.0,1.15E+00
500.676,552.5,1.15E+00
501.5646,553.0,1.15E+00
502.4592,553.5,1.15E+00
503.3514,554.0,1.15E+00
504.2424,554.5,1.15E+00
505.1346,555.0,1.15E+00
506.0256,555.5,1.15E+00
506.9172,556.0,1.15E+00
507.807,556.5,1.15E+00
508.698,557.0,1.15E+00
509.5908,557.5,1.15E+00
510.4806,558.0,1.15E+00
511.3734,558.5,1.15E+00
512.2656,559.0,1.15E+00
513.1578,559.5,1.15E+00
514.047,560.0,1.15E+00
514.9374,560.5,1.15E+00
515.8326,561.0,1.15E+00
516.723,561.5,1.15E+00
517.6134,562.0,1.15E+00
518.505,562.5,1.15E+00
519.3984,563.0,1.15E+00
520.2876,563.5,1.15E+00
521.175,564.0,1.15E+00
522.0654,564.5,1.15E+00
522.9564,565.0,1.15E+00
523.8462,565.5,1.15E+00
524.7372,566.0,1.15E+00
525.6324,566.5,1.15E+00
526.5264,567.0,1.15E+00
527.421,567.5,1.15E+00
528.3126,568.0,1.15E+00
529.2054,568.5,1.15E+00
530.0988,569.0,1.15E+00
530.9916,569.5,1.14E+00
531.8826,570.0,1.15E+00
532.7736,570.5,1.15E+00
533.6688,571.0,1.14E+00
534.558,571.5,1.14E+00
535.449,572.0,1.14E+00
536.34,572.5,1.14E+00
537.2316,573.0,1.14E+00
538.125,573.5,1.14E+00
539.0124,574.0,1.14E+00
539.9058,574.5,1.14E+00
540.8022,575.0,1.14E+00
541.6944,575.5,1.14E+00
542.5908,576.0,1.14E+00
543.4848,576.5,1.14E+00
544.3812,577.0,1.14E+00
545.2788,577.5,1.14E+00
546.171,578.0,1.14E+00
547.0644,578.5,1.14E+00
547.9572,579.0,1.14E+00
548.8512,579.5,1.14E+00
549.7464,580.0,1.14E+00
550.6434,580.5,1.14E+00
551.5374,581.0,1.14E+00
552.432,581.5,1.14E+00
553.3248,582.0,1.14E+00
554.2194,582.5,1.15E+00
555.1068,583.0,1.14E+00
555.9936,583.5,1.14E+00
556.8822,584.0,1.14E+00
557.7738,584.5,1.14E+00
558.6696,585.0,1.14E+00
559.566,585.5,1.14E+00
560.4678,586.0,1.14E+00
561.366,586.5,1.15E+00
562.2678,587.0,1.15E+00
563.1672,587.5,1.15E+00
564.0642,588.0,1.15E+00
564.9588,588.5,1.15E+00
565.854,589.0,1.15E+00
566.7504,589.5,1.15E+00
567.645,590.0,1.16E+00
568.5408,590.5,1.16E+00
569.4348,591.0,1.16E+00
570.3318,591.5,1.16E+00
571.2258,592.0,1.16E+00
572.1234,592.5,1.16E+00
573.0234,593.0,1.17E+00
573.9216,593.5,1.17E+00
574.8198,594.0,1.17E+00
575.7198,594.5,1.17E+00
576.618,595.0,1.17E+00
577.5156,595.5,1.17E+00
578.4108,596.0,1.18E+00
579.3096,596.5,1.18E+00
580.2078,597.0,1.18E+00
581.1072,597.5,1.18E+00
582.009,598.0,1.18E+00
582.9102,598.5,1.19E+00
583.812,599.0,1.19E+00
584.7108,599.5,1.19E+00
585.6108,600.0,1.19E+00
586.5096,600.5,1.20E+00
587.409,601.0,1.20E+00
588.3084,601.5,1.20E+00
589.2102,602.0,1.21E+00
590.106,602.5,1.21E+00
590.9994,603.0,1.21E+00
591.8928,603.5,1.22E+00
592.791,604.0,1.22E+00
593.6928,604.5,1.22E+00
594.5928,605.0,1.23E+00
595.5,605.5,1.23E+00
596.4096,606.0,1.23E+00
597.318,606.5,1.23E+00
598.2216,607.0,1.24E+00
599.124,607.5,1.24E+00
600.0276,608.0,1.24E+00
600.9312,608.5,1.25E+00
601.8336,609.0,1.25E+00
602.7366,609.5,1.25E+00
603.6396,610.0,1.26E+00
604.542,610.5,1.26E+00
605.442,611.0,1.27E+00
606.3456,611.5,1.27E+00
607.248,612.0,1.28E+00
608.1498,612.5,1.28E+00
609.0552,613.0,1.28E+00
609.9582,613.5,1.28E+00
610.8624,614.0,1.29E+00
611.7672,614.5,1.29E+00
612.672,615.0,1.30E+00
613.5786,615.5,1.30E+00
614.4828,616.0,1.30E+00
615.3882,616.5,1.31E+00
616.2858,617.0,1.31E+00
617.1852,617.5,1.31E+00
618.0912,618.0,1.32E+00
618.9972,618.5,1.32E+00
619.9032,619.0,1.32E+00
620.8128,619.5,1.33E+00
621.7254,620.0,1.33E+00
622.638,620.5,1.33E+00
623.5422,621.0,1.34E+00
624.4446,621.5,1.34E+00
625.3524,622.0,1.34E+00
626.256,622.5,1.34E+00
627.1626,623.0,1.35E+00
628.0692,623.5,1.35E+00
628.98,624.0,1.35E+00
629.892,624.5,1.35E+00
630.7986,625.0,1.35E+00
631.7106,625.5,1.35E+00
632.6184,626.0,1.36E+00
633.525,626.5,1.36E+00
634.4316,627.0,1.36E+00
635.3394,627.5,1.36E+00
636.2478,628.0,1.37E+00
637.1544,628.5,1.37E+00
638.0634,629.0,1.37E+00
638.9754,629.5,1.38E+00
639.8844,630.0,1.38E+00
640.7922,630.5,1.38E+00
641.7018,631.0,1.38E+00
642.6138,631.5,1.39E+00
643.5258,632.0,1.39E+00
644.4342,632.5,1.39E+00
645.3438,633.0,1.40E+00
646.2516,633.5,1.40E+00
647.1606,634.0,1.41E+00
648.0678,634.5,1.41E+00
648.9768,635.0,1.42E+00
649.89,635.5,1.42E+00
650.8044,636.0,1.43E+00
651.72,636.5,1.43E+00
652.6338,637.0,1.44E+00
653.5494,637.5,1.44E+00
654.459,638.0,1.45E+00
655.3704,638.5,1.46E+00
656.2848,639.0,1.46E+00
657.1998,639.5,1.47E+00
658.1148,640.0,1.47E+00
659.0316,640.5,1.48E+00
659.9538,641.0,1.49E+00
660.87,641.5,1.50E+00
661.7856,642.0,1.51E+00
662.7036,642.5,1.52E+00
663.6198,643.0,1.53E+00
664.536,643.5,1.53E+00
665.454,644.0,1.55E+00
666.3732,644.5,1.56E+00
667.2918,645.0,1.57E+00
668.2116,645.5,1.58E+00
669.1326,646.0,1.59E+00
670.0524,646.5,1.60E+00
670.9764,647.0,1.61E+00
671.8968,647.5,1.63E+00
672.8208,648.0,1.64E+00
673.7448,648.5,1.65E+00
674.6688,649.0,1.66E+00
675.5928,649.5,1.68E+00
676.5126,650.0,1.69E+00
677.4336,650.5,1.70E+00
678.3552,651.0,1.72E+00
679.2762,651.5,1.73E+00
680.2014,652.0,1.75E+00
681.12,652.5,1.76E+00
682.0392,653.0,1.78E+00
682.9656,653.5,1.79E+00
683.8914,654.0,1.81E+00
684.8154,654.5,1.82E+00
685.7388,655.0,1.84E+00
686.6706,655.5,1.85E+00
687.603,656.0,1.86E+00
688.527,656.5,1.88E+00
689.4516,657.0,1.89E+00
690.3768,657.5,1.90E+00
691.3002,658.0,1.92E+00
692.2224,658.5,1.93E+00
693.1464,659.0,1.94E+00
694.0674,659.5,1.96E+00
694.9908,660.0,1.97E+00
695.916,660.5,1.98E+00
696.8388,661.0,1.98E+00
697.761,661.5,1.99E+00
698.6844,662.0,1.99E+00
699.606,662.5,2.00E+00
700.5246,663.0,2.00E+00
701.4432,663.5,2.01E+00
702.36,664.0,2.01E+00
703.278,664.5,2.00E+00
704.1936,665.0,2.00E+00
705.108,665.5,1.99E+00
706.0224,666.0,1.98E+00
706.9344,666.5,1.97E+00
707.8482,667.0,1.96E+00
708.7578,667.5,1.95E+00
709.6644,668.0,1.93E+00
710.5734,668.5,1.91E+00
711.4782,669.0,1.89E+00
712.38,669.5,1.86E+00
713.2806,670.0,1.83E+00
714.18,670.5,1.81E+00
715.0776,671.0,1.77E+00
715.9704,671.5,1.74E+00
716.8644,672.0,1.70E+00
717.7572,672.5,1.66E+00
718.6452,673.0,1.61E+00
719.5332,673.5,1.57E+00
720.4206,674.0,1.52E+00
721.3086,674.5,1.48E+00
722.1942,675.0,1.42E+00
723.0762,675.5,1.37E+00
723.9612,676.0,1.32E+00
724.8462,676.5,1.27E+00
725.7306,677.0,1.21E+00
726.6132,677.5,1.15E+00
727.4958,678.0,1.10E+00
728.379,678.5,1.04E+00
729.261,679.0,9.84E-01
730.1418,679.5,9.28E-01
731.0214,680.0,8.70E-01
731.9016,680.5,8.13E-01
732.7848,681.0,7.60E-01
733.6686,681.5,7.06E-01
734.5566,682.0,6.53E-01
735.4446,682.5,6.03E-01
736.3338,683.0,5.52E-01
737.2284,683.5,5.07E-01
738.12,684.0,4.62E-01
739.014,684.5,4.20E-01
739.9068,685.0,3.81E-01
740.8014,685.5,3.42E-01
741.7002,686.0,3.06E-01
742.5984,686.5,2.75E-01
743.4996,687.0,2.46E-01
744.4038,687.5,2.20E-01
745.3098,688.0,1.95E-01
746.2152,688.5,1.74E-01
747.126,689.0,1.51E-01
748.038,689.5,1.32E-01
748.9494,690.0,1.16E-01
749.8632,690.5,1.03E-01
750.78,691.0,8.63E-02
751.698,691.5,7.61E-02
752.6118,692.0,6.59E-02
753.5322,692.5,5.60E-02
754.4496,693.0,4.61E-02
755.3658,693.5,3.63E-02
756.2778,694.0,3.10E-02
757.1958,694.5,2.50E-02
758.1192,695.0,2.11E-02
759.0342,695.5,1.33E-02
759.9576,696.0,7.67E-03
760.8828,696.5,4.33E-03
761.8104,697.0,-1.50E-03
762.738,697.5,-9.66E-03
763.6638,698.0,-1.31E-02
764.5932,698.5,-1.57E-02
765.5208,699.0,-1.66E-02
766.4502,699.5,-2.26E-02
767.3784,700.0,-2.50E-02
768.3048,700.5,-2.72E-02
769.2288,701.0,-3.22E-02
770.1492,701.5,-3.50E-02
771.0744,702.0,-4.10E-02
772.0014,702.5,-4.49E-02
772.926,703.0,-4.56E-02
773.8536,703.5,-4.84E-02
774.7836,704.0,-5.08E-02
775.7142,704.5,-5.34E-02
776.6436,705.0,-5.72E-02
777.5712,705.5,-5.87E-02
778.5012,706.0,-6.01E-02
779.4288,706.5,-6.40E-02
780.3588,707.0,-6.64E-02
781.2912,707.5,-6.63E-02
782.2212,708.0,-6.85E-02
783.15,708.5,-6.96E-02
784.0806,709.0,-7.33E-02
785.0112,709.5,-7.82E-02
785.943,710.0,-8.10E-02
786.8736,710.5,-8.18E-02
787.8042,711.0,-8.35E-02
788.7366,711.5,-8.40E-02
789.6666,712.0,-8.71E-02
790.5954,712.5,-8.83E-02
791.5236,713.0,-9.14E-02
792.4566,713.5,-9.55E-02
793.389,714.0,-9.50E-02
794.3208,714.5,-9.63E-02
795.2556,715.0,-9.88E-02
796.1916,715.5,-1.00E-01
797.1258,716.0,-1.02E-01
798.057,716.5,-1.03E-01
798.9912,717.0,-1.08E-01
799.923,717.5,-1.07E-01
800.856,718.0,-1.07E-01
801.7896,718.5,-1.10E-01
802.7214,719.0,-1.12E-01
803.649,719.5,-1.13E-01
804.5778,720.0,-1.16E-01
805.5138,720.5,-1.16E-01
806.4492,721.0,-1.17E-01
807.3828,721.5,-1.17E-01
808.3206,722.0,-1.17E-01
809.2626,722.5,-1.17E-01
810.2022,723.0,-1.17E-01
811.1382,723.5,-1.18E-01
812.073,724.0,-1.18E-01
813.0108,724.5,-1.18E-01
813.9468,725.0,-1.19E-01
814.8864,725.5,-1.20E-01
815.8254,726.0,-1.22E-01
816.7626,726.5,-1.20E-01
817.7016,727.0,-1.21E-01
818.6418,727.5,-1.19E-01
819.5802,728.0,-1.20E-01
820.5168,728.5,-1.20E-01
821.4558,729.0,-1.19E-01
822.3954,729.5,-1.20E-01
823.335,730.0,-1.19E-01
824.2728,730.5,-1.18E-01
825.213,731.0,-1.17E-01
826.1538,731.5,-1.17E-01
827.0952,732.0,-1.13E-01
828.0348,732.5,-1.11E-01
828.975,733.0,-1.10E-01
829.917,733.5,-1.09E-01
830.8602,734.0,-1.05E-01
831.7998,734.5,-1.04E-01
832.7412,735.0,-1.04E-01
833.6862,735.5,-1.02E-01
834.6288,736.0,-1.01E-01
835.572,736.5,-9.91E-02
836.5122,737.0,-9.73E-02
837.4542,737.5,-9.32E-02
838.398,738.0,-8.98E-02
839.337,738.5,-8.78E-02
840.2814,739.0,-8.56E-02
841.224,739.5,-8.28E-02
842.169,740.0,-8.04E-02
843.1134,740.5,-7.78E-02
844.0566,741.0,-7.37E-02
845.0022,741.5,-7.40E-02
845.9442,742.0,-6.81E-02
846.888,742.5,-6.25E-02
847.8318,743.0,-6.00E-02
848.7756,743.5,-5.72E-02
849.72,744.0,-5.47E-02
850.6656,744.5,-5.10E-02
851.613,745.0,-4.84E-02
852.5592,745.5,-4.59E-02
853.5072,746.0,-4.14E-02
854.4516,746.5,-3.66E-02
855.396,747.0,-3.31E-02
856.344,747.5,-2.96E-02
857.2896,748.0,-2.80E-02
858.2346,748.5,-2.42E-02
859.1802,749.0,-1.90E-02
860.1312,749.5,-1.73E-02
861.0774,750.0,-1.41E-02
862.026,750.5,-1.57E-02
862.9722,751.0,-1.07E-02
863.9202,751.5,-4.90E-03
864.8712,752.0,-3.12E-03
865.8186,752.5,2.58E-03
866.7684,753.0,8.98E-03
867.7164,753.5,1.11E-02
868.6686,754.0,1.53E-02
869.6154,754.5,1.83E-02
870.5652,755.0,2.07E-02
871.5132,755.5,2.46E-02
872.46,756.0,2.95E-02
873.4068,756.5,3.27E-02
874.3554,757.0,3.80E-02
875.3034,757.5,3.99E-02
876.2496,758.0,4.55E-02
877.2018,758.5,4.89E-02
878.151,759.0,5.30E-02
879.1026,759.5,5.38E-02
880.0518,760.0,5.75E-02
881.0028,760.5,6.32E-02
881.952,761.0,6.75E-02
882.9036,761.5,6.79E-02
883.854,762.0,7.22E-02
884.8074,762.5,7.72E-02
885.7608,763.0,7.90E-02
886.7166,763.5,8.21E-02
887.6682,764.0,8.55E-02
888.6198,764.5,8.93E-02
889.5708,765.0,9.33E-02
890.5194,765.5,9.89E-02
891.468,766.0,1.01E-01
892.4184,766.5,1.01E-01
893.3688,767.0,1.04E-01
894.3216,767.5,1.07E-01
895.2756,768.0,1.11E-01
896.2302,768.5,1.15E-01
897.183,769.0,1.15E-01
898.137,769.5,1.17E-01
899.0916,770.0,1.20E-01
900.0408,770.5,1.24E-01
900.9918,771.0,1.27E-01
901.9428,771.5,1.30E-01
902.8962,772.0,1.31E-01
903.8448,772.5,1.33E-01
904.7976,773.0,1.32E-01
905.7516,773.5,1.37E-01
906.7056,774.0,1.38E-01
907.6596,774.5,1.42E-01
908.61,775.0,1.45E-01
909.5676,775.5,1.47E-01
910.5204,776.0,1.47E-01
911.475,776.5,1.49E-01
912.4266,777.0,1.53E-01
913.3812,777.5,1.52E-01
914.3334,778.0,1.53E-01
915.2862,778.5,1.56E-01
916.2414,779.0,1.59E-01
917.1936,779.5,1.62E-01
918.147,780.0,1.62E-01
919.1016,780.5,1.62E-01
920.0556,781.0,1.60E-01
921.0102,781.5,1.65E-01
921.9642,782.0,1.64E-01
922.9194,782.5,1.67E-01
923.874,783.0,1.67E-01
924.828,783.5,1.69E-01
925.785,784.0,1.68E-01
926.7378,784.5,1.71E-01
927.6924,785.0,1.73E-01
928.6476,785.5,1.73E-01
929.604,786.0,1.74E-01
930.5574,786.5,1.75E-01
931.5048,787.0,1.74E-01
932.4582,787.5,1.80E-01
933.4146,788.0,1.80E-01
934.3704,788.5,1.80E-01
935.3238,789.0,1.80E-01
936.2868,789.5,1.80E-01
937.2504,790.0,1.82E-01
938.2092,790.5,1.83E-01
939.1644,791.0,1.83E-01
940.1226,791.5,1.84E-01
941.0802,792.0,1.85E-01
942.0366,792.5,1.85E-01
942.9924,793.0,1.86E-01
943.9536,793.5,1.88E-01
944.9112,794.0,1.86E-01
945.87,794.5,1.89E-01
946.83,795.0,1.86E-01
947.7864,795.5,1.86E-01
948.7452,796.0,1.88E-01
949.7016,796.5,1.89E-01
950.6598,797.0,1.87E-01
951.6132,797.5,1.89E-01
952.5708,798.0,1.91E-01
953.5254,798.5,1.90E-01
954.4788,799.0,1.91E-01
955.437,799.5,1.94E-01
956.3922,800.0,1.95E-01
957.3516,800.5,1.95E-01
958.3074,801.0,1.95E-01
959.2686,801.5,1.97E-01
960.2262,802.0,1.96E-01
961.1856,802.5,1.97E-01
962.1474,803.0,1.97E-01
963.1068,803.5,1.97E-01
964.0686,804.0,1.97E-01
965.031,804.5,1.99E-01
965.9922,805.0,2.00E-01
966.9522,805.5,2.01E-01
967.911,806.0,2.00E-01
968.8716,806.5,1.99E-01
969.831,807.0,1.98E-01
970.7904,807.5,1.98E-01
971.7492,808.0,1.99E-01
972.7086,808.5,1.99E-01
973.6686,809.0,2.03E-01
974.6268,809.5,2.02E-01
975.5862,810.0,2.04E-01
976.5462,810.5,2.05E-01
977.5044,811.0,2.06E-01
978.4656,811.5,2.04E-01
979.4292,812.0,2.05E-01
980.3916,812.5,2.04E-01
981.3516,813.0,2.05E-01
982.3128,813.5,2.05E-01
983.2746,814.0,2.07E-01
984.2352,814.5,2.07E-01
985.1952,815.0,2.06E-01
986.1564,815.5,2.04E-01
987.117,816.0,2.07E-01
988.0794,816.5,2.08E-01
989.0388,817.0,2.08E-01
989.9994,817.5,2.07E-01
990.9618,818.0,2.09E-01
991.9242,818.5,2.08E-01
992.886,819.0,2.09E-01
993.8496,819.5,2.06E-01
994.8138,820.0,2.09E-01
995.778,820.5,2.12E-01
996.741,821.0,2.13E-01
997.7034,821.5,2.11E-01
998.6682,822.0,2.11E-01
999.6324,822.5,2.12E-01
1000.596,823.0,2.11E-01
1001.56,823.5,2.13E-01
1002.52,824.0,2.16E-01
1003.485,824.5,2.14E-01
1004.45,825.0,2.13E-01
1005.41,825.5,2.15E-01
1006.37,826.0,2.16E-01
1007.334,826.5,2.17E-01
1008.294,827.0,2.17E-01
1009.25,827.5,2.17E-01
1010.22,828.0,2.19E-01
1011.18,828.5,2.20E-01
1012.15,829.0,2.19E-01
1013.11,829.5,2.20E-01
1014.08,830.0,2.21E-01
1015.05,830.5,2.21E-01
1016.01,831.0,2.23E-01
1016.97,831.5,2.23E-01
1017.939,832.0,2.23E-01
1018.905,832.5,2.23E-01
1019.87,833.0,2.26E-01
1020.84,833.5,2.25E-01
1021.806,834.0,2.26E-01
1022.77,834.5,2.28E-01
1023.73,835.0,2.28E-01
1024.7,835.5,2.27E-01
1025.67,836.0,2.29E-01
1026.636,836.5,2.29E-01
1027.605,837.0,2.32E-01
1028.58,837.5,2.32E-01
1029.549,838.0,2.30E-01
1030.51,838.5,2.32E-01
1031.48,839.0,2.32E-01
1032.45,839.5,2.34E-01
1033.41,840.0,2.32E-01
1034.38,840.5,2.34E-01
1035.35,841.0,2.36E-01
1036.32,841.5,2.38E-01
1037.28,842.0,2.38E-01
1038.25,842.5,2.37E-01
1039.221,843.0,2.39E-01
1040.19,843.5,2.38E-01
1041.16,844.0,2.39E-01
1042.13,844.5,2.37E-01
1043.09,845.0,2.38E-01
1044.05,845.5,2.40E-01
1045.02,846.0,2.41E-01
1045.99,846.5,2.42E-01
1046.96,847.0,2.43E-01
1047.93,847.5,2.43E-01
1048.9,848.0,2.41E-01
1049.87,848.5,2.43E-01
1050.84,849.0,2.46E-01
1051.81,849.5,2.47E-01
1052.781,850.0,2.48E-01
1053.75,850.5,2.48E-01
1054.716,851.0,2.47E-01
1055.68,851.5,2.48E-01
1056.65,852.0,2.49E-01
1057.62,852.5,2.49E-01
1058.59,853.0,2.47E-01
1059.56,853.5,2.49E-01
1060.54,854.0,2.47E-01
1061.52,854.5,2.48E-01
1062.49,855.0,2.49E-01
1063.46,855.5,2.50E-01
1064.43,856.0,2.48E-01
1065.4,856.5,2.50E-01
1066.37,857.0,2.50E-01
1067.34,857.5,2.51E-01
1068.32,858.0,2.52E-01
1069.29,858.5,2.51E-01
1070.26,859.0,2.50E-01
1071.24,859.5,2.50E-01
1072.21,860.0,2.50E-01
1073.18,860.5,2.54E-01
1074.15,861.0,2.54E-01
1075.122,861.5,2.53E-01
1076.09,862.0,2.51E-01
1077.06,862.5,2.52E-01
1078.038,863.0,2.53E-01
1079.01,863.5,2.53E-01
1079.98,864.0,2.55E-01
1080.96,864.5,2.53E-01
1081.93,865.0,2.51E-01
1082.9,865.5,2.53E-01
1083.87,866.0,2.51E-01
1084.85,866.5,2.53E-01
1085.826,867.0,2.52E-01
1086.8,867.5,2.53E-01
1087.77,868.0,2.51E-01
1088.74,868.5,2.54E-01
1089.72,869.0,2.53E-01
1090.686,869.5,2.52E-01
1091.661,870.0,2.50E-01
1092.63,870.5,2.50E-01
1093.608,871.0,2.51E-01
1094.58,871.5,2.53E-01
1095.56,872.0,2.53E-01
1096.53,872.5,2.56E-01
1097.508,873.0,2.53E-01
1098.48,873.5,2.52E-01
1099.458,874.0,2.54E-01
1100.43,874.5,2.53E-01
1101.408,875.0,2.54E-01
1102.38,875.5,2.55E-01
1103.36,876.0,2.54E-01
1104.33,876.5,2.53E-01
1105.308,877.0,2.53E-01
1106.28,877.5,2.55E-01
1107.26,878.0,2.56E-01
1108.23,878.5,2.52E-01
1109.211,879.0,2.53E-01
1110.19,879.5,2.54E-01
1111.16,880.0,2.56E-01
1112.13,880.5,2.54E-01
1113.1,881.0,2.53E-01
1114.08,881.5,2.53E-01
1115.05,882.0,2.53E-01
1116.03,882.5,2.52E-01
1117.01,883.0,2.52E-01
1118,883.5,2.53E-01
1118.98,884.0,2.52E-01
1119.96,884.5,2.54E-01
1120.932,885.0,2.54E-01
1121.907,885.5,2.51E-01
1122.88,886.0,2.52E-01
1123.857,886.5,2.53E-01
1124.83,887.0,2.52E-01
1125.81,887.5,2.50E-01
1126.79,888.0,2.51E-01
1127.77,888.5,2.50E-01
1128.75,889.0,2.47E-01
1129.72,889.5,2.51E-01
1130.7,890.0,2.54E-01
1131.67,890.5,2.51E-01
1132.65,891.0,2.51E-01
1133.63,891.5,2.49E-01
1134.6,892.0,2.50E-01
1135.58,892.5,2.49E-01
1136.559,893.0,2.51E-01
1137.54,893.5,2.49E-01
1138.51,894.0,2.49E-01
1139.5,894.5,2.48E-01
1140.477,895.0,2.47E-01
1141.46,895.5,2.48E-01
1142.44,896.0,2.49E-01
1143.42,896.5,2.48E-01
1144.4,897.0,2.49E-01
1145.379,897.5,2.48E-01
1146.36,898.0,2.46E-01
1147.34,898.5,2.46E-01
1148.32,899.0,2.45E-01
1149.3,899.5,2.45E-01
1150.28,900.0,2.48E-01
1151.26,900.5,2.47E-01
1152.23,901.0,2.46E-01
1153.215,901.5,2.50E-01
1154.2,902.0,2.47E-01
1155.18,902.5,2.45E-01
1156.16,903.0,2.46E-01
1157.14,903.5,2.45E-01
1158.117,904.0,2.44E-01
1159.1,904.5,2.46E-01
1160.08,905.0,2.43E-01
1161.06,905.5,2.41E-01
1162.035,906.0,2.42E-01
1163.01,906.5,2.44E-01
1164,907.0,2.43E-01
1164.981,907.5,2.43E-01
1165.96,908.0,2.45E-01
1166.94,908.5,2.46E-01
1167.92,909.0,2.45E-01
1168.902,909.5,2.43E-01
1169.88,910.0,2.43E-01
1170.867,910.5,2.46E-01
1171.85,911.0,2.44E-01
1172.84,911.5,2.43E-01
1173.82,912.0,2.44E-01
1174.8,912.5,2.42E-01
1175.78,913.0,2.43E-01
1176.76,913.5,2.43E-01
1177.74,914.0,2.43E-01
1178.72,914.5,2.43E-01
1179.7,915.0,2.42E-01
1180.68,915.5,2.43E-01
1181.67,916.0,2.43E-01
1182.65,916.5,2.43E-01
1183.63,917.0,2.42E-01
1184.616,917.5,2.39E-01
1185.59,918.0,2.38E-01
1186.58,918.5,2.37E-01
1187.56,919.0,2.38E-01
1188.55,919.5,2.38E-01
1189.53,920.0,2.38E-01
1190.51,920.5,2.36E-01
1191.49,921.0,2.34E-01
1192.47,921.5,2.36E-01
1193.454,922.0,2.37E-01
1194.43,922.5,2.38E-01
1195.42,923.0,2.34E-01
1196.4,923.5,2.36E-01
1197.38,924.0,2.35E-01
1198.36,924.5,2.35E-01
1199.35,925.0,2.34E-01
1200.327,925.5,2.34E-01
1201.31,926.0,2.33E-01
1202.29,926.5,2.31E-01
1203.27,927.0,2.31E-01
1204.26,927.5,2.32E-01
1205.24,928.0,2.31E-01
1206.22,928.5,2.29E-01
1207.21,929.0,2.29E-01
1208.19,929.5,2.27E-01
1209.17,930.0,2.28E-01
1210.15,930.5,2.26E-01
1211.139,931.0,2.27E-01
1212.12,931.5,2.29E-01
1213.1,932.0,2.30E-01
1214.08,932.5,2.28E-01
1215.066,933.0,2.26E-01
1216.05,933.5,2.28E-01
1217.03,934.0,2.28E-01
1218.01,934.5,2.25E-01
1218.999,935.0,2.27E-01
1219.98,935.5,2.27E-01
1220.97,936.0,2.27E-01
1221.95,936.5,2.28E-01
1222.938,937.0,2.25E-01
1223.919,937.5,2.28E-01
1224.9,938.0,2.26E-01
1225.89,938.5,2.25E-01
1226.871,939.0,2.29E-01
1227.85,939.5,2.30E-01
1228.84,940.0,2.29E-01
1229.82,940.5,2.28E-01
1230.807,941.0,2.24E-01
1231.79,941.5,2.24E-01
1232.77,942.0,2.28E-01
1233.75,942.5,2.27E-01
1234.74,943.0,2.27E-01
1235.72,943.5,2.29E-01
1236.708,944.0,2.26E-01
1237.69,944.5,2.26E-01
1238.68,945.0,2.24E-01
1239.66,945.5,2.24E-01
1240.65,946.0,2.23E-01
1241.63,946.5,2.24E-01
1242.615,947.0,2.23E-01
1243.6,947.5,2.21E-01
1244.58,948.0,2.20E-01
1245.57,948.5,2.20E-01
1246.55,949.0,2.17E-01
1247.53,949.5,2.16E-01
1248.52,950.0,2.18E-01
1249.506,950.5,2.23E-01
1250.49,951.0,2.21E-01
1251.48,951.5,2.23E-01
1252.47,952.0,2.24E-01
1253.45,952.5,2.22E-01
1254.44,953.0,2.20E-01
1255.42,953.5,2.21E-01
1256.41,954.0,2.22E-01
1257.39,954.5,2.21E-01
1258.38,955.0,2.20E-01
1259.37,955.5,2.21E-01
1260.36,956.0,2.16E-01
1261.344,956.5,2.18E-01
1262.331,957.0,2.20E-01
1263.32,957.5,2.17E-01
1264.29,958.0,2.18E-01
1265.28,958.5,2.19E-01
1266.27,959.0,2.15E-01
1267.25,959.5,2.16E-01
1268.238,960.0,2.14E-01
1269.23,960.5,2.13E-01
1270.22,961.0,2.13E-01
1271.21,961.5,2.11E-01
1272.19,962.0,2.10E-01
1273.18,962.5,2.11E-01
1274.16,963.0,2.08E-01
1275.15,963.5,2.07E-01
1276.14,964.0,2.07E-01
1277.13,964.5,2.09E-01
1278.11,965.0,2.08E-01
1279.1,965.5,2.07E-01
1280.09,966.0,2.08E-01
1281.078,966.5,2.05E-01
1282.062,967.0,2.04E-01
1283.04,967.5,2.07E-01
1284.03,968.0,2.06E-01
1285.017,968.5,2.00E-01
1286,969.0,2.01E-01
1286.994,969.5,2.01E-01
1287.99,970.0,2.01E-01
1288.983,970.5,2.02E-01
1289.97,971.0,2.01E-01
1290.96,971.5,1.97E-01
1291.94,972.0,2.01E-01
1292.931,972.5,2.04E-01
1293.915,973.0,2.02E-01
1294.9,973.5,2.00E-01
1295.892,974.0,2.00E-01
1296.88,974.5,1.98E-01
1297.87,975.0,1.97E-01
1298.86,975.5,1.98E-01
1299.849,976.0,1.96E-01
1300.84,976.5,1.94E-01
1301.82,977.0,1.96E-01
1302.81,977.5,1.97E-01
1303.8,978.0,1.95E-01
1304.781,978.5,1.96E-01
1305.768,979.0,1.94E-01
1306.76,979.5,1.93E-01
1307.75,980.0,1.90E-01
1308.74,980.5,1.88E-01
1309.73,981.0,1.88E-01
1310.73,981.5,1.88E-01
1311.72,982.0,1.87E-01
1312.707,982.5,1.89E-01
1313.7,983.0,1.88E-01
1314.69,983.5,1.86E-01
1315.68,984.0,1.84E-01
1316.67,984.5,1.84E-01
1317.657,985.0,1.83E-01
1318.65,985.5,1.83E-01
1319.64,986.0,1.79E-01
1320.63,986.5,1.77E-01
1321.62,987.0,1.80E-01
1322.61,987.5,1.80E-01
1323.6,988.0,1.78E-01
1324.593,988.5,1.77E-01
1325.59,989.0,1.76E-01
1326.576,989.5,1.77E-01
1327.57,990.0,1.76E-01
1328.562,990.5,1.73E-01
1329.56,991.0,1.73E-01
1330.55,991.5,1.71E-01
1331.54,992.0,1.71E-01
1332.54,992.5,1.70E-01
1333.53,993.0,1.67E-01
1334.53,993.5,1.65E-01
1335.516,994.0,1.63E-01
1336.512,994.5,1.63E-01
1337.5,995.0,1.64E-01
1338.49,995.5,1.64E-01
1339.48,996.0,1.62E-01
1340.47,996.5,1.60E-01
1341.46,997.0,1.63E-01
1342.46,997.5,1.60E-01
1343.45,998.0,1.59E-01
1344.447,998.5,1.55E-01
1345.44,999.0,1.55E-01
1346.43,999.5,1.56E-01
1347.43,1000.0,1.53E-01
1348.42,1000.5,1.52E-01
1349.415,1001.0,1.48E-01
1350.41,1001.5,1.51E-01
1351.4,1002.0,1.50E-01
1352.4,1002.5,1.51E-01
1353.39,1003.0,1.49E-01
1354.38,1003.5,1.49E-01
1355.379,1004.0,1.43E-01
1356.375,1004.5,1.47E-01
1357.37,1005.0,1.44E-01
1358.36,1005.5,1.44E-01
1359.36,1006.0,1.43E-01
1360.35,1006.5,1.40E-01
1361.337,1007.0,1.41E-01
1362.33,1007.5,1.44E-01
1363.323,1008.0,1.43E-01
1364.32,1008.5,1.40E-01
1365.32,1009.0,1.39E-01
1366.32,1009.5,1.37E-01
1367.32,1010.0,1.36E-01
1368.32,1010.5,1.33E-01
1369.317,1011.0,1.30E-01
1370.316,1011.5,1.33E-01
1371.312,1012.0,1.33E-01
1372.31,1012.5,1.33E-01
1373.31,1013.0,1.32E-01
1374.3,1013.5,1.30E-01
1375.3,1014.0,1.27E-01
1376.29,1014.5,1.27E-01
1377.294,1015.0,1.29E-01
1378.29,1015.5,1.25E-01
1379.29,1016.0,1.22E-01
1380.29,1016.5,1.25E-01
1381.29,1017.0,1.22E-01
1382.289,1017.5,1.23E-01
1383.285,1018.0,1.23E-01
1384.28,1018.5,1.22E-01
1385.27,1019.0,1.22E-01
1386.27,1019.5,1.19E-01
1387.26,1020.0,1.20E-01
1388.26,1020.5,1.19E-01
1389.255,1021.0,1.17E-01
1390.25,1021.5,1.15E-01
1391.25,1022.0,1.12E-01
1392.252,1022.5,1.12E-01
1393.25,1023.0,1.15E-01
1394.25,1023.5,1.13E-01
1395.24,1024.0,1.10E-01
1396.24,1024.5,1.08E-01
1397.23,1025.0,1.12E-01
1398.23,1025.5,1.07E-01
1399.22,1026.0,1.05E-01
1400.22,1026.5,1.02E-01
1401.22,1027.0,1.02E-01
1402.22,1027.5,9.76E-02
1403.22,1028.0,9.16E-02
1404.21,1028.5,9.57E-02
1405.21,1029.0,9.36E-02
1406.2,1029.5,9.02E-02
1407.2,1030.0,8.92E-02
1408.194,1030.5,8.83E-02
1409.19,1031.0,9.09E-02
1410.192,1031.5,8.62E-02
1411.194,1032.0,8.28E-02
1412.19,1032.5,8.36E-02
1413.189,1033.0,8.13E-02
1414.185,1033.5,8.13E-02
1415.18,1034.0,7.97E-02
1416.18,1034.5,8.22E-02
1417.18,1035.0,7.77E-02
1418.18,1035.5,7.95E-02
1419.174,1036.0,7.85E-02
1420.17,1036.5,7.69E-02
1421.17,1037.0,7.80E-02
1422.168,1037.5,7.92E-02
1423.167,1038.0,7.60E-02
1424.16,1038.5,7.19E-02
1425.16,1039.0,7.31E-02
1426.161,1039.5,7.69E-02
1427.16,1040.0,7.06E-02
1428.15,1040.5,6.89E-02
1429.15,1041.0,7.09E-02
1430.15,1041.5,7.22E-02
1431.14,1042.0,7.20E-02
1432.14,1042.5,7.10E-02
1433.14,1043.0,7.19E-02
1434.138,1043.5,6.63E-02
1435.14,1044.0,6.55E-02
1436.13,1044.5,6.60E-02
1437.13,1045.0,6.49E-02
1438.12,1045.5,6.56E-02
1439.12,1046.0,6.55E-02
1440.12,1046.5,6.01E-02
1441.12,1047.0,6.03E-02
1442.12,1047.5,5.78E-02
1443.12,1048.0,5.86E-02
1444.12,1048.5,5.92E-02
1445.12,1049.0,5.85E-02
1446.12,1049.5,5.70E-02
1447.12,1050.0,5.14E-02
1448.115,1050.5,4.98E-02
1449.11,1051.0,5.16E-02
1450.104,1051.5,5.19E-02
1451.1,1052.0,5.05E-02
1452.1,1052.5,4.98E-02
1453.095,1053.0,4.79E-02
1454.09,1053.5,4.76E-02
1455.09,1054.0,4.62E-02
1456.09,1054.5,4.18E-02
1457.1,1055.0,4.31E-02
1458.09,1055.5,3.63E-02
1459.09,1056.0,3.69E-02
1460.091,1056.5,3.44E-02
1461.09,1057.0,3.34E-02
1462.09,1057.5,3.46E-02
1463.08,1058.0,3.34E-02
1464.08,1058.5,3.19E-02
1465.08,1059.0,3.30E-02
1466.07,1059.5,2.93E-02
1467.07,1060.0,2.50E-02
1468.07,1060.5,2.76E-02
1469.076,1061.0,2.62E-02
1470.07,1061.5,2.53E-02
1471.07,1062.0,2.54E-02
1472.07,1062.5,2.58E-02
1473.07,1063.0,2.18E-02