File: Wood/Calibration_Data/FSRI/FSRI_DSC_N2_10K_R1.csv
Time (s),Temperature (K),Heat Flow Rate (W/g)
0,324.5,0.0262217
14.67,325,0.0484987
24.43,325.5,0.0653073
32.44,326,0.0789975
39.4,326.5,0.0929194
45.67,327,0.0993224
51.39,327.5,0.110645
56.76,328,0.118592
61.9,328.5,0.124791
66.8,329,0.131771
71.55,329.5,0.138814
76.13,330,0.143481
80.6,330.5,0.147728
84.93,331,0.153824
89.17,331.5,0.158733
93.35,332,0.162534
97.47,332.5,0.16597
101.52,333,0.170267
105.49,333.5,0.171239
109.41,334,0.174647
113.28,334.5,0.178486
117.12,335,0.180849
120.91,335.5,0.181627
124.66,336,0.186746
128.4,336.5,0.188924
132.12,337,0.190559
135.83,337.5,0.192239
139.45,338,0.193975
143.04,338.5,0.195728
146.65,339,0.199068
150.23,339.5,0.202599
153.82,340,0.202879
157.36,340.5,0.205531
160.8,341,0.207139
164.3,341.5,0.20831
167.78,342,0.209668
171.26,342.5,0.211715
174.74,343,0.212282
178.18,343.5,0.214587
181.6,344,0.216358
185,344.5,0.218829
188.4,345,0.220668
191.78,345.5,0.222081
195.15,346,0.2237
198.5,346.5,0.226698
201.84,347,0.228134
205.15,347.5,0.230378
208.48,348,0.232678
211.8,348.5,0.234433
215.11,349,0.234441
218.42,349.5,0.236093
221.7,350,0.237317
224.97,350.5,0.237637
228.22,351,0.239839
231.47,351.5,0.241436
234.7,352,0.245086
237.93,352.5,0.246542
241.15,353,0.246481
244.36,353.5,0.249219
247.57,354,0.249305
250.76,354.5,0.249212
253.96,355,0.251539
257.12,355.5,0.253688
260.29,356,0.254869
263.41,356.5,0.252872
266.53,357,0.256282
269.68,357.5,0.256841
272.82,358,0.257463
275.94,358.5,0.258882
279.09,359,0.259239
282.19,359.5,0.26328
285.31,360,0.263395
288.45,360.5,0.262977
291.54,361,0.263229
294.62,361.5,0.263277
297.7,362,0.263887
300.77,362.5,0.265171
303.82,363,0.265557
306.89,363.5,0.265942
309.93,364,0.26534
312.96,364.5,0.26628
316,365,0.266078
319.03,365.5,0.266126
322.07,366,0.267139
325.1,366.5,0.268411
328.12,367,0.268975
331.13,367.5,0.269159
334.12,368,0.266526
337.12,368.5,0.268025
340.11,369,0.269139
343.1,369.5,0.267343
346.09,370,0.267471
349.08,370.5,0.26902
352.07,371,0.269043
355.04,371.5,0.269594
358.01,372,0.268169
360.98,372.5,0.266632
363.94,373,0.269728
366.91,373.5,0.267373
369.89,374,0.269101
372.86,374.5,0.268955
375.82,375,0.2662267
378.76,375.5,0.26939
381.71,376,0.268728
384.64,376.5,0.268511
387.58,377,0.26799
390.51,377.5,0.267892
393.45,378,0.268489
396.39,378.5,0.268695
399.33,379,0.268264
402.26,379.5,0.267526
405.18,380,0.269176
408.11,380.5,0.268907
411.02,381,0.266841
413.94,381.5,0.266058
416.86,382,0.267262
419.78,382.5,0.26772
422.72,383,0.266945
425.66,383.5,0.267373
428.58,384,0.266438
431.51,384.5,0.268128
434.43,385,0.266406
437.33,385.5,0.266622
440.24,386,0.266217
443.12,386.5,0.267015
446.02,387,0.266985
448.91,387.5,0.26627
451.8,388,0.265587
454.72,388.5,0.267655
457.65,389,0.266899
460.56,389.5,0.269657
463.47,390,0.268136
466.37,390.5,0.269086
469.28,391,0.268688
472.18,391.5,0.267259
475.07,392,0.26706
477.95,392.5,0.266829
480.85,393,0.269846
483.76,393.5,0.269421
486.66,394,0.270489
489.59,394.5,0.271423
492.48,395,0.268088
495.37,395.5,0.26929
498.26,396,0.269844
501.14,396.5,0.270504
504.02,397,0.272605
506.91,397.5,0.272063
509.8,398,0.272698
512.69,398.5,0.271922
515.58,399,0.273282
518.47,399.5,0.271736
521.34,400,0.273348
524.22,400.5,0.272632
527.11,401,0.274176
529.98,401.5,0.275514
532.88,402,0.274103
535.75,402.5,0.275139
538.59,403,0.275859
541.44,403.5,0.275282
544.3,404,0.276982
547.17,404.5,0.276746
550.06,405,0.277791
552.95,405.5,0.277259
555.81,406,0.277824
558.69,406.5,0.279662
561.55,407,0.277642
564.43,407.5,0.279433
567.3,408,0.280766
570.15,408.5,0.279358
573.01,409,0.279262
575.86,409.5,0.280786
578.72,410,0.280662
581.58,410.5,0.280977
584.44,411,0.282849
587.3,411.5,0.282423
590.15,412,0.282977
592.99,412.5,0.2847733
595.84,413,0.28337
598.68,413.5,0.283708
601.54,414,0.283965
604.39,414.5,0.28597
607.23,415,0.28463
610.06,415.5,0.28396
612.89,416,0.284947
615.74,416.5,0.285965
618.58,417,0.286091
621.43,417.5,0.285292
624.3,418,0.287252
627.14,418.5,0.286718
629.98,419,0.287877
632.82,419.5,0.289335
635.63,420,0.289665
638.46,420.5,0.288418
641.3,421,0.288544
644.14,421.5,0.288678
647,422,0.290096
649.84,422.5,0.291272
652.69,423,0.291547
655.52,423.5,0.293018
658.35,424,0.293141
661.2,424.5,0.293096
664.04,425,0.295272
666.87,425.5,0.294184
669.71,426,0.295146
672.56,426.5,0.295491
675.39,427,0.295557
678.23,427.5,0.296839
681.08,428,0.296904
683.91,428.5,0.298526
686.74,429,0.299317
689.57,429.5,0.300542
692.4,430,0.301416
695.22,430.5,0.301967
698.04,431,0.300977
700.87,431.5,0.303252
703.69,432,0.302426
706.52,432.5,0.302733
709.35,433,0.303552
712.18,433.5,0.305481
715,434,0.306103
717.82,434.5,0.30464
720.64,435,0.304809
723.46,435.5,0.307355
726.28,436,0.307237
729.12,436.5,0.307977
731.94,437,0.309645
734.77,437.5,0.310045
737.59,438,0.309204
740.42,438.5,0.309403
743.23,439,0.311627
746.05,439.5,0.31028
748.87,440,0.310834
751.7,440.5,0.309763
754.52,441,0.312569
757.33,441.5,0.312448
760.15,442,0.312605
762.98,442.5,0.314292
765.81,443,0.314549
768.64,443.5,0.314809
771.5,444,0.316914
774.33,444.5,0.317955
777.15,445,0.315786
779.98,445.5,0.317035
782.8,446,0.318325
785.62,446.5,0.318874
788.43,447,0.318033
791.25,447.5,0.317894
794.07,448,0.319864
796.88,448.5,0.320373
799.7,449,0.321076
802.53,449.5,0.322859
805.34,450,0.322736
808.18,450.5,0.323406
811.01,451,0.326015
813.83,451.5,0.327937
816.64,452,0.326537
819.46,452.5,0.329662
822.27,453,0.327766
825.1,453.5,0.329073
827.94,454,0.329287
830.76,454.5,0.331443
833.6,455,0.329579
836.41,455.5,0.331406
839.24,456,0.330662
842.07,456.5,0.330499
844.89,457,0.331748
847.69,457.5,0.333723
850.51,458,0.334141
853.34,458.5,0.336264
856.15,459,0.336176
858.98,459.5,0.335489
861.8,460,0.337836
864.62,460.5,0.337992
867.44,461,0.339463
870.24,461.5,0.338441
873.04,462,0.339763
875.85,462.5,0.339854
878.66,463,0.340783
881.48,463.5,0.341786
884.31,464,0.341557
887.12,464.5,0.342015
889.96,465,0.342531
892.78,465.5,0.345529
895.61,466,0.344718
898.43,466.5,0.344917
901.25,467,0.347139
904.06,467.5,0.346632
906.88,468,0.347864
909.69,468.5,0.345831
912.51,469,0.34505
915.33,469.5,0.345564
918.14,470,0.346632
920.93,470.5,0.350149
923.75,471,0.350708
926.56,471.5,0.350008
929.39,472,0.348662
932.23,472.5,0.351053
935.05,473,0.351282
937.87,473.5,0.35032
940.7,474,0.352018
943.51,474.5,0.353222
946.32,475,0.353632
949.14,475.5,0.353821
951.96,476,0.35472
954.77,476.5,0.355647
957.59,477,0.35462
960.41,477.5,0.355408
963.22,478,0.358028
966.04,478.5,0.356924
968.86,479,0.358013
971.68,479.5,0.358058
974.51,480,0.354463
977.34,480.5,0.35498
980.17,481,0.354254
982.99,481.5,0.355552
985.81,482,0.358552
988.64,482.5,0.359657
991.46,483,0.36036
994.28,483.5,0.361751
997.1,484,0.361436
999.92,484.5,0.360756
1002.75,485,0.363078
1005.57,485.5,0.362859
1008.41,486,0.364154
1011.24,486.5,0.36636
1014.08,487,0.368262
1016.9,487.5,0.36605
1019.73,488,0.368474
1022.56,488.5,0.368982
1025.39,489,0.368184
1028.23,489.5,0.368957
1031.07,490,0.369668
1033.9,490.5,0.371214
1036.74,491,0.371922
1039.57,491.5,0.372272
1042.39,492,0.372335
1045.21,492.5,0.372469
1048.03,493,0.372423
1050.85,493.5,0.373005
1053.68,494,0.37405
1056.5,494.5,0.373154
1059.32,495,0.373622
1062.14,495.5,0.375106
1064.96,496,0.375209
1067.79,496.5,0.376738
1070.61,497,0.376743
1073.46,497.5,0.378242
1076.29,498,0.38063
1079.11,498.5,0.379526
1081.95,499,0.381086
1084.77,499.5,0.381977
1087.59,500,0.382181
1090.42,500.5,0.38168
1093.24,501,0.38327
1096.07,501.5,0.38106
1098.91,502,0.381076
1101.74,502.5,0.380841
1104.57,503,0.381758
1107.41,503.5,0.381746
1110.23,504,0.381884
1113.06,504.5,0.38131
1115.88,505,0.38199
1118.71,505.5,0.381139
1121.54,506,0.382118
1124.36,506.5,0.381703
1127.18,507,0.383889
1130.01,507.5,0.381652
1132.85,508,0.38333
1135.68,508.5,0.384091
1138.51,509,0.383358
1141.35,509.5,0.3833
1144.18,510,0.384796
1147.02,510.5,0.385401
1149.86,511,0.384161
1152.69,511.5,0.385116
1155.53,512,0.384365
1158.36,512.5,0.386058
1161.19,513,0.386892
1164.01,513.5,0.386015
1166.82,514,0.386196
1169.66,514.5,0.387587
1172.49,515,0.388829
1175.33,515.5,0.39
1178.18,516,0.387441
1181.01,516.5,0.390184
1183.85,517,0.391038
1186.68,517.5,0.390945
1189.52,518,0.391292
1192.36,518.5,0.389373
1195.19,519,0.38998
1198.03,519.5,0.390418
1200.87,520,0.390637
1203.7,520.5,0.389544
1206.54,521,0.389272
1209.36,521.5,0.391869
1212.2,522,0.389315
1215.03,522.5,0.389552
1217.87,523,0.391506
1220.7,523.5,0.392738
1223.53,524,0.394317
1226.36,524.5,0.393602
1229.18,525,0.391932
1232.01,525.5,0.391829
1234.81,526,0.39161
1237.64,526.5,0.393615
1240.47,527,0.393214
1243.31,527.5,0.393935
1246.15,528,0.392889
1248.98,528.5,0.392524
1251.81,529,0.393353
1254.64,529.5,0.393897
1257.49,530,0.393791
1260.35,530.5,0.392877
1263.2,531,0.392368
1266.04,531.5,0.392118
1268.88,532,0.391171
1271.71,532.5,0.394479
1274.55,533,0.392343
1277.38,533.5,0.392652
1280.22,534,0.390914
1283.05,534.5,0.392393
1285.89,535,0.391763
1288.73,535.5,0.390783
1291.56,536,0.391952
1294.41,536.5,0.39104
1297.26,537,0.388962
1300.12,537.5,0.389982
1302.96,538,0.389738
1305.81,538.5,0.390015
1308.65,539,0.389466
1311.5,539.5,0.389111
1314.34,540,0.389612
1317.18,540.5,0.389088
1320.02,541,0.389851
1322.85,541.5,0.388809
1325.7,542,0.38936
1328.54,542.5,0.39065
1331.36,543,0.389844
1334.21,543.5,0.391247
1337.04,544,0.389176
1339.87,544.5,0.388877
1342.73,545,0.392282
1345.58,545.5,0.389748
1348.43,546,0.391214
1351.3,546.5,0.391625
1354.15,547,0.392877
1356.99,547.5,0.390887
1359.83,548,0.392637
1362.67,548.5,0.391363
1365.52,549,0.391899
1368.37,549.5,0.390242
1371.22,550,0.390942
1374.08,550.5,0.39102
1376.92,551,0.393489
1379.78,551.5,0.393164
1382.63,552,0.392108
1385.47,552.5,0.390033
1388.32,553,0.391081
1391.17,553.5,0.391589
1394.02,554,0.391453
1396.89,554.5,0.391743
1399.75,555,0.391924
1402.61,555.5,0.392171
1405.46,556,0.392224
1408.31,556.5,0.390879
1411.17,557,0.391418
1414,557.5,0.392181
1416.87,558,0.394499
1419.73,558.5,0.393509
1422.59,559,0.39431
1425.47,559.5,0.394204
1428.34,560,0.395426
1431.19,560.5,0.396239
1434.06,561,0.394365
1436.92,561.5,0.395408
1439.79,562,0.396798
1442.64,562.5,0.396151
1445.5,563,0.397141
1448.35,563.5,0.396796
1451.19,564,0.397665
1454.05,564.5,0.396997
1456.91,565,0.399244
1459.78,565.5,0.398814
1462.65,566,0.400169
1465.51,566.5,0.401123
1468.37,567,0.403874
1471.22,567.5,0.403214
1474.08,568,0.402965
1476.95,568.5,0.401869
1479.81,569,0.40327
1482.66,569.5,0.403322
1485.52,570,0.405259
1488.36,570.5,0.405771
1491.21,571,0.406134
1494.06,571.5,0.407927
1496.94,572,0.408116
1499.8,572.5,0.407902
1502.68,573,0.409428
1505.55,573.5,0.408489
1508.4,574,0.408365
1511.27,574.5,0.411584
1514.13,575,0.412411
1516.98,575.5,0.414642
1519.84,576,0.415824
1522.71,576.5,0.416375
1525.57,577,0.414058
1528.44,577.5,0.418194
1531.31,578,0.419436
1534.17,578.5,0.421652
1537.03,579,0.422232
1539.9,579.5,0.420078
1542.77,580,0.423126
1545.63,580.5,0.423935
1548.49,581,0.427524
1551.36,581.5,0.427411
1554.23,582,0.428282
1557.1,582.5,0.430179
1559.97,583,0.429801
1562.84,583.5,0.430237
1565.7,584,0.432406
1568.57,584.5,0.434078
1571.45,585,0.435662
1574.33,585.5,0.437587
1577.21,586,0.436917
1580.09,586.5,0.440957
1582.96,587,0.441957
1585.85,587.5,0.443758
1588.72,588,0.444889
1591.6,588.5,0.44906
1594.47,589,0.449239
1597.35,589.5,0.450257
1600.22,590,0.451537
1603.1,590.5,0.454723
1605.99,591,0.456645
1608.86,591.5,0.458421
1611.72,592,0.460335
1614.6,592.5,0.46231
1617.49,593,0.463469
1620.36,593.5,0.466804
1623.25,594,0.467826
1626.13,594.5,0.46768
1629,595,0.469902
1631.87,595.5,0.471194
1634.75,596,0.473945
1637.63,596.5,0.47337
1640.51,597,0.473562
1643.38,597.5,0.475922
1646.26,598,0.4777733
1649.15,598.5,0.480204
1652.04,599,0.479537
1654.94,599.5,0.482101
1657.83,600,0.482521
1660.71,600.5,0.488239
1663.6,601,0.487592
1666.47,601.5,0.489907
1669.35,602,0.489179
1672.24,602.5,0.491474
1675.13,603,0.493642
1678.02,603.5,0.496705
1680.91,604,0.498048
1683.79,604.5,0.498406
1686.68,605,0.49935
1689.57,605.5,0.502406
1692.46,606,0.502383
1695.32,606.5,0.504569
1698.2,607,0.504806
1701.08,607.5,0.506854
1703.97,608,0.511647
1706.87,608.5,0.513743
1709.76,609,0.515632
1712.65,609.5,0.516149
1715.53,610,0.519436
1718.42,610.5,0.52204
1721.31,611,0.524348
1724.2,611.5,0.526703
1727.11,612,0.529957
1730,612.5,0.531826
1732.89,613,0.533149
1735.78,613.5,0.5362267
1738.67,614,0.537854
1741.55,614.5,0.539431
1744.44,615,0.542446
1747.32,615.5,0.544048
1750.22,616,0.547418
1753.1,616.5,0.550363
1756,617,0.551715
1758.88,617.5,0.555766
1761.77,618,0.558814
1764.66,618.5,0.561985
1767.56,619,0.566141
1770.44,619.5,0.567882
1773.33,620,0.570625
1776.22,620.5,0.574662
1779.1,621,0.574214
1781.98,621.5,0.58368
1784.88,622,0.58565
1787.77,622.5,0.588887
1790.67,623,0.595028
1793.56,623.5,0.59767
1796.44,624,0.601136
1799.33,624.5,0.606237
1802.21,625,0.608063
1805.1,625.5,0.614476
1808.02,626,0.618509
1810.93,626.5,0.624191
1813.83,627,0.631123
1816.75,627.5,0.637501
1819.65,628,0.641982
1822.56,628.5,0.648176
1825.46,629,0.654751
1828.36,629.5,0.657761
1831.27,630,0.661778
1834.17,630.5,0.666264
1837.07,631,0.672267
1839.99,631.5,0.679123
1842.89,632,0.6832267
1845.79,632.5,0.688703
1848.7,633,0.696736
1851.61,633.5,0.699897
1854.53,634,0.703121
1857.46,634.5,0.71073
1860.39,635,0.716844
1863.29,635.5,0.720453
1866.21,636,0.727866
1869.12,636.5,0.730393
1872.04,637,0.737479
1874.98,637.5,0.745463
1877.93,638,0.748393
1880.88,638.5,0.751128
1883.83,639,0.754657
1886.79,639.5,0.75796
1889.74,640,0.758272
1892.69,640.5,0.758076
1895.65,641,0.759194
1898.6,641.5,0.761113
1901.57,642,0.762597
1904.53,642.5,0.763418
1907.51,643,0.761116
1910.47,643.5,0.758776
1913.42,644,0.754917
1916.38,644.5,0.750101
1919.33,645,0.746398
1922.28,645.5,0.740348
1925.22,646,0.732537
1928.16,646.5,0.72463
1931.09,647,0.714746
1934.03,647.5,0.700481
1936.96,648,0.68939
1939.9,648.5,0.676113
1942.82,649,0.660547
1945.74,649.5,0.647879
1948.65,650,0.630048
1951.54,650.5,0.610302
1954.44,651,0.59196
1957.33,651.5,0.569887
1960.22,652,0.551559
1963.12,652.5,0.531723
1966.02,653,0.506139
1968.91,653.5,0.484008
1971.79,654,0.460569
1974.65,654.5,0.438801
1977.53,655,0.412416
1980.42,655.5,0.389023
1983.28,656,0.365373
1986.18,656.5,0.340154
1989.03,657,0.316378
1991.9,657.5,0.29072
1994.76,658,0.270395
1997.62,658.5,0.248373
2000.5,659,0.22567
2003.36,659.5,0.206149
2006.22,660,0.187086
2009.09,660.5,0.165131
2011.96,661,0.14838
2014.84,661.5,0.133136
2017.72,662,0.117564
2020.6,662.5,0.104353
2023.49,663,0.0938312
2026.38,663.5,0.0830504
2029.26,664,0.0721713
2032.16,664.5,0.0651914
2035.04,665,0.0576499
2037.93,665.5,0.0520403
2040.81,666,0.0471033
2043.7,666.5,0.0435189
2046.61,667,0.0372091
2049.5,667.5,0.0351788
2052.39,668,0.0313955
2055.29,668.5,0.0313904
2058.19,669,0.0254736
2061.1,669.5,0.026073
2064.01,670,2.24E-02
2066.93,670.5,1.99E-02
2069.83,671,1.84E-02
2072.75,671.5,1.58E-02
2075.66,672,1.58E-02
2078.56,672.5,1.28E-02
2081.46,673,1.39E-02
2084.37,673.5,1.42E-02
2087.28,674,1.05E-02
2090.19,674.5,7.93E-03
2093.1,675,7.43E-03
2096.02,675.5,4.96E-03
2098.93,676,3.30E-03
2101.84,676.5,3.00E-03
2104.75,677,7.26E-04
2107.66,677.5,1.42E-04
2110.56,678,-8.36E-05
2113.45,678.5,-2.62E-03
2116.37,679,-3.51E-03
2119.28,679.5,-5.94E-03
2122.21,680,-6.88E-03
2125.16,680.5,-6.45E-03
2128.08,681,-1.03E-02
2131.01,681.5,-1.27E-02
2133.93,682,-1.30E-02
2136.84,682.5,-1.48E-02
2139.77,683,-1.74E-02
2142.69,683.5,-1.93E-02
2145.6,684,-2.03E-02
2148.52,684.5,-1.85E-02
2151.45,685,-2.27E-02
2154.36,685.5,-2.45E-02
2157.3,686,-0.025665
2160.22,686.5,-0.0276121
2163.14,687,-0.0292469
2166.07,687.5,-0.032461
2168.99,688,-0.0338212
2171.93,688.5,-0.0350605
2174.87,689,-0.0366096
2177.8,689.5,-0.0372821
2180.73,690,-0.041267
2183.65,690.5,-0.0386474
2186.57,691,-0.0406751
2189.49,691.5,-0.0412443
2192.41,692,-0.0421788
2195.35,692.5,-0.0445793
2198.28,693,-0.0472695
2201.21,693.5,-0.0499144
2204.14,694,-0.0498539
2207.07,694.5,-0.049937
2210,695,-0.0497733
2212.92,695.5,-0.0533577
2215.84,696,-0.054995
2218.75,696.5,-0.0549975
2221.67,697,-0.0547683
2224.6,697.5,-0.0554156
2227.5,698,-0.05704534
2230.43,698.5,-0.057398
2233.36,699,-0.0578438
2236.3,699.5,-0.0579975
2239.24,700,-0.0607254
2242.17,700.5,-0.0578741
2245.1,701,-0.0624736
2248.03,701.5,-0.0629597
2250.93,702,-0.0642569
2253.87,702.5,-0.06213602
2256.8,703,-0.0642922
2259.72,703.5,-0.0641058
2262.66,704,-0.0639975
2265.59,704.5,-0.0661285
2268.52,705,-0.06515869
2271.45,705.5,-0.0654282
2274.39,706,-0.0663375
2277.31,706.5,-0.0674156
2280.25,707,-0.06459194
2283.18,707.5,-0.065869
2286.11,708,-0.0668212
2289.04,708.5,-0.0673678
2291.98,709,-0.0664181
2294.9,709.5,-0.0660353
2297.84,710,-0.0651083
2300.78,710.5,-0.0672166
2303.72,711,-0.0645642
2306.68,711.5,-0.0641511
2309.63,712,-0.063267
2312.59,712.5,-0.0639169
2315.53,713,-0.0638489
2318.48,713.5,-0.0620479
2321.43,714,-0.060461
2324.37,714.5,-0.0586474
2327.32,715,-0.0573652
2330.27,715.5,-0.0542771
2333.21,716,-0.0523879
2336.16,716.5,-0.0534257
2339.1,717,-0.05281864
2342.05,717.5,-0.0504282
2345,718,-0.0494055
2347.95,718.5,-0.0496423
2350.9,719,-0.0477254
2353.87,719.5,-0.0444257
2356.82,720,-0.0440605
2359.78,720.5,-0.0445491
2362.73,721,-0.04184131
2365.67,721.5,-0.0411209
2368.62,722,-0.0408287
2371.56,722.5,-0.040995
2374.52,723,-0.0382469
2377.47,723.5,-0.0374408
2380.42,724,-0.0370428
2383.38,724.5,-0.0357582
2386.33,725,-0.0322015
2389.28,725.5,-0.0292771
2392.23,726,-0.03063728
2395.19,726.5,-0.0285416
2398.13,727,-0.0308791
2401.05,727.5,-0.0278035
2404.01,728,-0.0304106
2406.94,728.5,-0.029466
2409.9,729,-0.0270252
2412.87,729.5,-2.48E-02
2415.83,730,-2.32E-02
2418.79,730.5,-2.23E-02
2421.74,731,-1.91E-02
2424.69,731.5,-1.86E-02
2427.65,732,-1.71E-02
2430.6,732.5,-1.59E-02
2433.55,733,-1.31E-02
2436.51,733.5,-1.16E-02
2439.48,734,-9.85E-03
2442.42,734.5,-1.16E-02
2445.38,735,-1.03E-02
2448.34,735.5,-1.13E-02
2451.31,736,-4.96E-03
2454.27,736.5,-5.78E-03
2457.25,737,-7.14E-04
2460.21,737.5,-6.51E-04
2463.16,738,1.35E-03
2466.1,738.5,8.74E-04
2469.05,739,-7.71E-04
2472,739.5,2.03E-03
2474.95,740,2.77E-03
2477.91,740.5,4.38E-03
2480.87,741,5.39E-03
2483.83,741.5,4.64E-03
2486.79,742,8.34E-03
2489.74,742.5,8.87E-03
2492.68,743,8.10E-03
2495.64,743.5,1.18E-02
2498.58,744,1.44E-02
2501.54,744.5,1.37E-02
2504.5,745,1.46E-02
2507.45,745.5,1.45E-02
2510.4,746,1.27E-02
2513.33,746.5,1.37E-02
2516.27,747,1.30E-02
2519.21,747.5,1.32E-02
2522.17,748,1.38E-02
2525.13,748.5,1.54E-02
2528.08,749,1.78E-02
2531.04,749.5,1.66E-02
2533.99,750,1.48E-02
2536.94,750.5,1.68E-02
2539.89,751,1.51E-02
2542.85,751.5,1.83E-02
2545.8,752,1.91E-02
2548.76,752.5,1.77E-02
2551.72,753,1.81E-02
2554.68,753.5,1.84E-02
2557.64,754,1.99E-02
2560.6,754.5,1.93E-02
2563.56,755,2.17E-02
2566.53,755.5,2.19E-02
2569.5,756,2.19E-02
2572.47,756.5,2.40E-02
2575.43,757,0.0253501
2578.39,757.5,2.32E-02
2581.35,758,2.44E-02
2584.31,758.5,2.37E-02
2587.28,759,2.29E-02
2590.25,759.5,2.37E-02
2593.22,760,2.42E-02
2596.17,760.5,2.51E-02
2599.13,761,2.32E-02
2602.09,761.5,0.0270504
2605.05,762,2.40E-02
2608.02,762.5,2.14E-02
2610.99,763,0.0253476
2613.96,763.5,2.49E-02
2616.94,764,0.0273728
2619.9,764.5,0.026461
2622.88,765,0.0256096
2625.84,765.5,2.47E-02
2628.8,766,0.0255516
2631.77,766.5,0.0262418
2634.74,767,0.0258841
2637.71,767.5,2.42E-02
2640.69,768,0.0263778
2643.66,768.5,2.44E-02
2646.63,769,0.0262242
2649.6,769.5,2.39E-02
2652.57,770,0.0267305
2655.52,770.5,0.0265466
2658.5,771,0.0273955
2661.47,771.5,0.02920403
2664.45,772,0.03015869
2667.43,772.5,0.0270252
2670.41,773,0.0288791
2673.39,773.5,0.0271033
2676.36,774,0.0260151
2679.33,774.5,0.0264836
2682.31,775,0.0267355
2685.28,775.5,0.0277128
2688.25,776,0.0277909
2691.22,776.5,0.0274861
2694.18,777,0.0271385
2697.12,777.5,2.52E-02
2700.08,778,0.0256348
2703.03,778.5,0.02588665
2706,779,2.51E-02
2708.98,779.5,2.51E-02
2711.95,780,2.48E-02
2714.93,780.5,2.46E-02
2717.9,781,0.0260327
2720.88,781.5,2.50E-02
2723.85,782,0.0259043
2726.82,782.5,2.33E-02
2729.8,783,2.41E-02
2732.76,783.5,2.32E-02
2735.73,784,0.02679597
2738.69,784.5,0.0274861
2741.66,785,0.0253526
2744.63,785.5,2.42E-02
2747.6,786,2.51E-02
2750.57,786.5,2.28E-02
2753.54,787,2.38E-02
2756.52,787.5,2.17E-02
2759.49,788,2.14E-02
2762.47,788.5,2.18E-02
2765.43,789,2.18E-02
2768.4,789.5,2.17E-02
2771.36,790,2.14E-02
2774.34,790.5,1.84E-02
2777.31,791,2.11E-02
2780.28,791.5,1.73E-02
2783.25,792,2.14E-02
2786.23,792.5,2.01E-02
2789.22,793,1.81E-02
2792.21,793.5,1.90E-02
2795.19,794,1.70E-02
2798.18,794.5,1.98E-02
2801.15,795,1.79E-02
2804.13,795.5,2.03E-02
2807.11,796,1.85E-02
2810.1,796.5,1.63E-02
2813.09,797,1.44E-02
2816.07,797.5,1.30E-02
2819.05,798,1.54E-02
2822.03,798.5,1.48E-02
2825,799,1.49E-02
2827.98,799.5,1.41E-02
2830.98,800,1.66E-02
2833.97,800.5,1.63E-02
2836.95,801,1.54E-02
2839.94,801.5,1.59E-02
2842.92,802,1.66E-02
2845.9,802.5,1.54E-02
2848.89,803,1.30E-02
2851.87,803.5,1.47E-02
2854.86,804,1.19E-02
2857.85,804.5,1.44E-02
2860.83,805,9.52E-03
2863.82,805.5,9.30E-03
2866.82,806,9.44E-03
2869.81,806.5,1.19E-02
2872.8,807,1.12E-02
2875.8,807.5,9.94E-03
2878.78,808,9.92E-03
2881.77,808.5,1.12E-02
2884.77,809,1.29E-02
2887.75,809.5,1.07E-02
2890.73,810,1.23E-02
2893.72,810.5,1.21E-02
2896.69,811,1.34E-02
2899.69,811.5,1.19E-02
2902.68,812,1.19E-02
2905.67,812.5,1.23E-02
2908.68,813,1.35E-02
2911.67,813.5,1.60E-02
2914.65,814,1.02E-02
2917.64,814.5,1.21E-02
2920.62,815,1.19E-02
2923.61,815.5,1.23E-02
2926.6,816,1.23E-02
2929.59,816.5,1.34E-02
2932.58,817,1.59E-02
2935.57,817.5,1.33E-02
2938.55,818,1.47E-02
2941.53,818.5,1.42E-02
2944.52,819,1.49E-02
2947.5,819.5,1.67E-02
2950.47,820,1.55E-02
2953.45,820.5,1.50E-02
2956.43,821,1.28E-02
2959.41,821.5,1.30E-02
2962.37,822,1.23E-02
2965.35,822.5,1.19E-02
2968.32,823,1.05E-02
2971.29,823.5,1.04E-02
2974.27,824,8.61E-03
2977.25,824.5,9.81E-03
2980.23,825,9.25E-03
2983.21,825.5,9.44E-03
2986.18,826,7.48E-03
2989.15,826.5,6.74E-03
2992.13,827,6.61E-03
2995.11,827.5,9.04E-03
2998.08,828,9.02E-03
3001.06,828.5,7.67E-03
3004.04,829,9.21E-03
3007.02,829.5,8.42E-03
3010,830,9.22E-03
3012.96,830.5,7.86E-03
3015.94,831,7.45E-03
3018.92,831.5,9.02E-03
3021.89,832,8.33E-03
3024.87,832.5,7.33E-03
3027.87,833,8.60E-03
3030.86,833.5,8.61E-03
3033.84,834,8.10E-03
3036.83,834.5,2.30E-03
3039.81,835,4.30E-03
3042.79,835.5,-9.84E-04
3045.77,836,-9.46E-04
3048.77,836.5,-1.69E-03
3051.78,837,-7.86E-06
3054.79,837.5,-1.44E-04
3057.79,838,1.43E-03
3060.79,838.5,-8.67E-06
3063.78,839,-2.94E-03
3066.76,839.5,-2.05E-03
3069.74,840,-5.00E-03
3072.73,840.5,-3.38E-03
3075.71,841,-2.86E-03
3078.7,841.5,-2.97E-03
3081.69,842,-2.87E-03
3084.68,842.5,-3.06E-03
3087.67,843,-4.59E-03
3090.67,843.5,-4.74E-03
3093.66,844,-1.81E-03
3096.66,844.5,-2.57E-03
3099.66,845,-2.47E-03
3102.65,845.5,-2.59E-03
3105.65,846,-1.48E-03
3108.64,846.5,-9.64E-04
3111.64,847,2.95E-04
3114.64,847.5,-6.71E-04
3117.63,848,-1.38E-03
3120.65,848.5,-4.36E-03
3123.65,849,-3.97E-03
3126.66,849.5,-4.44E-03
3129.67,850,-5.06E-03
3132.66,850.5,-5.58E-03
3135.67,851,-4.91E-03
3138.67,851.5,-5.85E-03
3141.67,852,-5.66E-03
3144.67,852.5,-8.03E-03
3147.67,853,-6.81E-03
3150.66,853.5,-5.34E-03
3153.66,854,-5.67E-03
3156.66,854.5,-7.90E-03
3159.66,855,-9.53E-03
3162.66,855.5,-7.57E-03
3165.66,856,-6.51E-03
3168.66,856.5,-8.75E-03
3171.67,857,-1.02E-02
3174.68,857.5,-1.15E-02
3177.68,858,-1.11E-02
3180.68,858.5,-1.21E-02
3183.68,859,-1.26E-02
3186.69,859.5,-1.42E-02
3189.7,860,-1.51E-02
3192.7,860.5,-1.15E-02
3195.7,861,-9.21E-03
3198.69,861.5,-1.00E-02
3201.69,862,-1.11E-02
3204.69,862.5,-1.43E-02
3207.7,863,-1.65E-02
3210.7,863.5,-1.58E-02
3213.7,864,-1.50E-02
3216.7,864.5,-1.46E-02
3219.71,865,-1.68E-02
3222.71,865.5,-1.62E-02
3225.72,866,-2.32E-02
3228.72,866.5,-2.21E-02
3231.72,867,-0.02679597
3234.73,867.5,-0.0278237
3237.73,868,-0.0272292
3240.73,868.5,-0.0282544
3243.74,869,-0.0294106
3246.74,869.5,-0.0287783
3249.73,870,-0.0293325
3252.74,870.5,-0.0270882
3255.73,871,-0.0266398
3258.72,871.5,-0.0266272
3261.72,872,-0.0252317
3264.71,872.5,-2.50E-02
3267.71,873,-0.02806801
3270.71,873.5,-0.0272091
3273.7,874,-0.0314987
3276.71,874.5,-0.0306171
3279.71,875,-0.028
3282.72,875.5,-0.0294282
3285.72,876,-0.0315466
3288.72,876.5,-0.0331713
3291.73,877,-0.0390202
3294.73,877.5,-0.0385315
3297.74,878,-0.0372594
3300.74,878.5,-0.0398086
3303.75,879,-0.0398892
3306.76,879.5,-0.0389118
3309.77,880,-0.0407028
3312.78,880.5,-0.04167
3315.79,881,-0.0412746
3318.81,881.5,-0.04056927
3321.83,882,-0.0423073
3324.84,882.5,-0.0423778
3327.85,883,-0.0437632
3330.85,883.5,-0.0445894
3333.86,884,-0.0467582
3336.87,884.5,-0.0465189
3339.88,885,-0.0481537
3342.89,885.5,-0.0482091
3345.89,886,-0.04468262
3348.9,886.5,-0.0480327
3351.9,887,-0.0519572
3354.91,887.5,-0.0505264
3357.93,888,-0.0508589
3360.94,888.5,-0.0510529
3363.95,889,-0.05134005
3366.97,889.5,-0.0510428
3369.98,890,-0.0547229
3372.97,890.5,-0.05536272
3375.97,891,-0.0566801
3378.98,891.5,-0.0558438
3381.98,892,-0.0552746
3384.98,892.5,-0.0574937
3388.02,893,-0.060073
3391.02,893.5,-0.0579043
3394.03,894,-0.0585088
3397.06,894.5,-0.0599899
3400.08,895,-0.0586222
3403.09,895.5,-0.0585013
3406.11,896,-0.0571914
3409.12,896.5,-0.059461
3412.13,897,-0.0604433
3415.14,897.5,-0.06129471
3418.14,898,-0.06011335
3421.15,898.5,-0.06256927
3424.17,899,-0.06133
3427.18,899.5,-0.0638892
3430.2,900,-0.0588892
3433.21,900.5,-0.0597909
3436.23,901,-0.0585189
3439.25,901.5,-0.0617406
3442.26,902,-0.0610856
3445.27,902.5,-0.06043073
3448.28,903,-0.0612091
3451.3,903.5,-0.06472796
3454.3,904,-0.061403
3457.33,904.5,-0.0667229
3460.35,905,-0.0680856
3463.36,905.5,-0.0670302
3466.4,906,-0.0695441
3469.42,906.5,-0.0676776
3472.44,907,-0.0682972
3475.46,907.5,-0.0691058
3478.48,908,-0.0694761
3481.49,908.5,-0.0719169
3484.53,909,-0.0696877
3487.55,909.5,-0.0705113
3490.59,910,-0.0703199
3493.62,910.5,-0.06890932
3496.64,911,-0.068529
3499.67,911.5,-0.0679471
3502.69,912,-0.0714987
3505.72,912.5,-0.0724811
3508.75,913,-0.07165995
3511.77,913.5,-0.0685164
3514.8,914,-0.0709824
3517.82,914.5,-0.0712015
3520.85,915,-0.0695315
3523.87,915.5,-0.0712217
3526.9,916,-0.0718212
3529.93,916.5,-0.0727128
3532.95,917,-0.0730025
3535.96,917.5,-0.0733249
3538.97,918,-0.0760378
3541.98,918.5,-0.0745189
3545,919,-0.0753602
3548.02,919.5,-0.0768035
3551.04,920,-0.0762267
3554.06,920.5,-0.0768086
3557.07,921,-0.078262
3560.09,921.5,-0.07663728
3563.12,922,-0.0762418
3566.14,922.5,-0.0767657
3569.17,923,-0.0762569
3572.18,923.5,-0.0770277
3575.19,924,-0.07809068
3578.21,924.5,-0.07811335
3581.22,925,-0.0801914
3584.25,925.5,-0.0779723
3587.27,926,-0.0763829
3590.29,926.5,-0.0777733
3593.31,927,-0.0793501
3596.33,927.5,-0.0786247
3599.35,928,-0.0768589
3602.38,928.5,-0.0785365
3605.42,929,-0.0807632
3608.45,929.5,-0.0823829
3611.48,930,-0.0805063
3614.51,930.5,-0.0794282
3617.54,931,-0.0787632
3620.57,931.5,-0.0761788
3623.6,932,-0.0765441
3626.62,932.5,-0.0759622
3629.65,933,-0.0728388
3632.67,933.5,-0.0725894
3635.7,934,-0.0746448
3638.72,934.5,-0.0725844
3641.75,935,-0.07461461
3644.78,935.5,-0.0727758
3647.81,936,-0.0739194
3650.84,936.5,-0.0728766
3653.87,937,-0.0769748
3656.89,937.5,-0.0764207
3659.92,938,-0.0751839
3662.95,938.5,-0.077806
3665.99,939,-0.07840806
3669.02,939.5,-0.0789169
3672.06,940,-0.0772141
3675.09,940.5,-0.0772922
3678.11,941,-0.0755063
3681.14,941.5,-0.0747834
3684.18,942,-0.0753678
3687.21,942.5,-0.0727809
3690.23,943,-0.0761713
3693.28,943.5,-0.0737028
3696.32,944,-0.0733501
3699.36,944.5,-0.0771436
3702.43,945,-0.0738967
3705.47,945.5,-0.072738
3708.5,946,-0.0739723
3711.54,946.5,-0.0745743
3714.59,947,-0.0758338
3717.64,947.5,-0.0747531
3720.71,948,-0.0739798
3723.77,948.5,-0.075466
3726.81,949,-0.0770076
3729.87,949.5,-0.0768338
3732.92,950,-0.07836272
3735.96,950.5,-0.0783098
3738.99,951,-0.0778892
3742.03,951.5,-0.07990932
3745.08,952,-0.0814055
3748.12,952.5,-0.0803073
3751.17,953,-0.082466
3754.21,953.5,-0.0806196
3757.24,954,-0.0790403
3760.28,954.5,-0.0806398
3763.29,955,-0.0842746
3766.31,955.5,-0.081262
3769.35,956,-0.0797078
3772.39,956.5,-0.0791385
3775.45,957,-0.0804257
3778.51,957.5,-0.0811713
3781.55,958,-0.0807809
3784.59,958.5,-0.0822166
3787.63,959,-0.0790378
3790.66,959.5,-0.08029471
3793.7,960,-0.08229471
3796.71,960.5,-0.0819824
3799.74,961,-0.08443073
3802.78,961.5,-0.0858514
3805.82,962,-0.0846927
3808.87,962.5,-0.0872796
3811.91,963,-0.08770529
3814.94,963.5,-0.08788665
3817.97,964,-0.0877657
3821.01,964.5,-0.087267
3824.05,965,-0.0891285
3827.09,965.5,-0.0888338
3830.13,966,-0.089869
3833.16,966.5,-0.0901914
3836.2,967,-0.08504534
3839.24,967.5,-0.0861184
3842.27,968,-0.0861688
3845.3,968.5,-0.0851738
3848.32,969,-0.08615869
3851.35,969.5,-0.0868237
3854.39,970,-0.087471
3857.42,970.5,-0.08743073
3860.47,971,-0.0868615
3863.51,971.5,-0.0839219
3866.55,972,-0.0871108
3869.59,972.5,-0.0858564
3872.64,973,-0.0852091
3875.7,973.5,-0.0856247
3878.75,974,-0.08520403
3881.8,974.5,-0.0862821
3884.86,975,-0.0861436
3887.9,975.5,-0.0828841
3890.95,976,-0.0795189
3894,976.5,-0.0826322
3897.05,977,-0.0837582
3900.1,977.5,-0.0839295
3903.15,978,-0.0834736
3906.21,978.5,-0.0858615
3909.26,979,-0.0864383
3912.3,979.5,-0.0859572
3915.35,980,-0.0834207
3918.4,980.5,-0.0834257
3921.44,981,-0.0863526
3924.49,981.5,-0.0852166
3927.54,982,-0.0861209
3930.59,982.5,-0.0864106
3933.64,983,-0.0875718
3936.69,983.5,-0.0877582
3939.74,984,-0.0852217
3942.78,984.5,-0.0867078
3945.82,985,-0.0867557
3948.87,985.5,-0.0853098
3951.91,986,-0.0854584
3954.94,986.5,-0.0851461
3957.98,987,-0.08361461
3961,987.5,-0.0847657
3964.04,988,-0.085869
3967.08,988.5,-0.0855894
3970.13,989,-0.0870479
3973.17,989.5,-0.08470529
3976.22,990,-0.0908741
3979.26,990.5,-0.08963728
3982.31,991,-0.0893476
3985.34,991.5,-0.0889975
3988.38,992,-0.0895139
3991.41,992.5,-0.0871385
3994.44,993,-0.0864181
3997.48,993.5,-0.08797733
4000.51,994,-0.0884736
4003.55,994.5,-0.0870554
4006.59,995,-0.0862695
4009.64,995.5,-0.0857154
4012.69,996,-0.0875995
4015.74,996.5,-0.0835063
4018.79,997,-0.084801
4021.83,997.5,-0.0855743
4024.87,998,-0.0866851
4027.91,998.5,-0.0860831
4030.95,999,-0.0875894
4033.99,999.5,-0.0832292
4037.04,1000,-0.0807003
4040.08,1000.5,-0.0793426
4043.12,1001,-0.0795567
4046.16,1001.5,-0.0789899
4049.2,1002,-0.07672796
4052.24,1002.5,-0.0768035
4055.29,1003,-0.075267
4058.33,1003.5,-0.0715139
4061.37,1004,-0.0713829
4064.42,1004.5,-0.071471
4067.46,1005,-0.0727733
4070.5,1005.5,-0.07090932
4073.54,1006,-0.0676171
4076.57,1006.5,-0.0685164
4079.61,1007,-0.0695793
4082.65,1007.5,-0.0666625
4085.69,1008,-0.0657456
4088.72,1008.5,-0.0667003
4091.74,1009,-0.0643728
4094.79,1009.5,-0.0628363
4097.83,1010,-0.0658111
4100.88,1010.5,-0.0655592
4103.94,1011,-0.068403
4106.96,1011.5,-0.06588665
4109.99,1012,-0.0655542
4113.01,1012.5,-0.0663703
4116.03,1013,-0.0643073
4119.06,1013.5,-0.0635139
4122.1,1014,-0.0659169
4125.13,1014.5,-0.0608489
4128.18,1015,-0.061063
4131.22,1015.5,-0.0620957
4134.27,1016,-0.063005
4137.31,1016.5,-0.0590705
4140.36,1017,-0.0596751
4143.41,1017.5,-0.05724937
4146.45,1018,-0.056262
4149.51,1018.5,-0.058597
4152.56,1019,-0.0577783
4155.61,1019.5,-0.0590176
4158.66,1020,-0.0582872
4161.72,1020.5,-0.0570277
4164.77,1021,-0.0564005
4167.82,1021.5,-0.0556348
4170.86,1022,-0.0543753
4173.91,1022.5,-0.0528438
4176.96,1023,-0.0508111
4180.01,1023.5,-0.0505617
4183.06,1024,-0.0467935
4186.11,1024.5,-0.0440831
4189.16,1025,-0.0418589
4192.21,1025.5,-0.0415819
4195.26,1026,-0.0401058
4198.32,1026.5,-0.0395567
4201.36,1027,-0.0377254
4204.4,1027.5,-0.03561461
4207.45,1028,-0.0348589
4210.5,1028.5,-0.0357481
4213.56,1029,-0.0305063
4216.62,1029.5,-0.0342242
4219.68,1030,-0.0325516
4222.74,1030.5,-0.0314685
4225.79,1031,-0.0298741
4228.83,1031.5,-0.0286071
4231.89,1032,-0.0255516
4234.95,1032.5,-0.027335
4238.01,1033,-0.0255945
4241.08,1033.5,-2.23E-02
4244.14,1034,-1.83E-02
4247.2,1034.5,-1.40E-02
4250.25,1035,-1.53E-02
4253.31,1035.5,-1.02E-02
4256.37,1036,-7.19E-03
4259.42,1036.5,-5.64E-03
4262.46,1037,-4.50E-03
4265.51,1037.5,-3.00E-03
4268.57,1038,-3.06E-03
4271.64,1038.5,-4.20E-03
4274.7,1039,-3.64E-03
4277.76,1039.5,-1.12E-04
4280.81,1040,-3.52E-03
4283.86,1040.5,-8.02E-04
4286.92,1041,-2.14E-03
4289.98,1041.5,-3.79E-03
4293.02,1042,9.18E-04
4296.09,1042.5,-2.17E-03
4299.15,1043,2.35E-03
4302.21,1043.5,4.72E-03
4305.27,1044,6.15E-03
4308.33,1044.5,8.36E-03
4311.38,1045,1.09E-02
4314.44,1045.5,1.00E-02
4317.5,1046,8.10E-03
4320.56,1046.5,1.24E-02
4323.62,1047,1.37E-02
4326.68,1047.5,1.20E-02
4329.74,1048,1.41E-02
4332.79,1048.5,1.63E-02
4335.84,1049,1.56E-02
4338.89,1049.5,1.66E-02
4341.94,1050,1.70E-02
4345,1050.5,1.56E-02
4348.06,1051,1.83E-02
4351.1,1051.5,1.89E-02
4354.16,1052,1.72E-02
4357.2,1052.5,1.81E-02
4360.25,1053,2.07E-02
4363.29,1053.5,2.27E-02
4366.33,1054,2.47E-02
4369.37,1054.5,2.43E-02
4372.42,1055,0.0275239
4375.46,1055.5,0.0298539
4378.52,1056,0.0262746
4381.57,1056.5,0.0267179
4384.62,1057,0.0290151
4387.68,1057.5,2.40E-02
4390.74,1058,2.28E-02
4393.79,1058.5,2.24E-02
4396.85,1059,2.38E-02
4399.9,1059.5,2.05E-02
4402.95,1060,2.15E-02
4406,1060.5,2.25E-02
4409.05,1061,2.31E-02
4412.1,1061.5,0.0264584
4415.15,1062,0.0254458
4418.19,1062.5,0.0267254
4421.24,1063,0.0267406
4424.28,1063.5,0.0281763
4427.34,1064,0.027194
4430.39,1064.5,0.0281511
4433.46,1065,0.0310806
4436.52,1065.5,0.033403
4439.58,1066,0.0300856
4442.66,1066.5,0.0299647
4445.72,1067,0.0272846
4448.79,1067.5,0.0274181
4451.87,1068,0.0308338
4454.93,1068.5,0.0324358
4457.98,1069,0.03431738