File: Wood/Calibration_Data/FSRI/FSRI_STA_N2_3K_R1.csv
Time (s),Temperature (K),Mass (mg),Heat Flow Rate (W/g)
0.0,324.0,3.9936,0.022
21.9525,324.5,3.9939,0.034
39.1881,325.0,3.9928,0.0399
54.6638,325.5,3.9923,0.0458
69.0518,326.0,3.9924,0.0497
82.764,326.5,3.9914,0.0527
96.013,327.0,3.9909,0.0545
108.938,327.5,3.9911,0.0565
121.516,328.0,3.9904,0.0603
133.834,328.5,3.9909,0.0621
145.864,329.0,3.9905,0.064
157.683,329.5,3.991,0.0666
169.346,330.0,3.99,0.0682
180.788,330.5,3.9901,0.0685
192.1,331.0,3.9904,0.0691
203.223,331.5,3.9887,0.0724
214.212,332.0,3.9887,0.0749
225.149,332.5,3.9878,0.0755
236.004,333.0,3.9873,0.0759
246.789,333.5,3.9874,0.076
257.51,334.0,3.9875,0.0769
268.134,334.5,3.9867,0.0788
278.671,335.0,3.9875,0.0788
289.173,335.5,3.9868,0.0793
299.585,336.0,3.9864,0.0813
309.965,336.5,3.9858,0.0823
320.299,337.0,3.9851,0.0824
330.599,337.5,3.985,0.0836
340.895,338.0,3.9853,0.0851
351.153,338.5,3.984,0.0863
361.362,339.0,3.9848,0.0864
371.529,339.5,3.9842,0.0884
381.672,340.0,3.9837,0.0882
391.791,340.5,3.9831,0.089
401.903,341.0,3.9825,0.0905
412.003,341.5,3.9825,0.0898
422.053,342.0,3.9824,0.089
432.116,342.5,3.9827,0.0891
442.079,343.0,3.9813,0.0889
451.995,343.5,3.9822,0.0914
461.934,344.0,3.9816,0.0928
471.813,344.5,3.981,0.092
481.76,345.0,3.9814,0.0916
491.733,345.5,3.98,0.0898
501.685,346.0,3.9809,0.0898
511.604,346.5,3.9801,0.091
521.511,347.0,3.9809,0.0892
531.464,347.5,3.9798,0.0898
541.409,348.0,3.9788,0.0894
551.424,348.5,3.9787,0.088
561.404,349.0,3.9782,0.0882
571.324,349.5,3.9803,0.0896
581.23,350.0,3.9787,0.0881
591.108,350.5,3.9776,0.0878
600.948,351.0,3.9782,0.0886
610.804,351.5,3.9786,0.0878
620.66,352.0,3.9778,0.0874
630.516,352.5,3.9788,0.088
640.412,353.0,3.977,0.0884
650.305,353.5,3.9759,0.0877
660.179,354.0,3.977,0.0888
670.033,354.5,3.9774,0.0884
679.882,355.0,3.9763,0.088
689.696,355.5,3.9752,0.0884
699.535,356.0,3.9761,0.0875
709.386,356.5,3.9752,0.0866
719.259,357.0,3.9753,0.0877
729.152,357.5,3.9757,0.0876
739.016,358.0,3.9754,0.0853
748.846,358.5,3.9743,0.0866
758.664,359.0,3.975,0.0866
768.487,359.5,3.9746,0.0842
778.3,360.0,3.9742,0.0864
788.093,360.5,3.974,0.0846
797.904,361.0,3.9738,0.0866
807.743,361.5,3.9741,0.0856
817.53,362.0,3.9744,0.0863
827.336,362.5,3.9737,0.0854
837.17,363.0,3.974,0.0865
846.958,363.5,3.9742,0.0861
856.708,364.0,3.9744,0.0855
866.417,364.5,3.9731,0.0849
876.083,365.0,3.9738,0.085
885.746,365.5,3.9743,0.0872
895.478,366.0,3.9742,0.0858
905.254,366.5,3.9742,0.0863
915.064,367.0,3.9731,0.0864
924.87,367.5,3.9732,0.0858
934.717,368.0,3.9737,0.087
944.593,368.5,3.973,0.0845
954.468,369.0,3.9728,0.0849
964.346,369.5,3.9731,0.0855
974.147,370.0,3.9719,0.0863
983.886,370.5,3.9721,0.0856
993.658,371.0,3.9738,0.0841
1003.43,371.5,3.9729,0.0847
1013.2,372.0,3.9736,0.0857
1022.98,372.5,3.973,0.0871
1032.74,373.0,3.9728,0.0876
1042.53,373.5,3.9722,0.0861
1052.32,374.0,3.9723,0.0836
1062.12,374.5,3.9726,0.0839
1071.95,375.0,3.9725,0.0848
1081.78,375.5,3.9727,0.0866
1091.58,376.0,3.9719,0.0848
1101.39,376.5,3.9729,0.0839
1111.19,377.0,3.9715,0.0837
1120.89,377.5,3.9715,0.0845
1130.58,378.0,3.9721,0.0831
1140.29,378.5,3.9717,0.0835
1149.96,379.0,3.973,0.0823
1159.71,379.5,3.9723,0.0833
1169.51,380.0,3.9723,0.0834
1179.27,380.5,3.9727,0.0822
1189.05,381.0,3.9723,0.0843
1198.88,381.5,3.9707,0.0863
1208.65,382.0,3.9719,0.0855
1218.45,382.5,3.971,0.0866
1228.3,383.0,3.9714,0.086
1238.15,383.5,3.972,0.0862
1248.01,384.0,3.9719,0.0871
1257.86,384.5,3.9717,0.0889
1267.67,385.0,3.9731,0.0884
1277.44,385.5,3.9715,0.0875
1287.23,386.0,3.9715,0.0874
1297.01,386.5,3.9723,0.0877
1306.76,387.0,3.9722,0.088
1316.51,387.5,3.9708,0.0881
1326.2,388.0,3.9715,0.0877
1335.86,388.5,3.9716,0.0883
1345.58,389.0,3.9711,0.0882
1355.29,389.5,3.9719,0.088
1365.02,390.0,3.9708,0.0883
1374.8,390.5,3.9716,0.0887
1384.54,391.0,3.971,0.0901
1394.29,391.5,3.9709,0.0907
1404.06,392.0,3.9702,0.0908
1413.8,392.5,3.9703,0.0904
1423.55,393.0,3.9707,0.0908
1433.3,393.5,3.9706,0.0917
1443.04,394.0,3.9706,0.0906
1452.78,394.5,3.9709,0.0908
1462.54,395.0,3.9709,0.0907
1472.33,395.5,3.9712,0.0892
1482.09,396.0,3.9707,0.0879
1491.81,396.5,3.9695,0.0903
1501.53,397.0,3.9692,0.09
1511.23,397.5,3.9697,0.0885
1520.92,398.0,3.9704,0.0879
1530.63,398.5,3.9706,0.0896
1540.34,399.0,3.9706,0.0904
1550.04,399.5,3.9708,0.0909
1559.73,400.0,3.9706,0.0903
1569.41,400.5,3.9711,0.0908
1579.08,401.0,3.9711,0.093
1588.76,401.5,3.9706,0.0943
1598.43,402.0,3.971,0.0924
1608.13,402.5,3.9719,0.0936
1617.8,403.0,3.9714,0.0936
1627.49,403.5,3.9719,0.0949
1637.2,404.0,3.9712,0.0953
1646.89,404.5,3.9717,0.0946
1656.58,405.0,3.971,0.0971
1666.32,405.5,3.971,0.095
1676.08,406.0,3.9713,0.0948
1685.82,406.5,3.9713,0.0975
1695.58,407.0,3.9707,0.0962
1705.32,407.5,3.9712,0.0968
1715.01,408.0,3.9704,0.0953
1724.73,408.5,3.9696,0.0969
1734.46,409.0,3.9695,0.0989
1744.19,409.5,3.9701,0.0981
1753.92,410.0,3.9685,0.0969
1763.62,410.5,3.9689,0.0978
1773.29,411.0,3.969,0.0974
1782.96,411.5,3.9698,0.0978
1792.65,412.0,3.9705,0.0983
1802.37,412.5,3.9693,0.0986
1812.07,413.0,3.9688,0.0994
1821.76,413.5,3.9695,0.0983
1831.47,414.0,3.9693,0.0991
1841.15,414.5,3.9682,0.0994
1850.83,415.0,3.9678,0.0998
1860.56,415.5,3.9685,0.1003
1870.26,416.0,3.9686,0.1001
1879.97,416.5,3.9691,0.102
1889.67,417.0,3.9692,0.1023
1899.36,417.5,3.9698,0.1017
1909,418.0,3.968,0.1022
1918.64,418.5,3.9686,0.1017
1928.32,419.0,3.9681,0.1022
1938,419.5,3.9676,0.1007
1947.72,420.0,3.9671,0.0999
1957.42,420.5,3.9661,0.101
1967.13,421.0,3.9662,0.102
1976.85,421.5,3.9665,0.1029
1986.55,422.0,3.9673,0.1039
1996.26,422.5,3.9662,0.1027
2005.94,423.0,3.9669,0.1025
2015.59,423.5,3.9665,0.1021
2025.26,424.0,3.9657,0.1036
2034.95,424.5,3.9671,0.1049
2044.64,425.0,3.9664,0.1059
2054.32,425.5,3.9664,0.1062
2063.99,426.0,3.9668,0.1056
2073.66,426.5,3.9665,0.1054
2083.32,427.0,3.9676,0.1056
2092.99,427.5,3.9665,0.1065
2102.66,428.0,3.9674,0.1059
2112.35,428.5,3.9658,0.1075
2122.02,429.0,3.9651,0.1059
2131.71,429.5,3.9651,0.1076
2141.4,430.0,3.965,0.1079
2151.08,430.5,3.9646,0.1069
2160.77,431.0,3.9656,0.1075
2170.47,431.5,3.9661,0.1061
2180.16,432.0,3.9654,0.107
2189.87,432.5,3.9638,0.1058
2199.55,433.0,3.963,0.104
2209.25,433.5,3.9632,0.1069
2218.94,434.0,3.9635,0.1069
2228.62,434.5,3.9625,0.1072
2238.33,435.0,3.9609,0.1053
2248.02,435.5,3.9615,0.1063
2257.69,436.0,3.9625,0.1073
2267.38,436.5,3.9598,0.1073
2277.09,437.0,3.9613,0.1067
2286.78,437.5,3.9614,0.1061
2296.51,438.0,3.96,0.1055
2306.26,438.5,3.9601,0.1063
2315.99,439.0,3.9595,0.1063
2325.73,439.5,3.9601,0.1057
2335.48,440.0,3.9601,0.1059
2345.15,440.5,3.9589,0.106
2354.86,441.0,3.9587,0.1063
2364.57,441.5,3.9587,0.1072
2374.26,442.0,3.9589,0.1075
2383.99,442.5,3.9579,0.1076
2393.7,443.0,3.9567,0.1101
2403.39,443.5,3.9562,0.1105
2413.1,444.0,3.9575,0.109
2422.83,444.5,3.9553,0.1115
2432.51,445.0,3.9547,0.1107
2442.2,445.5,3.9555,0.1105
2451.91,446.0,3.955,0.1096
2461.63,446.5,3.9542,0.1105
2471.35,447.0,3.9533,0.1115
2481.11,447.5,3.9532,0.1125
2490.86,448.0,3.9524,0.1127
2500.57,448.5,3.9506,0.1126
2510.28,449.0,3.9515,0.113
2520.02,449.5,3.9515,0.1142
2529.73,450.0,3.9501,0.1146
2539.48,450.5,3.9496,0.1148
2549.22,451.0,3.9494,0.113
2558.93,451.5,3.9481,0.1119
2568.65,452.0,3.9482,0.1134
2578.34,452.5,3.9472,0.1125
2588.04,453.0,3.9466,0.1124
2597.71,453.5,3.9461,0.1116
2607.36,454.0,3.9477,0.1147
2617.02,454.5,3.9447,0.1132
2626.69,455.0,3.9439,0.1137
2636.36,455.5,3.9434,0.1145
2646.03,456.0,3.9427,0.1144
2655.69,456.5,3.9436,0.1145
2665.36,457.0,3.9428,0.1142
2675.05,457.5,3.9417,0.1142
2684.77,458.0,3.9416,0.1146
2694.48,458.5,3.9412,0.113
2704.17,459.0,3.9401,0.114
2713.88,459.5,3.9386,0.1144
2723.56,460.0,3.9382,0.1142
2733.25,460.5,3.9385,0.1139
2742.98,461.0,3.9374,0.1146
2752.65,461.5,3.9362,0.1148
2762.34,462.0,3.9361,0.1145
2772.04,462.5,3.9351,0.1155
2781.71,463.0,3.9344,0.1144
2791.39,463.5,3.936,0.1159
2801.09,464.0,3.9341,0.1156
2810.77,464.5,3.9335,0.1167
2820.42,465.0,3.9312,0.1164
2830.04,465.5,3.932,0.1169
2839.62,466.0,3.9309,0.1172
2849.19,466.5,3.9284,0.1164
2858.84,467.0,3.9297,0.1166
2868.55,467.5,3.9279,0.1167
2878.31,468.0,3.927,0.1182
2888.06,468.5,3.9264,0.1175
2897.78,469.0,3.9247,0.1183
2907.47,469.5,3.9246,0.1181
2917.13,470.0,3.9236,0.1168
2926.87,470.5,3.9224,0.116
2936.61,471.0,3.92,0.1148
2946.3,471.5,3.9195,0.1146
2956.01,472.0,3.9186,0.1141
2965.69,472.5,3.9182,0.1156
2975.36,473.0,3.916,0.1164
2985,473.5,3.9152,0.1139
2994.65,474.0,3.9148,0.1155
3004.36,474.5,3.9129,0.1169
3014.03,475.0,3.9131,0.1154
3023.75,475.5,3.9127,0.115
3033.43,476.0,3.9099,0.1164
3043.12,476.5,3.9098,0.1161
3052.81,477.0,3.9098,0.1159
3062.48,477.5,3.9096,0.1157
3072.17,478.0,3.9091,0.1153
3081.85,478.5,3.9079,0.1154
3091.53,479.0,3.9079,0.1149
3101.2,479.5,3.9064,0.1159
3110.86,480.0,3.9062,0.1157
3120.55,480.5,3.9043,0.1175
3130.22,481.0,3.9023,0.1167
3139.89,481.5,3.9037,0.1161
3149.58,482.0,3.9019,0.1165
3159.26,482.5,3.9009,0.1168
3168.94,483.0,3.901,0.1163
3178.62,483.5,3.8981,0.1155
3188.29,484.0,3.8962,0.1171
3197.98,484.5,3.8963,0.1198
3207.66,485.0,3.8952,0.1181
3217.34,485.5,3.8944,0.1179
3227.05,486.0,3.8935,0.1185
3236.74,486.5,3.8924,0.1191
3246.38,487.0,3.8904,0.1201
3256.09,487.5,3.8898,0.1185
3265.81,488.0,3.8901,0.1191
3275.52,488.5,3.8886,0.1182
3285.29,489.0,3.8871,0.1169
3295.04,489.5,3.8864,0.1162
3304.76,490.0,3.8864,0.1149
3314.45,490.5,3.8854,0.1181
3324.17,491.0,3.884,0.1166
3333.87,491.5,3.8828,0.1164
3343.59,492.0,3.8811,0.1163
3353.3,492.5,3.8822,0.1162
3363.03,493.0,3.8806,0.1176
3372.78,493.5,3.8799,0.1184
3382.5,494.0,3.8778,0.1203
3392.23,494.5,3.8769,0.1189
3401.96,495.0,3.8752,0.1182
3411.62,495.5,3.8756,0.12
3421.3,496.0,3.874,0.1205
3430.99,496.5,3.8721,0.1194
3440.68,497.0,3.8723,0.1188
3450.42,497.5,3.8708,0.1196
3460.16,498.0,3.869,0.1194
3469.87,498.5,3.8668,0.1203
3479.58,499.0,3.8655,0.1202
3489.28,499.5,3.8643,0.1201
3498.93,500.0,3.8629,0.1201
3508.63,500.5,3.8615,0.1206
3518.34,501.0,3.8614,0.1217
3528.05,501.5,3.8596,0.1218
3537.81,502.0,3.8572,0.1222
3547.53,502.5,3.8572,0.1227
3557.24,503.0,3.8552,0.1225
3566.93,503.5,3.8537,0.1216
3576.61,504.0,3.8518,0.1222
3586.31,504.5,3.8501,0.1212
3595.98,505.0,3.8484,0.1188
3605.64,505.5,3.8468,0.1201
3615.32,506.0,3.8454,0.1222
3624.99,506.5,3.8423,0.1214
3634.67,507.0,3.8406,0.1194
3644.32,507.5,3.8385,0.1184
3654.01,508.0,3.8357,0.1197
3663.7,508.5,3.8352,0.1208
3673.42,509.0,3.8335,0.1206
3683.11,509.5,3.8308,0.1229
3692.81,510.0,3.829,0.1231
3702.53,510.5,3.8279,0.1232
3712.24,511.0,3.8254,0.1223
3721.99,511.5,3.8239,0.1219
3731.76,512.0,3.821,0.1208
3741.52,512.5,3.8191,0.1196
3751.24,513.0,3.8175,0.121
3761.01,513.5,3.815,0.1224
3770.75,514.0,3.8123,0.1229
3780.49,514.5,3.8094,0.123
3790.27,515.0,3.808,0.1231
3799.98,515.5,3.805,0.1236
3809.69,516.0,3.8022,0.1236
3819.42,516.5,3.7997,0.1247
3829.13,517.0,3.7971,0.1234
3838.84,517.5,3.7938,0.1245
3848.56,518.0,3.7915,0.1244
3858.25,518.5,3.7892,0.1238
3867.96,519.0,3.7867,0.1234
3877.67,519.5,3.7828,0.1221
3887.39,520.0,3.7799,0.1223
3897.16,520.5,3.7762,0.1227
3906.9,521.0,3.7742,0.1207
3916.64,521.5,3.7718,0.1204
3926.39,522.0,3.769,0.1224
3936.11,522.5,3.7657,0.1212
3945.85,523.0,3.7623,0.1218
3955.54,523.5,3.7586,0.1216
3965.26,524.0,3.7557,0.1212
3975,524.5,3.7533,0.1219
3984.72,525.0,3.7499,0.122
3994.5,525.5,3.748,0.1228
4004.3,526.0,3.7436,0.1214
4014.07,526.5,3.74,0.1215
4023.81,527.0,3.7372,0.1223
4033.52,527.5,3.7338,0.1247
4043.22,528.0,3.7294,0.1251
4052.9,528.5,3.7265,0.1241
4062.59,529.0,3.723,0.125
4072.3,529.5,3.7187,0.1235
4082.02,530.0,3.7156,0.123
4091.74,530.5,3.7123,0.1242
4101.46,531.0,3.7084,0.1243
4111.17,531.5,3.7042,0.1249
4120.89,532.0,3.7014,0.125
4130.61,532.5,3.6973,0.1257
4140.33,533.0,3.6929,0.1253
4150.04,533.5,3.6892,0.1249
4159.76,534.0,3.6858,0.1263
4169.46,534.5,3.6815,0.128
4179.16,535.0,3.6771,0.1272
4188.87,535.5,3.673,0.1268
4198.58,536.0,3.6689,0.1265
4208.3,536.5,3.6639,0.1261
4218.03,537.0,3.6596,0.1272
4227.72,537.5,3.6556,0.1261
4237.44,538.0,3.6503,0.1246
4247.15,538.5,3.6459,0.1237
4256.86,539.0,3.6421,0.1253
4266.6,539.5,3.6374,0.1255
4276.37,540.0,3.6323,0.1256
4286.09,540.5,3.6277,0.1251
4295.85,541.0,3.6224,0.125
4305.58,541.5,3.6178,0.1249
4315.28,542.0,3.6131,0.1263
4325.01,542.5,3.6077,0.1265
4334.73,543.0,3.6012,0.1253
4344.47,543.5,3.5975,0.1246
4354.21,544.0,3.5918,0.1251
4363.92,544.5,3.5856,0.1251
4373.62,545.0,3.58,0.1267
4383.37,545.5,3.5744,0.1278
4393.1,546.0,3.5689,0.1269
4402.87,546.5,3.5622,0.1265
4412.65,547.0,3.5564,0.1256
4422.42,547.5,3.5509,0.1255
4432.19,548.0,3.545,0.1264
4441.97,548.5,3.5402,0.1288
4451.74,549.0,3.5336,0.1295
4461.51,549.5,3.5275,0.1293
4471.28,550.0,3.5212,0.1299
4481.07,550.5,3.516,0.1312
4490.86,551.0,3.5089,0.1303
4500.66,551.5,3.5023,0.1296
4510.46,552.0,3.4959,0.1316
4520.26,552.5,3.4883,0.131
4530.07,553.0,3.4823,0.132
4539.84,553.5,3.4748,0.1334
4549.6,554.0,3.4679,0.1328
4559.38,554.5,3.4615,0.1344
4569.16,555.0,3.4518,0.1337
4578.95,555.5,3.4462,0.136
4588.79,556.0,3.4376,0.1375
4598.6,556.5,3.4318,0.1357
4608.37,557.0,3.4243,0.1366
4618.14,557.5,3.4156,0.137
4627.88,558.0,3.4074,0.1384
4637.62,558.5,3.3986,0.1389
4647.38,559.0,3.391,0.1398
4657.11,559.5,3.3836,0.1405
4666.87,560.0,3.3753,0.1396
4676.62,560.5,3.3671,0.1417
4686.32,561.0,3.3601,0.1409
4696.04,561.5,3.3487,0.1416
4705.77,562.0,3.3397,0.1424
4715.51,562.5,3.3343,0.1437
4725.26,563.0,3.3249,0.1438
4735.05,563.5,3.316,0.1428
4744.83,564.0,3.3068,0.1459
4754.6,564.5,3.2971,0.1439
4764.33,565.0,3.2879,0.1443
4774.08,565.5,3.2785,0.1458
4783.81,566.0,3.2706,0.1492
4793.54,566.5,3.2605,0.1494
4803.31,567.0,3.2508,0.1501
4813.08,567.5,3.2403,0.151
4822.85,568.0,3.2301,0.1505
4832.64,568.5,3.2218,0.151
4842.41,569.0,3.2123,0.1524
4852.17,569.5,3.2021,0.1538
4861.92,570.0,3.1922,0.1545
4871.69,570.5,3.1809,0.154
4881.46,571.0,3.1707,0.1545
4891.25,571.5,3.1606,0.1551
4901.08,572.0,3.15,0.1546
4910.9,572.5,3.1395,0.1574
4920.68,573.0,3.1302,0.1581
4930.47,573.5,3.1189,0.1582
4940.23,574.0,3.1081,0.1593
4949.98,574.5,3.0966,0.1608
4959.75,575.0,3.0844,0.1624
4969.53,575.5,3.0719,0.1611
4979.29,576.0,3.0622,0.1605
4989.03,576.5,3.0515,0.1622
4998.77,577.0,3.0404,0.162
5008.5,577.5,3.0276,0.162
5018.27,578.0,3.0161,0.1651
5028.04,578.5,3.0057,0.1668
5037.82,579.0,2.9923,0.1659
5047.62,579.5,2.9787,0.1685
5057.39,580.0,2.9673,0.1692
5067.16,580.5,2.9553,0.1691
5076.95,581.0,2.9422,0.1703
5086.73,581.5,2.9298,0.1709
5096.51,582.0,2.9176,0.1725
5106.29,582.5,2.9064,0.1735
5116.08,583.0,2.893,0.1748
5125.88,583.5,2.8802,0.1751
5135.66,584.0,2.8659,0.1771
5145.48,584.5,2.8525,0.1785
5155.27,585.0,2.8397,0.1793
5165.07,585.5,2.8261,0.1794
5174.87,586.0,2.8129,0.1804
5184.65,586.5,2.8027,0.1799
5194.44,587.0,2.7885,0.1807
5204.22,587.5,2.7748,0.184
5214.01,588.0,2.7624,0.1841
5223.77,588.5,2.7484,0.1825
5233.51,589.0,2.7348,0.1825
5243.3,589.5,2.72,0.1835
5253.1,590.0,2.7068,0.1849
5262.93,590.5,2.6934,0.1846
5272.77,591.0,2.68,0.1851
5282.54,591.5,2.6662,0.1844
5292.28,592.0,2.6505,0.1853
5302.02,592.5,2.6371,0.1863
5311.76,593.0,2.623,0.1872
5321.54,593.5,2.6082,0.1889
5331.31,594.0,2.5941,0.1869
5341.11,594.5,2.5797,0.1894
5350.93,595.0,2.5656,0.1915
5360.75,595.5,2.5509,0.1908
5370.58,596.0,2.535,0.1912
5380.43,596.5,2.5211,0.1912
5390.29,597.0,2.507,0.191
5400.14,597.5,2.4917,0.1918
5409.99,598.0,2.4768,0.1942
5419.83,598.5,2.4606,0.194
5429.66,599.0,2.448,0.1961
5439.51,599.5,2.4312,0.1972
5449.38,600.0,2.4162,0.1985
5459.24,600.5,2.4005,0.2004
5469.1,601.0,2.3845,0.2011
5478.97,601.5,2.3692,0.2003
5488.81,602.0,2.3535,0.2015
5498.65,602.5,2.3374,0.2033
5508.47,603.0,2.3205,0.2038
5518.3,603.5,2.3052,0.2052
5528.14,604.0,2.2885,0.2085
5537.97,604.5,2.2726,0.2108
5547.79,605.0,2.2558,0.2101
5557.61,605.5,2.2384,0.2122
5567.39,606.0,2.2223,0.2134
5577.13,606.5,2.2046,0.2124
5586.88,607.0,2.1875,0.2146
5596.64,607.5,2.171,0.2181
5606.49,608.0,2.1537,0.2216
5616.39,608.5,2.1349,0.2221
5626.28,609.0,2.1166,0.2244
5636.17,609.5,2.099,0.2275
5646,610.0,2.081,0.2276
5655.82,610.5,2.0614,0.2298
5665.61,611.0,2.0426,0.2294
5675.4,611.5,2.0243,0.2327
5685.25,612.0,2.0052,0.2353
5695.1,612.5,1.9852,0.2356
5705.02,613.0,1.9666,0.2388
5714.95,613.5,1.9464,0.2414
5724.84,614.0,1.9264,0.242
5734.75,614.5,1.9084,0.2464
5744.67,615.0,1.8873,0.2467
5754.57,615.5,1.8668,0.249
5764.46,616.0,1.845,0.2496
5774.34,616.5,1.8246,0.2496
5784.23,617.0,1.8043,0.2504
5794.1,617.5,1.7822,0.2503
5803.99,618.0,1.7613,0.2513
5813.89,618.5,1.7402,0.251
5823.75,619.0,1.7193,0.2508
5833.61,619.5,1.6979,0.2546
5843.44,620.0,1.6766,0.2543
5853.26,620.5,1.6555,0.2525
5863.06,621.0,1.6348,0.252
5872.87,621.5,1.613,0.2514
5882.68,622.0,1.5924,0.2498
5892.5,622.5,1.571,0.2459
5902.36,623.0,1.5497,0.244
5912.2,623.5,1.5278,0.2403
5922.09,624.0,1.5077,0.2372
5931.93,624.5,1.4873,0.2369
5941.74,625.0,1.4664,0.2312
5951.56,625.5,1.4458,0.2271
5961.36,626.0,1.426,0.225
5971.19,626.5,1.4064,0.2193
5981.01,627.0,1.387,0.2144
5990.84,627.5,1.3696,0.2063
6000.66,628.0,1.3519,0.1999
6010.46,628.5,1.3324,0.1907
6020.25,629.0,1.3171,0.1835
6030.03,629.5,1.3002,0.1767
6039.82,630.0,1.2834,0.1691
6049.57,630.5,1.2687,0.1591
6059.3,631.0,1.2534,0.1518
6069.02,631.5,1.2395,0.1436
6078.75,632.0,1.2274,0.1335
6088.5,632.5,1.2138,0.1223
6098.26,633.0,1.2018,0.1151
6108.02,633.5,1.1911,0.1046
6117.78,634.0,1.1801,0.0978
6127.52,634.5,1.1704,0.0884
6137.28,635.0,1.1613,0.0792
6147.02,635.5,1.1536,0.0703
6156.78,636.0,1.1458,0.062
6166.54,636.5,1.1389,0.0558
6176.31,637.0,1.1325,0.0472
6186.11,637.5,1.1272,0.0417
6195.9,638.0,1.1225,0.0362
6205.71,638.5,1.118,0.031
6215.51,639.0,1.1131,0.0266
6225.33,639.5,1.1089,0.0227
6235.17,640.0,1.1048,0.0179
6245,640.5,1.1018,0.0153
6254.85,641.0,1.0992,0.0107
6264.7,641.5,1.0968,0.0079
6274.54,642.0,1.0926,0.0071
6284.35,642.5,1.0903,0.0074
6294.17,643.0,1.0882,0.0067
6303.99,643.5,1.0851,0.0032
6313.83,644.0,1.0847,0.0028
6323.69,644.5,1.082,0.0015
6333.58,645.0,1.0784,0.0
6343.47,645.5,1.0783,0.0012
6353.37,646.0,1.0753,0.0012
6363.25,646.5,1.0731,-0.0003
6373.14,647.0,1.0711,0.0005
6383.03,647.5,1.0678,-0.0017
6392.93,648.0,1.0664,-0.0026
6402.84,648.5,1.0654,-0.0024
6412.75,649.0,1.0634,-0.001
6422.69,649.5,1.0606,-0.0022
6432.61,650.0,1.0589,-0.0026
6442.53,650.5,1.0577,-0.0048
6452.44,651.0,1.0553,-0.0043
6462.36,651.5,1.0538,-0.0059
6472.25,652.0,1.0514,-0.0082
6482.14,652.5,1.0501,-0.0068
6492.02,653.0,1.0468,-0.0088
6501.91,653.5,1.0442,-0.0072
6511.8,654.0,1.0428,-0.0091
6521.69,654.5,1.0422,-0.0112
6531.6,655.0,1.0415,-0.0082
6541.48,655.5,1.0384,-0.0092
6551.36,656.0,1.0362,-0.0092
6561.22,656.5,1.035,-0.0095
6571.1,657.0,1.0337,-0.0097
6581,657.5,1.0323,-0.0111
6590.87,658.0,1.0312,-0.0131
6600.79,658.5,1.0285,-0.0135
6610.7,659.0,1.028,-0.0135
6620.59,659.5,1.0263,-0.0165
6630.49,660.0,1.0234,-0.0155
6640.42,660.5,1.0216,-0.0162
6650.34,661.0,1.0214,-0.0175
6660.29,661.5,1.0189,-0.0185
6670.21,662.0,1.0177,-0.019
6680.15,662.5,1.0162,-0.0191
6690.11,663.0,1.014,-0.0202
6700.06,663.5,1.0122,-0.0201
6710.02,664.0,1.0114,-0.0216
6719.97,664.5,1.0082,-0.0214
6729.89,665.0,1.0066,-0.0221
6739.83,665.5,1.0057,-0.0232
6749.78,666.0,1.0045,-0.0242
6759.73,666.5,1.0019,-0.0235
6769.65,667.0,0.9992,-0.0241
6779.53,667.5,0.998,-0.0244
6789.41,668.0,0.9965,-0.0255
6799.3,668.5,0.9953,-0.0271
6809.2,669.0,0.9928,-0.0264
6819.14,669.5,0.9922,-0.0283
6829.08,670.0,0.9904,-0.0293
6838.98,670.5,0.9876,-0.0298
6848.89,671.0,0.9872,-0.0308
6858.81,671.5,0.9863,-0.033
6868.74,672.0,0.985,-0.0335
6878.67,672.5,0.9827,-0.0328
6888.61,673.0,0.981,-0.0337
6898.55,673.5,0.9788,-0.0348
6908.5,674.0,0.9768,-0.0346
6918.47,674.5,0.9768,-0.034
6928.44,675.0,0.975,-0.0348
6938.39,675.5,0.9719,-0.0354
6948.3,676.0,0.9714,-0.0356
6958.21,676.5,0.9706,-0.0365
6968.13,677.0,0.9684,-0.0362
6978.04,677.5,0.9663,-0.036
6988.01,678.0,0.9652,-0.0388
6997.99,678.5,0.9629,-0.0404
7007.96,679.0,0.9611,-0.0403
7017.92,679.5,0.9601,-0.0412
7027.89,680.0,0.9573,-0.0422
7037.83,680.5,0.9579,-0.0434
7047.73,681.0,0.9566,-0.0421
7057.64,681.5,0.9535,-0.0426
7067.57,682.0,0.9519,-0.0437
7077.48,682.5,0.9508,-0.0432
7087.4,683.0,0.9484,-0.0442
7097.3,683.5,0.9471,-0.0441
7107.19,684.0,0.9461,-0.0436
7117.13,684.5,0.9452,-0.0439
7127.12,685.0,0.9424,-0.0442
7137.17,685.5,0.9416,-0.0453
7147.22,686.0,0.9409,-0.0473
7157.21,686.5,0.9391,-0.0468
7167.17,687.0,0.937,-0.0474
7177.11,687.5,0.9355,-0.0475
7187.06,688.0,0.9342,-0.0483
7197.01,688.5,0.9328,-0.0484
7206.96,689.0,0.9318,-0.0493
7216.87,689.5,0.9302,-0.0492
7226.77,690.0,0.9269,-0.0501
7236.67,690.5,0.9259,-0.0509
7246.58,691.0,0.925,-0.0488
7256.48,691.5,0.922,-0.049
7266.39,692.0,0.9215,-0.0494
7276.3,692.5,0.9208,-0.0514
7286.18,693.0,0.9193,-0.0515
7296.08,693.5,0.918,-0.0503
7305.99,694.0,0.9168,-0.0509
7315.89,694.5,0.9148,-0.0497
7325.83,695.0,0.9142,-0.05
7335.77,695.5,0.9117,-0.0505
7345.72,696.0,0.9093,-0.0498
7355.69,696.5,0.9091,-0.0496
7365.65,697.0,0.9086,-0.0499
7375.63,697.5,0.9082,-0.0488
7385.62,698.0,0.9063,-0.049
7395.6,698.5,0.9055,-0.0481
7405.55,699.0,0.9046,-0.0476
7415.49,699.5,0.9033,-0.0486
7425.43,700.0,0.9012,-0.0476
7435.34,700.5,0.8995,-0.048
7445.27,701.0,0.8983,-0.0474
7455.21,701.5,0.897,-0.0461
7465.13,702.0,0.8957,-0.0458
7475.07,702.5,0.8943,-0.0429
7485.04,703.0,0.893,-0.0457
7495.01,703.5,0.8917,-0.0444
7504.96,704.0,0.8905,-0.0423
7514.92,704.5,0.8887,-0.0429
7524.87,705.0,0.8881,-0.0408
7534.87,705.5,0.8857,-0.0417
7544.87,706.0,0.8849,-0.0425
7554.86,706.5,0.8847,-0.0423
7564.88,707.0,0.8834,-0.0414
7574.87,707.5,0.882,-0.0397
7584.89,708.0,0.8812,-0.0416
7594.86,708.5,0.8794,-0.0401
7604.8,709.0,0.8792,-0.0401
7614.71,709.5,0.8788,-0.0387
7624.63,710.0,0.8775,-0.0401
7634.6,710.5,0.8766,-0.039
7644.58,711.0,0.8741,-0.038
7654.63,711.5,0.8719,-0.0401
7664.62,712.0,0.8728,-0.0388
7674.57,712.5,0.8711,-0.0367
7684.52,713.0,0.8693,-0.0362
7694.48,713.5,0.8704,-0.0349
7704.44,714.0,0.8677,-0.0326
7714.39,714.5,0.8677,-0.0325
7724.37,715.0,0.867,-0.0327
7734.32,715.5,0.8652,-0.0342
7744.3,716.0,0.8644,-0.0346
7754.32,716.5,0.8639,-0.0318
7764.35,717.0,0.8611,-0.0317
7774.38,717.5,0.8618,-0.03
7784.4,718.0,0.8598,-0.03
7794.42,718.5,0.8596,-0.0305
7804.4,719.0,0.8592,-0.0301
7814.39,719.5,0.8567,-0.0287
7824.36,720.0,0.8573,-0.031
7834.32,720.5,0.8571,-0.0312
7844.31,721.0,0.8549,-0.0308
7854.31,721.5,0.8541,-0.0296
7864.29,722.0,0.8541,-0.0268
7874.26,722.5,0.8539,-0.0265
7884.24,723.0,0.8514,-0.0282
7894.2,723.5,0.8507,-0.027
7904.17,724.0,0.8497,-0.0254
7914.17,724.5,0.85,-0.0268
7924.19,725.0,0.849,-0.0281
7934.21,725.5,0.8467,-0.0302
7944.24,726.0,0.8489,-0.028
7954.28,726.5,0.8462,-0.0279
7964.24,727.0,0.8448,-0.0263
7974.22,727.5,0.8453,-0.0262
7984.21,728.0,0.845,-0.0273
7994.15,728.5,0.844,-0.0282
8004.16,729.0,0.843,-0.029
8014.18,729.5,0.8427,-0.0278
8024.14,730.0,0.8409,-0.0277
8034.12,730.5,0.8391,-0.0297
8044.09,731.0,0.8394,-0.0322
8054.06,731.5,0.8393,-0.0335
8064.07,732.0,0.8379,-0.032
8074.09,732.5,0.8369,-0.0319
8084.09,733.0,0.8376,-0.0324
8094.08,733.5,0.8376,-0.0316
8104.05,734.0,0.8348,-0.0323
8114.04,734.5,0.8348,-0.0343
8124.02,735.0,0.8335,-0.0339
8133.99,735.5,0.8334,-0.0344
8143.96,736.0,0.8325,-0.0345
8153.91,736.5,0.8318,-0.0361
8163.86,737.0,0.8309,-0.0342
8173.81,737.5,0.8308,-0.0339
8183.78,738.0,0.8297,-0.0359
8193.77,738.5,0.8294,-0.0349
8203.77,739.0,0.8284,-0.0363
8213.78,739.5,0.8281,-0.0353
8223.77,740.0,0.8274,-0.0337
8233.79,740.5,0.8258,-0.0365
8243.79,741.0,0.8266,-0.0361
8253.81,741.5,0.8264,-0.0371
8263.84,742.0,0.826,-0.0361
8273.84,742.5,0.8245,-0.0364
8283.82,743.0,0.8242,-0.0343
8293.8,743.5,0.8231,-0.0356
8303.76,744.0,0.8228,-0.0351
8313.74,744.5,0.822,-0.0342
8323.71,745.0,0.8204,-0.0357
8333.68,745.5,0.8202,-0.0362
8343.65,746.0,0.8196,-0.0361
8353.63,746.5,0.8195,-0.0351
8363.58,747.0,0.8185,-0.036
8373.55,747.5,0.818,-0.0361
8383.53,748.0,0.8169,-0.0366
8393.49,748.5,0.8166,-0.038
8403.46,749.0,0.8156,-0.0381
8413.43,749.5,0.8153,-0.0393
8423.42,750.0,0.8142,-0.0394
8433.4,750.5,0.8149,-0.0418
8443.4,751.0,0.8143,-0.041
8453.38,751.5,0.8138,-0.0403
8463.38,752.0,0.8123,-0.0396
8473.38,752.5,0.8125,-0.0372
8483.39,753.0,0.8112,-0.0366
8493.42,753.5,0.8104,-0.0371
8503.44,754.0,0.8108,-0.0376
8513.47,754.5,0.8097,-0.0353
8523.49,755.0,0.8084,-0.0356
8533.5,755.5,0.8066,-0.0364
8543.52,756.0,0.806,-0.0357
8553.55,756.5,0.8072,-0.0354
8563.59,757.0,0.8081,-0.0372
8573.65,757.5,0.8055,-0.0367
8583.67,758.0,0.8061,-0.0372
8593.71,758.5,0.805,-0.0348
8603.69,759.0,0.8028,-0.0349
8613.63,759.5,0.8028,-0.0362
8623.57,760.0,0.8018,-0.0382
8633.56,760.5,0.8011,-0.0363
8643.59,761.0,0.801,-0.036
8653.63,761.5,0.8014,-0.0371
8663.69,762.0,0.799,-0.0338
8673.71,762.5,0.7991,-0.032
8683.73,763.0,0.8002,-0.0337
8693.76,763.5,0.7976,-0.0322
8703.81,764.0,0.798,-0.0323
8713.87,764.5,0.7977,-0.0336
8723.93,765.0,0.7961,-0.0342
8734.01,765.5,0.7953,-0.0324
8744.09,766.0,0.7951,-0.0324
8754.16,766.5,0.7952,-0.0326
8764.24,767.0,0.7949,-0.0331
8774.3,767.5,0.7948,-0.032
8784.37,768.0,0.7947,-0.0305
8794.41,768.5,0.7934,-0.0305
8804.43,769.0,0.7933,-0.0286
8814.46,769.5,0.792,-0.0287
8824.52,770.0,0.7928,-0.0284
8834.62,770.5,0.7923,-0.0281
8844.7,771.0,0.7917,-0.0287
8854.81,771.5,0.792,-0.0293
8864.94,772.0,0.7909,-0.0285
8875.05,772.5,0.7905,-0.0278
8885.18,773.0,0.7899,-0.0288
8895.29,773.5,0.7888,-0.0301
8905.37,774.0,0.7885,-0.0301
8915.46,774.5,0.7887,-0.0305
8925.54,775.0,0.7877,-0.0305
8935.64,775.5,0.7876,-0.0318
8945.72,776.0,0.7866,-0.0338
8955.79,776.5,0.7865,-0.0318
8965.81,777.0,0.7861,-0.0314
8975.82,777.5,0.7859,-0.0327
8985.83,778.0,0.7856,-0.0326
8995.85,778.5,0.7843,-0.0336
9005.85,779.0,0.7855,-0.0345
9015.86,779.5,0.7836,-0.0329
9025.87,780.0,0.7838,-0.0347
9035.85,780.5,0.7836,-0.0357
9045.83,781.0,0.782,-0.0344
9055.8,781.5,0.7827,-0.035
9065.78,782.0,0.7831,-0.0366
9075.77,782.5,0.7813,-0.0356
9085.76,783.0,0.781,-0.0366
9095.77,783.5,0.7799,-0.0348
9105.77,784.0,0.7807,-0.0345
9115.74,784.5,0.7801,-0.0353
9125.7,785.0,0.7779,-0.0375
9135.69,785.5,0.7782,-0.036
9145.69,786.0,0.78,-0.0366
9155.7,786.5,0.7783,-0.0368
9165.74,787.0,0.7772,-0.0351
9175.78,787.5,0.7774,-0.0361
9185.83,788.0,0.7772,-0.0345
9195.87,788.5,0.7763,-0.034
9205.93,789.0,0.776,-0.0332
9216,789.5,0.7757,-0.0339
9226.04,790.0,0.7758,-0.0327
9236.09,790.5,0.7762,-0.035
9246.12,791.0,0.7752,-0.0346
9256.13,791.5,0.7735,-0.0345
9266.15,792.0,0.7739,-0.0344
9276.2,792.5,0.7724,-0.036
9286.28,793.0,0.7731,-0.034
9296.33,793.5,0.7725,-0.0347
9306.37,794.0,0.7721,-0.0345
9316.43,794.5,0.7711,-0.0332
9326.42,795.0,0.771,-0.0342
9336.4,795.5,0.7704,-0.0341
9346.4,796.0,0.7702,-0.0346
9356.4,796.5,0.7692,-0.0369
9366.44,797.0,0.7687,-0.0383
9376.5,797.5,0.7688,-0.0376
9386.56,798.0,0.7688,-0.0358
9396.62,798.5,0.769,-0.0351
9406.68,799.0,0.7693,-0.0367
9416.77,799.5,0.7679,-0.0384
9426.81,800.0,0.7673,-0.0389
9436.84,800.5,0.7676,-0.0371
9446.89,801.0,0.7665,-0.0372
9456.9,801.5,0.766,-0.0383
9466.93,802.0,0.7668,-0.0381
9476.98,802.5,0.7659,-0.0351
9486.98,803.0,0.7655,-0.0373
9497.02,803.5,0.765,-0.0384
9507.09,804.0,0.7658,-0.0395
9517.16,804.5,0.764,-0.0393
9527.25,805.0,0.7629,-0.0381
9537.28,805.5,0.7639,-0.0376
9547.29,806.0,0.7627,-0.0402
9557.32,806.5,0.762,-0.0404
9567.36,807.0,0.7629,-0.0408
9577.41,807.5,0.7619,-0.0396
9587.46,808.0,0.7617,-0.0392
9597.5,808.5,0.7619,-0.042
9607.54,809.0,0.7619,-0.0416
9617.61,809.5,0.7611,-0.0416
9627.68,810.0,0.7594,-0.0447
9637.75,810.5,0.7599,-0.0411
9647.78,811.0,0.7598,-0.0409
9657.82,811.5,0.7595,-0.0417
9667.89,812.0,0.7597,-0.0416
9677.97,812.5,0.7584,-0.0434
9688.07,813.0,0.7576,-0.0438
9698.14,813.5,0.7578,-0.0422
9708.18,814.0,0.7584,-0.0431
9718.23,814.5,0.7577,-0.0441
9728.29,815.0,0.7564,-0.0456
9738.3,815.5,0.7547,-0.0456
9748.35,816.0,0.7557,-0.0439
9758.41,816.5,0.7553,-0.0436
9768.46,817.0,0.7568,-0.0447
9778.51,817.5,0.7559,-0.0457
9788.52,818.0,0.7536,-0.0458
9798.54,818.5,0.7547,-0.0449
9808.58,819.0,0.754,-0.0481
9818.68,819.5,0.7537,-0.0487
9828.82,820.0,0.7527,-0.0495
9838.92,820.5,0.7524,-0.0469
9848.98,821.0,0.7514,-0.0486
9859.05,821.5,0.751,-0.0452
9869.12,822.0,0.7506,-0.0459
9879.19,822.5,0.7496,-0.0467
9889.28,823.0,0.7492,-0.0461
9899.34,823.5,0.7498,-0.0462
9909.39,824.0,0.7502,-0.0462
9919.46,824.5,0.7489,-0.0459
9929.51,825.0,0.7474,-0.0456
9939.55,825.5,0.747,-0.0458
9949.6,826.0,0.7472,-0.0469
9959.66,826.5,0.746,-0.0463
9969.75,827.0,0.7464,-0.0452
9979.85,827.5,0.7467,-0.0434
9989.97,828.0,0.746,-0.0423
10000.1,828.5,0.7467,-0.0431
10010.3,829.0,0.7453,-0.0434
10020.4,829.5,0.7446,-0.0419
10030.6,830.0,0.7447,-0.0437
10040.7,830.5,0.7449,-0.0455
10050.8,831.0,0.7435,-0.0463
10060.9,831.5,0.7437,-0.0439
10071,832.0,0.7443,-0.0446
10081.2,832.5,0.7433,-0.0465
10091.3,833.0,0.7426,-0.0437
10101.4,833.5,0.744,-0.0463
10111.5,834.0,0.7427,-0.0437
10121.6,834.5,0.7425,-0.0411
10131.7,835.0,0.7428,-0.0419
10141.8,835.5,0.743,-0.045
10151.8,836.0,0.7412,-0.0446
10161.9,836.5,0.7396,-0.0445
10171.9,837.0,0.7395,-0.0427
10182,837.5,0.7392,-0.0405
10192,838.0,0.7391,-0.0435
10202,838.5,0.7392,-0.0465
10212,839.0,0.7384,-0.0451
10222,839.5,0.7383,-0.0425
10232,840.0,0.7372,-0.0396
10242.1,840.5,0.7369,-0.0436
10252.1,841.0,0.7358,-0.0445
10262.1,841.5,0.7356,-0.046
10272.1,842.0,0.7342,-0.0434
10282.2,842.5,0.7349,-0.0442
10292.3,843.0,0.7343,-0.0414
10302.3,843.5,0.7338,-0.0392
10312.4,844.0,0.7333,-0.0431
10322.5,844.5,0.7326,-0.0431
10332.5,845.0,0.7344,-0.0442
10342.6,845.5,0.7326,-0.0441
10352.8,846.0,0.7316,-0.0432
10363,846.5,0.732,-0.0437
10373.2,847.0,0.7307,-0.0423
10383.4,847.5,0.7312,-0.0428
10393.5,848.0,0.7308,-0.0392
10403.7,848.5,0.7288,-0.0362
10413.8,849.0,0.7286,-0.0385
10423.9,849.5,0.7274,-0.0383
10434,850.0,0.7282,-0.0391
10444,850.5,0.7286,-0.0373
10454.1,851.0,0.727,-0.0372
10464.1,851.5,0.7263,-0.0376
10474.2,852.0,0.7276,-0.038
10484.3,852.5,0.7271,-0.0378
10494.4,853.0,0.7253,-0.035
10504.5,853.5,0.726,-0.0335
10514.5,854.0,0.7252,-0.035
10524.6,854.5,0.7236,-0.0336
10534.7,855.0,0.7242,-0.0345
10544.8,855.5,0.7248,-0.0356
10554.9,856.0,0.7235,-0.0351
10564.9,856.5,0.7233,-0.0349
10575,857.0,0.7225,-0.0336
10585.1,857.5,0.7219,-0.0351
10595.2,858.0,0.722,-0.0339
10605.3,858.5,0.7213,-0.0347
10615.4,859.0,0.7223,-0.0366
10625.5,859.5,0.7216,-0.0367
10635.6,860.0,0.7218,-0.0356
10645.7,860.5,0.7207,-0.0382
10655.8,861.0,0.7204,-0.0377
10665.8,861.5,0.7187,-0.0385
10675.9,862.0,0.7192,-0.0392
10686,862.5,0.719,-0.0394
10696,863.0,0.7187,-0.0414
10706.1,863.5,0.7191,-0.0413
10716.2,864.0,0.7179,-0.0422
10726.3,864.5,0.718,-0.0401
10736.4,865.0,0.7185,-0.0396
10746.5,865.5,0.7176,-0.0425
10756.6,866.0,0.7173,-0.0417
10766.7,866.5,0.7169,-0.0435
10776.8,867.0,0.7161,-0.0422
10786.9,867.5,0.716,-0.0409
10797,868.0,0.7154,-0.0383
10807.2,868.5,0.7123,-0.0422
10817.3,869.0,0.7137,-0.04
10827.4,869.5,0.7134,-0.0415
10837.5,870.0,0.7138,-0.0446
10847.6,870.5,0.7132,-0.0427
10857.7,871.0,0.7124,-0.0403
10867.8,871.5,0.7115,-0.0374
10877.9,872.0,0.7104,-0.0371
10887.9,872.5,0.7111,-0.0395
10898,873.0,0.7111,-0.039
10908.1,873.5,0.7113,-0.0356
10918.2,874.0,0.7096,-0.0377
10928.3,874.5,0.7091,-0.0357
10938.4,875.0,0.7081,-0.0355
10948.5,875.5,0.7101,-0.035
10958.5,876.0,0.7099,-0.0364
10968.6,876.5,0.7093,-0.0368
10978.7,877.0,0.7092,-0.0374
10988.8,877.5,0.7091,-0.0373
10998.9,878.0,0.709,-0.0387
11009,878.5,0.7093,-0.0394
11019.1,879.0,0.7074,-0.0404
11029.2,879.5,0.7061,-0.042
11039.4,880.0,0.7051,-0.0416
11049.5,880.5,0.7046,-0.0391
11059.6,881.0,0.706,-0.04
11069.7,881.5,0.7067,-0.0384
11079.8,882.0,0.7053,-0.0385
11089.9,882.5,0.7039,-0.0425
11100,883.0,0.7039,-0.0415
11110.1,883.5,0.7028,-0.0394
11120.2,884.0,0.7031,-0.0397
11130.3,884.5,0.7037,-0.036
11140.3,885.0,0.7024,-0.038
11150.4,885.5,0.7023,-0.0378
11160.5,886.0,0.7025,-0.0371
11170.6,886.5,0.7027,-0.0375
11180.7,887.0,0.7017,-0.0339
11190.8,887.5,0.7017,-0.0353
11201,888.0,0.7015,-0.0347
11211.1,888.5,0.702,-0.0326
11221.2,889.0,0.7007,-0.0326
11231.4,889.5,0.7,-0.0271
11241.5,890.0,0.7005,-0.0299
11251.7,890.5,0.6989,-0.034
11261.9,891.0,0.6994,-0.0309
11272.1,891.5,0.6999,-0.0292
11282.3,892.0,0.7,-0.0301
11292.4,892.5,0.6989,-0.0297
11302.6,893.0,0.6986,-0.0285
11312.7,893.5,0.6991,-0.0289
11322.9,894.0,0.6993,-0.0297
11333,894.5,0.6984,-0.0307
11343.1,895.0,0.6967,-0.0295
11353.2,895.5,0.6973,-0.0299
11363.4,896.0,0.699,-0.0298
11373.6,896.5,0.6975,-0.0277
11383.7,897.0,0.6964,-0.0273
11393.9,897.5,0.697,-0.0276
11404,898.0,0.6973,-0.0282
11414.1,898.5,0.697,-0.0302
11424.3,899.0,0.6982,-0.027
11434.4,899.5,0.6982,-0.0277
11444.6,900.0,0.6974,-0.0269
11454.7,900.5,0.6994,-0.0266
11464.9,901.0,0.6979,-0.0299
11475,901.5,0.6976,-0.0274
11485.2,902.0,0.6975,-0.0276
11495.3,902.5,0.697,-0.0328
11505.5,903.0,0.6983,-0.0307
11515.7,903.5,0.6978,-0.0303
11525.8,904.0,0.6962,-0.0321
11536,904.5,0.6956,-0.0305
11546.1,905.0,0.6972,-0.0293
11556.3,905.5,0.6954,-0.0305
11566.5,906.0,0.6957,-0.0315
11576.6,906.5,0.6962,-0.0286
11586.8,907.0,0.6952,-0.0287
11597,907.5,0.6943,-0.0325
11607.1,908.0,0.6945,-0.0301
11617.2,908.5,0.6941,-0.0315
11627.3,909.0,0.6938,-0.0323
11637.4,909.5,0.6941,-0.0302
11647.5,910.0,0.6944,-0.0298
11657.5,910.5,0.6935,-0.029
11667.7,911.0,0.6948,-0.0285
11677.8,911.5,0.6929,-0.0281
11688,912.0,0.6932,-0.0275
11698.2,912.5,0.6927,-0.027
11708.5,913.0,0.6919,-0.0143
11718.8,913.5,0.6935,-0.0095
11729,914.0,0.6918,-0.0083
11739.2,914.5,0.691,-0.0089
11749.3,915.0,0.6912,-0.0074
11759.5,915.5,0.6924,-0.003
11769.6,916.0,0.6922,-0.0033
11779.8,916.5,0.6921,-0.0021
11790,917.0,0.6907,-0.0029
11800.2,917.5,0.6899,-0.0077
11810.4,918.0,0.6902,-0.0068
11820.5,918.5,0.6903,-0.0025
11830.5,919.0,0.69,0.0002
11840.5,919.5,0.6901,-0.0157
11850.5,920.0,0.689,-0.0184
11860.5,920.5,0.6885,-0.0156
11870.6,921.0,0.6889,-0.0108
11880.8,921.5,0.6874,-0.0116
11890.9,922.0,0.6885,-0.0099
11901.1,922.5,0.6869,-0.011
11911.4,923.0,0.6872,-0.0126
11921.6,923.5,0.6873,-0.0112
11931.8,924.0,0.6854,-0.0101
11942,924.5,0.6864,-0.0067
11952.3,925.0,0.686,-0.0052
11962.6,925.5,0.6857,-0.0061
11972.8,926.0,0.6851,-0.0089
11983.1,926.5,0.6857,-0.0092
11993.2,927.0,0.6862,-0.0081
12003.4,927.5,0.6851,-0.0104
12013.6,928.0,0.6845,-0.0104
12023.8,928.5,0.6854,-0.0114
12034,929.0,0.6843,-0.0078
12044.2,929.5,0.685,-0.0099
12054.4,930.0,0.6846,-0.0081
12064.6,930.5,0.6831,-0.0087
12074.8,931.0,0.6818,-0.0117
12084.9,931.5,0.6826,-0.0085
12095,932.0,0.6833,-0.0115
12105.1,932.5,0.6821,-0.0173
12115.2,933.0,0.6816,-0.0193
12125.3,933.5,0.6821,-0.0228
12135.4,934.0,0.6834,-0.0237
12145.5,934.5,0.6838,-0.0211
12155.7,935.0,0.6838,-0.0201
12165.8,935.5,0.6831,-0.0176
12175.9,936.0,0.6803,-0.0162
12186,936.5,0.6815,-0.0173
12196.1,937.0,0.6813,-0.0158
12206.2,937.5,0.6804,-0.0126
12216.3,938.0,0.6804,-0.016
12226.5,938.5,0.6806,-0.0149
12236.6,939.0,0.6809,-0.0138
12246.8,939.5,0.6798,-0.0168
12257,940.0,0.6788,-0.0116
12267.1,940.5,0.6792,-0.0094
12277.3,941.0,0.6793,-0.0083
12287.5,941.5,0.6784,-0.0082
12297.7,942.0,0.6776,-0.0085
12307.9,942.5,0.678,-0.0097
12318.1,943.0,0.6793,-0.0084
12328.3,943.5,0.6787,-0.0087
12338.5,944.0,0.6769,-0.0089
12348.6,944.5,0.6778,-0.0078
12358.8,945.0,0.6777,-0.0097
12369,945.5,0.6776,-0.0079
12379.2,946.0,0.678,-0.0072
12389.4,946.5,0.6768,-0.0061
12399.6,947.0,0.6774,-0.0025
12409.8,947.5,0.678,-0.0007
12420,948.0,0.6768,-0.0033
12430.1,948.5,0.6764,-0.0061
12440.3,949.0,0.6765,-0.0057
12450.4,949.5,0.6765,-0.0064
12460.5,950.0,0.6763,-0.0079
12470.6,950.5,0.6775,-0.0085
12480.7,951.0,0.6773,-0.0075
12490.9,951.5,0.6757,-0.0088
12501.1,952.0,0.6753,-0.0093
12511.2,952.5,0.674,-0.0075
12521.4,953.0,0.6746,-0.008
12531.6,953.5,0.6737,-0.0065
12541.8,954.0,0.6729,-0.0067
12552,954.5,0.6741,-0.0083
12562.2,955.0,0.6767,-0.0104
12572.4,955.5,0.6764,-0.008
12582.6,956.0,0.6747,-0.0061
12592.8,956.5,0.6743,-0.0078
12603,957.0,0.6752,-0.0083
12613.3,957.5,0.6746,-0.0061
12623.5,958.0,0.6732,-0.0035
12633.7,958.5,0.6723,-0.0079
12643.9,959.0,0.6725,-0.0069
12654,959.5,0.674,-0.0051
12664.2,960.0,0.6733,-0.0074
12674.2,960.5,0.6727,-0.0056
12684.3,961.0,0.6732,-0.0056
12694.4,961.5,0.6727,-0.0071
12704.4,962.0,0.6721,-0.0082
12714.5,962.5,0.6709,-0.0053
12724.7,963.0,0.6714,-0.0055
12734.8,963.5,0.6725,-0.0062
12744.9,964.0,0.6701,-0.007
12755.1,964.5,0.6689,-0.0082
12765.2,965.0,0.6702,-0.0097
12775.4,965.5,0.6706,-0.0132
12785.6,966.0,0.669,-0.0105
12795.8,966.5,0.6699,-0.0109
12806,967.0,0.6697,-0.0142
12816.2,967.5,0.6689,-0.0141
12826.4,968.0,0.669,-0.0105
12836.6,968.5,0.6679,-0.0147
12846.8,969.0,0.6675,-0.0214
12856.9,969.5,0.6675,-0.0195
12867.1,970.0,0.6679,-0.0251
12877.3,970.5,0.6657,-0.0296
12887.4,971.0,0.6663,-0.0314
12897.6,971.5,0.667,-0.0316
12907.7,972.0,0.6671,-0.0298
12917.8,972.5,0.6652,-0.0264
12927.9,973.0,0.6645,-0.0281
12938.1,973.5,0.6645,-0.027
12948.2,974.0,0.6656,-0.0304
12958.4,974.5,0.6656,-0.0333
12968.5,975.0,0.6651,-0.0334
12978.7,975.5,0.666,-0.0358
12988.8,976.0,0.6662,-0.0384
12999,976.5,0.6648,-0.039
13009.2,977.0,0.6644,-0.0401
13019.3,977.5,0.6645,-0.0407
13029.6,978.0,0.6631,-0.0407
13039.8,978.5,0.6638,-0.0397
13050.1,979.0,0.6644,-0.038
13060.4,979.5,0.6641,-0.0384
13070.7,980.0,0.665,-0.0415
13080.9,980.5,0.6642,-0.044
13091.1,981.0,0.6642,-0.0451
13101.3,981.5,0.6619,-0.0495
13111.4,982.0,0.6621,-0.0468
13121.6,982.5,0.6626,-0.0466
13131.7,983.0,0.6637,-0.0478
13141.9,983.5,0.6632,-0.0496
13152.1,984.0,0.6618,-0.0532
13162.3,984.5,0.6614,-0.0513
13172.5,985.0,0.6627,-0.0507
13182.6,985.5,0.6624,-0.0518
13192.8,986.0,0.6634,-0.0523
13203,986.5,0.6623,-0.0522
13213.2,987.0,0.6613,-0.0526
13223.5,987.5,0.6606,-0.0505
13233.7,988.0,0.6587,-0.048
13243.9,988.5,0.6598,-0.0506
13254.2,989.0,0.6582,-0.05
13264.4,989.5,0.6571,-0.0492
13274.6,990.0,0.658,-0.0486
13284.8,990.5,0.6572,-0.051
13295,991.0,0.6581,-0.0484
13305.2,991.5,0.6589,-0.0501
13315.4,992.0,0.6581,-0.0521
13325.6,992.5,0.6564,-0.0488
13335.8,993.0,0.656,-0.0525
13346.1,993.5,0.656,-0.0513
13356.3,994.0,0.656,-0.0504
13366.5,994.5,0.656,-0.0486
13376.6,995.0,0.6561,-0.0472
13386.8,995.5,0.656,-0.0481
13397,996.0,0.6565,-0.0535
13407.2,996.5,0.6553,-0.051
13417.4,997.0,0.6558,-0.0525
13427.6,997.5,0.6552,-0.0523
13437.7,998.0,0.6546,-0.0496
13447.9,998.5,0.6549,-0.0496
13458,999.0,0.6541,-0.0531
13468.2,999.5,0.6538,-0.0529
13478.4,1000.0,0.6528,-0.0505
13488.5,1000.5,0.6523,-0.051
13498.7,1001.0,0.6524,-0.0537
13508.8,1001.5,0.6524,-0.0506
13518.9,1002.0,0.6523,-0.0526
13528.9,1002.5,0.6529,-0.0523
13539,1003.0,0.6526,-0.0509
13549.1,1003.5,0.6523,-0.0559
13559.2,1004.0,0.6531,-0.0521
13569.4,1004.5,0.6517,-0.0499
13579.7,1005.0,0.6509,-0.0527
13590,1005.5,0.6515,-0.0553
13600.3,1006.0,0.6529,-0.0528
13610.6,1006.5,0.6522,-0.0488
13620.8,1007.0,0.6516,-0.0516
13631.1,1007.5,0.6521,-0.0498
13641.4,1008.0,0.6514,-0.0483
13651.6,1008.5,0.6511,-0.0482
13661.8,1009.0,0.6509,-0.0482
13672.1,1009.5,0.6505,-0.0484
13682.3,1010.0,0.6503,-0.0481
13692.6,1010.5,0.6511,-0.0485
13702.9,1011.0,0.6501,-0.0481
13713.1,1011.5,0.6497,-0.0467
13723.4,1012.0,0.6493,-0.0432
13733.6,1012.5,0.6491,-0.0426
13743.9,1013.0,0.6491,-0.0447
13754.1,1013.5,0.6496,-0.0399
13764.3,1014.0,0.6495,-0.0371
13774.5,1014.5,0.6479,-0.0372
13784.6,1015.0,0.6489,-0.0365
13794.8,1015.5,0.6478,-0.0384
13804.9,1016.0,0.6464,-0.0367
13815.2,1016.5,0.6474,-0.0353
13825.4,1017.0,0.6482,-0.033
13835.6,1017.5,0.6479,-0.032
13845.8,1018.0,0.648,-0.0313
13856,1018.5,0.6467,-0.0336
13866.3,1019.0,0.647,-0.029
13876.5,1019.5,0.6463,-0.0277
13886.7,1020.0,0.6467,-0.0293
13896.9,1020.5,0.6473,-0.0314
13907.2,1021.0,0.6468,-0.0297
13917.4,1021.5,0.6469,-0.0253
13927.6,1022.0,0.6459,-0.0243
13937.8,1022.5,0.6453,-0.0255
13947.9,1023.0,0.6459,-0.0275
13958.1,1023.5,0.645,-0.0255
13968.2,1024.0,0.6443,-0.0245
13978.4,1024.5,0.6455,-0.0256
13988.6,1025.0,0.6437,-0.0267
13998.7,1025.5,0.6442,-0.0285
14008.9,1026.0,0.6452,-0.026
14019,1026.5,0.6446,-0.0247
14029.1,1027.0,0.6445,-0.0243
14039.2,1027.5,0.6443,-0.0206
14049.5,1028.0,0.6439,-0.0195
14059.7,1028.5,0.6444,-0.0214
14070,1029.0,0.645,-0.0232
14080.2,1029.5,0.6457,-0.029
14090.4,1030.0,0.6436,-0.0278
14100.6,1030.5,0.6431,-0.0275
14110.8,1031.0,0.6443,-0.0271
14121,1031.5,0.6447,-0.0277
14131.2,1032.0,0.6436,-0.026
14141.4,1032.5,0.643,-0.0262
14151.6,1033.0,0.6438,-0.0307
14161.7,1033.5,0.6431,-0.0305
14171.9,1034.0,0.6415,-0.0319
14182.1,1034.5,0.6411,-0.0347
14192.2,1035.0,0.642,-0.0362
14202.4,1035.5,0.644,-0.035
14212.5,1036.0,0.6432,-0.0367
14222.7,1036.5,0.6417,-0.0343
14232.8,1037.0,0.6418,-0.0336
14243,1037.5,0.6437,-0.0311
14253.2,1038.0,0.6423,-0.0334
14263.5,1038.5,0.6412,-0.0298
14273.8,1039.0,0.6411,-0.0284
14284.1,1039.5,0.642,-0.0268
14294.4,1040.0,0.6415,-0.0268
14304.7,1040.5,0.6398,-0.0242
14315,1041.0,0.6396,-0.0271
14325.3,1041.5,0.6394,-0.0299
14335.5,1042.0,0.6407,-0.0278
14345.7,1042.5,0.6397,-0.0292
14355.9,1043.0,0.6396,-0.0294
14366.1,1043.5,0.64,-0.0267
14376.3,1044.0,0.6398,-0.0258
14386.5,1044.5,0.6396,-0.0256
14396.7,1045.0,0.6397,-0.0263
14406.8,1045.5,0.6389,-0.0173
14417,1046.0,0.6384,-0.0138
14427.1,1046.5,0.638,-0.016
14437.1,1047.0,0.6381,-0.0182
14447.1,1047.5,0.6402,-0.0202
14457.1,1048.0,0.6394,-0.0222
14467.1,1048.5,0.6372,-0.0251
14477.1,1049.0,0.6391,-0.0224
14487.3,1049.5,0.6385,-0.0219
14497.4,1050.0,0.6379,-0.0213
14507.6,1050.5,0.6393,-0.0155
14517.9,1051.0,0.6397,-0.0126
14528.2,1051.5,0.6387,-0.0098
14538.5,1052.0,0.6375,-0.0156
14548.8,1052.5,0.6384,-0.0128
14559.1,1053.0,0.6377,-0.0105
14569.4,1053.5,0.6372,-0.0135
14579.7,1054.0,0.6369,-0.0117
14590.1,1054.5,0.6378,-0.0088
14600.4,1055.0,0.6385,-0.007
14610.7,1055.5,0.6373,-0.0046
14621,1056.0,0.6369,-0.0043
14631.1,1056.5,0.6384,-0.0045
14641.3,1057.0,0.6361,-0.0072
14651.4,1057.5,0.637,-0.0095
14661.5,1058.0,0.6372,-0.0081
14671.6,1058.5,0.6374,-0.0072
14681.8,1059.0,0.6371,-0.0055
14691.9,1059.5,0.6354,-0.0062
14702,1060.0,0.6362,-0.0063
14712.2,1060.5,0.6368,-0.0031
14722.3,1061.0,0.6357,-0.0004
14732.5,1061.5,0.6365,0.0008
14742.7,1062.0,0.6371,-0.0004
14752.9,1062.5,0.6368,-0.0052
14763.1,1063.0,0.6378,-0.0051
14773.3,1063.5,0.6372,-0.0041
14783.4,1064.0,0.6354,-0.0113
14793.6,1064.5,0.6364,-0.0113
14803.7,1065.0,0.6355,-0.0075
14813.8,1065.5,0.635,-0.0096
14823.9,1066.0,0.6342,-0.0061
14834.1,1066.5,0.6346,-0.0004
14844.3,1067.0,0.635,-0.0035
14854.6,1067.5,0.6349,-0.0041
14864.9,1068.0,0.6353,-0.0005
14875.2,1068.5,0.6349,-0.0026
14885.5,1069.0,0.636,-0.0053
14895.7,1069.5,0.6357,-0.004
14905.9,1070.0,0.6349,-0.0051
14916.1,1070.5,0.635,-0.0042