File: Wood/Calibration_Data/FSRI/FSRI_Wood_Parallel_Cone_75kW_hor_R2.csv
Time,Mass (g),HRRPUA (kW/m2)
0.0,99.16,2.0
1.0,99.22,3.4
2.0,99.27,4.9
3.0,99.3,6.2
4.0,99.09,6.9
5.0,99.07,8.0
6.0,99.03,8.7
7.0,99.06,9.4
8.0,98.91,9.9
9.0,98.68,10.4
10.0,98.53,10.9
11.0,98.33,10.9
12.0,98.15,11.0
13.0,97.96,11.0
14.0,97.78,11.4
15.0,97.61,15.0
16.0,97.43,26.7
17.0,97.25,41.1
18.0,97.09,62.1
19.0,96.89,87.4
20.0,96.74,114.8
21.0,96.58,144.4
22.0,96.38,180.8
23.0,96.24,210.1
24.0,96.06,233.4
25.0,95.89,248.6
26.0,95.77,269.5
27.0,95.64,280.9
28.0,95.49,292.6
29.0,95.27,295.5
30.0,95.13,302.5
31.0,94.97,303.9
32.0,94.84,299.6
33.0,94.71,294.8
34.0,94.6,290.4
35.0,94.44,286.4
36.0,94.33,278.5
37.0,94.15,271.0
38.0,94.06,263.0
39.0,93.91,263.5
40.0,93.83,257.2
41.0,93.68,248.5
42.0,93.54,245.0
43.0,93.42,244.3
44.0,93.29,241.1
45.0,93.19,235.7
46.0,93.1,233.2
47.0,92.95,225.6
48.0,92.83,224.1
49.0,92.73,223.5
50.0,92.61,219.5
51.0,92.51,214.5
52.0,92.44,213.8
53.0,92.34,207.8
54.0,92.21,208.0
55.0,92.09,206.0
56.0,92.0,203.7
57.0,91.89,202.4
58.0,91.79,197.0
59.0,91.66,196.4
60.0,91.58,193.4
61.0,91.42,193.4
62.0,91.35,194.3
63.0,91.22,186.7
64.0,91.13,184.9
65.0,91.0,185.7
66.0,90.92,182.8
67.0,90.79,177.7
68.0,90.7,178.0
69.0,90.58,176.9
70.0,90.48,174.8
71.0,90.38,175.5
72.0,90.29,172.5
73.0,90.21,174.4
74.0,90.11,175.0
75.0,90.0,172.7
76.0,89.9,169.9
77.0,89.81,167.8
78.0,89.78,166.2
79.0,89.66,165.5
80.0,89.53,165.1
81.0,89.41,162.6
82.0,89.34,161.5
83.0,89.23,157.1
84.0,89.19,161.3
85.0,89.07,160.1
86.0,88.98,159.3
87.0,88.86,156.2
88.0,88.78,155.7
89.0,88.71,153.6
90.0,88.62,155.3
91.0,88.52,151.3
92.0,88.45,152.9
93.0,88.38,153.9
94.0,88.3,150.5
95.0,88.2,151.1
96.0,88.07,149.3
97.0,87.99,151.8
98.0,87.93,146.7
99.0,87.8,149.2
100.0,87.72,150.7
101.0,87.64,146.8
102.0,87.53,144.7
103.0,87.44,148.6
104.0,87.34,149.9
105.0,87.21,146.4
106.0,87.19,145.3
107.0,87.08,142.2
108.0,86.95,144.5
109.0,86.91,146.2
110.0,86.82,143.4
111.0,86.72,145.5
112.0,86.65,145.2
113.0,86.55,142.5
114.0,86.45,143.0
115.0,86.39,141.7
116.0,86.29,139.6
117.0,86.23,143.2
118.0,86.08,136.6
119.0,86.03,140.9
120.0,85.96,140.9
121.0,85.87,139.7
122.0,85.78,137.9
123.0,85.69,136.4
124.0,85.61,138.7
125.0,85.56,139.1
126.0,85.48,137.2
127.0,85.38,136.2
128.0,85.34,135.0
129.0,85.24,137.6
130.0,85.15,137.6
131.0,85.07,134.8
132.0,84.98,135.5
133.0,84.91,135.0
134.0,84.81,135.8
135.0,84.75,135.2
136.0,84.63,137.1
137.0,84.54,133.6
138.0,84.44,131.5
139.0,84.37,132.4
140.0,84.3,133.6
141.0,84.21,130.6
142.0,84.11,130.0
143.0,84.03,131.3
144.0,83.94,133.4
145.0,83.84,134.0
146.0,83.77,130.1
147.0,83.7,130.8
148.0,83.61,131.4
149.0,83.53,133.5
150.0,83.47,130.7
151.0,83.39,131.5
152.0,83.3,129.0
153.0,83.21,127.4
154.0,83.12,128.5
155.0,83.06,128.0
156.0,82.97,128.3
157.0,82.89,129.5
158.0,82.84,130.3
159.0,82.75,128.4
160.0,82.66,129.7
161.0,82.6,127.9
162.0,82.5,130.3
163.0,82.43,130.0
164.0,82.34,128.2
165.0,82.24,128.4
166.0,82.16,126.5
167.0,82.09,129.6
168.0,82.02,130.8
169.0,81.98,127.2
170.0,81.87,127.5
171.0,81.79,126.9
172.0,81.7,126.2
173.0,81.57,126.4
174.0,81.48,123.8
175.0,81.43,124.0
176.0,81.35,125.2
177.0,81.28,123.4
178.0,81.19,121.5
179.0,81.11,124.2
180.0,81.03,122.9
181.0,80.94,118.6
182.0,80.88,124.9
183.0,80.77,122.9
184.0,80.73,123.9
185.0,80.64,121.9
186.0,80.58,120.9
187.0,80.46,121.7
188.0,80.41,124.3
189.0,80.32,123.6
190.0,80.26,122.6
191.0,80.18,119.3
192.0,80.09,120.2
193.0,80.03,121.2
194.0,79.95,121.0
195.0,79.91,118.5
196.0,79.85,121.8
197.0,79.75,120.3
198.0,79.66,120.6
199.0,79.59,122.5
200.0,79.5,121.4
201.0,79.41,119.4
202.0,79.33,120.6
203.0,79.24,121.7
204.0,79.17,119.9
205.0,79.1,119.0
206.0,79.0,118.0
207.0,78.91,122.0
208.0,78.81,119.6
209.0,78.73,123.0
210.0,78.65,122.7
211.0,78.57,122.7
212.0,78.52,119.4
213.0,78.45,119.9
214.0,78.37,119.7
215.0,78.31,122.4
216.0,78.22,120.9
217.0,78.15,121.7
218.0,78.07,120.2
219.0,78.0,117.4
220.0,77.92,121.5
221.0,77.84,119.8
222.0,77.78,118.6
223.0,77.7,118.8
224.0,77.59,118.6
225.0,77.54,115.4
226.0,77.48,117.9
227.0,77.38,117.5
228.0,77.29,116.5
229.0,77.25,119.1
230.0,77.17,118.6
231.0,77.09,117.8
232.0,77.02,118.7
233.0,76.94,119.5
234.0,76.88,116.5
235.0,76.8,115.8
236.0,76.73,114.9
237.0,76.65,118.4
238.0,76.6,117.7
239.0,76.49,117.2
240.0,76.43,116.7
241.0,76.35,118.5
242.0,76.27,117.3
243.0,76.18,117.8
244.0,76.09,116.8
245.0,76.0,115.7
246.0,75.94,115.2
247.0,75.86,114.5
248.0,75.8,116.7
249.0,75.73,116.6
250.0,75.64,115.5
251.0,75.56,114.1
252.0,75.48,112.5
253.0,75.41,112.8
254.0,75.32,116.4
255.0,75.26,113.5
256.0,75.19,114.6
257.0,75.09,113.3
258.0,75.03,116.3
259.0,74.97,114.3
260.0,74.9,115.6
261.0,74.82,115.9
262.0,74.74,116.9
263.0,74.7,115.0
264.0,74.62,114.6
265.0,74.56,116.2
266.0,74.52,116.0
267.0,74.42,115.7
268.0,74.35,116.6
269.0,74.27,117.1
270.0,74.17,116.7
271.0,74.1,116.6
272.0,74.05,117.1
273.0,73.96,115.4
274.0,73.89,115.5
275.0,73.84,114.8
276.0,73.75,113.6
277.0,73.69,114.3
278.0,73.61,113.5
279.0,73.55,113.3
280.0,73.43,114.7
281.0,73.37,115.6
282.0,73.28,116.4
283.0,73.2,115.5
284.0,73.09,114.8
285.0,73.0,114.8
286.0,72.97,112.8
287.0,72.91,112.9
288.0,72.83,114.2
289.0,72.75,114.5
290.0,72.67,116.0
291.0,72.6,114.0
292.0,72.54,115.5
293.0,72.45,115.1
294.0,72.42,116.0
295.0,72.35,114.4
296.0,72.27,116.4
297.0,72.17,116.0
298.0,72.1,114.0
299.0,72.04,114.7
300.0,71.99,113.7
301.0,71.88,114.2
302.0,71.81,115.4
303.0,71.76,113.3
304.0,71.72,113.6
305.0,71.6,114.9
306.0,71.56,111.6
307.0,71.46,114.2
308.0,71.39,112.8
309.0,71.34,113.3
310.0,71.22,111.4
311.0,71.16,112.5
312.0,71.1,114.1
313.0,71.02,114.0
314.0,70.93,114.7
315.0,70.85,114.6
316.0,70.79,112.9
317.0,70.7,113.4
318.0,70.59,112.5
319.0,70.52,113.8
320.0,70.45,114.5
321.0,70.37,114.8
322.0,70.3,115.7
323.0,70.23,113.3
324.0,70.17,114.7
325.0,70.07,113.3
326.0,70.04,113.1
327.0,69.97,115.0
328.0,69.87,113.3
329.0,69.82,113.0
330.0,69.75,114.7
331.0,69.7,114.1
332.0,69.61,113.0
333.0,69.54,113.0
334.0,69.49,114.0
335.0,69.41,115.4
336.0,69.36,114.2
337.0,69.26,113.2
338.0,69.23,114.5
339.0,69.13,114.8
340.0,69.06,112.9
341.0,68.99,114.3
342.0,68.92,114.5
343.0,68.85,114.5
344.0,68.78,117.4
345.0,68.69,114.7
346.0,68.63,118.0
347.0,68.55,116.6
348.0,68.5,114.9
349.0,68.38,117.0
350.0,68.29,115.6
351.0,68.2,114.0
352.0,68.15,114.7
353.0,68.08,114.6
354.0,68.01,112.1
355.0,67.92,114.3
356.0,67.85,112.0
357.0,67.78,113.8
358.0,67.72,113.0
359.0,67.66,111.4
360.0,67.6,112.2
361.0,67.49,113.1
362.0,67.41,111.7
363.0,67.37,114.0
364.0,67.31,114.3
365.0,67.24,114.1
366.0,67.18,114.8
367.0,67.09,113.9
368.0,67.0,114.1
369.0,66.93,113.1
370.0,66.88,114.5
371.0,66.85,113.2
372.0,66.77,113.4
373.0,66.71,113.9
374.0,66.64,115.0
375.0,66.59,114.3
376.0,66.5,114.2
377.0,66.45,114.2
378.0,66.36,115.1
379.0,66.29,113.3
380.0,66.25,113.8
381.0,66.17,113.7
382.0,66.06,113.4
383.0,66.0,113.9
384.0,65.95,112.1
385.0,65.86,113.4
386.0,65.75,113.7
387.0,65.67,116.0
388.0,65.61,112.6
389.0,65.54,111.7
390.0,65.47,112.5
391.0,65.38,113.2
392.0,65.29,114.4
393.0,65.23,112.5
394.0,65.14,113.0
395.0,65.11,113.4
396.0,65.05,113.2
397.0,64.94,112.1
398.0,64.87,112.4
399.0,64.82,112.4
400.0,64.73,112.4
401.0,64.65,113.0
402.0,64.59,111.7
403.0,64.53,112.1
404.0,64.46,112.6
405.0,64.41,112.2
406.0,64.32,114.6
407.0,64.28,112.3
408.0,64.25,115.1
409.0,64.16,113.3
410.0,64.06,113.6
411.0,64.03,112.8
412.0,63.96,112.8
413.0,63.88,112.5
414.0,63.8,113.2
415.0,63.74,112.0
416.0,63.65,113.0
417.0,63.61,114.4
418.0,63.53,115.1
419.0,63.45,113.2
420.0,63.39,112.9
421.0,63.28,113.9
422.0,63.21,113.4
423.0,63.13,111.9
424.0,63.05,113.3
425.0,62.97,110.8
426.0,62.88,112.5
427.0,62.83,112.9
428.0,62.76,113.1
429.0,62.7,112.7
430.0,62.67,113.2
431.0,62.57,111.7
432.0,62.54,113.2
433.0,62.45,112.4
434.0,62.36,112.2
435.0,62.29,113.1
436.0,62.26,114.1
437.0,62.18,113.8
438.0,62.11,112.8
439.0,62.04,113.2
440.0,61.98,111.1
441.0,61.91,112.3
442.0,61.87,112.3
443.0,61.78,110.7
444.0,61.76,110.5
445.0,61.63,113.0
446.0,61.56,111.1
447.0,61.5,111.5
448.0,61.45,112.0
449.0,61.38,108.9
450.0,61.29,111.0
451.0,61.2,112.0
452.0,61.17,110.2
453.0,61.11,111.5
454.0,61.02,109.6
455.0,60.96,112.2
456.0,60.88,110.4
457.0,60.81,109.7
458.0,60.73,111.4
459.0,60.69,110.6
460.0,60.56,110.1
461.0,60.5,109.4
462.0,60.44,110.7
463.0,60.38,112.6
464.0,60.33,109.3
465.0,60.22,112.7
466.0,60.15,110.2
467.0,60.08,112.3
468.0,60.03,111.0
469.0,59.95,111.7
470.0,59.87,109.6
471.0,59.81,110.6
472.0,59.73,109.2
473.0,59.67,110.7
474.0,59.6,110.4
475.0,59.53,112.3
476.0,59.46,110.6
477.0,59.37,111.4
478.0,59.32,111.5
479.0,59.23,112.2
480.0,59.21,109.0
481.0,59.11,113.4
482.0,59.07,110.7
483.0,59.01,113.3
484.0,58.95,111.2
485.0,58.88,112.2
486.0,58.8,109.4
487.0,58.76,109.2
488.0,58.7,109.0
489.0,58.64,111.4
490.0,58.55,109.9
491.0,58.5,110.9
492.0,58.41,110.2
493.0,58.35,112.9
494.0,58.25,111.6
495.0,58.2,111.0
496.0,58.12,110.5
497.0,58.03,111.9
498.0,57.97,111.3
499.0,57.89,111.8
500.0,57.87,111.2
501.0,57.75,111.1
502.0,57.69,107.5
503.0,57.61,108.3
504.0,57.53,109.2
505.0,57.45,108.7
506.0,57.37,108.4
507.0,57.34,108.5
508.0,57.25,110.7
509.0,57.15,110.0
510.0,57.12,110.3
511.0,57.04,108.8
512.0,56.99,109.7
513.0,56.9,110.2
514.0,56.84,109.1
515.0,56.79,109.4
516.0,56.75,110.7
517.0,56.66,110.1
518.0,56.59,109.2
519.0,56.54,110.5
520.0,56.52,109.7
521.0,56.44,105.6
522.0,56.36,110.5
523.0,56.26,109.1
524.0,56.18,109.0
525.0,56.16,109.2
526.0,56.09,108.9
527.0,56.03,108.2
528.0,55.92,107.4
529.0,55.88,108.4
530.0,55.77,108.0
531.0,55.69,105.2
532.0,55.66,107.8
533.0,55.55,108.1
534.0,55.45,111.6
535.0,55.42,109.6
536.0,55.32,107.7
537.0,55.28,109.8
538.0,55.22,108.3
539.0,55.16,110.4
540.0,55.08,108.7
541.0,55.01,110.2
542.0,54.94,104.9
543.0,54.88,109.5
544.0,54.82,109.6
545.0,54.75,109.0
546.0,54.68,110.2
547.0,54.58,108.6
548.0,54.52,110.1
549.0,54.45,109.5
550.0,54.39,108.7
551.0,54.33,109.5
552.0,54.25,111.1
553.0,54.18,110.4
554.0,54.12,111.3
555.0,54.1,112.1
556.0,54.05,110.6
557.0,53.96,111.3
558.0,53.9,109.5
559.0,53.82,107.0
560.0,53.75,111.7
561.0,53.68,112.2
562.0,53.63,109.4
563.0,53.58,110.0
564.0,53.5,109.0
565.0,53.46,109.1
566.0,53.39,107.4
567.0,53.34,106.1
568.0,53.25,108.6
569.0,53.16,107.9
570.0,53.04,107.2
571.0,52.97,109.3
572.0,52.9,108.4
573.0,52.83,108.9
574.0,52.73,109.0
575.0,52.67,107.9
576.0,52.63,109.7
577.0,52.57,108.6
578.0,52.49,109.5
579.0,52.44,112.4
580.0,52.33,111.9
581.0,52.28,109.9
582.0,52.23,112.6
583.0,52.13,112.2
584.0,52.09,111.0
585.0,51.99,112.3
586.0,51.89,111.5
587.0,51.85,111.7
588.0,51.79,113.2
589.0,51.73,113.1
590.0,51.65,112.2
591.0,51.64,111.6
592.0,51.56,109.7
593.0,51.5,109.6
594.0,51.43,111.8
595.0,51.4,112.0
596.0,51.31,111.2
597.0,51.23,112.7
598.0,51.16,112.1
599.0,51.12,113.8
600.0,51.04,112.1
601.0,50.96,113.2
602.0,50.87,115.4
603.0,50.76,114.6
604.0,50.69,116.5
605.0,50.59,113.8
606.0,50.54,112.2
607.0,50.5,114.1
608.0,50.39,113.6
609.0,50.34,114.4
610.0,50.26,113.7
611.0,50.19,113.5
612.0,50.14,113.6
613.0,50.05,115.3
614.0,49.99,115.7
615.0,49.93,113.9
616.0,49.86,112.5
617.0,49.77,112.7
618.0,49.74,113.4
619.0,49.66,111.2
620.0,49.63,113.0
621.0,49.54,109.4
622.0,49.46,111.6
623.0,49.4,112.4
624.0,49.32,111.7
625.0,49.26,111.7
626.0,49.23,114.1
627.0,49.2,112.5
628.0,49.12,111.5
629.0,49.06,111.0
630.0,48.99,112.4
631.0,48.9,113.0
632.0,48.82,112.1
633.0,48.72,115.1
634.0,48.71,115.8
635.0,48.66,114.3
636.0,48.56,112.6
637.0,48.5,113.9
638.0,48.4,114.4
639.0,48.31,115.2
640.0,48.27,110.8
641.0,48.17,114.3
642.0,48.1,114.9
643.0,48.03,115.7
644.0,47.98,115.1
645.0,47.91,114.8
646.0,47.83,116.2
647.0,47.78,114.6
648.0,47.7,114.3
649.0,47.63,112.8
650.0,47.56,116.2
651.0,47.48,115.2
652.0,47.41,115.5
653.0,47.33,111.8
654.0,47.3,112.7
655.0,47.21,113.0
656.0,47.15,113.5
657.0,47.09,113.1
658.0,47.03,114.0
659.0,46.93,111.5
660.0,46.85,112.9
661.0,46.81,113.1
662.0,46.79,113.1
663.0,46.7,114.5
664.0,46.68,112.0
665.0,46.62,114.9
666.0,46.53,113.2
667.0,46.48,113.2
668.0,46.37,112.7
669.0,46.32,115.6
670.0,46.24,115.5
671.0,46.19,114.9
672.0,46.14,115.5
673.0,46.06,115.5
674.0,45.95,114.7
675.0,45.89,114.2
676.0,45.82,114.0
677.0,45.74,115.3
678.0,45.64,113.9
679.0,45.62,114.5
680.0,45.53,115.8
681.0,45.46,114.7
682.0,45.4,114.3
683.0,45.35,116.1
684.0,45.26,114.8
685.0,45.2,116.1
686.0,45.15,115.9
687.0,45.05,115.9
688.0,44.99,115.6
689.0,44.92,113.4
690.0,44.87,113.1
691.0,44.76,113.5
692.0,44.71,112.9
693.0,44.66,113.5
694.0,44.58,114.2
695.0,44.5,114.3
696.0,44.43,115.0
697.0,44.4,113.7
698.0,44.31,115.6
699.0,44.27,114.9
700.0,44.19,115.9
701.0,44.14,114.1
702.0,44.06,114.1
703.0,43.99,113.4
704.0,43.92,114.6
705.0,43.86,115.0
706.0,43.79,112.5
707.0,43.72,114.7
708.0,43.67,115.9
709.0,43.58,115.0
710.0,43.51,112.3
711.0,43.46,113.8
712.0,43.36,114.5
713.0,43.25,114.6
714.0,43.23,115.0
715.0,43.15,114.7
716.0,43.12,116.7
717.0,43.02,112.7
718.0,42.97,115.4
719.0,42.88,114.7
720.0,42.82,112.4
721.0,42.74,114.1
722.0,42.68,114.4
723.0,42.62,113.1
724.0,42.55,113.6
725.0,42.47,112.2
726.0,42.39,112.9
727.0,42.33,114.4
728.0,42.27,114.1
729.0,42.2,111.9
730.0,42.14,114.3
731.0,42.09,114.3
732.0,42.06,114.5
733.0,41.97,114.3
734.0,41.92,115.1
735.0,41.86,114.6
736.0,41.81,112.2
737.0,41.76,115.6
738.0,41.68,114.3
739.0,41.61,113.7
740.0,41.49,112.2
741.0,41.43,114.2
742.0,41.39,113.5
743.0,41.33,112.5
744.0,41.28,112.1
745.0,41.2,109.7
746.0,41.07,110.4
747.0,41.01,112.2
748.0,40.95,112.4
749.0,40.92,113.2
750.0,40.8,110.5
751.0,40.76,111.8
752.0,40.68,111.6
753.0,40.64,111.8
754.0,40.56,112.9
755.0,40.49,112.5
756.0,40.45,113.6
757.0,40.39,113.2
758.0,40.32,112.5
759.0,40.22,111.6
760.0,40.17,112.6
761.0,40.08,113.3
762.0,40.01,113.1
763.0,39.95,112.9
764.0,39.9,113.6
765.0,39.83,113.4
766.0,39.77,113.3
767.0,39.74,114.8
768.0,39.67,115.0
769.0,39.62,114.2
770.0,39.52,114.4
771.0,39.5,115.2
772.0,39.42,114.3
773.0,39.34,116.8
774.0,39.28,115.0
775.0,39.23,117.0
776.0,39.15,115.7
777.0,39.1,114.5
778.0,39.02,115.4
779.0,38.92,115.7
780.0,38.85,114.9
781.0,38.78,115.4
782.0,38.73,118.1
783.0,38.61,113.5
784.0,38.56,113.0
785.0,38.48,113.7
786.0,38.44,113.1
787.0,38.36,115.2
788.0,38.28,113.0
789.0,38.24,114.8
790.0,38.17,115.9
791.0,38.09,115.0
792.0,38.06,113.9
793.0,37.94,113.6
794.0,37.87,115.1
795.0,37.84,116.8
796.0,37.76,117.3
797.0,37.72,116.6
798.0,37.66,114.1
799.0,37.6,115.8
800.0,37.55,113.7
801.0,37.48,113.4
802.0,37.43,117.0
803.0,37.35,115.5
804.0,37.27,113.9
805.0,37.22,116.3
806.0,37.17,113.5
807.0,37.07,113.9
808.0,36.99,114.1
809.0,36.96,113.8
810.0,36.88,114.9
811.0,36.8,112.3
812.0,36.71,113.9
813.0,36.65,113.2
814.0,36.59,115.0
815.0,36.53,116.8
816.0,36.44,115.4
817.0,36.38,112.5
818.0,36.29,116.8
819.0,36.23,113.9
820.0,36.2,113.6
821.0,36.11,113.7
822.0,36.03,115.9
823.0,35.98,114.7
824.0,35.9,114.8
825.0,35.87,113.1
826.0,35.82,115.8
827.0,35.72,114.8
828.0,35.63,115.5
829.0,35.57,113.2
830.0,35.52,115.3
831.0,35.43,112.3
832.0,35.37,113.8
833.0,35.3,114.1
834.0,35.23,112.6
835.0,35.16,115.5
836.0,35.1,115.6
837.0,35.06,114.9
838.0,34.98,115.8
839.0,34.94,114.2
840.0,34.88,115.8
841.0,34.8,116.2
842.0,34.74,114.8
843.0,34.66,116.7
844.0,34.59,114.8
845.0,34.53,116.2
846.0,34.47,116.4
847.0,34.39,117.4
848.0,34.33,116.2
849.0,34.22,117.5
850.0,34.15,118.0
851.0,34.11,119.1
852.0,33.99,116.5
853.0,33.91,119.2
854.0,33.89,119.1
855.0,33.8,118.1
856.0,33.74,117.1
857.0,33.68,118.2
858.0,33.63,117.6
859.0,33.55,118.3
860.0,33.5,118.0
861.0,33.39,116.6
862.0,33.34,117.9
863.0,33.26,117.4
864.0,33.2,116.4
865.0,33.12,116.9
866.0,33.09,116.2
867.0,33.01,117.5
868.0,32.93,118.2
869.0,32.87,117.1
870.0,32.82,118.3
871.0,32.78,117.9
872.0,32.7,117.3
873.0,32.65,116.0
874.0,32.59,119.5
875.0,32.54,118.6
876.0,32.44,116.6
877.0,32.37,118.8
878.0,32.33,118.2
879.0,32.26,119.2
880.0,32.19,116.9
881.0,32.11,119.2
882.0,32.04,119.0
883.0,31.95,117.7
884.0,31.89,118.2
885.0,31.79,117.5
886.0,31.75,119.7
887.0,31.64,119.8
888.0,31.57,119.0
889.0,31.51,119.6
890.0,31.45,117.9
891.0,31.39,118.2
892.0,31.31,118.6
893.0,31.24,118.2
894.0,31.17,118.6
895.0,31.09,118.6
896.0,31.05,116.6
897.0,31.01,117.2
898.0,30.92,117.3
899.0,30.85,118.3
900.0,30.76,118.7
901.0,30.7,119.7
902.0,30.67,119.9
903.0,30.59,118.5
904.0,30.53,120.0
905.0,30.47,119.2
906.0,30.39,121.6
907.0,30.35,120.8
908.0,30.27,117.2
909.0,30.21,119.5
910.0,30.14,119.9
911.0,30.07,117.4
912.0,29.99,118.2
913.0,29.92,118.6
914.0,29.87,120.7
915.0,29.8,120.0
916.0,29.71,115.8
917.0,29.64,119.0
918.0,29.54,118.2
919.0,29.46,118.5
920.0,29.43,118.9
921.0,29.32,117.8
922.0,29.25,116.0
923.0,29.2,119.0
924.0,29.12,119.9
925.0,29.05,119.2
926.0,28.98,120.1
927.0,28.91,120.3
928.0,28.87,117.7
929.0,28.81,119.4
930.0,28.72,117.8
931.0,28.66,120.5
932.0,28.59,120.6
933.0,28.53,120.3
934.0,28.46,117.6
935.0,28.39,117.5
936.0,28.32,118.4
937.0,28.23,120.2
938.0,28.16,119.1
939.0,28.13,119.9
940.0,28.06,119.7
941.0,28.03,120.6
942.0,27.93,119.8
943.0,27.88,121.2
944.0,27.82,120.0
945.0,27.76,118.3
946.0,27.66,120.8
947.0,27.61,118.7
948.0,27.53,119.6
949.0,27.48,121.3
950.0,27.39,118.3
951.0,27.3,118.8
952.0,27.22,119.8
953.0,27.18,118.8
954.0,27.1,121.3
955.0,27.02,120.5
956.0,26.95,120.9
957.0,26.85,119.7
958.0,26.8,121.5
959.0,26.71,121.2
960.0,26.67,120.7
961.0,26.58,118.3
962.0,26.52,119.2
963.0,26.46,120.8
964.0,26.38,119.2
965.0,26.32,120.0
966.0,26.26,118.8
967.0,26.18,121.1
968.0,26.12,120.3
969.0,26.05,120.1
970.0,25.94,120.5
971.0,25.88,119.8
972.0,25.82,121.0
973.0,25.73,121.0
974.0,25.69,118.3
975.0,25.63,121.4
976.0,25.59,120.9
977.0,25.52,120.6
978.0,25.43,118.9
979.0,25.38,121.5
980.0,25.33,119.0
981.0,25.22,120.2
982.0,25.18,120.9
983.0,25.09,120.8
984.0,25.03,120.6
985.0,24.99,123.2
986.0,24.89,121.3
987.0,24.82,120.9
988.0,24.77,121.6
989.0,24.71,120.3
990.0,24.61,122.8
991.0,24.52,119.8
992.0,24.46,120.2
993.0,24.37,119.6
994.0,24.31,119.1
995.0,24.26,117.6
996.0,24.18,117.9
997.0,24.11,119.9
998.0,24.03,117.8
999.0,23.98,117.0
1000.0,23.9,118.8
1001.0,23.83,118.6
1002.0,23.74,119.4
1003.0,23.71,121.1
1004.0,23.61,122.1
1005.0,23.57,123.2
1006.0,23.48,122.6
1007.0,23.42,123.8
1008.0,23.38,123.5
1009.0,23.36,121.3
1010.0,23.28,122.1
1011.0,23.23,120.3
1012.0,23.15,121.3
1013.0,23.08,121.5
1014.0,22.98,119.6
1015.0,22.95,118.6
1016.0,22.88,119.3
1017.0,22.78,120.8
1018.0,22.74,118.1
1019.0,22.67,118.6
1020.0,22.61,119.0
1021.0,22.55,119.4
1022.0,22.48,115.9
1023.0,22.44,116.9
1024.0,22.29,118.5
1025.0,22.27,119.8
1026.0,22.17,120.6
1027.0,22.08,120.1
1028.0,22.03,121.1
1029.0,21.98,119.7
1030.0,21.92,120.3
1031.0,21.87,119.4
1032.0,21.79,120.6
1033.0,21.7,118.3
1034.0,21.64,120.7
1035.0,21.59,119.3
1036.0,21.5,118.9
1037.0,21.44,117.6
1038.0,21.38,117.2
1039.0,21.29,120.7
1040.0,21.26,119.8
1041.0,21.2,120.4
1042.0,21.13,117.5
1043.0,21.07,117.6
1044.0,21.03,118.8
1045.0,20.96,121.3
1046.0,20.92,120.7
1047.0,20.87,118.5
1048.0,20.8,120.1
1049.0,20.75,119.6
1050.0,20.67,118.1
1051.0,20.58,117.6
1052.0,20.53,118.3
1053.0,20.46,118.6
1054.0,20.41,119.0
1055.0,20.36,117.8
1056.0,20.25,118.7
1057.0,20.23,118.1
1058.0,20.17,117.9
1059.0,20.07,116.0
1060.0,19.99,117.1
1061.0,19.95,114.6
1062.0,19.89,116.2
1063.0,19.84,114.9
1064.0,19.76,109.8
1065.0,19.73,112.8
1066.0,19.63,113.9
1067.0,19.61,113.8
1068.0,19.56,112.4
1069.0,19.48,111.3
1070.0,19.42,111.4
1071.0,19.35,112.4
1072.0,19.31,111.0
1073.0,19.24,110.3
1074.0,19.19,109.2
1075.0,19.14,110.0
1076.0,19.08,109.9
1077.0,18.99,109.7
1078.0,18.98,109.1
1079.0,18.89,108.3
1080.0,18.85,109.9
1081.0,18.82,111.1
1082.0,18.76,111.4
1083.0,18.69,109.9
1084.0,18.67,111.3
1085.0,18.62,110.9
1086.0,18.58,109.4
1087.0,18.52,106.8
1088.0,18.48,108.2
1089.0,18.43,108.5
1090.0,18.4,106.2
1091.0,18.34,105.1
1092.0,18.3,105.1
1093.0,18.23,104.0
1094.0,18.16,102.5
1095.0,18.14,102.7
1096.0,18.08,100.8
1097.0,18.01,99.7
1098.0,17.95,100.7
1099.0,17.9,97.9
1100.0,17.83,97.8
1101.0,17.78,97.4
1102.0,17.73,97.2
1103.0,17.7,97.0
1104.0,17.62,95.9
1105.0,17.6,96.4
1106.0,17.54,97.8
1107.0,17.49,96.8
1108.0,17.45,96.9
1109.0,17.4,94.6
1110.0,17.36,95.4
1111.0,17.32,93.6
1112.0,17.25,94.9
1113.0,17.24,94.2
1114.0,17.18,95.1
1115.0,17.14,94.5
1116.0,17.12,92.9
1117.0,17.09,92.5
1118.0,17.08,91.8
1119.0,17.05,92.9
1120.0,17.01,90.9
1121.0,16.98,89.9
1122.0,16.94,90.9
1123.0,16.92,90.1
1124.0,16.88,88.9
1125.0,16.84,89.7
1126.0,16.79,89.8
1127.0,16.76,89.4
1128.0,16.72,86.4
1129.0,16.67,87.0
1130.0,16.64,85.5
1131.0,16.58,84.8
1132.0,16.53,83.1
1133.0,16.51,82.9
1134.0,16.45,81.5
1135.0,16.4,81.4
1136.0,16.39,81.8
1137.0,16.36,80.8
1138.0,16.32,79.4
1139.0,16.29,78.2
1140.0,16.25,77.5
1141.0,16.2,77.5
1142.0,16.18,76.5
1143.0,16.15,76.5
1144.0,16.15,75.5
1145.0,16.08,75.5
1146.0,16.05,75.2
1147.0,16.03,74.3
1148.0,16.01,74.2
1149.0,16.0,73.6
1150.0,15.94,73.2
1151.0,15.93,71.4
1152.0,15.91,71.3
1153.0,15.88,70.5
1154.0,15.87,70.3
1155.0,15.83,69.9
1156.0,15.81,69.5
1157.0,15.84,68.5
1158.0,15.83,67.0
1159.0,15.8,66.3
1160.0,15.8,67.0
1161.0,15.79,66.9
1162.0,15.76,64.9
1163.0,15.73,65.5
1164.0,15.71,63.4
1165.0,15.71,63.5
1166.0,15.66,63.0
1167.0,15.66,62.5
1168.0,15.62,62.3
1169.0,15.56,60.4
1170.0,15.52,60.1
1171.0,15.48,60.2
1172.0,15.48,58.8
1173.0,15.46,59.0
1174.0,15.42,58.4
1175.0,15.4,58.4
1176.0,15.38,57.7
1177.0,15.38,57.9
1178.0,15.35,58.8
1179.0,15.33,57.3
1180.0,15.32,57.7
1181.0,15.3,58.7
1182.0,15.28,56.5
1183.0,15.26,56.6
1184.0,15.24,56.3
1185.0,15.22,56.0
1186.0,15.22,54.8
1187.0,15.21,54.7
1188.0,15.2,53.9
1189.0,15.2,52.5
1190.0,15.23,51.8
1191.0,15.21,51.5
1192.0,15.22,50.4
1193.0,15.21,49.6
1194.0,15.2,49.9
1195.0,15.2,50.2
1196.0,15.16,50.1
1197.0,15.17,47.8
1198.0,15.14,48.6
1199.0,15.13,47.1
1200.0,15.13,47.1
1201.0,15.11,46.6
1202.0,15.1,45.1
1203.0,15.01,45.5
1204.0,14.99,45.9
1205.0,14.96,45.9
1206.0,14.95,46.3
1207.0,14.92,46.0
1208.0,14.92,44.9
1209.0,14.93,45.5
1210.0,14.89,45.1
1211.0,14.87,45.0
1212.0,14.86,44.1
1213.0,14.87,43.4
1214.0,14.86,43.6
1215.0,14.86,42.6
1216.0,14.83,42.9
1217.0,14.8,42.7
1218.0,14.79,43.1
1219.0,14.8,42.7
1220.0,14.78,42.4
1221.0,14.75,41.7
1222.0,14.76,41.9
1223.0,14.74,42.1
1224.0,14.76,42.2
1225.0,14.75,42.4
1226.0,14.77,42.3
1227.0,14.74,42.4
1228.0,14.76,43.0
1229.0,14.77,42.2
1230.0,14.78,42.6
1231.0,14.79,41.3
1232.0,14.76,41.0
1233.0,14.73,41.4
1234.0,14.74,40.8
1235.0,14.74,41.0
1236.0,14.69,41.4
1237.0,14.63,40.6
1238.0,14.63,39.8
1239.0,14.63,40.7
1240.0,14.59,39.7
1241.0,14.58,40.2
1242.0,14.56,39.4
1243.0,14.53,39.3
1244.0,14.51,39.3
1245.0,14.52,39.9
1246.0,14.51,39.4
1247.0,14.5,39.8
1248.0,14.49,39.1
1249.0,14.47,38.9
1250.0,14.46,39.0
1251.0,14.44,38.8
1252.0,14.44,38.8
1253.0,14.42,39.1
1254.0,14.4,38.8
1255.0,14.41,38.6
1256.0,14.42,38.7
1257.0,14.41,38.5
1258.0,14.37,38.5
1259.0,14.39,38.5
1260.0,14.41,37.8
1261.0,14.38,37.3
1262.0,14.39,37.3
1263.0,14.41,38.0
1264.0,14.41,38.1
1265.0,14.39,37.6
1266.0,14.39,37.4
1267.0,14.4,37.5
1268.0,14.37,37.2
1269.0,14.33,36.9
1270.0,14.34,37.0
1271.0,14.31,36.3
1272.0,14.3,36.5
1273.0,14.28,36.7
1274.0,14.28,36.8
1275.0,14.26,36.2
1276.0,14.16,36.8
1277.0,14.15,36.2
1278.0,14.17,36.0
1279.0,14.13,36.6
1280.0,14.12,36.5
1281.0,14.13,36.1
1282.0,14.1,36.4
1283.0,14.08,35.7
1284.0,14.07,35.8
1285.0,14.05,36.1
1286.0,14.06,37.2
1287.0,14.05,36.8
1288.0,14.05,36.7
1289.0,14.03,36.8
1290.0,14.04,36.3
1291.0,14.01,37.1
1292.0,14.01,36.5
1293.0,14.0,36.8
1294.0,13.98,37.1
1295.0,14.0,36.9
1296.0,14.03,36.7
1297.0,14.04,37.0
1298.0,14.03,36.6
1299.0,14.04,36.6
1300.0,14.06,36.0
1301.0,14.04,36.8
1302.0,14.02,37.0
1303.0,13.99,37.1
1304.0,14.0,36.9
1305.0,13.97,37.5
1306.0,13.98,37.3
1307.0,13.97,36.8
1308.0,13.94,36.8
1309.0,13.85,36.4
1310.0,13.82,36.8
1311.0,13.82,36.8
1312.0,13.81,36.8
1313.0,13.82,37.6
1314.0,13.79,37.6
1315.0,13.79,37.5
1316.0,13.79,37.2
1317.0,13.76,37.5
1318.0,13.75,37.4
1319.0,13.75,37.7