File: Wood/Calibration_Data/FSRI/FSRI_Wood_STA_N2_10K_R3.csv
Time (s),Temperature (K),Mass (mg),Heat Flow Rate (W/g)
0.0,324.5,3.9243,0.0157
40.3303,325.0,3.923,0.0392
52.1919,325.5,3.9244,0.0599
60.9566,326.0,3.9248,0.0751
68.4357,326.5,3.9241,0.0876
74.9878,327.0,3.9227,0.099
81.0062,327.5,3.9238,0.1082
86.5975,328.0,3.9231,0.1156
91.8693,328.5,3.9241,0.1238
96.9041,329.0,3.9249,0.1309
101.713,329.5,3.9229,0.1359
106.341,330.0,3.923,0.1439
110.879,330.5,3.9211,0.1481
115.309,331.0,3.9221,0.1533
119.626,331.5,3.9231,0.1577
123.835,332.0,3.9238,0.1612
127.949,332.5,3.9233,0.1669
131.965,333.0,3.9225,0.171
135.944,333.5,3.9226,0.1728
139.925,334.0,3.923,0.1762
143.895,334.5,3.9223,0.1794
147.802,335.0,3.9225,0.1816
151.618,335.5,3.9223,0.1839
155.4,336.0,3.9226,0.1871
159.164,336.5,3.9227,0.1883
162.916,337.0,3.9213,0.1913
166.645,337.5,3.9213,0.1937
170.312,338.0,3.9215,0.1953
173.956,338.5,3.9227,0.1964
177.585,339.0,3.9228,0.2001
181.178,339.5,3.9226,0.2027
184.754,340.0,3.921,0.2027
188.298,340.5,3.9219,0.2052
191.82,341.0,3.9227,0.2085
195.351,341.5,3.9216,0.2103
198.862,342.0,3.9222,0.212
202.329,342.5,3.9222,0.2139
205.793,343.0,3.9202,0.2138
209.227,343.5,3.9204,0.2162
212.646,344.0,3.9202,0.22
216.07,344.5,3.9203,0.2195
219.485,345.0,3.9188,0.2199
222.887,345.5,3.9202,0.222
226.262,346.0,3.9202,0.2239
229.624,346.5,3.9198,0.2268
232.958,347.0,3.9195,0.2295
236.288,347.5,3.9199,0.2297
239.612,348.0,3.9203,0.2304
242.919,348.5,3.9202,0.2333
246.215,349.0,3.9189,0.2341
249.494,349.5,3.9189,0.2372
252.751,350.0,3.9189,0.2382
256.009,350.5,3.9189,0.2405
259.255,351.0,3.9189,0.242
262.499,351.5,3.9189,0.2429
265.709,352.0,3.9188,0.2448
268.927,352.5,3.9186,0.2445
272.151,353.0,3.9175,0.2464
275.326,353.5,3.9188,0.249
278.561,354.0,3.9188,0.2491
281.747,354.5,3.9188,0.25
284.885,355.0,3.9188,0.2533
288.042,355.5,3.9176,0.2546
291.207,356.0,3.9188,0.2559
294.364,356.5,3.9176,0.2559
297.524,357.0,3.9174,0.2569
300.701,357.5,3.9175,0.2578
303.822,358.0,3.9175,0.2605
306.942,358.5,3.9189,0.2594
310.081,359.0,3.9175,0.2605
313.187,359.5,3.9175,0.2615
316.268,360.0,3.9175,0.2629
319.368,360.5,3.9175,0.2626
322.452,361.0,3.9175,0.2641
325.524,361.5,3.9164,0.2649
328.594,362.0,3.9167,0.2638
331.635,362.5,3.9162,0.2657
334.673,363.0,3.9163,0.2674
337.719,363.5,3.9162,0.2683
340.78,364.0,3.9149,0.2675
343.824,364.5,3.9162,0.2671
346.859,365.0,3.9148,0.2682
349.89,365.5,3.9161,0.2693
352.899,366.0,3.9162,0.2685
355.912,366.5,3.9157,0.2705
358.909,367.0,3.916,0.2701
361.913,367.5,3.9154,0.2697
364.925,368.0,3.9149,0.2708
367.893,368.5,3.9148,0.2711
370.891,369.0,3.9148,0.2719
373.875,369.5,3.915,0.2721
376.851,370.0,3.9149,0.2719
379.818,370.5,3.9148,0.273
382.784,371.0,3.9135,0.2736
385.758,371.5,3.9136,0.2724
388.721,372.0,3.9135,0.2719
391.688,372.5,3.9139,0.2719
394.658,373.0,3.9135,0.2722
397.615,373.5,3.9122,0.2723
400.576,374.0,3.9121,0.2731
403.536,374.5,3.912,0.2716
406.466,375.0,3.9133,0.2727
409.403,375.5,3.9146,0.2718
412.354,376.0,3.9133,0.2718
415.293,376.5,3.9133,0.2719
418.254,377.0,3.9147,0.2723
421.229,377.5,3.9145,0.274
424.173,378.0,3.9133,0.2729
427.103,378.5,3.9133,0.2733
430.022,379.0,3.9133,0.2752
432.944,379.5,3.912,0.2749
435.844,380.0,3.912,0.2736
438.753,380.5,3.9133,0.2731
441.678,381.0,3.9131,0.2759
444.601,381.5,3.9134,0.2753
447.527,382.0,3.9119,0.2756
450.439,382.5,3.912,0.2752
453.364,383.0,3.912,0.2735
456.269,383.5,3.9134,0.276
459.177,384.0,3.9131,0.2741
462.092,384.5,3.9133,0.2752
464.994,385.0,3.9134,0.2741
467.901,385.5,3.9121,0.2764
470.812,386.0,3.9133,0.2738
473.712,386.5,3.9134,0.2744
476.6,387.0,3.9125,0.2733
479.497,387.5,3.9121,0.275
482.392,388.0,3.913,0.2749
485.319,388.5,3.9122,0.276
488.248,389.0,3.9121,0.2772
491.18,389.5,3.9121,0.2758
494.102,390.0,3.9134,0.2767
497.001,390.5,3.9121,0.2763
499.898,391.0,3.9108,0.275
502.805,391.5,3.9092,0.2789
505.709,392.0,3.9092,0.2775
508.606,392.5,3.909,0.2776
511.514,393.0,3.9089,0.2775
514.426,393.5,3.9089,0.2775
517.317,394.0,3.9102,0.2774
520.218,394.5,3.9118,0.2774
523.112,395.0,3.9125,0.2784
525.994,395.5,3.9126,0.2773
528.882,396.0,3.9125,0.277
531.772,396.5,3.9112,0.2794
534.651,397.0,3.9126,0.2789
537.532,397.5,3.9115,0.2784
540.412,398.0,3.9112,0.2793
543.287,398.5,3.9112,0.2789
546.163,399.0,3.9126,0.2801
549.041,399.5,3.9125,0.2789
551.924,400.0,3.9113,0.2798
554.803,400.5,3.9113,0.2817
557.677,401.0,3.9116,0.2793
560.557,401.5,3.9113,0.2808
563.433,402.0,3.9113,0.2831
566.307,402.5,3.9099,0.2832
569.18,403.0,3.9113,0.2845
572.052,403.5,3.9112,0.2852
574.909,404.0,3.9112,0.2835
577.768,404.5,3.9103,0.2848
580.63,405.0,3.9099,0.2862
583.484,405.5,3.911,0.2863
586.35,406.0,3.9112,0.2845
589.22,406.5,3.9099,0.2861
592.08,407.0,3.9099,0.2859
594.944,407.5,3.91,0.2874
597.817,408.0,3.9099,0.2888
600.678,408.5,3.9099,0.2885
603.531,409.0,3.9102,0.2892
606.395,409.5,3.9112,0.2895
609.248,410.0,3.9099,0.2886
612.102,410.5,3.9099,0.2894
614.969,411.0,3.9085,0.291
617.83,411.5,3.9084,0.2921
620.685,412.0,3.9108,0.2926
623.554,412.5,3.9108,0.2937
626.408,413.0,3.9108,0.2944
629.256,413.5,3.9108,0.2959
632.105,414.0,3.9111,0.2948
634.942,414.5,3.9103,0.2953
637.779,415.0,3.9109,0.2961
640.628,415.5,3.9111,0.2934
643.477,416.0,3.9111,0.2947
646.321,416.5,3.9098,0.2973
649.169,417.0,3.9111,0.2967
652.014,417.5,3.9098,0.2961
654.857,418.0,3.9098,0.2973
657.698,418.5,3.9098,0.2987
660.535,419.0,3.9098,0.2988
663.368,419.5,3.9098,0.2987
666.217,420.0,3.9095,0.2978
669.053,420.5,3.9098,0.2991
671.897,421.0,3.9098,0.2999
674.759,421.5,3.9085,0.3004
677.604,422.0,3.9085,0.3013
680.457,422.5,3.9095,0.302
683.293,423.0,3.9095,0.3014
686.125,423.5,3.9095,0.3017
688.959,424.0,3.9098,0.3036
691.788,424.5,3.9097,0.3041
694.627,425.0,3.9091,0.3042
697.465,425.5,3.9085,0.3052
700.304,426.0,3.9085,0.3064
703.133,426.5,3.9093,0.3067
705.958,427.0,3.9098,0.3085
708.796,427.5,3.9085,0.3068
711.619,428.0,3.9085,0.309
714.459,428.5,3.9085,0.3095
717.299,429.0,3.9085,0.3102
720.143,429.5,3.9085,0.3132
722.979,430.0,3.9085,0.3136
725.819,430.5,3.9068,0.3129
728.651,431.0,3.9065,0.314
731.46,431.5,3.9072,0.3135
734.289,432.0,3.9076,0.3148
737.126,432.5,3.9079,0.3144
739.959,433.0,3.9078,0.3161
742.788,433.5,3.9078,0.316
745.608,434.0,3.9068,0.3187
748.422,434.5,3.9068,0.3174
751.239,435.0,3.9072,0.3201
754.074,435.5,3.9075,0.3209
756.93,436.0,3.9082,0.32
759.781,436.5,3.9082,0.3218
762.607,437.0,3.9078,0.3217
765.436,437.5,3.9065,0.3204
768.262,438.0,3.9065,0.3229
771.093,438.5,3.9077,0.3249
773.929,439.0,3.9078,0.3265
776.767,439.5,3.9078,0.3262
779.604,440.0,3.9072,0.3268
782.448,440.5,3.9068,0.3281
785.289,441.0,3.9067,0.3286
788.125,441.5,3.9065,0.3274
790.966,442.0,3.9065,0.3288
793.791,442.5,3.9062,0.3307
796.61,443.0,3.9065,0.3315
799.427,443.5,3.9065,0.3358
802.252,444.0,3.9065,0.336
805.085,444.5,3.9065,0.3371
807.928,445.0,3.9065,0.337
810.771,445.5,3.9052,0.3395
813.607,446.0,3.9052,0.3392
816.429,446.5,3.9052,0.3398
819.257,447.0,3.9052,0.3398
822.062,447.5,3.9052,0.3414
824.893,448.0,3.9042,0.342
827.728,448.5,3.9029,0.343
830.56,449.0,3.9029,0.342
833.405,449.5,3.9024,0.3414
836.239,450.0,3.9029,0.3438
839.066,450.5,3.9036,0.3463
841.896,451.0,3.9042,0.3459
844.728,451.5,3.9042,0.3456
847.564,452.0,3.9028,0.3466
850.395,452.5,3.9029,0.3461
853.227,453.0,3.9016,0.3472
856.057,453.5,3.9016,0.3483
858.881,454.0,3.9016,0.3487
861.711,454.5,3.9016,0.3474
864.541,455.0,3.9016,0.3496
867.367,455.5,3.9002,0.3496
870.197,456.0,3.9002,0.3492
873.026,456.5,3.9002,0.3492
875.845,457.0,3.9002,0.3498
878.671,457.5,3.8993,0.3515
881.497,458.0,3.8993,0.3513
884.309,458.5,3.8993,0.352
887.138,459.0,3.8993,0.3537
889.98,459.5,3.8993,0.3547
892.8,460.0,3.8989,0.3553
895.629,460.5,3.8979,0.3568
898.479,461.0,3.8976,0.3572
901.309,461.5,3.8974,0.358
904.14,462.0,3.8963,0.3583
906.975,462.5,3.8963,0.3588
909.802,463.0,3.8963,0.3603
912.619,463.5,3.8961,0.3594
915.448,464.0,3.8953,0.3614
918.277,464.5,3.8953,0.3615
921.104,465.0,3.8944,0.3628
923.937,465.5,3.8943,0.3618
926.758,466.0,3.8943,0.3618
929.586,466.5,3.8943,0.3635
932.409,467.0,3.8942,0.3624
935.241,467.5,3.8934,0.3642
938.072,468.0,3.891,0.3662
940.902,468.5,3.891,0.366
943.731,469.0,3.891,0.3673
946.564,469.5,3.8909,0.3687
949.375,470.0,3.8894,0.3686
952.207,470.5,3.8894,0.3687
955.032,471.0,3.8893,0.3701
957.867,471.5,3.8884,0.3707
960.702,472.0,3.8884,0.3716
963.561,472.5,3.8884,0.3711
966.403,473.0,3.887,0.3745
969.219,473.5,3.8871,0.3755
972.043,474.0,3.8855,0.3777
974.865,474.5,3.8847,0.3754
977.68,475.0,3.8844,0.3764
980.502,475.5,3.8832,0.3773
983.327,476.0,3.8831,0.3787
986.153,476.5,3.8831,0.3791
988.984,477.0,3.8831,0.3806
991.813,477.5,3.882,0.3791
994.639,478.0,3.8812,0.3796
997.455,478.5,3.8805,0.3791
1000.27,479.0,3.8791,0.3813
1003.1,479.5,3.8792,0.3837
1005.93,480.0,3.8782,0.3834
1008.76,480.5,3.8779,0.3849
1011.58,481.0,3.8778,0.3862
1014.41,481.5,3.8751,0.3842
1017.24,482.0,3.8752,0.3843
1020.08,482.5,3.8752,0.3857
1022.91,483.0,3.8739,0.3863
1025.74,483.5,3.8723,0.3892
1028.58,484.0,3.8713,0.3895
1031.41,484.5,3.8713,0.391
1034.24,485.0,3.8713,0.39
1037.08,485.5,3.8709,0.392
1039.9,486.0,3.8681,0.391
1042.73,486.5,3.8672,0.3928
1045.56,487.0,3.8664,0.395
1048.39,487.5,3.8659,0.3924
1051.22,488.0,3.8659,0.3972
1054.05,488.5,3.8639,0.3983
1056.85,489.0,3.8639,0.3966
1059.66,489.5,3.8626,0.3994
1062.46,490.0,3.8612,0.3981
1065.29,490.5,3.8609,0.3975
1068.13,491.0,3.86,0.3967
1070.97,491.5,3.8591,0.3969
1073.8,492.0,3.8587,0.3986
1076.64,492.5,3.857,0.3972
1079.47,493.0,3.8562,0.3984
1082.3,493.5,3.8554,0.398
1085.12,494.0,3.8549,0.4003
1087.95,494.5,3.8534,0.4013
1090.78,495.0,3.8534,0.4011
1093.62,495.5,3.8514,0.4034
1096.46,496.0,3.8514,0.4017
1099.29,496.5,3.8512,0.403
1102.13,497.0,3.849,0.4024
1104.96,497.5,3.8472,0.4035
1107.79,498.0,3.8473,0.4025
1110.62,498.5,3.845,0.4037
1113.43,499.0,3.8447,0.4034
1116.25,499.5,3.8447,0.4053
1119.09,500.0,3.8434,0.4045
1121.93,500.5,3.8423,0.4065
1124.77,501.0,3.842,0.4071
1127.61,501.5,3.8401,0.4078
1130.45,502.0,3.8381,0.405
1133.28,502.5,3.8381,0.4076
1136.1,503.0,3.8368,0.408
1138.93,503.5,3.836,0.4074
1141.76,504.0,3.8355,0.4068
1144.6,504.5,3.8342,0.4084
1147.43,505.0,3.8329,0.4085
1150.28,505.5,3.8316,0.4098
1153.12,506.0,3.8302,0.4095
1155.95,506.5,3.8302,0.4105
1158.78,507.0,3.8289,0.4111
1161.62,507.5,3.8278,0.4127
1164.46,508.0,3.8266,0.4128
1167.29,508.5,3.825,0.4128
1170.13,509.0,3.8236,0.413
1172.97,509.5,3.8242,0.4137
1175.8,510.0,3.8233,0.4143
1178.64,510.5,3.822,0.4147
1181.48,511.0,3.8208,0.4168
1184.32,511.5,3.8201,0.4176
1187.16,512.0,3.8183,0.4183
1190.01,512.5,3.817,0.419
1192.85,513.0,3.8154,0.4192
1195.68,513.5,3.813,0.4187
1198.52,514.0,3.812,0.4174
1201.34,514.5,3.8115,0.4163
1204.16,515.0,3.8101,0.4152
1206.99,515.5,3.8088,0.4164
1209.82,516.0,3.8075,0.4158
1212.67,516.5,3.8062,0.4148
1215.5,517.0,3.8048,0.414
1218.35,517.5,3.8035,0.4157
1221.19,518.0,3.8022,0.4177
1224.02,518.5,3.8016,0.4184
1226.86,519.0,3.7993,0.4192
1229.69,519.5,3.7967,0.4169
1232.51,520.0,3.7954,0.4182
1235.35,520.5,3.7943,0.4182
1238.19,521.0,3.7927,0.4165
1241.03,521.5,3.7928,0.4173
1243.87,522.0,3.7906,0.4178
1246.72,522.5,3.7882,0.4179
1249.56,523.0,3.7868,0.4182
1252.4,523.5,3.7843,0.4195
1255.24,524.0,3.7831,0.4175
1258.09,524.5,3.7814,0.4207
1260.91,525.0,3.7798,0.4182
1263.74,525.5,3.7781,0.4208
1266.59,526.0,3.7761,0.4208
1269.44,526.5,3.7742,0.4175
1272.27,527.0,3.7727,0.4183
1275.12,527.5,3.7689,0.4179
1277.96,528.0,3.7676,0.4183
1280.78,528.5,3.766,0.4179
1283.62,529.0,3.7631,0.4191
1286.46,529.5,3.7618,0.4187
1289.31,530.0,3.7599,0.4198
1292.16,530.5,3.7584,0.418
1295,531.0,3.7559,0.4201
1297.86,531.5,3.7531,0.4207
1300.7,532.0,3.7515,0.4189
1303.55,532.5,3.7494,0.419
1306.41,533.0,3.747,0.4196
1309.25,533.5,3.7454,0.4189
1312.09,534.0,3.7427,0.4196
1314.93,534.5,3.7402,0.4187
1317.76,535.0,3.738,0.4206
1320.61,535.5,3.7358,0.4168
1323.46,536.0,3.7339,0.4178
1326.31,536.5,3.7308,0.4196
1329.17,537.0,3.7282,0.4183
1332.02,537.5,3.7257,0.4189
1334.86,538.0,3.7239,0.42
1337.71,538.5,3.7199,0.4212
1340.55,539.0,3.718,0.4227
1343.4,539.5,3.7158,0.4212
1346.24,540.0,3.7134,0.4211
1349.09,540.5,3.711,0.4212
1351.93,541.0,3.7085,0.4212
1354.77,541.5,3.7055,0.421
1357.61,542.0,3.7012,0.4189
1360.46,542.5,3.6977,0.4189
1363.31,543.0,3.6959,0.4192
1366.15,543.5,3.6926,0.4207
1369.01,544.0,3.6899,0.419
1371.86,544.5,3.6878,0.4194
1374.71,545.0,3.6849,0.4197
1377.56,545.5,3.6807,0.4183
1380.4,546.0,3.6778,0.4218
1383.25,546.5,3.6742,0.4204
1386.09,547.0,3.6712,0.4192
1388.94,547.5,3.6683,0.418
1391.79,548.0,3.6654,0.4211
1394.64,548.5,3.6625,0.4201
1397.5,549.0,3.6591,0.4222
1400.35,549.5,3.6561,0.4214
1403.2,550.0,3.6516,0.4218
1406.05,550.5,3.6479,0.4217
1408.9,551.0,3.6447,0.424
1411.76,551.5,3.6408,0.4245
1414.6,552.0,3.6374,0.4234
1417.45,552.5,3.6337,0.4237
1420.31,553.0,3.6303,0.4231
1423.16,553.5,3.6265,0.4225
1426.01,554.0,3.6224,0.4224
1428.87,554.5,3.6182,0.4228
1431.73,555.0,3.6141,0.4232
1434.59,555.5,3.6109,0.4219
1437.44,556.0,3.6086,0.4224
1440.3,556.5,3.6048,0.4222
1443.15,557.0,3.5987,0.4252
1446.01,557.5,3.5943,0.424
1448.87,558.0,3.5902,0.4233
1451.73,558.5,3.5851,0.4248
1454.59,559.0,3.581,0.4224
1457.45,559.5,3.5769,0.4238
1460.29,560.0,3.571,0.424
1463.13,560.5,3.5678,0.4243
1465.98,561.0,3.5638,0.4245
1468.85,561.5,3.5586,0.4249
1471.72,562.0,3.5541,0.4253
1474.58,562.5,3.55,0.4262
1477.45,563.0,3.5449,0.4265
1480.31,563.5,3.5413,0.4274
1483.16,564.0,3.5347,0.4273
1486.03,564.5,3.5297,0.4261
1488.9,565.0,3.5251,0.4276
1491.76,565.5,3.5204,0.4283
1494.63,566.0,3.5153,0.4293
1497.49,566.5,3.5093,0.4295
1500.34,567.0,3.5049,0.4301
1503.19,567.5,3.498,0.4286
1506.05,568.0,3.4925,0.4289
1508.91,568.5,3.4875,0.4299
1511.78,569.0,3.4828,0.4294
1514.67,569.5,3.4772,0.4293
1517.53,570.0,3.4718,0.4301
1520.39,570.5,3.4645,0.4319
1523.26,571.0,3.4594,0.431
1526.12,571.5,3.4529,0.4334
1528.99,572.0,3.4469,0.4345
1531.84,572.5,3.4411,0.4365
1534.71,573.0,3.4357,0.4378
1537.56,573.5,3.4283,0.437
1540.43,574.0,3.4218,0.4387
1543.29,574.5,3.4157,0.4413
1546.15,575.0,3.4088,0.4433
1549.02,575.5,3.4031,0.4425
1551.88,576.0,3.397,0.4445
1554.76,576.5,3.3908,0.4454
1557.63,577.0,3.3834,0.4453
1560.5,577.5,3.3756,0.4515
1563.36,578.0,3.3688,0.4509
1566.21,578.5,3.3623,0.4538
1569.07,579.0,3.3548,0.4551
1571.94,579.5,3.3476,0.4576
1574.8,580.0,3.3405,0.4607
1577.67,580.5,3.3327,0.4608
1580.54,581.0,3.3256,0.4614
1583.39,581.5,3.319,0.4621
1586.25,582.0,3.3093,0.4653
1589.11,582.5,3.3021,0.4661
1591.97,583.0,3.2926,0.4687
1594.84,583.5,3.2858,0.4705
1597.71,584.0,3.2775,0.4713
1600.58,584.5,3.2676,0.4725
1603.45,585.0,3.2598,0.4733
1606.33,585.5,3.2513,0.4761
1609.19,586.0,3.2441,0.477
1612.05,586.5,3.2354,0.4808
1614.91,587.0,3.2269,0.4813
1617.78,587.5,3.2182,0.484
1620.65,588.0,3.2088,0.4858
1623.52,588.5,3.1998,0.4867
1626.39,589.0,3.1903,0.4891
1629.26,589.5,3.1813,0.4913
1632.12,590.0,3.172,0.492
1634.99,590.5,3.1624,0.4937
1637.86,591.0,3.1528,0.4975
1640.73,591.5,3.1436,0.5004
1643.6,592.0,3.1336,0.5017
1646.47,592.5,3.1249,0.5036
1649.33,593.0,3.1146,0.5044
1652.2,593.5,3.1042,0.505
1655.07,594.0,3.0945,0.5057
1657.95,594.5,3.0842,0.5063
1660.82,595.0,3.0747,0.5097
1663.69,595.5,3.0647,0.5114
1666.56,596.0,3.0539,0.5125
1669.43,596.5,3.0431,0.5172
1672.31,597.0,3.0326,0.5178
1675.19,597.5,3.0223,0.5204
1678.08,598.0,3.0112,0.5215
1680.97,598.5,3.0009,0.5242
1683.85,599.0,2.9903,0.5279
1686.72,599.5,2.9768,0.53
1689.6,600.0,2.9653,0.5308
1692.48,600.5,2.9538,0.5326
1695.36,601.0,2.9424,0.5341
1698.24,601.5,2.9312,0.5357
1701.11,602.0,2.9203,0.5361
1703.99,602.5,2.9083,0.5374
1706.87,603.0,2.898,0.5408
1709.76,603.5,2.8863,0.5415
1712.66,604.0,2.8727,0.5456
1715.56,604.5,2.8619,0.5449
1718.45,605.0,2.8507,0.5466
1721.33,605.5,2.8394,0.5491
1724.22,606.0,2.8265,0.5519
1727.1,606.5,2.8142,0.5526
1729.99,607.0,2.803,0.5571
1732.88,607.5,2.7906,0.5583
1735.77,608.0,2.7772,0.56
1738.66,608.5,2.7649,0.5622
1741.54,609.0,2.753,0.5641
1744.43,609.5,2.7408,0.566
1747.32,610.0,2.7274,0.5681
1750.21,610.5,2.7148,0.5707
1753.1,611.0,2.7024,0.5728
1755.99,611.5,2.6894,0.5722
1758.88,612.0,2.677,0.5756
1761.78,612.5,2.6644,0.5783
1764.66,613.0,2.6513,0.5805
1767.52,613.5,2.6373,0.5821
1770.4,614.0,2.6244,0.5844
1773.29,614.5,2.612,0.5873
1776.17,615.0,2.5991,0.5902
1779.08,615.5,2.5851,0.5933
1781.98,616.0,2.5703,0.5962
1784.87,616.5,2.5569,0.5982
1787.76,617.0,2.5439,0.5993
1790.65,617.5,2.5311,0.6044
1793.54,618.0,2.5175,0.6054
1796.43,618.5,2.5031,0.6076
1799.32,619.0,2.4896,0.6119
1802.21,619.5,2.4771,0.6158
1805.09,620.0,2.4642,0.6189
1807.98,620.5,2.449,0.6224
1810.87,621.0,2.4339,0.6269
1813.76,621.5,2.4199,0.632
1816.65,622.0,2.4069,0.6327
1819.55,622.5,2.3917,0.6367
1822.44,623.0,2.3773,0.6433
1825.34,623.5,2.3627,0.6486
1828.25,624.0,2.3476,0.6532
1831.15,624.5,2.3334,0.6569
1834.06,625.0,2.3181,0.661
1836.96,625.5,2.302,0.6667
1839.86,626.0,2.2867,0.6715
1842.76,626.5,2.2717,0.679
1845.65,627.0,2.2565,0.6815
1848.53,627.5,2.2412,0.6869
1851.42,628.0,2.2242,0.6911
1854.33,628.5,2.2069,0.696
1857.23,629.0,2.1915,0.7038
1860.14,629.5,2.1762,0.7094
1863.07,630.0,2.1607,0.715
1865.99,630.5,2.1435,0.7216
1868.9,631.0,2.1281,0.7279
1871.83,631.5,2.1123,0.7342
1874.74,632.0,2.0935,0.7379
1877.65,632.5,2.0768,0.7453
1880.56,633.0,2.0591,0.7508
1883.48,633.5,2.0416,0.7574
1886.39,634.0,2.025,0.7626
1889.31,634.5,2.0074,0.767
1892.22,635.0,1.9889,0.7726
1895.14,635.5,1.9706,0.7799
1898.06,636.0,1.9532,0.7852
1900.99,636.5,1.9349,0.7903
1903.9,637.0,1.9175,0.7978
1906.81,637.5,1.8992,0.8007
1909.73,638.0,1.8794,0.8041
1912.65,638.5,1.861,0.808
1915.56,639.0,1.8422,0.8122
1918.47,639.5,1.8217,0.8174
1921.38,640.0,1.8024,0.8191
1924.29,640.5,1.7831,0.8198
1927.2,641.0,1.7639,0.8194
1930.1,641.5,1.745,0.8221
1933.01,642.0,1.7254,0.8212
1935.9,642.5,1.7052,0.8207
1938.78,643.0,1.6857,0.8212
1941.68,643.5,1.6666,0.821
1944.57,644.0,1.6481,0.8172
1947.46,644.5,1.6302,0.8125
1950.37,645.0,1.6097,0.8044
1953.26,645.5,1.5912,0.8004
1956.15,646.0,1.5733,0.794
1959.03,646.5,1.5529,0.7865
1961.91,647.0,1.5344,0.7785
1964.78,647.5,1.5161,0.7678
1967.65,648.0,1.4994,0.7562
1970.53,648.5,1.4819,0.7455
1973.41,649.0,1.464,0.7294
1976.28,649.5,1.4451,0.7159
1979.15,650.0,1.4272,0.7021
1982.01,650.5,1.4121,0.6819
1984.87,651.0,1.3964,0.6654
1987.72,651.5,1.3813,0.6458
1990.57,652.0,1.3658,0.627
1993.43,652.5,1.3511,0.6058
1996.28,653.0,1.3363,0.5841
1999.14,653.5,1.3228,0.5619
2001.99,654.0,1.31,0.5396
2004.85,654.5,1.2974,0.5134
2007.69,655.0,1.284,0.4907
2010.54,655.5,1.2731,0.4639
2013.39,656.0,1.2623,0.4401
2016.24,656.5,1.2518,0.4157
2019.09,657.0,1.2419,0.39
2021.94,657.5,1.2318,0.3656
2024.78,658.0,1.2229,0.345
2027.62,658.5,1.2146,0.3201
2030.48,659.0,1.2071,0.2974
2033.32,659.5,1.2018,0.2769
2036.18,660.0,1.1959,0.256
2039.06,660.5,1.1894,0.2404
2041.92,661.0,1.1839,0.22
2044.79,661.5,1.1785,0.2007
2047.66,662.0,1.174,0.1843
2050.53,662.5,1.1694,0.1732
2053.39,663.0,1.1653,0.1578
2056.27,663.5,1.1604,0.1466
2059.14,664.0,1.1573,0.1376
2062.02,664.5,1.1538,0.1246
2064.91,665.0,1.1522,0.1176
2067.81,665.5,1.1493,0.1091
2070.7,666.0,1.1462,0.101
2073.6,666.5,1.1444,0.0994
2076.51,667.0,1.1427,0.0945
2079.41,667.5,1.1398,0.0886
2082.32,668.0,1.1383,0.0862
2085.23,668.5,1.1349,0.0825
2088.12,669.0,1.1329,0.0806
2091.02,669.5,1.1302,0.0793
2093.93,670.0,1.1291,0.0785
2096.84,670.5,1.1287,0.0758
2099.76,671.0,1.1273,0.0755
2102.69,671.5,1.1259,0.0737
2105.62,672.0,1.1246,0.0732
2108.55,672.5,1.1218,0.071
2111.47,673.0,1.1205,0.0687
2114.38,673.5,1.1191,0.0676
2117.3,674.0,1.116,0.0653
2120.22,674.5,1.1155,0.0646
2123.13,675.0,1.1151,0.0617
2126.06,675.5,1.1111,0.0573
2128.98,676.0,1.1086,0.0584
2131.9,676.5,1.1065,0.0556
2134.83,677.0,1.1079,0.052
2137.75,677.5,1.1065,0.0521
2140.66,678.0,1.1045,0.0486
2143.57,678.5,1.1032,0.0492
2146.49,679.0,1.1032,0.049
2149.41,679.5,1.1019,0.0486
2152.32,680.0,1.0995,0.0453
2155.27,680.5,1.0981,0.0421
2158.2,681.0,1.0963,0.0429
2161.12,681.5,1.0945,0.0416
2164.06,682.0,1.0924,0.0408
2166.99,682.5,1.091,0.039
2169.91,683.0,1.0898,0.0378
2172.82,683.5,1.0892,0.0359
2175.73,684.0,1.0873,0.0356
2178.64,684.5,1.0866,0.0377
2181.55,685.0,1.0846,0.0328
2184.47,685.5,1.0823,0.0319
2187.4,686.0,1.0809,0.0301
2190.32,686.5,1.0795,0.0285
2193.24,687.0,1.0782,0.0282
2196.16,687.5,1.0769,0.0273
2199.08,688.0,1.0752,0.0239
2202,688.5,1.0739,0.0243
2204.92,689.0,1.0725,0.0226
2207.84,689.5,1.071,0.0216
2210.76,690.0,1.0697,0.0231
2213.69,690.5,1.0684,0.0205
2216.61,691.0,1.0684,0.0182
2219.56,691.5,1.0671,0.017
2222.48,692.0,1.0658,0.0167
2225.41,692.5,1.0645,0.0134
2228.33,693.0,1.0621,0.0132
2231.26,693.5,1.0607,0.0154
2234.19,694.0,1.0594,0.0128
2237.12,694.5,1.0581,0.0131
2240.05,695.0,1.0568,0.0121
2242.99,695.5,1.0555,0.0082
2245.93,696.0,1.0541,0.0085
2248.86,696.5,1.0529,0.0057
2251.78,697.0,1.0499,0.0074
2254.72,697.5,1.0484,0.0049
2257.65,698.0,1.0468,0.0031
2260.58,698.5,1.0455,0.0048
2263.52,699.0,1.0442,0.0058
2266.43,699.5,1.0429,0.0043
2269.35,700.0,1.0429,0.0038
2272.29,700.5,1.0416,0.0036
2275.22,701.0,1.0402,0.005
2278.17,701.5,1.038,0.0063
2281.13,702.0,1.0375,0.0049
2284.07,702.5,1.0362,0.0042
2287,703.0,1.0349,0.0046
2289.94,703.5,1.0336,0.005
2292.88,704.0,1.0323,0.0068
2295.81,704.5,1.031,0.0061
2298.75,705.0,1.0281,0.005
2301.69,705.5,1.0267,0.0041
2304.63,706.0,1.0267,0.0036
2307.57,706.5,1.0253,0.0063
2310.51,707.0,1.023,0.0058
2313.44,707.5,1.0213,0.0074
2316.38,708.0,1.0204,0.0075
2319.31,708.5,1.0199,0.0059
2322.26,709.0,1.0186,0.0073
2325.18,709.5,1.0167,0.005
2328.12,710.0,1.0163,0.0053
2331.05,710.5,1.0148,0.0074
2333.98,711.0,1.0124,0.0077
2336.91,711.5,1.0107,0.0062
2339.85,712.0,1.0094,0.0067
2342.79,712.5,1.0079,0.0089
2345.72,713.0,1.0071,0.0089
2348.68,713.5,1.0074,0.0101
2351.64,714.0,1.0064,0.0121
2354.59,714.5,1.0045,0.0119
2357.54,715.0,1.0032,0.01
2360.48,715.5,1.0019,0.0147
2363.42,716.0,1.0006,0.0167
2366.36,716.5,0.9992,0.021
2369.3,717.0,0.9975,0.0206
2372.24,717.5,0.9967,0.0231
2375.18,718.0,0.9962,0.0251
2378.13,718.5,0.9953,0.0262
2381.07,719.0,0.994,0.0264
2384.01,719.5,0.9927,0.0279
2386.95,720.0,0.9913,0.0276
2389.9,720.5,0.99,0.0293
2392.84,721.0,0.9886,0.0293
2395.79,721.5,0.9887,0.0311
2398.73,722.0,0.9874,0.0315
2401.68,722.5,0.986,0.0309
2404.62,723.0,0.984,0.0346
2407.56,723.5,0.984,0.0357
2410.51,724.0,0.9827,0.0348
2413.46,724.5,0.9815,0.0371
2416.41,725.0,0.9801,0.0371
2419.36,725.5,0.9788,0.037
2422.32,726.0,0.9775,0.0398
2425.26,726.5,0.9762,0.0408
2428.21,727.0,0.9762,0.0424
2431.18,727.5,0.9749,0.0447
2434.12,728.0,0.9735,0.0464
2437.08,728.5,0.9732,0.0431
2440.02,729.0,0.9722,0.0426
2442.97,729.5,0.9722,0.0431
2445.92,730.0,0.9711,0.0437
2448.87,730.5,0.9705,0.0445
2451.81,731.0,0.9696,0.0444
2454.76,731.5,0.967,0.0452
2457.71,732.0,0.9669,0.0475
2460.67,732.5,0.9642,0.0513
2463.63,733.0,0.9642,0.0523
2466.58,733.5,0.9629,0.052
2469.53,734.0,0.9635,0.0542
2472.47,734.5,0.9629,0.0561
2475.43,735.0,0.9616,0.0586
2478.39,735.5,0.9591,0.0574
2481.36,736.0,0.9576,0.0606
2484.32,736.5,0.9566,0.0633
2487.28,737.0,0.9563,0.0657
2490.23,737.5,0.955,0.0656
2493.18,738.0,0.955,0.0674
2496.14,738.5,0.9537,0.0694
2499.08,739.0,0.9523,0.0683
2502.04,739.5,0.9524,0.0687
2504.99,740.0,0.951,0.0668
2507.95,740.5,0.95,0.0675
2510.91,741.0,0.9511,0.0704
2513.86,741.5,0.9497,0.0703
2516.82,742.0,0.9485,0.071
2519.76,742.5,0.9471,0.0712
2522.71,743.0,0.9455,0.0735
2525.65,743.5,0.9443,0.0733
2528.61,744.0,0.9456,0.0742
2531.57,744.5,0.9437,0.0769
2534.52,745.0,0.9432,0.0771
2537.48,745.5,0.9433,0.0779
2540.44,746.0,0.9419,0.0801
2543.41,746.5,0.941,0.0779
2546.36,747.0,0.9402,0.0807
2549.3,747.5,0.939,0.0826
2552.25,748.0,0.9376,0.0821
2555.19,748.5,0.9376,0.0827
2558.13,749.0,0.9377,0.0852
2561.1,749.5,0.9373,0.0871
2564.04,750.0,0.936,0.089
2566.99,750.5,0.936,0.0867
2569.97,751.0,0.9348,0.0888
2572.93,751.5,0.9347,0.0905
2575.9,752.0,0.9334,0.0905
2578.87,752.5,0.9321,0.0916
2581.82,753.0,0.9311,0.0952
2584.77,753.5,0.9306,0.0934
2587.73,754.0,0.9297,0.0945
2590.68,754.5,0.9287,0.094
2593.62,755.0,0.9288,0.093
2596.58,755.5,0.9294,0.0957
2599.53,756.0,0.9281,0.096
2602.48,756.5,0.9268,0.0975
2605.47,757.0,0.9268,0.0965
2608.44,757.5,0.9258,0.0977
2611.4,758.0,0.9255,0.0977
2614.36,758.5,0.9252,0.0975
2617.31,759.0,0.9242,0.0995
2620.27,759.5,0.9229,0.0981
2623.22,760.0,0.9228,0.0988
2626.19,760.5,0.9215,0.1011
2629.15,761.0,0.9216,0.0983
2632.1,761.5,0.9202,0.0965
2635.07,762.0,0.9201,0.0976
2638.04,762.5,0.9189,0.0983
2641,763.0,0.9189,0.0974
2643.96,763.5,0.9184,0.0983
2646.93,764.0,0.9179,0.1003
2649.89,764.5,0.9168,0.101
2652.86,765.0,0.9166,0.0995
2655.83,765.5,0.9166,0.1008
2658.8,766.0,0.9166,0.103
2661.76,766.5,0.9163,0.102
2664.73,767.0,0.9153,0.1047
2667.7,767.5,0.9153,0.1043
2670.66,768.0,0.9142,0.104
2673.62,768.5,0.914,0.1045
2676.57,769.0,0.9123,0.1061
2679.53,769.5,0.9123,0.1057
2682.49,770.0,0.912,0.1061
2685.46,770.5,0.9106,0.1061
2688.42,771.0,0.9106,0.1076
2691.4,771.5,0.9098,0.1082
2694.38,772.0,0.9094,0.105
2697.35,772.5,0.9074,0.1059
2700.32,773.0,0.9074,0.1051
2703.29,773.5,0.906,0.1045
2706.27,774.0,0.906,0.1047
2709.24,774.5,0.9047,0.1045
2712.22,775.0,0.9047,0.1045
2715.19,775.5,0.9047,0.1061
2718.17,776.0,0.9034,0.1049
2721.15,776.5,0.9029,0.1038
2724.11,777.0,0.9033,0.105
2727.09,777.5,0.9034,0.1074
2730.06,778.0,0.9021,0.1058
2733.03,778.5,0.9008,0.1062
2736.01,779.0,0.8995,0.1061
2738.95,779.5,0.8995,0.11
2741.92,780.0,0.8982,0.1105
2744.89,780.5,0.8981,0.1103
2747.85,781.0,0.8981,0.1124
2750.84,781.5,0.8981,0.1106
2753.82,782.0,0.8968,0.1125
2756.78,782.5,0.8968,0.1125
2759.75,783.0,0.8957,0.1133
2762.71,783.5,0.8959,0.114
2765.67,784.0,0.8952,0.1137
2768.64,784.5,0.8952,0.115
2771.61,785.0,0.8952,0.114
2774.59,785.5,0.8952,0.1164
2777.58,786.0,0.8939,0.1138
2780.55,786.5,0.8939,0.1152
2783.53,787.0,0.8925,0.1139
2786.51,787.5,0.8925,0.1114
2789.49,788.0,0.8912,0.1137
2792.46,788.5,0.8912,0.1109
2795.43,789.0,0.8912,0.1118
2798.4,789.5,0.8886,0.1141
2801.37,790.0,0.8897,0.1117
2804.34,790.5,0.8896,0.1127
2807.32,791.0,0.8883,0.1126
2810.28,791.5,0.8883,0.1131
2813.24,792.0,0.887,0.1135
2816.22,792.5,0.8869,0.1135
2819.19,793.0,0.8856,0.1131
2822.17,793.5,0.8856,0.1143
2825.16,794.0,0.8842,0.1157
2828.13,794.5,0.8843,0.1136
2831.11,795.0,0.8843,0.1141
2834.08,795.5,0.8836,0.116
2837.04,796.0,0.8823,0.1153
2840.02,796.5,0.8823,0.1158
2842.99,797.0,0.8817,0.1166
2845.97,797.5,0.8823,0.1157
2848.97,798.0,0.8815,0.1203
2851.96,798.5,0.881,0.1177
2854.93,799.0,0.881,0.1182
2857.88,799.5,0.881,0.1198
2860.86,800.0,0.8797,0.118
2863.83,800.5,0.8797,0.1179
2866.81,801.0,0.8784,0.1187
2869.82,801.5,0.8771,0.1177
2872.8,802.0,0.877,0.1155
2875.78,802.5,0.8784,0.1174
2878.76,803.0,0.8771,0.1172
2881.74,803.5,0.8771,0.1162
2884.73,804.0,0.8744,0.1156
2887.72,804.5,0.8744,0.1142
2890.71,805.0,0.8731,0.116
2893.69,805.5,0.8744,0.1163
2896.67,806.0,0.8739,0.1166
2899.65,806.5,0.8723,0.116
2902.61,807.0,0.8725,0.1161
2905.59,807.5,0.8724,0.1153
2908.56,808.0,0.8731,0.113
2911.53,808.5,0.8718,0.1143
2914.54,809.0,0.8718,0.1151
2917.52,809.5,0.8705,0.1145
2920.49,810.0,0.8705,0.1128
2923.46,810.5,0.8705,0.1149
2926.44,811.0,0.8691,0.1115
2929.42,811.5,0.8692,0.1129
2932.42,812.0,0.8685,0.1104
2935.41,812.5,0.8685,0.1122
2938.39,813.0,0.8685,0.1145
2941.37,813.5,0.8685,0.1141
2944.35,814.0,0.8687,0.1143
2947.33,814.5,0.8685,0.114
2950.3,815.0,0.8683,0.1142
2953.29,815.5,0.8658,0.1139
2956.27,816.0,0.8668,0.118
2959.26,816.5,0.8657,0.1179
2962.25,817.0,0.8654,0.1183
2965.23,817.5,0.8629,0.1199
2968.23,818.0,0.8629,0.1201
2971.22,818.5,0.8629,0.1212
2974.22,819.0,0.8629,0.124
2977.21,819.5,0.862,0.1259
2980.2,820.0,0.8616,0.1238
2983.19,820.5,0.8616,0.1228
2986.18,821.0,0.8603,0.1258
2989.17,821.5,0.8616,0.1273
2992.16,822.0,0.8603,0.1255
2995.15,822.5,0.8589,0.1279
2998.14,823.0,0.859,0.1306
3001.11,823.5,0.859,0.1281
3004.1,824.0,0.8575,0.1289
3007.09,824.5,0.8576,0.1311
3010.07,825.0,0.8563,0.1306
3013.05,825.5,0.8563,0.1299
3016.01,826.0,0.8564,0.131
3018.99,826.5,0.8573,0.1312
3021.97,827.0,0.8573,0.1311
3024.96,827.5,0.856,0.131
3027.97,828.0,0.8554,0.1312
3030.96,828.5,0.8547,0.1318
3033.96,829.0,0.8542,0.1303
3036.95,829.5,0.8537,0.1291
3039.95,830.0,0.8537,0.1294
3042.94,830.5,0.8537,0.1311
3045.91,831.0,0.8523,0.1301
3048.91,831.5,0.8524,0.1317
3051.91,832.0,0.8524,0.1314
3054.9,832.5,0.8523,0.1327
3057.89,833.0,0.851,0.1307
3060.87,833.5,0.851,0.1291
3063.85,834.0,0.85,0.1287
3066.83,834.5,0.8497,0.13
3069.82,835.0,0.8497,0.1281
3072.83,835.5,0.8497,0.1291
3075.82,836.0,0.8484,0.1315
3078.83,836.5,0.8484,0.1291
3081.83,837.0,0.8484,0.128
3084.82,837.5,0.8487,0.1273
3087.83,838.0,0.8477,0.1292
3090.82,838.5,0.8478,0.1292
3093.81,839.0,0.8464,0.1303
3096.81,839.5,0.8464,0.1286
3099.78,840.0,0.8464,0.1314
3102.77,840.5,0.8451,0.1296
3105.77,841.0,0.8451,0.1282
3108.76,841.5,0.8451,0.128
3111.77,842.0,0.8451,0.1293
3114.78,842.5,0.8448,0.1296
3117.78,843.0,0.8438,0.1297
3120.77,843.5,0.8431,0.1292
3123.77,844.0,0.8431,0.1283
3126.77,844.5,0.8431,0.1295
3129.76,845.0,0.8431,0.1305
3132.77,845.5,0.8419,0.1266
3135.77,846.0,0.8418,0.1262
3138.77,846.5,0.8418,0.1255
3141.78,847.0,0.8409,0.1253
3144.77,847.5,0.8405,0.1269
3147.77,848.0,0.8405,0.1271
3150.76,848.5,0.8392,0.1276
3153.77,849.0,0.8392,0.1277
3156.77,849.5,0.8392,0.1256
3159.77,850.0,0.8378,0.1271
3162.76,850.5,0.8379,0.1263
3165.75,851.0,0.8379,0.1255
3168.74,851.5,0.8365,0.1255
3171.74,852.0,0.8366,0.1282
3174.74,852.5,0.8366,0.1275
3177.74,853.0,0.8365,0.1252
3180.74,853.5,0.8352,0.1225
3183.74,854.0,0.8352,0.1213
3186.74,854.5,0.8352,0.1215
3189.73,855.0,0.8352,0.1215
3192.73,855.5,0.8341,0.121
3195.74,856.0,0.8339,0.1201
3198.74,856.5,0.8339,0.119
3201.74,857.0,0.8331,0.1172
3204.75,857.5,0.8326,0.1171
3207.75,858.0,0.8326,0.117
3210.75,858.5,0.8326,0.1138
3213.76,859.0,0.8326,0.1148
3216.77,859.5,0.8313,0.1108
3219.76,860.0,0.8325,0.112
3222.77,860.5,0.8313,0.1129
3225.77,861.0,0.8304,0.1142
3228.77,861.5,0.8285,0.1148
3231.77,862.0,0.8285,0.1138
3234.77,862.5,0.8285,0.1138
3237.76,863.0,0.8299,0.1133
3240.76,863.5,0.8298,0.1115
3243.76,864.0,0.8299,0.1088
3246.76,864.5,0.8289,0.111
3249.76,865.0,0.8285,0.1088
3252.75,865.5,0.8286,0.1098
3255.74,866.0,0.8272,0.1083
3258.73,866.5,0.8272,0.1097
3261.72,867.0,0.8272,0.1085
3264.72,867.5,0.8272,0.1088
3267.72,868.0,0.8266,0.1075
3270.72,868.5,0.8259,0.1066
3273.72,869.0,0.8272,0.1084
3276.74,869.5,0.8259,0.1105
3279.74,870.0,0.8259,0.1108
3282.74,870.5,0.8259,0.1083
3285.74,871.0,0.8249,0.111
3288.74,871.5,0.8249,0.1107
3291.75,872.0,0.8249,0.1109
3294.75,872.5,0.8236,0.1107
3297.76,873.0,0.8236,0.1121
3300.76,873.5,0.8239,0.1093
3303.76,874.0,0.8233,0.1065
3306.76,874.5,0.8219,0.1079
3309.76,875.0,0.8217,0.1074
3312.77,875.5,0.8206,0.1077
3315.78,876.0,0.8206,0.1062
3318.78,876.5,0.8193,0.1057
3321.79,877.0,0.8193,0.1046
3324.78,877.5,0.818,0.1058
3327.77,878.0,0.818,0.1047
3330.78,878.5,0.8192,0.1048
3333.79,879.0,0.8193,0.1033
3336.81,879.5,0.8183,0.1004
3339.83,880.0,0.8183,0.1034
3342.84,880.5,0.8183,0.1022
3345.85,881.0,0.8168,0.1004
3348.86,881.5,0.8165,0.1004
3351.87,882.0,0.8165,0.097
3354.88,882.5,0.8165,0.0976
3357.88,883.0,0.8165,0.0957
3360.88,883.5,0.8151,0.0974
3363.89,884.0,0.8165,0.0952
3366.89,884.5,0.8164,0.0984
3369.9,885.0,0.8151,0.0967
3372.9,885.5,0.8151,0.0971
3375.91,886.0,0.8138,0.0955
3378.92,886.5,0.8151,0.0968
3381.92,887.0,0.8138,0.0977
3384.93,887.5,0.8138,0.0967
3387.93,888.0,0.8138,0.0964
3390.94,888.5,0.8137,0.0952
3393.94,889.0,0.8112,0.0925
3396.93,889.5,0.8112,0.0932
3399.93,890.0,0.8105,0.0946
3402.93,890.5,0.8105,0.0939
3405.93,891.0,0.8112,0.093
3408.93,891.5,0.8112,0.0938
3411.93,892.0,0.8099,0.0926
3414.92,892.5,0.8099,0.0922
3417.92,893.0,0.8102,0.0907
3420.93,893.5,0.8102,0.091
3423.93,894.0,0.8102,0.0931
3426.94,894.5,0.8088,0.093
3429.94,895.0,0.8089,0.0898
3432.94,895.5,0.8089,0.0919
3435.95,896.0,0.8082,0.0911
3438.94,896.5,0.8076,0.0898
3441.93,897.0,0.8083,0.0913
3444.93,897.5,0.8089,0.0883
3447.92,898.0,0.8076,0.0918
3450.92,898.5,0.8073,0.0897
3453.94,899.0,0.8059,0.0863
3456.95,899.5,0.8059,0.0862
3459.96,900.0,0.8059,0.0884
3462.97,900.5,0.8059,0.085
3465.97,901.0,0.8059,0.0852
3468.97,901.5,0.8059,0.0837
3471.96,902.0,0.8059,0.0859
3474.97,902.5,0.8059,0.0857
3477.97,903.0,0.8059,0.0868
3480.98,903.5,0.8058,0.0833
3483.99,904.0,0.8035,0.0833
3487,904.5,0.8036,0.0848
3489.99,905.0,0.8049,0.0816
3493.01,905.5,0.8049,0.0808
3496.01,906.0,0.8046,0.0843
3499.02,906.5,0.8044,0.0795
3502.04,907.0,0.8033,0.0811
3505.04,907.5,0.8019,0.0827
3508.04,908.0,0.802,0.0804
3511.04,908.5,0.802,0.0808
3514.06,909.0,0.802,0.0809
3517.08,909.5,0.802,0.0832
3520.09,910.0,0.802,0.0813
3523.11,910.5,0.8006,0.0836
3526.12,911.0,0.8007,0.0817
3529.13,911.5,0.7996,0.0829
3532.14,912.0,0.7997,0.0828
3535.14,912.5,0.7997,0.0835
3538.15,913.0,0.7984,0.0802
3541.15,913.5,0.7983,0.0826
3544.17,914.0,0.7994,0.0773
3547.17,914.5,0.7997,0.0777
3550.18,915.0,0.7997,0.0774
3553.19,915.5,0.7995,0.0775
3556.2,916.0,0.7984,0.0768
3559.2,916.5,0.7983,0.0793
3562.21,917.0,0.7983,0.0794
3565.22,917.5,0.7993,0.0784
3568.23,918.0,0.798,0.0792
3571.25,918.5,0.798,0.0789
3574.25,919.0,0.798,0.0786
3577.26,919.5,0.7981,0.0788
3580.27,920.0,0.7967,0.0811
3583.31,920.5,0.7967,0.0797
3586.34,921.0,0.7962,0.0806
3589.39,921.5,0.7954,0.0782
3592.42,922.0,0.7954,0.0741
3595.44,922.5,0.7957,0.0804
3598.47,923.0,0.7957,0.0807
3601.49,923.5,0.7957,0.0798
3604.5,924.0,0.7953,0.0803
3607.52,924.5,0.7944,0.0793
3610.55,925.0,0.7944,0.0805
3613.57,925.5,0.793,0.0786
3616.62,926.0,0.7931,0.0808
3619.64,926.5,0.7931,0.0784
3622.67,927.0,0.7939,0.0768
3625.7,927.5,0.7924,0.0782
3628.73,928.0,0.7924,0.0769
3631.76,928.5,0.7924,0.0767
3634.79,929.0,0.7932,0.0802
3637.82,929.5,0.7931,0.0771
3640.84,930.0,0.7931,0.078
3643.88,930.5,0.7917,0.0781
3646.9,931.0,0.7917,0.0747
3649.92,931.5,0.7918,0.077
3652.95,932.0,0.7918,0.0783
3655.98,932.5,0.7917,0.0785
3659.01,933.0,0.7918,0.0804
3662.03,933.5,0.7904,0.0806
3665.05,934.0,0.7904,0.08
3668.08,934.5,0.7904,0.08
3671.1,935.0,0.79,0.0765
3674.12,935.5,0.7891,0.079
3677.15,936.0,0.788,0.0787
3680.18,936.5,0.7881,0.0768
3683.2,937.0,0.7881,0.0772
3686.22,937.5,0.7894,0.077
3689.24,938.0,0.7881,0.0768
3692.26,938.5,0.7854,0.0735
3695.27,939.0,0.7866,0.0752
3698.3,939.5,0.7882,0.0773
3701.31,940.0,0.7893,0.0772
3704.33,940.5,0.7893,0.0766
3707.36,941.0,0.7877,0.0757
3710.38,941.5,0.7874,0.076
3713.4,942.0,0.7864,0.0737
3716.42,942.5,0.7851,0.0721
3719.44,943.0,0.7866,0.0722
3722.46,943.5,0.7865,0.0735
3725.48,944.0,0.7866,0.0767
3728.5,944.5,0.7866,0.0761
3731.51,945.0,0.7866,0.0767
3734.52,945.5,0.7839,0.0747
3737.54,946.0,0.7846,0.0719
3740.56,946.5,0.7853,0.0733
3743.59,947.0,0.7856,0.0719
3746.63,947.5,0.7866,0.0729
3749.66,948.0,0.7866,0.0709
3752.7,948.5,0.7853,0.0709
3755.72,949.0,0.784,0.0716
3758.75,949.5,0.784,0.0773
3761.79,950.0,0.784,0.074
3764.81,950.5,0.784,0.0751
3767.85,951.0,0.784,0.0751
3770.87,951.5,0.7827,0.0755
3773.89,952.0,0.7824,0.0746
3776.92,952.5,0.781,0.0758
3779.95,953.0,0.7824,0.0769
3782.98,953.5,0.7821,0.0757
3786.02,954.0,0.7823,0.0764
3789.05,954.5,0.7823,0.0764
3792.09,955.0,0.7822,0.0761
3795.12,955.5,0.7823,0.0763
3798.16,956.0,0.7823,0.0761
3801.2,956.5,0.781,0.0771
3804.22,957.0,0.781,0.0763
3807.25,957.5,0.7823,0.0779
3810.27,958.0,0.7823,0.0764
3813.3,958.5,0.7823,0.0762
3816.34,959.0,0.781,0.0746
3819.38,959.5,0.781,0.0748
3822.42,960.0,0.781,0.0764
3825.45,960.5,0.7808,0.0744
3828.47,961.0,0.78,0.075
3831.5,961.5,0.7784,0.0762
3834.53,962.0,0.7785,0.0786
3837.56,962.5,0.7792,0.0791
3840.59,963.0,0.7795,0.0779
3843.63,963.5,0.7782,0.0769
3846.66,964.0,0.7794,0.075
3849.69,964.5,0.7795,0.0768
3852.74,965.0,0.7795,0.0752
3855.77,965.5,0.7795,0.0732
3858.81,966.0,0.7781,0.0765
3861.85,966.5,0.7781,0.0781
3864.89,967.0,0.7777,0.0738
3867.94,967.5,0.7737,0.0724
3870.98,968.0,0.7742,0.0704
3874.03,968.5,0.7766,0.0701
3877.07,969.0,0.7767,0.0705
3880.1,969.5,0.7767,0.0696
3883.13,970.0,0.7767,0.0693
3886.16,970.5,0.7767,0.067
3889.18,971.0,0.7767,0.0678
3892.21,971.5,0.7764,0.0698
3895.24,972.0,0.7754,0.0723
3898.27,972.5,0.7754,0.0699
3901.3,973.0,0.7754,0.0671
3904.33,973.5,0.7759,0.0682
3907.36,974.0,0.7761,0.0691
3910.38,974.5,0.7747,0.0705
3913.42,975.0,0.7747,0.069
3916.45,975.5,0.7747,0.0682
3919.48,976.0,0.7747,0.0699
3922.52,976.5,0.7754,0.0702
3925.56,977.0,0.7743,0.0736
3928.59,977.5,0.7741,0.0712
3931.63,978.0,0.7741,0.0741
3934.65,978.5,0.7741,0.0744
3937.67,979.0,0.7741,0.0707
3940.7,979.5,0.7728,0.072
3943.73,980.0,0.7738,0.0718
3946.77,980.5,0.7741,0.0694
3949.79,981.0,0.7741,0.0697
3952.82,981.5,0.7741,0.0719
3955.83,982.0,0.7728,0.0722
3958.86,982.5,0.7714,0.0723
3961.9,983.0,0.7715,0.0734
3964.93,983.5,0.7714,0.0714
3967.97,984.0,0.7715,0.0679
3971.01,984.5,0.7714,0.0728
3974.04,985.0,0.7715,0.0723
3977.05,985.5,0.7715,0.0748
3980.08,986.0,0.7714,0.0762
3983.11,986.5,0.7714,0.0758
3986.13,987.0,0.7715,0.0757
3989.15,987.5,0.7714,0.0759
3992.19,988.0,0.7701,0.0741
3995.23,988.5,0.7701,0.0739
3998.28,989.0,0.7711,0.0794
4001.35,989.5,0.7711,0.0779
4004.4,990.0,0.7711,0.077
4007.45,990.5,0.7711,0.0805
4010.5,991.0,0.7698,0.0791
4013.55,991.5,0.7698,0.0802
4016.6,992.0,0.7698,0.0805
4019.65,992.5,0.7698,0.0797
4022.7,993.0,0.7701,0.0793
4025.74,993.5,0.7691,0.0796
4028.79,994.0,0.7705,0.0843
4031.83,994.5,0.7705,0.0813
4034.87,995.0,0.7701,0.0836
4037.92,995.5,0.7701,0.0809
4040.95,996.0,0.7698,0.0837
4043.98,996.5,0.7695,0.0864
4047,997.0,0.7688,0.0851
4050.03,997.5,0.7677,0.0835
4053.07,998.0,0.7675,0.0856
4056.11,998.5,0.7661,0.0863
4059.17,999.0,0.7662,0.0864
4062.21,999.5,0.7671,0.084
4065.26,1000.0,0.7672,0.0828
4068.3,1000.5,0.7672,0.0819
4071.34,1001.0,0.7684,0.0803
4074.38,1001.5,0.7672,0.0809
4077.42,1002.0,0.7672,0.0821
4080.46,1002.5,0.7684,0.0812
4083.5,1003.0,0.7685,0.0803
4086.54,1003.5,0.7685,0.0801
4089.59,1004.0,0.7659,0.0838
4092.64,1004.5,0.7658,0.0827
4095.69,1005.0,0.7659,0.0844
4098.74,1005.5,0.7649,0.0839
4101.78,1006.0,0.7649,0.0847
4104.83,1006.5,0.7662,0.0847
4107.87,1007.0,0.7662,0.0859
4110.91,1007.5,0.7662,0.0835
4113.96,1008.0,0.7662,0.085
4117,1008.5,0.7662,0.084
4120.03,1009.0,0.7659,0.0875
4123.07,1009.5,0.7659,0.0876
4126.11,1010.0,0.7652,0.0845
4129.15,1010.5,0.7645,0.0843
4132.19,1011.0,0.7645,0.0842
4135.23,1011.5,0.7646,0.0867
4138.26,1012.0,0.7632,0.085
4141.31,1012.5,0.7632,0.084
4144.36,1013.0,0.7632,0.0838
4147.39,1013.5,0.7639,0.0885
4150.44,1014.0,0.7632,0.0877
4153.48,1014.5,0.7632,0.0895
4156.52,1015.0,0.7632,0.0892
4159.57,1015.5,0.7632,0.0855
4162.61,1016.0,0.7645,0.0901
4165.66,1016.5,0.7645,0.0919
4168.71,1017.0,0.7645,0.0885
4171.75,1017.5,0.7637,0.0913
4174.8,1018.0,0.7632,0.0949
4177.83,1018.5,0.7619,0.0959
4180.86,1019.0,0.7623,0.0945
4183.9,1019.5,0.7632,0.0923
4186.92,1020.0,0.7632,0.0927
4189.96,1020.5,0.7619,0.0926
4192.99,1021.0,0.7619,0.0939
4196.02,1021.5,0.7619,0.0921
4199.06,1022.0,0.7612,0.0926
4202.08,1022.5,0.7606,0.091
4205.11,1023.0,0.7606,0.0914
4208.14,1023.5,0.7599,0.091
4211.17,1024.0,0.7599,0.0935
4214.22,1024.5,0.7612,0.0944
4217.27,1025.0,0.7606,0.0955
4220.32,1025.5,0.7593,0.0934
4223.36,1026.0,0.7593,0.0976
4226.39,1026.5,0.76,0.0942
4229.42,1027.0,0.7602,0.098
4232.46,1027.5,0.7589,0.0979
4235.49,1028.0,0.7589,0.0995
4238.53,1028.5,0.7589,0.0969
4241.58,1029.0,0.7589,0.0978
4244.61,1029.5,0.7602,0.0979
4247.64,1030.0,0.7603,0.096
4250.68,1030.5,0.7593,0.0986
4253.72,1031.0,0.758,0.0961
4256.76,1031.5,0.7593,0.0951
4259.81,1032.0,0.758,0.0924
4262.85,1032.5,0.7564,0.0962
4265.89,1033.0,0.7565,0.1016
4268.92,1033.5,0.7577,0.0984
4271.96,1034.0,0.7591,0.0986
4274.99,1034.5,0.759,0.1005
4278.02,1035.0,0.7603,0.1017
4281.07,1035.5,0.7604,0.1011
4284.12,1036.0,0.7603,0.1032
4287.17,1036.5,0.759,0.1028
4290.22,1037.0,0.759,0.1021
4293.26,1037.5,0.7577,0.103
4296.32,1038.0,0.7577,0.1024
4299.37,1038.5,0.7587,0.1047
4302.43,1039.0,0.7587,0.1071
4305.48,1039.5,0.7574,0.1074
4308.54,1040.0,0.7574,0.1092
4311.6,1040.5,0.756,0.1092
4314.64,1041.0,0.7561,0.1113
4317.71,1041.5,0.7566,0.1126
4320.77,1042.0,0.7561,0.1151
4323.82,1042.5,0.7561,0.1109
4326.9,1043.0,0.7561,0.1141
4329.97,1043.5,0.7561,0.1154
4333.03,1044.0,0.7561,0.115
4336.11,1044.5,0.7547,0.1159
4339.18,1045.0,0.7548,0.1195
4342.25,1045.5,0.7547,0.1195
4345.31,1046.0,0.7561,0.1165
4348.37,1046.5,0.7561,0.1182
4351.43,1047.0,0.7561,0.1161
4354.48,1047.5,0.7548,0.1148
4357.53,1048.0,0.7547,0.1166
4360.58,1048.5,0.7561,0.1149
4363.64,1049.0,0.7548,0.113
4366.69,1049.5,0.7548,0.1199
4369.75,1050.0,0.7548,0.1206
4372.82,1050.5,0.7561,0.1189
4375.88,1051.0,0.7561,0.1184
4378.95,1051.5,0.7541,0.1206
4382.02,1052.0,0.7541,0.124
4385.08,1052.5,0.7541,0.119
4388.14,1053.0,0.7541,0.1198
4391.2,1053.5,0.754,0.1242
4394.25,1054.0,0.7534,0.1227
4397.31,1054.5,0.7534,0.1206
4400.37,1055.0,0.7528,0.123
4403.42,1055.5,0.7541,0.1213
4406.48,1056.0,0.7542,0.1204
4409.53,1056.5,0.7521,0.1194
4412.59,1057.0,0.7521,0.1228
4415.67,1057.5,0.7522,0.1216
4418.73,1058.0,0.7534,0.1231
4421.8,1058.5,0.7531,0.1263
4424.88,1059.0,0.7521,0.127
4427.95,1059.5,0.7521,0.129
4431.01,1060.0,0.7521,0.1329
4434.09,1060.5,0.7521,0.1312
4437.15,1061.0,0.7521,0.1322
4440.2,1061.5,0.7518,0.1288
4443.25,1062.0,0.7511,0.1324
4446.31,1062.5,0.7505,0.135
4449.35,1063.0,0.7518,0.1383
4452.4,1063.5,0.7522,0.1309
4455.44,1064.0,0.7521,0.1358
4458.49,1064.5,0.7521,0.1364
4461.54,1065.0,0.7521,0.1367
4464.6,1065.5,0.7507,0.1364
4467.66,1066.0,0.7508,0.1362
4470.71,1066.5,0.7508,0.138
4473.76,1067.0,0.7508,0.1338
4476.81,1067.5,0.7508,0.137
4479.86,1068.0,0.7508,0.1369
4482.92,1068.5,0.7508,0.1339
4485.98,1069.0,0.7495,0.1321
4489.05,1069.5,0.7495,0.1324
4492.09,1070.0,0.7503,0.132