File: Wood/Calibration_Data/FSRI/FSRI_DSC_N2_30K_R3.csv
Time (s),Temperature (K),Heat Flow Rate (W/g)
0,325.0,6.68E-03
13.497,325.5,3.78E-02
20.4282,326.0,6.38E-02
25.5186,326.5,8.77E-02
29.7162,327.0,1.08E-01
33.3696,327.5,1.26E-01
36.675,328.0,1.44E-01
39.6204,328.5,1.60E-01
42.3984,329.0,1.77E-01
45.0966,329.5,1.93E-01
47.5632,330.0,2.06E-01
49.8996,330.5,2.16E-01
52.1424,331.0,2.32E-01
54.3012,331.5,2.44E-01
56.3808,332.0,2.56E-01
58.38,332.5,2.66E-01
60.3348,333.0,2.77E-01
62.2458,333.5,2.88E-01
64.0824,334.0,2.97E-01
65.8674,334.5,3.05E-01
67.6104,335.0,3.18E-01
69.3252,335.5,3.27E-01
71.019,336.0,3.34E-01
72.6822,336.5,3.44E-01
74.3226,337.0,3.51E-01
75.9396,337.5,3.60E-01
77.5158,338.0,3.68E-01
79.0776,338.5,3.75E-01
80.6172,339.0,3.85E-01
82.1352,339.5,3.90E-01
83.643,340.0,3.98E-01
85.1052,340.5,4.04E-01
86.5734,341.0,4.13E-01
88.0206,341.5,4.18E-01
89.4672,342.0,4.26E-01
90.8886,342.5,4.32E-01
92.2914,343.0,4.38E-01
93.687,343.5,4.43E-01
95.0652,344.0,4.51E-01
96.4434,344.5,4.56E-01
97.806,345.0,4.62E-01
99.1596,345.5,4.68E-01
100.5108,346.0,4.73E-01
101.826,346.5,4.76E-01
103.1544,347.0,4.83E-01
104.4744,347.5,4.90E-01
105.777,348.0,4.94E-01
107.1,348.5,5.00E-01
108.4002,349.0,5.04E-01
109.692,349.5,5.08E-01
110.9796,350.0,5.17E-01
112.2558,350.5,5.20E-01
113.526,351.0,5.25E-01
114.7842,351.5,5.31E-01
116.031,352.0,5.36E-01
117.2802,352.5,5.41E-01
118.521,353.0,5.45E-01
119.7636,353.5,5.48E-01
120.9972,354.0,5.54E-01
122.2278,354.5,5.57E-01
123.4422,355.0,5.61E-01
124.665,355.5,5.64E-01
125.883,356.0,5.70E-01
127.0944,356.5,5.72E-01
128.301,357.0,5.78E-01
129.5022,357.5,5.82E-01
130.6902,358.0,5.86E-01
131.8848,358.5,5.91E-01
133.0722,359.0,5.96E-01
134.2626,359.5,6.00E-01
135.4446,360.0,6.02E-01
136.6248,360.5,6.08E-01
137.796,361.0,6.11E-01
138.963,361.5,6.16E-01
140.1228,362.0,6.19E-01
141.2796,362.5,6.22E-01
142.4316,363.0,6.26E-01
143.5812,363.5,6.29E-01
144.7284,364.0,6.33E-01
145.8768,364.5,6.36E-01
147.0228,365.0,6.40E-01
148.1598,365.5,6.42E-01
149.2968,366.0,6.46E-01
150.4362,366.5,6.50E-01
151.5696,367.0,6.55E-01
152.7,367.5,6.57E-01
153.8292,368.0,6.61E-01
154.9524,368.5,6.63E-01
156.0714,369.0,6.68E-01
157.1862,369.5,6.72E-01
158.2998,370.0,6.76E-01
159.411,370.5,6.76E-01
160.5198,371.0,6.78E-01
161.6226,371.5,6.81E-01
162.7182,372.0,6.85E-01
163.8252,372.5,6.88E-01
164.931,373.0,6.92E-01
166.0344,373.5,6.95E-01
167.1354,374.0,6.96E-01
168.2448,374.5,6.99E-01
169.3368,375.0,7.01E-01
170.427,375.5,7.04E-01
171.516,376.0,7.07E-01
172.6044,376.5,7.09E-01
173.6886,377.0,7.10E-01
174.774,377.5,7.11E-01
175.8522,378.0,7.14E-01
176.9352,378.5,7.16E-01
178.0188,379.0,7.19E-01
179.0994,379.5,7.19E-01
180.1656,380.0,7.22E-01
181.2438,380.5,7.25E-01
182.3244,381.0,7.24E-01
183.3966,381.5,7.27E-01
184.4706,382.0,7.28E-01
185.5548,382.5,7.30E-01
186.6234,383.0,7.33E-01
187.689,383.5,7.34E-01
188.754,384.0,7.36E-01
189.8124,384.5,7.36E-01
190.8768,385.0,7.35E-01
191.9406,385.5,7.36E-01
192.9984,386.0,7.39E-01
194.0628,386.5,7.40E-01
195.1152,387.0,7.41E-01
196.1694,387.5,7.41E-01
197.2272,388.0,7.41E-01
198.2856,388.5,7.42E-01
199.3368,389.0,7.42E-01
200.4048,389.5,7.41E-01
201.4602,390.0,7.43E-01
202.512,390.5,7.43E-01
203.5614,391.0,7.43E-01
204.609,391.5,7.43E-01
205.6506,392.0,7.45E-01
206.6958,392.5,7.44E-01
207.741,393.0,7.45E-01
208.7844,393.5,7.45E-01
209.8224,394.0,7.46E-01
210.8646,394.5,7.47E-01
211.902,395.0,7.46E-01
212.94,395.5,7.48E-01
213.9732,396.0,7.46E-01
215.0118,396.5,7.47E-01
216.045,397.0,7.47E-01
217.0758,397.5,7.47E-01
218.1048,398.0,7.50E-01
219.1368,398.5,7.50E-01
220.1688,399.0,7.49E-01
221.1948,399.5,7.49E-01
222.2244,400.0,7.49E-01
223.2504,400.5,7.48E-01
224.2716,401.0,7.51E-01
225.288,401.5,7.51E-01
226.308,402.0,7.52E-01
227.3226,402.5,7.53E-01
228.336,403.0,7.52E-01
229.3488,403.5,7.54E-01
230.361,404.0,7.55E-01
231.3714,404.5,7.57E-01
232.3824,405.0,7.57E-01
233.3928,405.5,7.56E-01
234.405,406.0,7.56E-01
235.416,406.5,7.58E-01
236.4222,407.0,7.58E-01
237.4278,407.5,7.60E-01
238.4304,408.0,7.61E-01
239.4318,408.5,7.63E-01
240.4302,409.0,7.62E-01
241.4286,409.5,7.63E-01
242.4306,410.0,7.64E-01
243.4302,410.5,7.66E-01
244.4262,411.0,7.68E-01
245.4234,411.5,7.67E-01
246.4176,412.0,7.71E-01
247.4064,412.5,7.72E-01
248.388,413.0,7.71E-01
249.3828,413.5,7.73E-01
250.3722,414.0,7.75E-01
251.358,414.5,7.75E-01
252.3366,415.0,7.76E-01
253.3344,415.5,7.80E-01
254.325,416.0,7.80E-01
255.3054,416.5,7.82E-01
256.2882,417.0,7.82E-01
257.2794,417.5,7.84E-01
258.2598,418.0,7.86E-01
259.2378,418.5,7.88E-01
260.2152,419.0,7.89E-01
261.1956,419.5,7.91E-01
262.1742,420.0,7.92E-01
263.1504,420.5,7.93E-01
264.1278,421.0,7.93E-01
265.1046,421.5,7.99E-01
266.0814,422.0,7.98E-01
267.0546,422.5,7.99E-01
268.0272,423.0,8.02E-01
269.001,423.5,8.03E-01
269.9706,424.0,8.04E-01
270.9366,424.5,8.06E-01
271.9044,425.0,8.10E-01
272.8722,425.5,8.13E-01
273.8424,426.0,8.14E-01
274.8042,426.5,8.15E-01
275.7714,427.0,8.17E-01
276.7392,427.5,8.16E-01
277.7052,428.0,8.18E-01
278.6664,428.5,8.19E-01
279.6312,429.0,8.20E-01
280.5978,429.5,8.23E-01
281.5536,430.0,8.27E-01
282.5046,430.5,8.28E-01
283.461,431.0,8.31E-01
284.4216,431.5,8.32E-01
285.3834,432.0,8.35E-01
286.3416,432.5,8.35E-01
287.3088,433.0,8.37E-01
288.2778,433.5,8.39E-01
289.2342,434.0,8.37E-01
290.187,434.5,8.39E-01
291.1428,435.0,8.41E-01
292.0968,435.5,8.44E-01
293.0514,436.0,8.47E-01
294.006,436.5,8.46E-01
294.9588,437.0,8.48E-01
295.9152,437.5,8.50E-01
296.8656,438.0,8.52E-01
297.81,438.5,8.55E-01
298.7634,439.0,8.56E-01
299.7132,439.5,8.59E-01
300.6672,440.0,8.61E-01
301.6164,440.5,8.62E-01
302.571,441.0,8.63E-01
303.5268,441.5,8.65E-01
304.4754,442.0,8.68E-01
305.4246,442.5,8.70E-01
306.3666,443.0,8.73E-01
307.3044,443.5,8.75E-01
308.25,444.0,8.77E-01
309.1908,444.5,8.79E-01
310.1358,445.0,8.81E-01
311.0796,445.5,8.82E-01
312.0318,446.0,8.85E-01
312.9816,446.5,8.86E-01
313.9224,447.0,8.89E-01
314.8674,447.5,8.91E-01
315.8064,448.0,8.93E-01
316.7424,448.5,8.94E-01
317.6802,449.0,8.97E-01
318.6186,449.5,8.99E-01
319.5588,450.0,9.01E-01
320.4948,450.5,9.04E-01
321.4344,451.0,9.06E-01
322.374,451.5,9.10E-01
323.3058,452.0,9.09E-01
324.2412,452.5,9.11E-01
325.1766,453.0,9.12E-01
326.1114,453.5,9.16E-01
327.0438,454.0,9.19E-01
327.9762,454.5,9.20E-01
328.9116,455.0,9.22E-01
329.8392,455.5,9.24E-01
330.7662,456.0,9.27E-01
331.6944,456.5,9.27E-01
332.6184,457.0,9.30E-01
333.543,457.5,9.31E-01
334.4664,458.0,9.33E-01
335.3922,458.5,9.35E-01
336.318,459.0,9.37E-01
337.2426,459.5,9.39E-01
338.1702,460.0,9.42E-01
339.096,460.5,9.43E-01
340.0206,461.0,9.46E-01
340.9476,461.5,9.46E-01
341.8614,462.0,9.49E-01
342.774,462.5,9.53E-01
343.683,463.0,9.52E-01
344.5944,463.5,9.55E-01
345.5154,464.0,9.58E-01
346.4316,464.5,9.61E-01
347.3568,465.0,9.62E-01
348.2802,465.5,9.64E-01
349.2084,466.0,9.66E-01
350.1306,466.5,9.68E-01
351.0456,467.0,9.69E-01
351.9636,467.5,9.72E-01
352.8792,468.0,9.75E-01
353.7966,468.5,9.77E-01
354.714,469.0,9.79E-01
355.6344,469.5,9.81E-01
356.5494,470.0,9.83E-01
357.4662,470.5,9.87E-01
358.3842,471.0,9.89E-01
359.2992,471.5,9.92E-01
360.2112,472.0,9.91E-01
361.122,472.5,9.94E-01
362.034,473.0,9.97E-01
362.9394,473.5,1.00E+00
363.8442,474.0,1.00E+00
364.7514,474.5,1.00E+00
365.6574,475.0,1.01E+00
366.5628,475.5,1.01E+00
367.4688,476.0,1.01E+00
368.3778,476.5,1.01E+00
369.2946,477.0,1.02E+00
370.2102,477.5,1.02E+00
371.1252,478.0,1.02E+00
372.0366,478.5,1.02E+00
372.9474,479.0,1.03E+00
373.8666,479.5,1.03E+00
374.775,480.0,1.03E+00
375.6828,480.5,1.03E+00
376.5942,481.0,1.04E+00
377.5044,481.5,1.04E+00
378.4164,482.0,1.04E+00
379.3218,482.5,1.04E+00
380.2314,483.0,1.04E+00
381.1386,483.5,1.04E+00
382.0428,484.0,1.04E+00
382.9506,484.5,1.05E+00
383.856,485.0,1.05E+00
384.7626,485.5,1.05E+00
385.668,486.0,1.05E+00
386.5746,486.5,1.06E+00
387.4788,487.0,1.06E+00
388.3854,487.5,1.06E+00
389.2902,488.0,1.06E+00
390.1938,488.5,1.06E+00
391.095,489.0,1.07E+00
391.998,489.5,1.07E+00
392.9046,490.0,1.07E+00
393.8094,490.5,1.07E+00
394.7142,491.0,1.07E+00
395.6184,491.5,1.08E+00
396.5268,492.0,1.08E+00
397.4304,492.5,1.08E+00
398.3316,493.0,1.08E+00
399.2262,493.5,1.08E+00
400.1238,494.0,1.09E+00
401.025,494.5,1.09E+00
401.9268,495.0,1.09E+00
402.828,495.5,1.09E+00
403.7292,496.0,1.09E+00
404.637,496.5,1.09E+00
405.5376,497.0,1.09E+00
406.4382,497.5,1.10E+00
407.3358,498.0,1.10E+00
408.2364,498.5,1.10E+00
409.1364,499.0,1.10E+00
410.037,499.5,1.10E+00
410.943,500.0,1.11E+00
411.8424,500.5,1.11E+00
412.7412,501.0,1.11E+00
413.6394,501.5,1.11E+00
414.54,502.0,1.12E+00
415.4388,502.5,1.12E+00
416.3334,503.0,1.12E+00
417.2316,503.5,1.12E+00
418.1292,504.0,1.12E+00
419.0274,504.5,1.13E+00
419.9262,505.0,1.13E+00
420.8244,505.5,1.13E+00
421.7232,506.0,1.13E+00
422.6238,506.5,1.13E+00
423.5232,507.0,1.13E+00
424.422,507.5,1.14E+00
425.3172,508.0,1.14E+00
426.2154,508.5,1.14E+00
427.113,509.0,1.14E+00
428.0082,509.5,1.14E+00
428.904,510.0,1.14E+00
429.7992,510.5,1.14E+00
430.6956,511.0,1.15E+00
431.592,511.5,1.15E+00
432.4866,512.0,1.15E+00
433.3842,512.5,1.15E+00
434.2836,513.0,1.15E+00
435.1806,513.5,1.15E+00
436.0746,514.0,1.15E+00
436.9602,514.5,1.15E+00
437.853,515.0,1.15E+00
438.7476,515.5,1.15E+00
439.6386,516.0,1.15E+00
440.5326,516.5,1.16E+00
441.4284,517.0,1.16E+00
442.3314,517.5,1.16E+00
443.2296,518.0,1.16E+00
444.1218,518.5,1.16E+00
445.0146,519.0,1.16E+00
445.9092,519.5,1.16E+00
446.7996,520.0,1.16E+00
447.6924,520.5,1.17E+00
448.584,521.0,1.17E+00
449.4696,521.5,1.17E+00
450.3564,522.0,1.17E+00
451.2444,522.5,1.17E+00
452.1408,523.0,1.17E+00
453.0342,523.5,1.17E+00
453.9294,524.0,1.17E+00
454.8312,524.5,1.17E+00
455.7318,525.0,1.17E+00
456.63,525.5,1.17E+00
457.5216,526.0,1.18E+00
458.4162,526.5,1.18E+00
459.3078,527.0,1.17E+00
460.1982,527.5,1.18E+00
461.0898,528.0,1.18E+00
461.9808,528.5,1.17E+00
462.8706,529.0,1.18E+00
463.7586,529.5,1.18E+00
464.6502,530.0,1.18E+00
465.543,530.5,1.18E+00
466.4352,531.0,1.18E+00
467.3268,531.5,1.18E+00
468.2196,532.0,1.18E+00
469.1148,532.5,1.18E+00
470.0046,533.0,1.18E+00
470.8968,533.5,1.18E+00
471.7866,534.0,1.18E+00
472.6776,534.5,1.18E+00
473.565,535.0,1.18E+00
474.4554,535.5,1.18E+00
475.3476,536.0,1.18E+00
476.2374,536.5,1.18E+00
477.1284,537.0,1.18E+00
478.0194,537.5,1.18E+00
478.9092,538.0,1.18E+00
479.8008,538.5,1.18E+00
480.6882,539.0,1.18E+00
481.5774,539.5,1.18E+00
482.466,540.0,1.18E+00
483.3486,540.5,1.18E+00
484.2336,541.0,1.18E+00
485.1162,541.5,1.18E+00
485.9988,542.0,1.18E+00
486.882,542.5,1.18E+00
487.7664,543.0,1.18E+00
488.6532,543.5,1.18E+00
489.5442,544.0,1.18E+00
490.4328,544.5,1.18E+00
491.3268,545.0,1.18E+00
492.2262,545.5,1.18E+00
493.1238,546.0,1.18E+00
494.025,546.5,1.18E+00
494.9202,547.0,1.18E+00
495.816,547.5,1.18E+00
496.71,548.0,1.18E+00
497.5974,548.5,1.18E+00
498.4872,549.0,1.18E+00
499.3752,549.5,1.18E+00
500.2668,550.0,1.17E+00
501.1578,550.5,1.17E+00
502.0464,551.0,1.17E+00
502.935,551.5,1.17E+00
503.8224,552.0,1.17E+00
504.7122,552.5,1.17E+00
505.6002,553.0,1.17E+00
506.49,553.5,1.17E+00
507.3816,554.0,1.17E+00
508.2744,554.5,1.17E+00
509.1648,555.0,1.17E+00
510.0546,555.5,1.17E+00
510.9468,556.0,1.17E+00
511.8396,556.5,1.17E+00
512.7294,557.0,1.17E+00
513.6114,557.5,1.17E+00
514.4934,558.0,1.17E+00
515.3778,558.5,1.17E+00
516.2682,559.0,1.17E+00
517.1556,559.5,1.17E+00
518.0448,560.0,1.17E+00
518.9436,560.5,1.17E+00
519.8412,561.0,1.17E+00
520.7376,561.5,1.17E+00
521.6268,562.0,1.16E+00
522.5208,562.5,1.16E+00
523.4112,563.0,1.16E+00
524.2998,563.5,1.16E+00
525.1854,564.0,1.16E+00
526.0758,564.5,1.16E+00
526.965,565.0,1.16E+00
527.853,565.5,1.16E+00
528.741,566.0,1.16E+00
529.6296,566.5,1.16E+00
530.5248,567.0,1.16E+00
531.4134,567.5,1.16E+00
532.3026,568.0,1.16E+00
533.1918,568.5,1.16E+00
534.0864,569.0,1.16E+00
534.9822,569.5,1.16E+00
535.8738,570.0,1.16E+00
536.7666,570.5,1.16E+00
537.6618,571.0,1.16E+00
538.5552,571.5,1.16E+00
539.445,572.0,1.16E+00
540.3342,572.5,1.16E+00
541.2252,573.0,1.16E+00
542.1168,573.5,1.16E+00
543.0066,574.0,1.16E+00
543.8964,574.5,1.16E+00
544.7856,575.0,1.16E+00
545.676,575.5,1.16E+00
546.5658,576.0,1.16E+00
547.4592,576.5,1.16E+00
548.3502,577.0,1.16E+00
549.2454,577.5,1.16E+00
550.1376,578.0,1.16E+00
551.031,578.5,1.16E+00
551.9244,579.0,1.16E+00
552.8154,579.5,1.16E+00
553.7082,580.0,1.16E+00
554.5986,580.5,1.16E+00
555.4926,581.0,1.16E+00
556.386,581.5,1.16E+00
557.2782,582.0,1.16E+00
558.1704,582.5,1.16E+00
559.0632,583.0,1.16E+00
559.9566,583.5,1.16E+00
560.85,584.0,1.16E+00
561.7428,584.5,1.16E+00
562.632,585.0,1.16E+00
563.5182,585.5,1.16E+00
564.405,586.0,1.16E+00
565.2972,586.5,1.17E+00
566.1894,587.0,1.17E+00
567.0816,587.5,1.17E+00
567.9744,588.0,1.17E+00
568.8714,588.5,1.17E+00
569.7708,589.0,1.17E+00
570.6636,589.5,1.17E+00
571.5564,590.0,1.17E+00
572.4486,590.5,1.18E+00
573.3462,591.0,1.18E+00
574.239,591.5,1.18E+00
575.1336,592.0,1.18E+00
576.027,592.5,1.19E+00
576.9198,593.0,1.19E+00
577.815,593.5,1.19E+00
578.7096,594.0,1.19E+00
579.6078,594.5,1.19E+00
580.5024,595.0,1.19E+00
581.3982,595.5,1.20E+00
582.294,596.0,1.20E+00
583.1862,596.5,1.20E+00
584.0778,597.0,1.20E+00
584.9718,597.5,1.21E+00
585.8652,598.0,1.21E+00
586.761,598.5,1.21E+00
587.6538,599.0,1.21E+00
588.5508,599.5,1.22E+00
589.449,600.0,1.22E+00
590.3466,600.5,1.22E+00
591.2412,601.0,1.23E+00
592.1364,601.5,1.23E+00
593.0346,602.0,1.23E+00
593.931,602.5,1.23E+00
594.8256,603.0,1.23E+00
595.7214,603.5,1.24E+00
596.6196,604.0,1.24E+00
597.516,604.5,1.24E+00
598.4112,605.0,1.25E+00
599.3076,605.5,1.25E+00
600.2058,606.0,1.25E+00
601.1034,606.5,1.26E+00
602.0016,607.0,1.26E+00
602.901,607.5,1.26E+00
603.8004,608.0,1.27E+00
604.6974,608.5,1.27E+00
605.589,609.0,1.27E+00
606.4788,609.5,1.28E+00
607.3752,610.0,1.28E+00
608.2752,610.5,1.28E+00
609.1758,611.0,1.29E+00
610.0782,611.5,1.29E+00
610.9872,612.0,1.29E+00
611.8956,612.5,1.30E+00
612.7974,613.0,1.30E+00
613.6962,613.5,1.30E+00
614.595,614.0,1.31E+00
615.4932,614.5,1.31E+00
616.3914,615.0,1.32E+00
617.2896,615.5,1.32E+00
618.1884,616.0,1.33E+00
619.0878,616.5,1.33E+00
619.9872,617.0,1.33E+00
620.8884,617.5,1.34E+00
621.7902,618.0,1.34E+00
622.6938,618.5,1.35E+00
623.5944,619.0,1.35E+00
624.495,619.5,1.35E+00
625.3968,620.0,1.35E+00
626.2992,620.5,1.36E+00
627.1986,621.0,1.36E+00
628.098,621.5,1.37E+00
629.0004,622.0,1.37E+00
629.9046,622.5,1.37E+00
630.8064,623.0,1.37E+00
631.7082,623.5,1.37E+00
632.6112,624.0,1.37E+00
633.513,624.5,1.38E+00
634.4154,625.0,1.38E+00
635.3154,625.5,1.38E+00
636.2208,626.0,1.39E+00
637.1244,626.5,1.39E+00
638.0256,627.0,1.39E+00
638.9244,627.5,1.40E+00
639.828,628.0,1.40E+00
640.7328,628.5,1.40E+00
641.6346,629.0,1.41E+00
642.537,629.5,1.41E+00
643.4436,630.0,1.41E+00
644.355,630.5,1.41E+00
645.2616,631.0,1.42E+00
646.167,631.5,1.42E+00
647.0724,632.0,1.42E+00
647.9784,632.5,1.43E+00
648.8844,633.0,1.43E+00
649.791,633.5,1.43E+00
650.6982,634.0,1.44E+00
651.6066,634.5,1.44E+00
652.5144,635.0,1.45E+00
653.4228,635.5,1.45E+00
654.3348,636.0,1.46E+00
655.2438,636.5,1.47E+00
656.1522,637.0,1.47E+00
657.0612,637.5,1.48E+00
657.9726,638.0,1.48E+00
658.8828,638.5,1.49E+00
659.7924,639.0,1.50E+00
660.7026,639.5,1.50E+00
661.6122,640.0,1.51E+00
662.5224,640.5,1.52E+00
663.435,641.0,1.52E+00
664.347,641.5,1.53E+00
665.2596,642.0,1.54E+00
666.1746,642.5,1.55E+00
667.0926,643.0,1.56E+00
668.01,643.5,1.57E+00
668.925,644.0,1.58E+00
669.8382,644.5,1.59E+00
670.7532,645.0,1.60E+00
671.6688,645.5,1.61E+00
672.5844,646.0,1.62E+00
673.5006,646.5,1.64E+00
674.4186,647.0,1.65E+00
675.3414,647.5,1.66E+00
676.2618,648.0,1.67E+00
677.1834,648.5,1.68E+00
678.1044,649.0,1.70E+00
679.0296,649.5,1.71E+00
679.953,650.0,1.73E+00
680.8752,650.5,1.74E+00
681.7956,651.0,1.76E+00
682.7142,651.5,1.77E+00
683.6376,652.0,1.78E+00
684.5586,652.5,1.80E+00
685.4808,653.0,1.81E+00
686.4042,653.5,1.83E+00
687.3324,654.0,1.84E+00
688.2612,654.5,1.86E+00
689.1876,655.0,1.88E+00
690.114,655.5,1.89E+00
691.041,656.0,1.90E+00
691.9656,656.5,1.92E+00
692.8902,657.0,1.93E+00
693.8148,657.5,1.94E+00
694.7376,658.0,1.95E+00
695.6604,658.5,1.97E+00
696.588,659.0,1.98E+00
697.5144,659.5,1.99E+00
698.4402,660.0,2.00E+00
699.3648,660.5,2.01E+00
700.2876,661.0,2.01E+00
701.2122,661.5,2.02E+00
702.1302,662.0,2.02E+00
703.0488,662.5,2.03E+00
703.9692,663.0,2.03E+00
704.8878,663.5,2.03E+00
705.807,664.0,2.03E+00
706.7226,664.5,2.03E+00
707.6406,665.0,2.03E+00
708.5556,665.5,2.02E+00
709.47,666.0,2.01E+00
710.3814,666.5,2.00E+00
711.2832,667.0,1.98E+00
712.1856,667.5,1.97E+00
713.0922,668.0,1.95E+00
713.997,668.5,1.93E+00
714.9006,669.0,1.90E+00
715.8018,669.5,1.88E+00
716.7096,670.0,1.85E+00
717.6156,670.5,1.82E+00
718.515,671.0,1.78E+00
719.4126,671.5,1.74E+00
720.3006,672.0,1.71E+00
721.197,672.5,1.66E+00
722.0898,673.0,1.62E+00
722.9784,673.5,1.57E+00
723.8622,674.0,1.52E+00
724.7472,674.5,1.47E+00
725.64,675.0,1.42E+00
726.522,675.5,1.37E+00
727.4052,676.0,1.31E+00
728.2872,676.5,1.25E+00
729.1734,677.0,1.20E+00
730.0548,677.5,1.14E+00
730.9362,678.0,1.08E+00
731.8194,678.5,1.02E+00
732.7026,679.0,9.67E-01
733.5876,679.5,9.10E-01
734.4714,680.0,8.49E-01
735.3564,680.5,7.93E-01
736.2408,681.0,7.43E-01
737.1258,681.5,6.88E-01
738.0126,682.0,6.35E-01
738.8994,682.5,5.84E-01
739.7862,683.0,5.36E-01
740.6754,683.5,4.90E-01
741.5628,684.0,4.45E-01
742.4544,684.5,4.04E-01
743.3478,685.0,3.61E-01
744.2442,685.5,3.21E-01
745.143,686.0,2.84E-01
746.0448,686.5,2.54E-01
746.9514,687.0,2.24E-01
747.8574,687.5,1.94E-01
748.7652,688.0,1.67E-01
749.673,688.5,1.42E-01
750.5802,689.0,1.21E-01
751.491,689.5,1.03E-01
752.4006,690.0,8.74E-02
753.315,690.5,7.63E-02
754.2288,691.0,6.28E-02
755.1456,691.5,4.91E-02
756.066,692.0,3.77E-02
756.9864,692.5,2.98E-02
757.908,693.0,2.08E-02
758.8278,693.5,1.03E-02
759.7482,694.0,3.05E-03
760.6704,694.5,-5.95E-03
761.5914,695.0,-1.27E-02
762.513,695.5,-1.88E-02
763.4334,696.0,-2.16E-02
764.355,696.5,-2.93E-02
765.2772,697.0,-3.88E-02
766.1982,697.5,-4.66E-02
767.1198,698.0,-5.17E-02
768.0426,698.5,-5.79E-02
768.9696,699.0,-6.07E-02
769.893,699.5,-6.20E-02
770.8146,700.0,-6.42E-02
771.7428,700.5,-6.52E-02
772.6704,701.0,-6.97E-02
773.592,701.5,-7.81E-02
774.5112,702.0,-8.15E-02
775.4394,702.5,-8.56E-02
776.3706,703.0,-8.94E-02
777.2964,703.5,-9.34E-02
778.224,704.0,-9.63E-02
779.1552,704.5,-9.78E-02
780.0876,705.0,-1.00E-01
781.014,705.5,-1.04E-01
781.9392,706.0,-1.07E-01
782.8662,706.5,-1.11E-01
783.7944,707.0,-1.14E-01
784.7238,707.5,-1.17E-01
785.649,708.0,-1.20E-01
786.5796,708.5,-1.24E-01
787.5078,709.0,-1.28E-01
788.4366,709.5,-1.33E-01
789.3666,710.0,-1.35E-01
790.2942,710.5,-1.39E-01
791.226,711.0,-1.41E-01
792.1542,711.5,-1.46E-01
793.083,712.0,-1.47E-01
794.0124,712.5,-1.49E-01
794.9388,713.0,-1.52E-01
795.8718,713.5,-1.57E-01
796.8006,714.0,-1.61E-01
797.7306,714.5,-1.64E-01
798.6624,715.0,-1.64E-01
799.5918,715.5,-1.64E-01
800.5224,716.0,-1.67E-01
801.453,716.5,-1.73E-01
802.3824,717.0,-1.73E-01
803.3124,717.5,-1.75E-01
804.243,718.0,-1.78E-01
805.1748,718.5,-1.77E-01
806.1048,719.0,-1.80E-01
807.033,719.5,-1.82E-01
807.9636,720.0,-1.83E-01
808.8972,720.5,-1.86E-01
809.8266,721.0,-1.89E-01
810.7602,721.5,-1.91E-01
811.6932,722.0,-1.90E-01
812.628,722.5,-1.91E-01
813.5598,723.0,-1.92E-01
814.4922,723.5,-1.92E-01
815.4246,724.0,-1.92E-01
816.354,724.5,-1.95E-01
817.2882,725.0,-1.97E-01
818.22,725.5,-2.00E-01
819.1566,726.0,-1.99E-01
820.0908,726.5,-1.93E-01
821.0256,727.0,-1.92E-01
821.9634,727.5,-1.93E-01
822.8976,728.0,-1.95E-01
823.8318,728.5,-1.98E-01
824.7672,729.0,-1.95E-01
825.705,729.5,-1.94E-01
826.641,730.0,-1.96E-01
827.577,730.5,-1.97E-01
828.5142,731.0,-1.95E-01
829.4532,731.5,-1.90E-01
830.388,732.0,-1.88E-01
831.3258,732.5,-1.90E-01
832.26,733.0,-1.90E-01
833.199,733.5,-1.90E-01
834.1344,734.0,-1.89E-01
835.0716,734.5,-1.87E-01
836.0112,735.0,-1.85E-01
836.9508,735.5,-1.82E-01
837.8898,736.0,-1.81E-01
838.827,736.5,-1.80E-01
839.7678,737.0,-1.76E-01
840.705,737.5,-1.74E-01
841.6422,738.0,-1.70E-01
842.5842,738.5,-1.68E-01
843.5238,739.0,-1.66E-01
844.4646,739.5,-1.61E-01
845.403,740.0,-1.59E-01
846.3408,740.5,-1.56E-01
847.2852,741.0,-1.52E-01
848.2272,741.5,-1.51E-01
849.171,742.0,-1.46E-01
850.1124,742.5,-1.41E-01
851.0586,743.0,-1.36E-01
852.0066,743.5,-1.32E-01
852.9468,744.0,-1.29E-01
853.8864,744.5,-1.26E-01
854.8314,745.0,-1.23E-01
855.7758,745.5,-1.21E-01
856.7178,746.0,-1.13E-01
857.6586,746.5,-1.12E-01
858.6024,747.0,-1.08E-01
859.5444,747.5,-1.02E-01
860.4864,748.0,-9.69E-02
861.4302,748.5,-9.55E-02
862.3752,749.0,-9.25E-02
863.3196,749.5,-8.81E-02
864.267,750.0,-8.52E-02
865.2132,750.5,-8.06E-02
866.157,751.0,-7.63E-02
867.102,751.5,-7.23E-02
868.0434,752.0,-6.80E-02
868.9836,752.5,-6.33E-02
869.9202,753.0,-6.27E-02
870.8532,753.5,-5.97E-02
871.7952,754.0,-5.66E-02
872.7372,754.5,-5.20E-02
873.6846,755.0,-4.68E-02
874.6254,755.5,-3.71E-02
875.5788,756.0,-3.35E-02
876.534,756.5,-3.12E-02
877.4856,757.0,-2.96E-02
878.436,757.5,-2.78E-02
879.3882,758.0,-2.38E-02
880.3428,758.5,-2.30E-02
881.292,759.0,-1.65E-02
882.2364,759.5,-1.49E-02
883.182,760.0,-1.13E-02
884.1282,760.5,-8.56E-03
885.0756,761.0,-5.66E-03
886.0224,761.5,-3.24E-03
886.971,762.0,-1.17E-03
887.9196,762.5,-8.13E-04
888.8688,763.0,1.82E-03
889.8168,763.5,7.98E-03
890.7648,764.0,9.34E-03
891.7134,764.5,1.42E-02
892.6626,765.0,1.76E-02
893.613,765.5,2.17E-02
894.564,766.0,2.45E-02
895.5126,766.5,2.57E-02
896.4618,767.0,2.62E-02
897.4086,767.5,3.23E-02
898.356,768.0,3.18E-02
899.3022,768.5,3.51E-02
900.2496,769.0,3.66E-02
901.2,769.5,3.82E-02
902.1504,770.0,4.20E-02
903.1026,770.5,4.55E-02
904.0494,771.0,4.76E-02
904.9998,771.5,4.97E-02
905.9466,772.0,5.22E-02
906.888,772.5,5.45E-02
907.8306,773.0,5.63E-02
908.7756,773.5,5.90E-02
909.7296,774.0,5.92E-02
910.6782,774.5,5.93E-02
911.6364,775.0,6.15E-02
912.5952,775.5,6.29E-02
913.557,776.0,6.28E-02
914.511,776.5,6.31E-02
915.4656,777.0,6.46E-02
916.4166,777.5,6.29E-02
917.3694,778.0,6.21E-02
918.3204,778.5,6.35E-02
919.2714,779.0,6.29E-02
920.2218,779.5,6.43E-02
921.1758,780.0,6.33E-02
922.1286,780.5,6.68E-02
923.076,781.0,6.65E-02
924.027,781.5,6.84E-02
924.9828,782.0,6.87E-02
925.938,782.5,6.72E-02
926.8872,783.0,7.11E-02
927.84,783.5,7.50E-02
928.8006,784.0,7.36E-02
929.7546,784.5,7.43E-02
930.7044,785.0,7.77E-02
931.6572,785.5,7.58E-02
932.6064,786.0,7.56E-02
933.555,786.5,7.63E-02
934.5054,787.0,7.81E-02
935.4594,787.5,7.93E-02
936.4122,788.0,7.97E-02
937.3632,788.5,7.97E-02
938.3196,789.0,8.30E-02
939.2772,789.5,8.47E-02
940.2348,790.0,8.25E-02
941.1912,790.5,8.39E-02
942.147,791.0,8.64E-02
943.107,791.5,8.84E-02
944.0622,792.0,8.85E-02
945.0162,792.5,8.87E-02
945.969,793.0,8.83E-02
946.9236,793.5,8.82E-02
947.88,794.0,8.56E-02
948.8376,794.5,8.68E-02
949.7958,795.0,8.72E-02
950.748,795.5,8.78E-02
951.6954,796.0,8.85E-02
952.6518,796.5,9.21E-02
953.6058,797.0,9.46E-02
954.558,797.5,9.41E-02
955.5138,798.0,9.53E-02
956.4762,798.5,9.36E-02
957.4362,799.0,9.12E-02
958.3908,799.5,9.12E-02
959.3484,800.0,9.04E-02
960.3084,800.5,9.09E-02
961.2654,801.0,9.06E-02
962.223,801.5,9.11E-02
963.1788,802.0,9.35E-02
964.1334,802.5,9.61E-02
965.0886,803.0,9.62E-02
966.0456,803.5,9.92E-02
967.002,804.0,9.52E-02
967.9608,804.5,9.44E-02
968.9202,805.0,9.81E-02
969.8784,805.5,9.90E-02
970.8354,806.0,1.02E-01
971.7936,806.5,1.02E-01
972.75,807.0,9.96E-02
973.7064,807.5,1.01E-01
974.6634,808.0,1.03E-01
975.6252,808.5,1.05E-01
976.5822,809.0,1.05E-01
977.5398,809.5,1.05E-01
978.4998,810.0,1.04E-01
979.455,810.5,1.03E-01
980.4066,811.0,1.05E-01
981.3582,811.5,1.05E-01
982.3146,812.0,1.05E-01
983.265,812.5,1.05E-01
984.2202,813.0,1.03E-01
985.1784,813.5,1.05E-01
986.1384,814.0,1.03E-01
987.1026,814.5,1.04E-01
988.0668,815.0,1.05E-01
989.031,815.5,1.06E-01
989.9946,816.0,1.07E-01
990.9576,816.5,1.05E-01
991.92,817.0,1.01E-01
992.8794,817.5,9.95E-02
993.8382,818.0,1.02E-01
994.7952,818.5,1.04E-01
995.7534,819.0,1.05E-01
996.7128,819.5,1.07E-01
997.671,820.0,1.07E-01
998.628,820.5,1.05E-01
999.5856,821.0,1.07E-01
1000.548,821.5,1.06E-01
1001.51,822.0,1.06E-01
1002.46,822.5,1.05E-01
1003.41,823.0,1.06E-01
1004.37,823.5,1.02E-01
1005.33,824.0,1.03E-01
1006.3,824.5,1.01E-01
1007.26,825.0,9.77E-02
1008.22,825.5,1.01E-01
1009.191,826.0,1.06E-01
1010.15,826.5,1.05E-01
1011.11,827.0,1.05E-01
1012.074,827.5,1.05E-01
1013.04,828.0,1.03E-01
1014,828.5,1.04E-01
1014.97,829.0,1.04E-01
1015.932,829.5,1.05E-01
1016.9,830.0,1.05E-01
1017.86,830.5,1.03E-01
1018.81,831.0,1.04E-01
1019.78,831.5,1.04E-01
1020.74,832.0,1.06E-01
1021.7,832.5,1.06E-01
1022.66,833.0,1.06E-01
1023.62,833.5,1.03E-01
1024.58,834.0,1.01E-01
1025.54,834.5,1.01E-01
1026.51,835.0,1.03E-01
1027.47,835.5,1.03E-01
1028.43,836.0,1.05E-01
1029.4,836.5,1.05E-01
1030.359,837.0,1.04E-01
1031.32,837.5,1.04E-01
1032.29,838.0,1.03E-01
1033.25,838.5,1.04E-01
1034.22,839.0,1.03E-01
1035.18,839.5,1.02E-01
1036.14,840.0,1.04E-01
1037.1,840.5,1.03E-01
1038.066,841.0,1.01E-01
1039.03,841.5,1.01E-01
1039.99,842.0,1.00E-01
1040.96,842.5,9.95E-02
1041.92,843.0,9.67E-02
1042.89,843.5,9.68E-02
1043.85,844.0,9.72E-02
1044.81,844.5,9.70E-02
1045.773,845.0,9.69E-02
1046.73,845.5,9.55E-02
1047.696,846.0,9.61E-02
1048.66,846.5,9.54E-02
1049.62,847.0,9.73E-02
1050.58,847.5,9.79E-02
1051.54,848.0,9.82E-02
1052.51,848.5,9.59E-02
1053.47,849.0,9.51E-02
1054.44,849.5,9.52E-02
1055.4,850.0,9.46E-02
1056.366,850.5,9.54E-02
1057.326,851.0,9.38E-02
1058.29,851.5,9.34E-02
1059.25,852.0,9.31E-02
1060.22,852.5,9.35E-02
1061.18,853.0,9.12E-02
1062.15,853.5,9.24E-02
1063.11,854.0,9.39E-02
1064.073,854.5,9.40E-02
1065.04,855.0,9.26E-02
1066.01,855.5,9.29E-02
1066.97,856.0,9.15E-02
1067.94,856.5,9.24E-02
1068.9,857.0,9.16E-02
1069.869,857.5,9.33E-02
1070.83,858.0,9.17E-02
1071.8,858.5,9.14E-02
1072.77,859.0,8.93E-02
1073.73,859.5,8.90E-02
1074.699,860.0,8.85E-02
1075.67,860.5,8.93E-02
1076.63,861.0,9.13E-02
1077.59,861.5,8.94E-02
1078.56,862.0,8.96E-02
1079.52,862.5,9.04E-02
1080.49,863.0,9.05E-02
1081.45,863.5,9.16E-02
1082.42,864.0,9.35E-02
1083.39,864.5,8.83E-02
1084.36,865.0,9.16E-02
1085.32,865.5,9.06E-02
1086.29,866.0,8.98E-02
1087.26,866.5,8.88E-02
1088.23,867.0,9.07E-02
1089.2,867.5,9.03E-02
1090.16,868.0,9.12E-02
1091.12,868.5,8.93E-02
1092.09,869.0,9.03E-02
1093.05,869.5,8.96E-02
1094.02,870.0,8.82E-02
1094.98,870.5,8.79E-02
1095.95,871.0,8.76E-02
1096.923,871.5,8.91E-02
1097.89,872.0,8.80E-02
1098.86,872.5,8.91E-02
1099.83,873.0,8.90E-02
1100.802,873.5,8.80E-02
1101.77,874.0,8.61E-02
1102.74,874.5,8.76E-02
1103.71,875.0,8.71E-02
1104.67,875.5,8.70E-02
1105.64,876.0,8.91E-02
1106.61,876.5,8.48E-02
1107.58,877.0,8.80E-02
1108.54,877.5,8.72E-02
1109.51,878.0,8.66E-02
1110.48,878.5,8.62E-02
1111.446,879.0,8.47E-02
1112.42,879.5,8.37E-02
1113.39,880.0,8.36E-02
1114.365,880.5,8.31E-02
1115.33,881.0,8.50E-02
1116.3,881.5,8.36E-02
1117.269,882.0,8.07E-02
1118.23,882.5,8.09E-02
1119.2,883.0,8.11E-02
1120.17,883.5,8.05E-02
1121.14,884.0,7.99E-02
1122.12,884.5,7.88E-02
1123.09,885.0,7.73E-02
1124.07,885.5,7.72E-02
1125.04,886.0,7.41E-02
1126.01,886.5,7.43E-02
1126.977,887.0,7.47E-02
1127.946,887.5,7.36E-02
1128.918,888.0,7.17E-02
1129.89,888.5,7.26E-02
1130.86,889.0,7.02E-02
1131.83,889.5,7.05E-02
1132.81,890.0,6.83E-02
1133.78,890.5,6.60E-02
1134.75,891.0,6.53E-02
1135.72,891.5,6.74E-02
1136.694,892.0,6.67E-02
1137.66,892.5,6.67E-02
1138.64,893.0,6.58E-02
1139.61,893.5,6.60E-02
1140.585,894.0,6.63E-02
1141.56,894.5,6.46E-02
1142.53,895.0,6.52E-02
1143.5,895.5,6.48E-02
1144.47,896.0,6.33E-02
1145.45,896.5,6.25E-02
1146.42,897.0,6.13E-02
1147.39,897.5,6.06E-02
1148.367,898.0,6.00E-02
1149.34,898.5,5.82E-02
1150.31,899.0,5.92E-02
1151.28,899.5,5.99E-02
1152.258,900.0,5.85E-02
1153.23,900.5,5.73E-02
1154.2,901.0,5.84E-02
1155.17,901.5,5.89E-02
1156.14,902.0,5.77E-02
1157.12,902.5,5.59E-02
1158.093,903.0,5.51E-02
1159.07,903.5,5.38E-02
1160.05,904.0,5.53E-02
1161.021,904.5,5.50E-02
1162,905.0,5.55E-02
1162.971,905.5,5.37E-02
1163.95,906.0,5.32E-02
1164.918,906.5,5.55E-02
1165.893,907.0,4.99E-02
1166.874,907.5,5.35E-02
1167.852,908.0,5.50E-02
1168.83,908.5,5.63E-02
1169.8,909.0,5.84E-02
1170.78,909.5,5.95E-02
1171.75,910.0,5.88E-02
1172.73,910.5,5.42E-02
1173.705,911.0,5.28E-02
1174.68,911.5,4.95E-02
1175.66,912.0,4.78E-02
1176.63,912.5,4.74E-02
1177.61,913.0,4.68E-02
1178.58,913.5,4.94E-02
1179.56,914.0,4.74E-02
1180.54,914.5,4.23E-02
1181.52,915.0,4.16E-02
1182.498,915.5,4.27E-02
1183.47,916.0,4.23E-02
1184.45,916.5,4.29E-02
1185.43,917.0,4.64E-02
1186.41,917.5,4.55E-02
1187.38,918.0,4.54E-02
1188.36,918.5,4.16E-02
1189.34,919.0,4.12E-02
1190.32,919.5,4.19E-02
1191.3,920.0,4.17E-02
1192.28,920.5,3.92E-02
1193.26,921.0,3.88E-02
1194.24,921.5,3.84E-02
1195.21,922.0,3.58E-02
1196.19,922.5,3.50E-02
1197.171,923.0,3.45E-02
1198.15,923.5,3.22E-02
1199.12,924.0,3.05E-02
1200.1,924.5,2.87E-02
1201.08,925.0,2.53E-02
1202.061,925.5,2.52E-02
1203.04,926.0,2.15E-02
1204.014,926.5,2.36E-02
1204.992,927.0,2.33E-02
1205.97,927.5,2.28E-02
1206.95,928.0,2.20E-02
1207.929,928.5,2.06E-02
1208.91,929.0,1.85E-02
1209.88,929.5,2.13E-02
1210.86,930.0,1.85E-02
1211.84,930.5,1.53E-02
1212.81,931.0,1.32E-02
1213.79,931.5,1.48E-02
1214.77,932.0,1.17E-02
1215.75,932.5,9.43E-03
1216.73,933.0,7.90E-03
1217.7,933.5,5.93E-03
1218.69,934.0,4.77E-03
1219.67,934.5,4.21E-03
1220.65,935.0,2.84E-03
1221.63,935.5,2.69E-03
1222.6,936.0,1.30E-03
1223.58,936.5,1.73E-03
1224.57,937.0,-5.07E-04
1225.55,937.5,-1.79E-03
1226.54,938.0,-6.57E-04
1227.53,938.5,-8.71E-04
1228.52,939.0,-5.33E-03
1229.5,939.5,-7.46E-03
1230.48,940.0,-1.00E-02
1231.467,940.5,-1.40E-02
1232.454,941.0,-1.46E-02
1233.441,941.5,-1.16E-02
1234.42,942.0,-1.17E-02
1235.41,942.5,-1.05E-02
1236.393,943.0,-1.03E-02
1237.37,943.5,-1.73E-02
1238.35,944.0,-1.69E-02
1239.33,944.5,-1.78E-02
1240.31,945.0,-1.74E-02
1241.29,945.5,-1.99E-02
1242.28,946.0,-2.22E-02
1243.26,946.5,-2.29E-02
1244.247,947.0,-2.29E-02
1245.23,947.5,-2.12E-02
1246.215,948.0,-2.13E-02
1247.2,948.5,-2.39E-02
1248.18,949.0,-2.15E-02
1249.17,949.5,-2.54E-02
1250.15,950.0,-2.74E-02
1251.135,950.5,-2.84E-02
1252.12,951.0,-2.94E-02
1253.109,951.5,-3.21E-02
1254.09,952.0,-3.22E-02
1255.077,952.5,-3.44E-02
1256.06,953.0,-3.81E-02
1257.04,953.5,-3.78E-02
1258.03,954.0,-3.81E-02
1259.01,954.5,-3.81E-02
1259.997,955.0,-3.91E-02
1260.98,955.5,-4.01E-02
1261.968,956.0,-4.10E-02
1262.95,956.5,-4.02E-02
1263.94,957.0,-4.09E-02
1264.93,957.5,-4.33E-02
1265.91,958.0,-4.57E-02
1266.88,958.5,-4.69E-02
1267.86,959.0,-4.70E-02
1268.84,959.5,-4.83E-02
1269.83,960.0,-4.88E-02
1270.815,960.5,-5.24E-02
1271.81,961.0,-5.49E-02
1272.8,961.5,-5.58E-02
1273.782,962.0,-6.00E-02
1274.77,962.5,-6.16E-02
1275.75,963.0,-6.49E-02
1276.73,963.5,-6.32E-02
1277.72,964.0,-6.38E-02
1278.71,964.5,-6.22E-02
1279.7,965.0,-6.38E-02
1280.69,965.5,-7.06E-02
1281.67,966.0,-6.99E-02
1282.66,966.5,-6.59E-02
1283.65,967.0,-6.73E-02
1284.63,967.5,-6.70E-02
1285.614,968.0,-6.65E-02
1286.6,968.5,-7.18E-02
1287.59,969.0,-7.32E-02
1288.58,969.5,-7.36E-02
1289.57,970.0,-7.28E-02
1290.56,970.5,-7.34E-02
1291.55,971.0,-7.45E-02
1292.53,971.5,-7.66E-02
1293.52,972.0,-7.99E-02
1294.51,972.5,-8.20E-02
1295.49,973.0,-8.31E-02
1296.483,973.5,-8.63E-02
1297.48,974.0,-8.85E-02
1298.47,974.5,-8.59E-02
1299.46,975.0,-8.68E-02
1300.44,975.5,-9.04E-02
1301.424,976.0,-9.15E-02
1302.41,976.5,-9.11E-02
1303.386,977.0,-9.36E-02
1304.37,977.5,-9.73E-02
1305.37,978.0,-9.88E-02
1306.365,978.5,-9.86E-02
1307.36,979.0,-9.92E-02
1308.36,979.5,-1.01E-01
1309.36,980.0,-1.03E-01
1310.35,980.5,-1.03E-01
1311.34,981.0,-1.04E-01
1312.33,981.5,-1.08E-01
1313.32,982.0,-1.09E-01
1314.31,982.5,-1.13E-01
1315.299,983.0,-1.14E-01
1316.292,983.5,-1.14E-01
1317.28,984.0,-1.18E-01
1318.27,984.5,-1.21E-01
1319.268,985.0,-1.24E-01
1320.258,985.5,-1.26E-01
1321.25,986.0,-1.26E-01
1322.238,986.5,-1.26E-01
1323.23,987.0,-1.28E-01
1324.22,987.5,-1.27E-01
1325.21,988.0,-1.29E-01
1326.2,988.5,-1.32E-01
1327.2,989.0,-1.30E-01
1328.19,989.5,-1.31E-01
1329.18,990.0,-1.32E-01
1330.18,990.5,-1.32E-01
1331.172,991.0,-1.34E-01
1332.16,991.5,-1.35E-01
1333.158,992.0,-1.36E-01
1334.151,992.5,-1.42E-01
1335.14,993.0,-1.45E-01
1336.13,993.5,-1.45E-01
1337.127,994.0,-1.46E-01
1338.12,994.5,-1.46E-01
1339.11,995.0,-1.47E-01
1340.1,995.5,-1.48E-01
1341.1,996.0,-1.47E-01
1342.089,996.5,-1.48E-01
1343.08,997.0,-1.50E-01
1344.07,997.5,-1.51E-01
1345.07,998.0,-1.53E-01
1346.06,998.5,-1.56E-01
1347.048,999.0,-1.56E-01
1348.04,999.5,-1.58E-01
1349.03,1000.0,-1.60E-01
1350.02,1000.5,-1.60E-01
1351.02,1001.0,-1.63E-01
1352.01,1001.5,-1.66E-01
1353,1002.0,-1.68E-01
1354,1002.5,-1.70E-01
1354.99,1003.0,-1.70E-01
1355.99,1003.5,-1.72E-01
1356.98,1004.0,-1.74E-01
1357.97,1004.5,-1.77E-01
1358.964,1005.0,-1.79E-01
1359.95,1005.5,-1.81E-01
1360.95,1006.0,-1.83E-01
1361.943,1006.5,-1.84E-01
1362.94,1007.0,-1.86E-01
1363.93,1007.5,-1.85E-01
1364.92,1008.0,-1.83E-01
1365.92,1008.5,-1.84E-01
1366.91,1009.0,-1.89E-01
1367.901,1009.5,-1.88E-01
1368.9,1010.0,-1.93E-01
1369.89,1010.5,-1.98E-01
1370.88,1011.0,-2.00E-01
1371.87,1011.5,-1.99E-01
1372.87,1012.0,-1.99E-01
1373.86,1012.5,-2.00E-01
1374.85,1013.0,-2.03E-01
1375.85,1013.5,-2.03E-01
1376.841,1014.0,-2.05E-01
1377.84,1014.5,-2.08E-01
1378.83,1015.0,-2.11E-01
1379.83,1015.5,-2.12E-01
1380.82,1016.0,-2.15E-01
1381.81,1016.5,-2.13E-01
1382.81,1017.0,-2.14E-01
1383.798,1017.5,-2.15E-01
1384.791,1018.0,-2.12E-01
1385.79,1018.5,-2.14E-01
1386.78,1019.0,-2.15E-01
1387.78,1019.5,-2.12E-01
1388.77,1020.0,-2.14E-01
1389.77,1020.5,-2.14E-01
1390.764,1021.0,-2.16E-01
1391.76,1021.5,-2.17E-01
1392.76,1022.0,-2.18E-01
1393.76,1022.5,-2.18E-01
1394.76,1023.0,-2.18E-01
1395.75,1023.5,-2.19E-01
1396.74,1024.0,-2.23E-01
1397.74,1024.5,-2.24E-01
1398.732,1025.0,-2.25E-01
1399.72,1025.5,-2.29E-01
1400.71,1026.0,-2.32E-01
1401.71,1026.5,-2.32E-01
1402.71,1027.0,-2.32E-01
1403.7,1027.5,-2.31E-01
1404.7,1028.0,-2.29E-01
1405.7,1028.5,-2.32E-01
1406.69,1029.0,-2.34E-01
1407.69,1029.5,-2.35E-01
1408.69,1030.0,-2.33E-01
1409.69,1030.5,-2.35E-01
1410.69,1031.0,-2.36E-01
1411.69,1031.5,-2.38E-01
1412.68,1032.0,-2.39E-01
1413.69,1032.5,-2.40E-01
1414.68,1033.0,-2.38E-01
1415.68,1033.5,-2.37E-01
1416.675,1034.0,-2.38E-01
1417.67,1034.5,-2.39E-01
1418.66,1035.0,-2.40E-01
1419.657,1035.5,-2.42E-01
1420.653,1036.0,-2.44E-01
1421.65,1036.5,-2.48E-01
1422.648,1037.0,-2.50E-01
1423.65,1037.5,-2.48E-01
1424.643,1038.0,-2.54E-01
1425.64,1038.5,-2.52E-01
1426.64,1039.0,-2.52E-01
1427.63,1039.5,-2.51E-01
1428.63,1040.0,-2.46E-01
1429.62,1040.5,-2.46E-01
1430.61,1041.0,-2.50E-01
1431.61,1041.5,-2.50E-01
1432.611,1042.0,-2.49E-01
1433.61,1042.5,-2.51E-01
1434.606,1043.0,-2.52E-01
1435.6,1043.5,-2.49E-01
1436.604,1044.0,-2.48E-01
1437.6,1044.5,-2.50E-01
1438.6,1045.0,-2.53E-01
1439.6,1045.5,-2.50E-01
1440.6,1046.0,-2.50E-01
1441.6,1046.5,-2.52E-01
1442.589,1047.0,-2.54E-01
1443.59,1047.5,-2.55E-01
1444.58,1048.0,-2.55E-01
1445.58,1048.5,-2.58E-01
1446.579,1049.0,-2.57E-01
1447.58,1049.5,-2.60E-01
1448.58,1050.0,-2.57E-01
1449.58,1050.5,-2.55E-01
1450.58,1051.0,-2.55E-01
1451.58,1051.5,-2.55E-01
1452.582,1052.0,-2.56E-01
1453.58,1052.5,-2.54E-01
1454.57,1053.0,-2.59E-01
1455.57,1053.5,-2.63E-01
1456.57,1054.0,-2.62E-01
1457.565,1054.5,-2.61E-01
1458.56,1055.0,-2.60E-01
1459.56,1055.5,-2.63E-01
1460.56,1056.0,-2.65E-01
1461.56,1056.5,-2.68E-01
1462.56,1057.0,-2.67E-01
1463.556,1057.5,-2.68E-01
1464.56,1058.0,-2.67E-01
1465.56,1058.5,-2.65E-01
1466.559,1059.0,-2.67E-01
1467.56,1059.5,-2.68E-01
1468.56,1060.0,-2.69E-01
1469.56,1060.5,-2.72E-01
1470.56,1061.0,-2.71E-01
1471.557,1061.5,-2.70E-01
1472.55,1062.0,-2.71E-01
1473.55,1062.5,-2.69E-01
1474.55,1063.0,-2.69E-01
1475.54,1063.5,-2.70E-01