File: Wood/Calibration_Data/FSRI/FSRI_Wood_CAPA_N2_40kW_R2.csv
Time (s),Mass (g),TC back 1 (K),TC Top (K)
0,12.739,297.1,414.8
1,12.713,297.1,432
2,12.734,297.1,492.8
3,12.728,297,526.2
4,12.726,297.1,550.6
5,12.69,297.1,570
6,12.626,297,586.1
7,12.635,297,601
8,12.648,297,612.8
9,12.646,297,623.1
10,12.588,296.9,
11,12.588,297,
12,12.608,297,
13,12.583,297,
14,12.563,297.1,
15,12.559,297.1,
16,12.53,297,
17,12.507,297.1,
18,12.486,297.1,
19,12.483,297.2,
20,12.455,297.3,
21,12.447,297.3,
22,12.432,297.4,
23,12.407,297.5,
24,12.398,297.7,
25,12.331,297.8,
26,12.325,298,
27,12.325,298.2,
28,12.277,298.4,
29,12.273,298.7,
30,12.254,298.9,
31,12.255,299.3,
32,12.255,299.7,
33,12.203,300.1,
34,12.16,300.5,
35,12.175,300.9,
36,12.162,301.4,
37,12.11,301.9,
38,12.033,302.4,
39,11.996,303,
40,12.028,303.6,
41,11.977,304.2,
42,11.932,304.8,
43,11.927,305.5,
44,11.925,306.1,
45,11.904,306.8,
46,11.89,307.5,
47,11.863,308.2,
48,11.853,308.9,
49,11.826,309.6,
50,11.793,310.4,
51,11.759,311.1,
52,11.74,311.9,
53,11.754,312.7,
54,11.724,313.4,
55,11.716,314.3,
56,11.681,315.1,
57,11.66,315.9,
58,11.635,316.8,
59,11.622,317.6,
60,11.568,318.4,
61,11.488,319.1,
62,11.524,319.9,
63,11.566,320.7,
64,11.511,321.7,
65,11.464,322.4,
66,11.46,323.2,
67,11.46,324.1,
68,11.409,324.9,
69,11.396,325.8,
70,11.366,326.6,
71,11.345,327.5,
72,11.385,328.3,
73,11.353,329.1,
74,11.306,330,
75,11.275,330.8,
76,11.222,331.7,
77,11.226,332.4,
78,11.211,333.4,
79,11.186,334.2,
80,11.178,335,
81,11.181,335.8,
82,11.139,336.5,
83,11.119,337.3,
84,11.133,337.9,
85,11.117,338.7,
86,11.083,339.5,
87,11.028,340.3,
88,11.026,341,
89,11.003,341.6,
90,11.001,342.4,
91,11.008,343,
92,10.959,343.6,
93,10.945,344.4,
94,10.93,345.1,
95,10.89,345.7,
96,10.884,346.4,
97,10.846,347.1,
98,10.847,347.7,
99,10.83,348.3,
100,10.818,348.9,
101,10.81,349.5,
102,10.792,350.1,
103,10.746,350.6,
104,10.732,351.2,
105,10.699,351.8,
106,10.682,352.3,
107,10.664,352.8,
108,10.671,353.4,
109,10.616,353.8,
110,10.586,354.3,
111,10.576,354.8,
112,10.591,355.2,
113,10.604,355.7,
114,10.578,356.1,
115,10.55,356.6,
116,10.543,357,
117,10.524,357.4,
118,10.5,357.8,
119,10.482,358.1,
120,10.426,358.3,
121,10.425,358.7,
122,10.442,358.9,
123,10.411,359.3,
124,10.38,359.5,
125,10.39,359.8,
126,10.373,360,
127,10.34,360,
128,10.32,360.3,
129,10.294,360.3,
130,10.284,360.4,
131,10.273,360.6,
132,10.255,360.7,
133,10.207,360.7,
134,10.215,360.8,
135,10.19,360.8,
136,10.166,360.9,
137,10.213,361,
138,10.144,361.1,
139,10.102,361.1,
140,10.068,361.1,
141,10.087,361.1,
142,10.116,361.2,
143,10.078,361.3,
144,10.053,361.3,
145,9.989,361.3,
146,9.975,361.4,
147,9.993,361.5,
148,9.986,361.5,
149,9.952,361.5,
150,9.95,361.6,
151,9.935,361.7,
152,9.911,361.8,
153,9.885,361.9,
154,9.864,362,
155,9.836,362.2,
156,9.829,362.3,
157,9.825,362.4,
158,9.811,362.5,
159,9.823,362.7,
160,9.777,362.9,
161,9.728,363.1,
162,9.756,363.3,
163,9.748,363.5,
164,9.695,363.7,
165,9.711,363.9,
166,9.721,364,
167,9.679,364.3,
168,9.656,364.6,
169,9.639,364.8,
170,9.635,365.1,
171,9.618,365.4,
172,9.584,365.6,
173,9.554,365.9,
174,9.569,366.3,
175,9.594,366.5,
176,9.56,366.9,
177,9.493,367.2,
178,9.477,367.6,
179,9.481,368,
180,9.452,368.4,
181,9.438,368.7,
182,9.434,369.2,
183,9.416,369.6,
184,9.384,370.1,
185,9.354,370.5,
186,9.355,371,
187,9.341,371.5,
188,9.364,371.9,
189,9.352,372.5,
190,9.287,373,
191,9.307,373.5,
192,9.297,374,
193,9.268,374.6,
194,9.302,375.2,
195,9.27,375.8,
196,9.229,376.5,
197,9.211,377.1,
198,9.181,377.8,
199,9.2,378.3,
200,9.193,379,
201,9.182,379.6,
202,9.146,380.2,
203,9.136,381.1,
204,9.109,381.7,
205,9.102,382.4,
206,9.107,383.1,
207,9.124,383.8,
208,9.101,384.5,
209,9.003,385.2,
210,9.003,385.9,
211,9,386.6,
212,8.969,387.5,
213,8.993,388.2,
214,8.989,389,
215,8.957,389.6,
216,8.969,390.3,
217,8.951,391,
218,8.926,391.8,
219,8.926,392.6,
220,8.907,393.3,
221,8.907,394.1,
222,8.889,394.8,
223,8.836,395.5,
224,8.825,396.2,
225,8.852,397.1,
226,8.846,397.8,
227,8.839,398.5,
228,8.797,399.3,
229,8.769,400,
230,8.78,400.7,
231,8.796,401.4,
232,8.765,402.2,
233,8.732,402.9,
234,8.705,403.7,
235,8.688,404.3,
236,8.709,404.9,
237,8.7,405.7,
238,8.674,406.4,
239,8.7,407,
240,8.661,407.7,
241,8.614,408.5,
242,8.628,409.1,
243,8.639,409.7,
244,8.616,410.4,
245,8.586,411,
246,8.536,411.7,
247,8.549,412.4,
248,8.572,413,
249,8.508,413.6,
250,8.472,414.2,
251,8.498,414.9,
252,8.502,415.5,
253,8.465,416.2,
254,8.467,416.9,
255,8.459,417.4,
256,8.415,418.1,
257,8.404,418.7,
258,8.386,419.3,
259,8.346,419.9,
260,8.373,420.4,
261,8.393,420.9,
262,8.339,421.5,
263,8.313,422,
264,8.297,422.6,
265,8.288,423,
266,8.288,423.5,
267,8.281,424.1,
268,8.255,424.6,
269,8.235,425.1,
270,8.221,425.6,
271,8.231,426.2,
272,8.2,426.7,
273,8.155,427.2,
274,8.167,427.6,
275,8.181,428.2,
276,8.141,428.7,
277,8.13,429.1,
278,8.107,429.7,
279,8.065,430.1,
280,8.078,430.6,
281,8.085,431,
282,8.032,431.6,
283,8.008,431.9,
284,7.974,432.3,
285,8.001,432.7,
286,8.009,433.2,
287,7.992,433.7,
288,7.978,434.1,
289,7.939,434.6,
290,7.938,435.1,
291,7.923,435.4,
292,7.9,435.7,
293,7.924,436.3,
294,7.866,436.5,
295,7.809,436.7,
296,7.836,437.3,
297,7.821,437.7,
298,7.8,438.2,
299,7.775,438.3,
300,7.773,438.8,
301,7.789,439.4,
302,7.746,439.7,
303,7.735,439.8,
304,7.716,440.1,
305,7.693,440.6,
306,7.624,441.1,
307,7.604,441.3,
308,7.664,441.7,
309,7.611,442,
310,7.588,442.6,
311,7.575,442.5,
312,7.574,443.1,
313,7.511,443.4,
314,7.476,443.8,
315,7.496,443.8,
316,7.504,444.2,
317,7.46,444.6,
318,7.455,445,
319,7.469,445.2,
320,7.465,445.1,
321,7.47,445.5,
322,7.466,445.8,
323,7.419,446.1,
324,7.423,446.7,
325,7.402,446.8,
326,7.347,447.1,
327,7.348,447.4,
328,7.282,447.4,
329,7.287,448,
330,7.33,448.1,
331,7.288,448.4,
332,7.278,448.9,
333,7.282,448.5,
334,7.277,448.1,
335,7.239,448.7,
336,7.211,449.5,
337,7.205,450,
338,7.18,450.2,
339,7.171,450.4,
340,7.166,450.3,
341,7.114,451.2,
342,7.116,450.9,
343,7.077,451.2,
344,7.058,451.3,
345,7.082,451.9,
346,7.048,451.6,
347,7.02,452.2,
348,7.033,452.2,
349,7.023,452.3,
350,6.962,452.8,
351,6.953,453.2,
352,6.943,453.2,
353,6.945,452.5,
354,6.944,453.3,
355,6.936,453.3,
356,6.933,453.4,
357,6.892,453.7,
358,6.859,454.3,
359,6.838,454.1,
360,6.842,454.3,
361,6.838,454.9,
362,6.844,454.8,
363,6.807,455.1,
364,6.769,455.3,
365,6.711,455.2,
366,6.719,455.5,
367,6.708,455.7,
368,6.686,456.3,
369,6.703,456.5,
370,6.716,456.2,
371,6.704,456.3,
372,6.651,456.9,
373,6.638,456.4,
374,6.666,455.9,
375,6.671,456,
376,6.602,456.5,
377,6.605,456.4,
378,6.601,455.7,
379,6.542,457.2,
380,6.537,456.6,
381,6.575,456,
382,6.532,457.3,
383,6.534,457.8,
384,6.505,458.1,
385,6.453,457.7,
386,6.444,456.9,
387,6.44,458.3,
388,6.439,456.9,
389,6.397,456.9,
390,6.37,457.2,
391,6.378,457.5,
392,6.434,458.1,
393,6.417,458.1,
394,6.375,458.4,
395,6.39,458.6,
396,6.366,459.2,
397,6.373,458.9,
398,6.361,458.4,
399,6.341,458.5,
400,6.328,458.5,
401,6.307,459,
402,6.249,458.8,
403,6.232,459.5,
404,6.243,459.5,
405,6.241,459.1,
406,6.205,458.6,
407,6.203,459.9,
408,6.233,459.4,
409,6.226,458.8,
410,6.221,459.6,
411,6.177,459.2,
412,6.174,459.8,
413,6.175,460.3,
414,6.14,460.5,
415,6.107,460.2,
416,6.111,461.2,
417,6.104,461.3,
418,6.083,461.4,
419,6.068,461.3,
420,6.059,461.2,
421,6.047,460.8,
422,6.034,461.2,
423,6.056,461.2,
424,6.035,461.7,
425,6.002,461.7,
426,5.986,461.6,
427,5.991,461.5,
428,5.961,461.4,
429,5.959,461,
430,5.991,460.4,
431,5.945,461.4,
432,5.952,461.8,
433,5.903,462.2,
434,5.898,461.8,
435,5.905,462.2,
436,5.916,462,
437,5.911,461,
438,5.909,461.9,
439,5.884,462,
440,5.833,462.2,
441,5.85,462.1,
442,5.873,462.3,
443,5.886,461.9,
444,5.883,462.2,
445,5.851,462.2,
446,5.829,462.9,
447,5.814,462.9,
448,5.777,462.6,
449,5.766,462.6,
450,5.742,462.6,
451,5.743,462.5,
452,5.753,462.6,
453,5.743,462.6,
454,5.734,462.1,
455,5.725,462.7,
456,5.748,462.4,
457,5.734,462.7,
458,5.708,463.5,
459,5.703,463.3,
460,5.693,463.4,
461,5.699,463.6,
462,5.685,463.4,
463,5.693,463,
464,5.64,463.1,
465,5.628,462.9,
466,5.654,463.2,
467,5.594,463.4,
468,5.578,463.2,
469,5.622,463,
470,5.599,463.1,
471,5.629,463,
472,5.61,462.6,
473,5.563,463.2,
474,5.586,463.9,
475,5.593,464,
476,5.561,464.3,
477,5.543,464.3,
478,5.559,463.8,
479,5.584,463.9,
480,5.527,464,
481,5.489,464.2,
482,5.507,464.7,
483,5.514,464.5,
484,5.528,464.6,
485,5.505,464.2,
486,5.484,464.1,
487,5.456,464,
488,5.451,464.5,
489,5.436,464.4,
490,5.442,465.4,
491,5.416,464.7,
492,5.414,464.7,
493,5.435,464.9,
494,5.439,464.4,
495,5.411,465.4,
496,5.376,465.6,
497,5.369,466.5,
498,5.37,466.6,
499,5.383,466.6,
500,5.41,466.3,
501,5.369,466.5,
502,5.347,466.7,
503,5.344,466.1,
504,5.29,466,
505,5.303,466.4,
506,5.34,466.7,
507,5.317,466.6,
508,5.291,466.8,
509,5.347,466.9,
510,5.332,467.4,
511,5.294,467,
512,5.266,467,
513,5.276,467.3,
514,5.264,466.8,
515,5.247,467.5,
516,5.25,467.8,
517,5.271,467.6,
518,5.266,467.5,
519,5.249,467.9,
520,5.26,468.2,
521,5.231,468,
522,5.236,468.5,
523,5.251,468.5,
524,5.258,468,
525,5.232,468,
526,5.204,468.6,
527,5.205,468.7,
528,5.196,468.5,
529,5.188,468.8,
530,5.189,468.8,
531,5.188,468.5,
532,5.192,468.8,
533,5.168,468.9,
534,5.162,468.8,
535,5.188,469,
536,5.164,469.1,
537,5.133,469.1,
538,5.148,469.1,
539,5.119,468.7,
540,5.107,469.3,
541,5.135,469.2,
542,5.143,469.4,
543,5.119,469.3,
544,5.131,469.6,
545,5.112,469.6,
546,5.077,469,
547,5.08,469.1,
548,5.06,469.4,
549,5.06,469.8,
550,5.057,470,
551,5.067,470.3,
552,5.08,470.4,
553,5.061,470.5,
554,5.005,470.3,
555,5.004,470.4,
556,5.037,470.4,
557,5.002,470.9,
558,4.998,471.1,
559,4.996,471,
560,4.995,470.7,
561,4.998,470.9,
562,5.012,471.2,
563,5.027,471,
564,5.015,470.7,
565,4.973,471.2,
566,4.974,470.7,
567,4.99,471.1,
568,4.976,471.6,
569,4.973,471.6,
570,4.971,471.5,
571,4.986,471.8,
572,4.959,471.7,
573,4.951,471.8,
574,4.953,471.7,
575,4.97,472.2,
576,4.979,472.3,
577,4.962,471.7,
578,4.853,472.1,
579,4.851,471.7,
580,4.905,472,
581,4.913,472.5,
582,4.929,472.3,
583,4.934,472.3,
584,4.898,472.3,
585,4.872,471.9,
586,4.868,472.5,
587,4.898,472.6,
588,4.901,472.7,
589,4.877,472.9,
590,4.855,472.4,
591,4.862,472.5,
592,4.86,472.6,
593,4.844,472.9,
594,4.873,473.1,
595,4.874,473.4,
596,4.862,473.4,
597,4.819,473.5,
598,4.844,473.2,
599,4.814,473.4,
600,4.816,473.5,
601,4.856,473.2,
602,4.855,473.6,
603,4.831,473.6,
604,4.801,473.7,
605,4.81,473.7,
606,4.804,473.8,
607,4.791,473.9,
608,4.815,474,
609,4.815,473.9,
610,4.764,474,
611,4.746,474,
612,4.784,474.3,
613,4.838,473.8,
614,4.795,473.9,
615,4.745,474.5,
616,4.741,474.5,
617,4.75,474.4,
618,4.737,474.4,
619,4.749,474.1,
620,4.775,474.1,
621,4.783,474.6,
622,4.777,474.6,
623,4.77,474.8,
624,4.752,474.9,
625,4.718,474.9,
626,4.733,475,
627,4.753,475.2,
628,4.715,474.9,
629,4.708,474.6,
630,4.707,475,
631,4.73,475.2,
632,4.721,475.1,
633,4.696,475.3,
634,4.721,475.3,
635,4.726,475.4,
636,4.732,475.5,
637,4.733,475.2,
638,4.703,475.3,
639,4.678,475.4,
640,4.689,475.3,
641,4.687,475.2,
642,4.675,475.3,
643,4.668,475.7,
644,4.672,475.8,
645,4.69,475.7,
646,4.703,475.9,
647,4.687,475.8,
648,4.676,475.9,
649,4.686,476,
650,4.686,476.1,
651,4.677,476.2,
652,4.652,476.3,
653,4.663,476.3,
654,4.648,476.1,
655,4.598,476.2,
656,4.644,476.5,
657,4.657,476.6,
658,4.609,476.8,
659,4.642,476.7,
660,4.664,476.6,
661,4.617,476.5,
662,4.591,476.5,
663,4.613,476.5,
664,4.648,476.6,
665,4.635,476.6,
666,4.607,476.4,
667,4.577,476.5,
668,4.576,477,
669,4.562,476.9,
670,4.561,476.9,
671,4.593,476.9,
672,4.591,477,
673,4.574,476.8,
674,4.582,476.7,
675,4.592,477.3,
676,4.581,477.3,
677,4.562,477.4,
678,4.558,477.1,
679,4.552,477.1,
680,4.566,476.9,
681,4.556,477.1,
682,4.555,477.5,
683,4.55,477.6,
684,4.55,477.5,
685,4.564,477.7,
686,4.556,477.8,
687,4.545,477.8,
688,4.498,477.6,
689,4.496,477.7,
690,4.516,477.8,
691,4.518,477.9,
692,4.519,477.8,
693,4.548,477.8,
694,4.526,477.7,
695,4.503,477.8,
696,4.505,478,
697,4.512,478,
698,4.541,478.1,
699,4.518,478.1,
700,4.515,478.3,
701,4.515,478.3,
702,4.532,478.3,
703,4.509,478.5,
704,4.492,478.6,
705,4.441,478.6,
706,4.431,478.6,
707,4.492,478.7,
708,4.466,478.6,
709,4.47,478.8,
710,4.506,478.9,
711,4.501,478.7,
712,4.462,478.6,
713,4.467,478.5,
714,4.499,478.6,
715,4.472,478.8,
716,4.462,478.6,
717,4.465,478.8,
718,4.421,478.9,
719,4.467,478.7,
720,4.444,478.9,
721,4.435,478.9,
722,4.48,479.1,
723,4.496,479,
724,4.475,478.8,
725,4.397,478.6,
726,4.428,478.9,
727,4.471,479.1,
728,4.486,479,
729,4.45,479.1,
730,4.405,479.2,
731,4.417,479.1,
732,4.426,479,
733,4.46,479.3,
734,4.464,479.1,
735,4.408,479.2,
736,4.405,479.3,
737,4.402,479.3,
738,4.36,479.4,
739,4.401,479.2,
740,4.421,479.4,
741,4.378,479.4,
742,4.39,479.4,
743,4.407,479.5,
744,4.401,479.4,
745,4.396,479.5,
746,4.392,479.5,
747,4.391,479.5,
748,4.404,479.5,
749,4.406,479.5,
750,4.434,479.8,
751,4.404,479.8,
752,4.361,479.8,
753,4.366,479.8,
754,4.362,479.9,
755,4.397,479.9,
756,4.391,480,
757,4.364,479.8,
758,4.387,479.9,
759,4.377,479.8,
760,4.363,480,
761,4.385,479.9,
762,4.361,479.9,
763,4.356,479.9,
764,4.357,480.1,
765,4.36,480.2,
766,4.355,480.3,
767,4.349,480.3,
768,4.358,480.4,
769,4.344,480.2,
770,4.331,480.5,
771,4.36,480.3,
772,4.387,480.2,
773,4.395,480.4,
774,4.386,480.2,
775,4.347,480.5,
776,4.332,480.7,
777,4.322,480.6,
778,4.32,480.8,
779,4.343,480.9,
780,4.35,480.7,
781,4.351,480.6,
782,4.33,480.6,
783,4.331,480.7,
784,4.341,480.7,
785,4.329,480.7,
786,4.342,480.9,
787,4.316,480.7,
788,4.304,480.6,
789,4.296,480.7,
790,4.33,480.8,
791,4.354,480.9,
792,4.317,480.7,
793,4.309,481.1,
794,4.275,480.9,
795,4.275,481.1,
796,4.297,481.1,
797,4.261,481,
798,4.295,481,
799,4.331,481.1,
800,4.289,480.9,
801,4.266,481.3,
802,4.302,481.1,
803,4.285,481.1,
804,4.28,481.1,
805,4.311,481.3,
806,4.273,481.2,
807,4.281,480.9,
808,4.276,481.1,
809,4.27,481.1,
810,4.254,481.2,
811,4.265,481.3,
812,4.284,481.3,
813,4.289,481.3,
814,4.306,481.3,
815,4.314,481.3,
816,4.258,481.3,
817,4.26,481.3,
818,4.289,481.4,
819,4.29,481.5,
820,4.258,481.5,
821,4.266,481.7,
822,4.244,481.7,
823,4.242,481.6,
824,4.247,481.7,
825,4.261,481.7,
826,4.282,481.5,
827,4.272,481.7,
828,4.253,481.9,
829,4.218,482.1,
830,4.225,482,
831,4.233,481.9,
832,4.249,482,
833,4.218,481.9,
834,4.237,481.8,
835,4.224,482,
836,4.204,481.9,
837,4.222,482,
838,4.205,482,
839,4.207,482,
840,4.243,481.8,
841,4.235,481.9,
842,4.202,482,
843,4.22,482.1,
844,4.228,482.3,
845,4.23,482.1,
846,4.215,482,
847,4.198,482.1,
848,4.205,482.1,
849,4.217,482.1,
850,4.223,482.3,
851,4.189,482.2,
852,4.214,482.3,
853,4.231,482.4,
854,4.214,482.5,
855,4.233,482.5,
856,4.229,482.6,
857,4.25,482.7,
858,4.267,482.6,
859,4.228,482.5,
860,4.198,482.5,
861,4.176,482.6,
862,4.179,482.7,
863,4.184,482.6,
864,4.194,482.8,
865,4.188,482.6,
866,4.19,482.6,
867,4.182,482.7,
868,4.204,482.6,
869,4.205,482.7,
870,4.215,482.8,
871,4.216,483,
872,4.212,482.8,
873,4.207,482.5,
874,4.22,482.9,
875,4.222,482.9,
876,4.183,482.7,
877,4.157,483,
878,4.158,482.8,
879,4.118,482.8,
880,4.164,482.9,
881,4.144,483,
882,4.126,482.9,
883,4.152,482.9,
884,4.108,483.2,
885,4.153,483.1,
886,4.184,483.2,
887,4.174,483.1,
888,4.183,483.3,
889,4.19,483.2,
890,4.182,483.1,
891,4.163,483.1,
892,4.178,483.2,
893,4.133,483.4,
894,4.12,483.2,
895,4.126,483.2,
896,4.135,483.3,
897,4.172,483.3,
898,4.181,483.5,
899,4.168,483.4,
900,4.167,483.4,
901,4.128,483.4,
902,4.122,483.6,
903,4.116,483.3,
904,4.117,483.4,
905,4.139,483.5,
906,4.157,483.6,
907,4.155,483.5,
908,4.144,483.6,
909,4.117,483.4,
910,4.131,483.5,
911,4.163,483.5,
912,4.138,483.5,
913,4.128,483.6,
914,4.113,483.5,
915,4.119,483.5,
916,4.084,483.3,
917,4.078,483.6,
918,4.131,483.7,
919,4.119,483.7,
920,4.111,483.4,
921,4.144,483.6,
922,4.161,483.7,
923,4.15,483.6,
924,4.128,483.5,
925,4.112,483.5,
926,4.086,483.6,
927,4.096,483.8,
928,4.107,483.9,
929,4.106,483.9,
930,4.109,483.7,
931,4.083,483.9,
932,4.059,483.8,
933,4.074,484,
934,4.11,483.8,
935,4.096,483.8,
936,4.093,483.9,
937,4.113,484,
938,4.097,483.8,
939,4.084,483.8,
940,4.094,483.9,
941,4.102,484,
942,4.07,484,
943,4.087,484,
944,4.071,484.1,
945,4.079,484,896.8
946,4.105,484.1,894.9
947,4.089,484,903.8
948,4.095,484.2,894.7
949,4.086,484.2,900
950,4.077,484.2,893.9
951,4.077,484.3,898.6
952,4.06,484.2,899.6
953,4.06,484.3,896.9
954,4.064,484.4,894.9
955,4.088,484.4,897.3
956,4.085,484.4,895.6
957,4.069,484.5,895.7
958,4.064,484.5,893.9
959,4.051,484.6,897.5
960,4.04,484.2,895.9
961,4.061,484.5,904.2
962,4.056,484.6,898.7
963,4.037,484.5,897.9
964,4.05,484.4,897.8
965,4.093,484.5,891.7
966,4.078,484.6,898.8
967,4.084,484.7,894.7
968,4.094,484.7,895.6
969,4.052,484.8,897.6
970,4.03,484.7,896
971,4.043,484.7,893.3
972,4.063,484.9,895.1
973,4.093,484.6,893.2
974,4.072,484.6,891.2
975,4.035,484.8,894.5
976,3.985,484.7,893.3
977,3.978,484.8,899.5
978,4.01,484.8,897.6
979,4.055,484.5,891.1
980,4.07,484.9,897.5
981,4.001,485,898.5
982,4.009,484.7,900.5
983,4.064,484.8,901.6
984,4.061,484.9,908
985,4.058,484.8,900.8
986,4.047,484.8,910.4
987,4.029,485.1,896.6
988,4.039,485.1,899.9