File: PMMA/Validation_Results/UMD-FSRI/UMD-FSRI_Gasification_q50_Temp_R4.csv
s,K
Time,T_back
0,294
1,294
2,294
3,294
4,294
5,294
6,294.0002
7,294.0009
8,294.0029
9,294.0079
10,294.0178
11,294.0352
12,294.063
13,294.1042
14,294.162
15,294.2395
16,294.3394
17,294.4641
18,294.6158
19,294.7959
20,295.0059
21,295.2465
22,295.5184
23,295.8219
24,296.1571
25,296.5236
26,296.9212
27,297.3494
28,297.8075
29,298.2947
30,298.8103
31,299.3532
32,299.9226
33,300.5174
34,301.1365
35,301.779
36,302.4437
37,303.1294
38,303.8352
39,304.5598
40,305.3023
41,306.0617
42,306.8371
43,307.6275
44,308.432
45,309.2497
46,310.0799
47,310.9218
48,311.7745
49,312.6375
50,313.51
51,314.3913
52,315.2808
53,316.1778
54,317.0817
55,317.992
56,318.9082
57,319.8297
58,320.7561
59,321.6869
60,322.6217
61,323.5602
62,324.5019
63,325.4465
64,326.3936
65,327.3428
66,328.2939
67,329.2464
68,330.2002
69,331.155
70,332.1104
71,333.0665
72,334.0229
73,334.9794
74,335.9359
75,336.8923
76,337.8483
77,338.804
78,339.7592
79,340.7136
80,341.6672
81,342.6199
82,343.5716
83,344.5222
84,345.4716
85,346.4196
86,347.3662
87,348.3114
88,349.2551
89,350.1971
90,351.1374
91,352.0761
92,353.0131
93,353.9485
94,354.8821
95,355.8141
96,356.7442
97,357.6726
98,358.599
99,359.5235
100,360.446
101,361.3667
102,362.2854
103,363.2022
104,364.117
105,365.0299
106,365.9407
107,366.8495
108,367.7563
109,368.661
110,369.5637
111,370.4645
112,371.3634
113,372.2603
114,373.1556
115,374.0492
116,374.941
117,375.8313
118,376.72
119,377.6071
120,378.4928
121,379.3769
122,380.2594
123,381.1404
124,382.0199
125,382.8979
126,383.7743
127,384.6493
128,385.5227
129,386.3947
130,387.2652
131,388.1345
132,389.0028
133,389.8703
134,390.7374
135,391.6041
136,392.4701
137,393.3352
138,394.1995
139,395.0626
140,395.9245
141,396.785
142,397.6443
143,398.5024
144,399.3592
145,400.2148
146,401.0691
147,401.9222
148,402.774
149,403.6245
150,404.4737
151,405.3216
152,406.1683
153,407.014
154,407.8591
155,408.7035
156,409.5474
157,410.3905
158,411.2328
159,412.0743
160,412.9148
161,413.7545
162,414.5933
163,415.4312
164,416.2683
165,417.1046
166,417.9404
167,418.7757
168,419.6107
169,420.4455
170,421.28
171,422.1144
172,422.9482
173,423.7815
174,424.6141
175,425.4458
176,426.2764
177,427.1059
178,427.9344
179,428.7621
180,429.5892
181,430.416
182,431.2422
183,432.0678
184,432.8927
185,433.7174
186,434.5421
187,435.3666
188,436.191
189,437.0154
190,437.8395
191,438.6633
192,439.4865
193,440.3089
194,441.1305
195,441.9513
196,442.7716
197,443.5918
198,444.4123
199,445.2333
200,446.0548
201,446.8766
202,447.7006
203,448.5297
204,449.3597
205,450.188
206,451.0141
207,451.8378
208,452.6594
209,453.4794
210,454.2985
211,455.1173
212,455.9359
213,456.7547
214,457.5743
215,458.3958
216,459.2197
217,460.046
218,460.8745
219,461.705
220,462.5372
221,463.3731
222,464.2121
223,465.0524
224,465.8939
225,466.7375
226,467.5848
227,468.4375
228,469.2956
229,470.1579
230,471.0555
231,472.0758
232,472.9386
233,473.8059
234,474.6832
235,475.5679
236,476.4587
237,477.356
238,478.2604
239,479.1719
240,480.0908
241,481.0172
242,481.9506
243,482.8916
244,483.8419
245,484.8003
246,485.7649
247,486.7348
248,487.7105
249,488.6935
250,489.6837
251,490.6812
252,491.6887
253,492.707
254,493.733
255,494.764
256,495.8026
257,496.8597
258,497.9235
259,498.9936
260,500.0655
261,501.1355
262,502.2177
263,503.3082
264,504.3939
265,505.4767
266,506.5596
267,507.6433
268,508.7275
269,509.812
270,510.9038
271,512.0182
272,513.142
273,514.271
274,515.4095
275,516.5607
276,517.7198
277,518.8804
278,520.0427
279,521.2182
280,522.4105
281,523.6016
282,524.7886
283,525.9744
284,527.159
285,528.3454
286,529.5456
287,530.7773
288,532.0061
289,533.2237
290,534.499
291,535.7743
292,537.0084
293,538.2061
294,539.3904
295,540.6089
296,541.9302
297,543.2219
298,544.4682
299,545.7528
300,547.1374
301,548.4958
302,549.8305
303,551.1379
304,552.467
305,553.8182
306,555.1585
307,556.6466
308,558.1381
309,559.6507
310,561.0546
311,562.4095
312,563.7555
313,566.099
314,566.9526
315,568.2377
316,569.601
317,571.2345
318,572.604
319,574.4557
320,576.1088
321,577.7199
322,578.9548
323,580.4362
324,581.8691
325,583.2498
326,584.8903
327,586.4215
328,587.787
329,589.4778
330,590.7459
331,592.7265
332,594.5821
333,596.9199
334,598.0824
335,599.8563
336,601.4897
337,603.1208
338,604.5946
339,611.663
340,609.2727
341,610.8493
342,612.942
343,615.5151
344,617.1799
345,621.192
346,620.4439
347,623.4933
348,628.3568
349,625.9734
350,629.0988
351,635.489
352,636.9841
353,634.4641
354,636.5144
355,640.1752
356,644.1032
357,645.1509
358,646.627
359,656.9405
360,657.7314
361,659.3684
362,658.2101
363,661.7282
364,670.2274
365,671.4741
366,676.6108
367,678.8058
368,685.8855
369,679.1915
370,688.9832
371,689.7252
372,698.213
373,698.1935
374,703.2274
375,721.7264
376,710.5174
377,719.3983
378,719.4731
379,720.0846
380,727.7425
381,744.3557
382,744.4026
383,734.0661
384,743.5786
385,751.4806
386,759.1376
387,766.9711
388,770.053
389,775.6179
390,781.9488
391,799.3259
392,937.1881
393,803.8304
394,807.2609
395,808.9515
396,807.0585
397,808.1462
398,808.8756
399,840.6126
400,836.48
401,833.9085
402,831.9607
403,830.3944
404,829.0988
405,828.0096
406,827.0847
407,826.2936
408,825.6135
409,825.0266
410,824.5184
411,824.0773
412,823.6937
413,823.3594
414,823.0677
415,822.8127
416,822.5896
417,822.3942
418,822.2228
419,822.0723
420,821.9402
421,821.8239
422,821.7216
423,821.6314
424,821.5519
425,821.4817
426,821.4197
427,821.3649
428,821.3163
429,821.2733
430,821.2351
431,821.2012
432,821.171
433,821.1442
434,821.1202
435,821.0987
436,821.0796
437,821.0624
438,821.0469
439,821.033
440,821.0205
441,821.0092
442,820.9989
443,820.9896
444,820.9811
445,820.9734
446,820.9663
447,820.9598
448,820.9538
449,820.9483
450,820.9432