File: PMMA/Validation_Results/UMD-FSRI/UMD-FSRI_Gasification_q50_Mass_R5.csv
s,g,g/m2/s
Time,Mass,MassLossRate
0,28.126,0
1,28.126,0
2,28.126,0
3,28.126,1.24E-05
4,28.126,0.000429307
5,28.126,0.002964596
6,28.126,0.01114447
7,28.1259,0.04635556
8,28.1256,0.1067054
9,28.1249,0.2760285
10,28.1232,0.6124776
11,28.1201,1.15867
12,28.1147,1.818893
13,28.107,2.164216
14,28.0988,2.001507
15,28.0922,1.583864
16,28.0865,1.429356
17,28.0815,1.180437
18,28.0771,1.188942
19,28.0726,1.067725
20,28.0686,1.056275
21,28.0645,1.077153
22,28.0603,1.109467
23,28.0561,1.087399
24,28.0519,1.051013
25,28.0479,1.113131
26,28.0435,1.161874
27,28.0388,1.271665
28,28.0336,1.410082
29,28.0278,1.605547
30,28.0208,1.957242
31,28.0129,2.162976
32,28.0036,2.693506
33,27.9921,3.208166
34,27.979,3.70257
35,27.9638,4.187099
36,27.9458,4.883807
37,27.9256,5.497534
38,27.9034,5.811976
39,27.8799,6.399968
40,27.854,6.892954
41,27.8268,7.33147
42,27.7984,7.216148
43,27.7696,7.991826
44,27.7387,8.693814
45,27.7037,9.019895
46,27.6679,9.136626
47,27.631,9.697457
48,27.5944,9.657412
49,27.5579,9.839025
50,27.5193,10.32774
51,27.4788,10.95739
52,27.4365,10.78695
53,27.3929,11.61536
54,27.3468,12.21262
55,27.2981,12.90213
56,27.249,12.1012
57,27.2025,11.9074
58,27.156,11.90016
59,27.1087,12.84135
60,27.0576,13.43809
61,27.0057,13.47324
62,26.9542,13.64455
63,26.9012,14.21012
64,26.8471,13.53356
65,26.7948,13.66989
66,26.7431,13.16717
67,26.6921,13.57488
68,26.6397,14.10257
69,26.5862,14.13002
70,26.5325,13.34248
71,26.4789,14.31537
72,26.4258,13.67825
73,26.3703,14.74283
74,26.3135,14.48617
75,26.2584,14.49315
76,26.2033,14.06113
77,26.1503,14.00082
78,26.0929,15.52802
79,26.0334,15.4748
80,25.9753,14.68431
81,25.9158,15.72614
82,25.8548,15.36586
83,25.7965,15.02053
84,25.739,15.23582
85,25.6819,14.41668
86,25.6252,15.12005
87,25.566,15.12524
88,25.5076,15.47516
89,25.4472,15.06443
90,25.3905,14.71949
91,25.3321,15.26846
92,25.2711,16.03116
93,25.2099,15.49636
94,25.1497,15.77924
95,25.0874,16.17784
96,25.0241,16.27433
97,24.9631,15.51394
98,24.9022,16.34635
99,24.8388,17.00765
100,24.7724,17.20363
101,24.7089,16.14388
102,24.6464,16.57657
103,24.5811,16.92064
104,24.5149,17.54515
105,24.4478,16.9182
106,24.3812,17.67626
107,24.3146,16.95228
108,24.2504,16.63764
109,24.1862,16.26006
110,24.1232,16.60356
111,24.0568,17.20054
112,23.9927,16.43908
113,23.9282,17.21687
114,23.8608,17.35838
115,23.795,17.29878
116,23.7304,16.13648
117,23.666,16.53937
118,23.6024,16.96259
119,23.5367,17.51565
120,23.4683,18.0476
121,23.4019,17.32346
122,23.3352,17.38147
123,23.2668,17.71555
124,23.1977,18.27356
125,23.127,18.16294
126,23.0575,18.12357
127,22.9872,18.16332
128,22.9168,18.12161
129,22.8467,17.83786
130,22.7775,18.08052
131,22.7085,18.59677
132,22.6393,17.94179
133,22.5703,17.7724
134,22.4997,18.9572
135,22.4292,18.13509
136,22.3594,17.81669
137,22.2892,19.25651
138,22.2157,18.67205
139,22.1457,17.92766
140,22.0759,18.42443
141,22.0054,18.24274
142,21.9326,18.47945
143,21.8614,19.0282
144,21.7888,18.9183
145,21.7167,18.4567
146,21.645,18.81202
147,21.5731,19.10956
148,21.5015,18.49174
149,21.4312,18.56958
150,21.3587,18.56584
151,21.2847,19.47165
152,21.2102,19.42802
153,21.1382,18.53527
154,21.0658,19.49125
155,20.9898,19.37852
156,20.9194,17.74058
157,20.8486,19.06922
158,20.7719,19.75733
159,20.6964,19.67668
160,20.624,18.32813
161,20.552,18.86697
162,20.4792,18.9987
163,20.4034,19.86935
164,20.3282,19.12951
165,20.2546,19.65967
166,20.1797,19.02206
167,20.1062,19.74619
168,20.0305,19.33966
169,19.9572,18.8844
170,19.8836,18.97296
171,19.812,19.03833
172,19.7384,19.10081
173,19.6661,18.9942
174,19.5919,19.71094
175,19.5163,19.95176
176,19.4385,20.06542
177,19.3611,20.31397
178,19.2819,20.95369
179,19.2004,20.80437
180,19.1227,20.03919
181,19.0481,18.99296
182,18.9711,20.41
183,18.8925,20.07206
184,18.8151,20.16406
185,18.7377,19.90895
186,18.6589,20.89209
187,18.579,21.37948
188,18.4995,20.20156
189,18.4201,20.49715
190,18.3413,20.09294
191,18.2624,20.82085
192,18.184,19.8687
193,18.1031,20.99751
194,18.0235,20.85632
195,17.9445,20.97804
196,17.867,19.82024
197,17.7915,20.08166
198,17.7148,19.82158
199,17.6405,19.16728
200,17.5631,20.46831
201,17.486,20.35323
202,17.4076,19.63473
203,17.3308,20.33553
204,17.2522,21.0196
205,17.1733,20.28246
206,17.0925,21.10812
207,17.0127,20.6862
208,16.9328,20.83261
209,16.8531,21.25534
210,16.7721,21.32272
211,16.69,21.4228
212,16.6096,20.60597
213,16.5299,20.18861
214,16.4496,21.24427
215,16.3666,21.23341
216,16.2839,21.30992
217,16.2014,21.19404
218,16.1192,22.20816
219,16.0341,22.42295
220,15.9495,21.33617
221,15.8674,21.56567
222,15.7836,20.49047
223,15.7064,19.75064
224,15.6285,20.96616
225,15.55,19.73393
226,15.4731,20.39225
227,15.3939,20.64905
228,15.3137,20.96023
229,15.2316,22.26519
230,15.1445,22.40735
231,15.0612,21.04671
232,14.9769,22.80243
233,14.8922,21.36715
234,14.8096,21.75518
235,14.7251,21.52814
236,14.6415,21.88437
237,14.56,20.65622
238,14.4805,20.77024
239,14.3987,21.14116
240,14.3152,21.7654
241,14.2307,22.49351
242,14.1457,22.20717
243,14.0615,22.04615
244,13.9778,21.16621
245,13.8969,22.01336
246,13.81,22.36267
247,13.725,22.32841
248,13.6413,20.95566
249,13.5603,20.9949
250,13.4789,21.02176
251,13.3977,21.54017
252,13.3136,22.2765
253,13.2263,22.76708
254,13.1409,21.96795
255,13.0559,21.9437
256,12.9709,22.39128
257,12.8845,22.3204
258,12.7987,21.32285
259,12.7185,20.68092
260,12.6355,21.94049
261,12.5493,22.61775
262,12.4625,22.75815
263,12.3776,21.86051
264,12.2908,23.11252
265,12.2037,21.91912
266,12.1213,21.31659
267,12.0362,22.74327
268,11.9482,23.40378
269,11.8623,21.99643
270,11.7732,24.32642
271,11.6827,23.11561
272,11.5964,22.80165
273,11.507,23.43741
274,11.4173,22.77661
275,11.3284,23.59323
276,11.239,23.50077
277,11.1481,24.15157
278,11.0559,24.88923
279,10.9635,23.42818
280,10.8734,23.6108
281,10.7845,22.76832
282,10.6977,22.32491
283,10.6107,22.91402
284,10.5213,23.75581
285,10.4278,23.87388
286,10.3345,24.00973
287,10.2415,24.25611
288,10.1476,24.06399
289,10.0534,24.36773
290,9.96006,23.9756
291,9.86651,24.43148
292,9.77356,24.14966
293,9.67941,24.30757
294,9.58375,24.52834
295,9.48715,25.51862
296,9.3897,24.75248
297,9.29242,25.05844
298,9.19926,24.63441
299,9.10435,24.42777
300,9.01164,24.00722
301,8.91853,24.61441
302,8.822,25.12428
303,8.7251,25.28221
304,8.62708,25.56811
305,8.52866,24.74536
306,8.43393,24.56119
307,8.33838,24.91386
308,8.24253,25.13618
309,8.1429,26.40586
310,8.04405,25.13541
311,7.94892,24.90469
312,7.85114,25.42714
313,7.75424,25.1796
314,7.6588,24.61101
315,7.56277,25.56751
316,7.46504,25.70559
317,7.36305,26.32357
318,7.26465,25.47828
319,7.16663,25.52957
320,7.06643,25.9429
321,6.96499,26.61062
322,6.86249,26.96432
323,6.75846,26.97857
324,6.65405,27.09276
325,6.54924,27.94778
326,6.43947,27.93963
327,6.33154,27.87031
328,6.22446,27.72003
329,6.11797,26.96909
330,6.01256,27.77187
331,5.90581,28.26957
332,5.79664,27.82458
333,5.68922,28.23159
334,5.57881,29.02726
335,5.46834,28.06469
336,5.35911,28.55313
337,5.25004,27.85562
338,5.14113,29.07051
339,5.0286,28.37318
340,4.91619,29.14896
341,4.80486,28.40818
342,4.69653,27.81812
343,4.58484,29.55974
344,4.47168,29.84329
345,4.3545,31.10778
346,4.23856,30.06463
347,4.12331,29.01634
348,4.00955,29.57509
349,3.89396,30.57181
350,3.7746,30.76487
351,3.65643,30.52773
352,3.53873,31.00082
353,3.42186,30.48142
354,3.30642,29.72647
355,3.18978,30.499
356,3.07038,31.24474
357,2.95196,30.90044
358,2.83447,30.34682
359,2.71559,31.18003
360,2.59496,31.07213
361,2.47454,31.21221
362,2.35398,31.09961
363,2.23525,30.78755
364,2.11716,30.47772
365,1.99973,30.83549
366,1.88097,30.69345
367,1.76384,30.07558
368,1.64675,30.95657
369,1.52957,30.14932
370,1.41481,29.76965
371,1.30252,29.67652
372,1.19088,28.58372
373,1.08222,29.15894
374,0.973781,27.99919
375,0.870831,26.95988
376,0.768813,26.78601
377,0.668765,26.84645
378,0.572176,22.68261
379,0.481984,24.04403
380,0.390337,21.71884
381,0.304478,21.12761
382,0.222587,20.14761
383,0.148735,18.41675
384,0.0854856,15.23118
385,0.0570302,1.248695
386,0.0562297,8.08E-05
387,0.0562297,4.74E-12
388,0.0562297,3.24E-21
389,0.0562297,7.78E-32
390,0.0562297,1.26E-43
391,0.0562297,6.94E-46
392,0.0562297,6.94E-46
393,0.0562297,6.94E-46
394,0.0562297,6.94E-46
395,0.0562297,6.94E-46
396,0.0562297,6.94E-46
397,0.0562297,6.94E-46
398,0.0562297,6.94E-46
399,0.0562297,6.94E-46
400,0.0562297,6.94E-46
401,0.0562297,6.94E-46
402,0.0562297,6.94E-46
403,0.0562297,6.94E-46
404,0.0562297,6.94E-46
405,0.0562297,6.94E-46
406,0.0562297,6.94E-46
407,0.0562297,6.94E-46
408,0.0562297,6.94E-46
409,0.0562297,6.94E-46
410,0.0562297,6.94E-46
411,0.0562297,6.94E-46
412,0.0562297,6.94E-46
413,0.0562297,6.94E-46
414,0.0562297,6.94E-46
415,0.0562297,6.94E-46
416,0.0562297,6.94E-46
417,0.0562297,6.94E-46
418,0.0562297,6.94E-46
419,0.0562297,6.94E-46
420,0.0562297,6.94E-46
421,0.0562297,6.94E-46
422,0.0562297,6.94E-46
423,0.0562297,6.94E-46
424,0.0562297,6.94E-46
425,0.0562297,6.94E-46
426,0.0562297,6.94E-46
427,0.0562297,6.94E-46
428,0.0562297,6.94E-46
429,0.0562297,6.94E-46
430,0.0562297,6.94E-46
431,0.0562297,6.94E-46
432,0.0562297,6.94E-46
433,0.0562297,6.94E-46
434,0.0562297,6.94E-46
435,0.0562297,6.94E-46
436,0.0562297,6.94E-46
437,0.0562297,6.94E-46
438,0.0562297,6.94E-46
439,0.0562297,6.94E-46
440,0.0562297,6.94E-46
441,0.0562297,6.94E-46
442,0.0562297,6.94E-46
443,0.0562297,6.94E-46
444,0.0562297,6.94E-46
445,0.0562297,6.94E-46
446,0.0562297,6.94E-46
447,0.0562297,6.94E-46
448,0.0562297,6.94E-46
449,0.0562297,6.94E-46
450,0.0562297,6.94E-46