File: PMMA/Validation_Results/UMD-FSRI/UMD-FSRI_Gasification_q50_Mass_R4.csv
s,g,g/m2/s
Time,Mass,MassLossRate
0,25.658,0
1,25.658,0
2,25.658,0
3,25.658,0
4,25.658,0.000160637
5,25.658,0.001593306
6,25.658,0.007950582
7,25.6579,0.02630642
8,25.6577,0.08947034
9,25.6572,0.2181029
10,25.6558,0.5313281
11,25.653,0.9925638
12,25.6477,1.774743
13,25.6399,2.311976
14,25.6317,1.87394
15,25.6251,1.557856
16,25.6195,1.39407
17,25.6142,1.285842
18,25.6095,1.217869
19,25.605,1.151305
20,25.6005,1.091017
21,25.5965,1.054553
22,25.5923,1.038936
23,25.5884,1.008413
24,25.5844,1.0479
25,25.5802,1.138267
26,25.5756,1.290803
27,25.5706,1.366483
28,25.565,1.536375
29,25.5587,1.700831
30,25.5518,1.924351
31,25.5441,2.148626
32,25.5351,2.490423
33,25.5242,3.115632
34,25.5112,3.767328
35,25.4956,4.553169
36,25.4772,4.823724
37,25.4575,5.298732
38,25.4361,5.68622
39,25.4127,6.533683
40,25.3871,6.978748
41,25.3581,7.961189
42,25.3267,8.354822
43,25.2944,8.554032
44,25.2606,8.962351
45,25.227,8.728802
46,25.1932,9.117444
47,25.1575,9.507039
48,25.1203,9.634727
49,25.0815,10.34114
50,25.0394,11.2663
51,24.9971,11.10813
52,24.9559,10.33509
53,24.9138,11.43143
54,24.8693,11.90077
55,24.8229,11.67207
56,24.7776,12.02548
57,24.7316,12.28202
58,24.6838,12.47374
59,24.6357,12.69678
60,24.5876,12.51979
61,24.5386,13.10179
62,24.4875,13.01442
63,24.4379,12.85538
64,24.3871,13.16072
65,24.3363,13.25521
66,24.2833,13.9431
67,24.2303,13.99697
68,24.1744,14.5267
69,24.1206,14.11575
70,24.0655,14.35733
71,24.0098,14.34689
72,23.9525,14.31121
73,23.8974,14.44117
74,23.8391,15.81301
75,23.782,14.20957
76,23.7263,14.0753
77,23.6721,14.24293
78,23.6175,14.24194
79,23.5603,14.89958
80,23.5036,15.02646
81,23.4445,16.00362
82,23.3842,15.58543
83,23.323,15.65899
84,23.2622,16.33586
85,23.2006,15.72994
86,23.141,15.27435
87,23.0832,14.7953
88,23.025,15.634
89,22.9649,15.67967
90,22.9039,16.27692
91,22.8408,16.20332
92,22.7776,16.92316
93,22.7122,16.79034
94,22.6512,15.07443
95,22.5915,15.48222
96,22.5316,15.47681
97,22.4705,15.96001
98,22.4073,16.72608
99,22.3441,17.06201
100,22.2775,17.60492
101,22.2131,16.4982
102,22.1524,15.99897
103,22.0898,16.23197
104,22.0278,15.60914
105,21.9671,16.789
106,21.9027,17.0253
107,21.8353,17.9164
108,21.7673,17.47323
109,21.7012,16.59959
110,21.6353,17.66422
111,21.5676,16.67302
112,21.5021,17.05184
113,21.4366,17.06661
114,21.372,16.82834
115,21.3058,17.08203
116,21.2405,17.23692
117,21.1742,17.37821
118,21.1056,18.4802
119,21.0347,18.37158
120,20.9641,17.91602
121,20.8971,17.13543
122,20.8309,17.93663
123,20.7607,18.20742
124,20.6903,18.0032
125,20.6217,18.34614
126,20.5516,18.13711
127,20.4835,17.5164
128,20.4154,17.67086
129,20.3474,18.32922
130,20.2753,19.33083
131,20.2013,19.04319
132,20.1297,17.81808
133,20.0622,17.78163
134,19.9932,18.66259
135,19.9219,19.07486
136,19.8477,18.63553
137,19.7743,19.76502
138,19.6961,19.86066
139,19.6219,19.2021
140,19.5486,18.95967
141,19.4762,18.5136
142,19.4048,18.8312
143,19.3321,19.14231
144,19.2588,18.52214
145,19.184,19.52828
146,19.1104,19.20366
147,19.037,19.31807
148,18.9634,19.34586
149,18.8876,19.70306
150,18.8113,19.90521
151,18.7351,19.95121
152,18.6556,20.22529
153,18.5799,19.42925
154,18.5066,19.06469
155,18.4327,19.63976
156,18.3568,20.36329
157,18.2801,19.63981
158,18.2039,20.19423
159,18.1262,19.64956
160,18.0494,20.1527
161,17.9718,19.93813
162,17.8951,19.07387
163,17.8209,20.0343
164,17.745,19.27403
165,17.6702,19.16265
166,17.595,20.0701
167,17.5185,19.45559
168,17.4419,19.64169
169,17.3661,19.85644
170,17.288,20.32115
171,17.2091,20.82361
172,17.1288,20.0782
173,17.0505,20.58572
174,16.9702,20.883
175,16.8907,20.22114
176,16.8135,20.39773
177,16.7337,20.95075
178,16.6527,21.04393
179,16.5723,20.91667
180,16.4923,20.19737
181,16.414,20.32633
182,16.3371,20.10678
183,16.2611,19.34119
184,16.1846,20.60985
185,16.1032,21.82675
186,16.0194,21.40237
187,15.94,20.20569
188,15.8616,20.2234
189,15.7837,20.05327
190,15.706,20.25586
191,15.6256,21.00459
192,15.5462,20.51941
193,15.466,20.57261
194,15.3865,20.97734
195,15.3041,21.15851
196,15.2226,21.26469
197,15.1405,21.09097
198,15.0593,21.53613
199,14.9763,22.92895
200,14.8874,23.10846
201,14.8021,20.71469
202,14.7224,20.26947
203,14.6454,20.32107
204,14.5674,20.31213
205,14.4889,20.25539
206,14.4083,21.52728
207,14.3273,20.65212
208,14.2484,20.67539
209,14.1662,22.19184
210,14.0842,21.4092
211,14.0002,21.93863
212,13.9156,25.31602
213,13.8285,22.61985
214,13.7439,21.40296
215,13.6622,21.2651
216,13.5827,20.41929
217,13.5015,21.47531
218,13.4201,21.07557
219,13.3401,20.56713
220,13.2594,21.04241
221,13.1776,21.42229
222,13.0961,20.78936
223,13.0164,20.95047
224,12.9343,21.96425
225,12.8483,22.65055
226,12.7624,21.9708
227,12.6782,21.88072
228,12.5906,23.35264
229,12.5044,21.92797
230,12.4193,21.58613
231,12.3374,21.88898
232,12.2542,21.5485
233,12.1692,22.66579
234,12.0825,22.02246
235,11.9973,22.57014
236,11.9097,22.5614
237,11.8221,22.40352
238,11.7315,23.49601
239,11.6424,23.22055
240,11.5529,23.09795
241,11.4656,22.47176
242,11.3767,23.8792
243,11.2862,22.94112
244,11.1955,23.10151
245,11.1071,22.85172
246,11.021,22.28161
247,10.9331,22.84477
248,10.8446,23.13512
249,10.7548,22.90333
250,10.665,24.2809
251,10.5718,23.38656
252,10.4818,23.88819
253,10.3887,23.99186
254,10.2975,23.95741
255,10.2057,24.27094
256,10.1111,24.20224
257,10.0198,23.4138
258,9.92927,23.85707
259,9.83903,23.49222
260,9.74925,22.91973
261,9.657,25.63898
262,9.56043,24.55984
263,9.46831,23.74306
264,9.37756,23.47683
265,9.28533,24.1637
266,9.19281,23.93996
267,9.09885,24.85567
268,9.0003,25.53972
269,8.90316,25.16888
270,8.809951,23.72003
271,8.71603,25.16802
272,8.61626,25.43176
273,8.51952,24.26536
274,8.42509,25.11257
275,8.32749,25.30208
276,8.2289,25.07817
277,8.13202,25.87556
278,8.03104,26.16032
279,7.93157,26.43411
280,7.83256,26.28668
281,7.73157,25.63238
282,7.63123,25.90402
283,7.53217,26.33105
284,7.42857,27.70405
285,7.32174,27.51552
286,7.21877,26.28247
287,7.11955,25.6153
288,7.01893,25.96693
289,6.91656,26.94319
290,6.81345,26.84778
291,6.70997,27.00086
292,6.60505,27.47042
293,6.49884,27.08486
294,6.39373,27.2124
295,6.2881,27.39474
296,6.1825,27.55945
297,6.07802,26.74122
298,5.97505,27.43903
299,5.86813,28.20641
300,5.76118,27.1714
301,5.65553,27.60436
302,5.55067,27.29251
303,5.44565,27.61486
304,5.33815,27.86546
305,5.22805,28.93843
306,5.11696,28.95876
307,5.00697,28.53783
308,4.89749,28.63186
309,4.78551,28.66105
310,4.6734,29.43798
311,4.55971,29.51805
312,4.44542,29.97945
313,4.33114,29.5303
314,4.21637,29.81748
315,4.1018,29.57592
316,3.98771,29.85756
317,3.87156,30.34902
318,3.75286,30.64686
319,3.63545,30.60919
320,3.51816,30.22248
321,3.40056,31.13929
322,3.28196,30.23262
323,3.16359,30.73243
324,3.04591,30.98283
325,2.9266,31.06037
326,2.80708,31.36084
327,2.68625,31.04858
328,2.5659,30.99653
329,2.4464,30.62468
330,2.32688,31.28208
331,2.20607,30.81686
332,2.08703,31.28789
333,1.97002,30.24937
334,1.85269,30.31004
335,1.73549,29.67015
336,1.62047,30.11061
337,1.50619,29.24108
338,1.39154,29.95554
339,1.27876,28.91597
340,1.16556,28.86387
341,1.05547,28.97974
342,0.948247,28.12796
343,0.841837,27.22811
344,0.738175,26.84507
345,0.638974,24.9536
346,0.547615,24.44184
347,0.455849,24.98753
348,0.365861,21.78391
349,0.28183,21.72322
350,0.20274,19.06399
351,0.132652,18.07965
352,0.0708538,12.46896
353,0.0515577,0.5469106
354,0.051296,5.19E-06
355,0.051296,9.46E-14
356,0.051296,2.82E-23
357,0.051296,3.59E-34
358,0.051296,1.12E-45
359,0.051296,7.68E-46
360,0.051296,7.68E-46
361,0.051296,7.68E-46
362,0.051296,7.68E-46
363,0.051296,7.68E-46
364,0.051296,7.68E-46
365,0.051296,7.68E-46
366,0.051296,7.68E-46
367,0.051296,7.68E-46
368,0.051296,7.68E-46
369,0.051296,7.68E-46
370,0.051296,7.68E-46
371,0.051296,7.68E-46
372,0.051296,7.68E-46
373,0.051296,7.68E-46
374,0.051296,7.68E-46
375,0.051296,7.68E-46
376,0.051296,7.68E-46
377,0.051296,7.68E-46
378,0.051296,7.68E-46
379,0.051296,7.68E-46
380,0.051296,7.68E-46
381,0.051296,7.68E-46
382,0.051296,7.68E-46
383,0.051296,7.68E-46
384,0.051296,7.68E-46
385,0.051296,7.68E-46
386,0.051296,7.68E-46
387,0.051296,7.68E-46
388,0.051296,7.68E-46
389,0.051296,7.68E-46
390,0.051296,7.68E-46
391,0.051296,7.68E-46
392,0.051296,7.68E-46
393,0.051296,7.68E-46
394,0.051296,7.68E-46
395,0.051296,7.68E-46
396,0.051296,7.68E-46
397,0.051296,7.68E-46
398,0.051296,7.68E-46
399,0.051296,7.68E-46
400,0.051296,7.68E-46
401,0.051296,7.68E-46
402,0.051296,7.68E-46
403,0.051296,7.68E-46
404,0.051296,7.68E-46
405,0.051296,7.68E-46
406,0.051296,7.68E-46
407,0.051296,7.68E-46
408,0.051296,7.68E-46
409,0.051296,7.68E-46
410,0.051296,7.68E-46
411,0.051296,7.68E-46
412,0.051296,7.68E-46
413,0.051296,7.68E-46
414,0.051296,7.68E-46
415,0.051296,7.68E-46
416,0.051296,7.68E-46
417,0.051296,7.68E-46
418,0.051296,7.68E-46
419,0.051296,7.68E-46
420,0.051296,7.68E-46
421,0.051296,7.68E-46
422,0.051296,7.68E-46
423,0.051296,7.68E-46
424,0.051296,7.68E-46
425,0.051296,7.68E-46
426,0.051296,7.68E-46
427,0.051296,7.68E-46
428,0.051296,7.68E-46
429,0.051296,7.68E-46
430,0.051296,7.68E-46
431,0.051296,7.68E-46
432,0.051296,7.68E-46
433,0.051296,7.68E-46
434,0.051296,7.68E-46
435,0.051296,7.68E-46
436,0.051296,7.68E-46
437,0.051296,7.68E-46
438,0.051296,7.68E-46
439,0.051296,7.68E-46
440,0.051296,7.68E-46
441,0.051296,7.68E-46
442,0.051296,7.68E-46
443,0.051296,7.68E-46
444,0.051296,7.68E-46
445,0.051296,7.68E-46
446,0.051296,7.68E-46
447,0.051296,7.68E-46
448,0.051296,7.68E-46
449,0.051296,7.68E-46
450,0.051296,7.68E-46