File: PMMA/Validation_Results/UMD-FSRI/UMD-FSRI_Gasification_q50_Mass_R3.csv
s,g,g/m2/s
Time,Mass,MassLossRate
0,26.729,0
1,26.729,0
2,26.729,0
3,26.729,1.12E-07
4,26.729,0.000139782
5,26.729,0.001775709
6,26.729,0.007978064
7,26.729,0.03412444
8,26.7287,0.1158652
9,26.7278,0.2901681
10,26.7263,0.5446245
11,26.7232,1.101707
12,26.7178,1.625932
13,26.7108,1.972996
14,26.7027,2.141798
15,26.6959,1.544235
16,26.6904,1.379703
17,26.6854,1.209538
18,26.6805,1.209751
19,26.6762,1.076395
20,26.6719,1.16903
21,26.6676,1.178283
22,26.6633,1.030695
23,26.6593,1.019749
24,26.6554,1.050319
25,26.6512,1.110634
26,26.6468,1.193267
27,26.6421,1.270242
28,26.6368,1.515971
29,26.6307,1.703705
30,26.6238,1.905692
31,26.6155,2.245065
32,26.6065,2.475941
33,26.5966,3.006247
34,26.5843,3.46922
35,26.5696,4.125373
36,26.5527,4.857919
37,26.533,5.391932
38,26.5118,5.779411
39,26.489,6.116423
40,26.4653,6.185531
41,26.4396,7.215755
42,26.4099,7.83069
43,26.3784,8.56213
44,26.3455,8.579303
45,26.3108,8.940786
46,26.2748,9.646254
47,26.237,10.03994
48,26.1971,10.68229
49,26.1563,10.14607
50,26.1163,10.80392
51,26.0723,11.81229
52,26.0265,11.55416
53,25.9806,11.72393
54,25.9364,11.27887
55,25.8922,11.59416
56,25.8462,11.9119
57,25.8017,11.04071
58,25.7567,11.91739
59,25.7093,12.62865
60,25.659,12.88915
61,25.6086,13.18246
62,25.5578,13.09725
63,25.5078,13.06229
64,25.4574,13.42615
65,25.4062,13.08103
66,25.3549,13.09638
67,25.304,13.20358
68,25.252,14.06883
69,25.197,14.35705
70,25.1415,14.07131
71,25.0858,14.38426
72,25.03,14.19563
73,24.9768,13.66594
74,24.9233,14.2001
75,24.8693,14.07279
76,24.8145,14.42614
77,24.7577,15.47721
78,24.6977,15.68232
79,24.6373,15.8858
80,24.5784,15.0155
81,24.5204,15.9502
82,24.4596,15.59216
83,24.3994,15.61094
84,24.3393,15.66963
85,24.2801,14.87633
86,24.2205,15.6159
87,24.162,14.80161
88,24.1027,15.18863
89,24.0449,14.88868
90,23.9872,15.22878
91,23.9282,15.76588
92,23.8655,16.3905
93,23.8026,16.56184
94,23.7404,15.96326
95,23.6777,16.34295
96,23.6153,16.4493
97,23.5531,15.60127
98,23.4923,16.29151
99,23.4306,15.87142
100,23.3701,15.52698
101,23.3114,14.97439
102,23.2537,15.09631
103,23.1938,15.69501
104,23.1302,17.16476
105,23.0643,17.30318
106,22.9979,17.13008
107,22.9324,17.63597
108,22.866,16.3655
109,22.8008,17.56019
110,22.7335,17.4673
111,22.6664,17.57648
112,22.5983,17.48368
113,22.5324,16.66327
114,22.4675,17.53082
115,22.4008,17.76383
116,22.3319,17.94157
117,22.2641,17.56239
118,22.1983,17.11133
119,22.1322,16.75911
120,22.0669,16.79992
121,22.0005,16.62549
122,21.9349,17.5954
123,21.8661,18.32369
124,21.7957,17.91555
125,21.7257,17.99403
126,21.6567,18.02172
127,21.5866,19.02947
128,21.5141,18.68417
129,21.4407,19.39151
130,21.3665,19.53074
131,21.2919,18.96281
132,21.2201,18.56718
133,21.1487,18.07307
134,21.0775,18.26188
135,21.0095,17.26922
136,20.9408,17.77464
137,20.8711,18.7263
138,20.7978,19.48576
139,20.723,18.89486
140,20.6521,18.83489
141,20.5785,19.35554
142,20.5021,20.11236
143,20.4296,18.53154
144,20.3576,18.75175
145,20.283,19.54583
146,20.2089,18.71806
147,20.1387,17.77365
148,20.0686,18.15492
149,19.9981,18.07302
150,19.9281,18.49045
151,19.8547,19.44793
152,19.7795,19.48361
153,19.7044,19.5587
154,19.6304,19.01608
155,19.5564,19.75103
156,19.478,20.77299
157,19.3991,19.96847
158,19.3218,19.64351
159,19.2466,19.22414
160,19.1718,19.53955
161,19.0972,18.99328
162,19.0244,18.96071
163,18.9505,19.2689
164,18.8769,19.3833
165,18.8023,19.56367
166,18.725,20.07415
167,18.6472,19.98911
168,18.5706,19.8645
169,18.4945,19.87874
170,18.4157,20.71057
171,18.3349,20.67942
172,18.2571,19.53066
173,18.1821,19.31712
174,18.106,19.20371
175,18.0335,18.75669
176,17.9598,19.38556
177,17.8847,20.29341
178,17.8045,21.72413
179,17.7225,20.4453
180,17.6446,20.10381
181,17.5655,20.6578
182,17.4882,20.00838
183,17.4123,19.7602
184,17.3338,20.55156
185,17.2545,20.70856
186,17.1748,19.91184
187,17.098,20.63437
188,17.02,20.20844
189,16.9416,20.806
190,16.8591,21.37456
191,16.779,20.71112
192,16.6989,20.74381
193,16.6187,20.21162
194,16.5411,20.85031
195,16.4604,21.20155
196,16.3779,21.2993
197,16.2978,20.64259
198,16.2188,20.5327
199,16.1386,21.38563
200,16.0583,20.24495
201,15.9787,20.94554
202,15.8977,20.81831
203,15.817,21.09439
204,15.7359,21.43585
205,15.6541,21.6253
206,15.573,20.8496
207,15.4921,21.50774
208,15.4119,20.25736
209,15.3328,21.07588
210,15.2524,21.09893
211,15.1727,20.39497
212,15.0937,20.6873
213,15.0138,21.42684
214,14.9311,21.98266
215,14.8465,21.66141
216,14.7641,21.29265
217,14.6832,21.69431
218,14.6005,21.84538
219,14.5189,20.94113
220,14.4361,22.36715
221,14.3504,21.70328
222,14.2686,21.33723
223,14.1863,21.73997
224,14.1016,21.91811
225,14.0182,21.81097
226,13.9352,20.99102
227,13.8533,21.46451
228,13.7709,21.59052
229,13.6873,21.4884
230,13.6031,21.34476
231,13.5237,20.3893
232,13.4438,20.96044
233,13.3622,21.78185
234,13.27492,22.73458
235,13.1911,21.08269
236,13.1109,21.22073
237,13.0296,21.11064
238,12.9486,21.06351
239,12.8676,21.10293
240,12.7852,21.37348
241,12.7019,22.43921
242,12.6129,22.74102
243,12.5264,22.70058
244,12.4389,22.91973
245,12.3514,22.81652
246,12.2627,22.84937
247,12.1739,23.00495
248,12.0867,22.28371
249,12.0026,22.08016
250,11.9152,23.08486
251,11.8244,23.75143
252,11.7298,24.36297
253,11.6399,22.77128
254,11.5529,22.38535
255,11.4647,23.2256
256,11.3761,23.43258
257,11.2846,24.15882
258,11.1936,23.77283
259,11.1038,23.23369
260,11.0149,23.16352
261,10.9258,23.42993
262,10.8344,24.16916
263,10.7429,23.36329
264,10.6529,23.01164
265,10.5649,22.38931
266,10.4774,22.99886
267,10.3853,24.65604
268,10.2935,23.48486
269,10.202,23.85593
270,10.1085,24.3401
271,10.0152,24.18443
272,9.92222,24.02047
273,9.83174,23.04349
274,9.74088,24.15153
275,9.64925,23.915
276,9.55612,24.77393
277,9.46179,24.22248
278,9.36867,24.58985
279,9.27451,24.51462
280,9.17911,24.57173
281,9.08319,24.58473
282,8.98785,24.89228
283,8.89258,24.53497
284,8.79837,24.3156
285,8.70313,24.58191
286,8.60742,24.52209
287,8.51055,25.52223
288,8.41264,25.47366
289,8.31175,26.00962
290,8.21278,25.67616
291,8.11339,26.38438
292,8.01026,26.60947
293,7.90834,26.46272
294,7.80914,25.79362
295,7.71017,25.1856
296,7.61215,25.66152
297,7.51161,26.54942
298,7.4118,26.07357
299,7.31099,26.15794
300,7.21026,26.75834
301,7.11073,25.64502
302,7.01017,26.83489
303,6.90856,25.67635
304,6.80876,26.29444
305,6.70854,25.9539
306,6.60524,27.26269
307,6.50083,26.67943
308,6.39443,28.47186
309,6.28632,27.11279
310,6.18441,27.13299
311,6.07969,27.87229
312,5.97189,28.07334
313,5.86251,28.15675
314,5.75552,27.69886
315,5.64847,28.05167
316,5.54093,27.37617
317,5.43427,27.95736
318,5.32817,27.38158
319,5.22182,28.44237
320,5.11292,28.0607
321,5.00273,28.76161
322,4.89127,28.94232
323,4.77855,29.96946
324,4.66353,30.12769
325,4.54669,29.882
326,4.43436,29.41605
327,4.3203,30.01156
328,4.20621,29.79942
329,4.09198,29.90749
330,3.9766,29.89543
331,3.8586,31.21314
332,3.73932,30.14181
333,3.62347,30.14007
334,3.50859,29.79861
335,3.39133,31.1544
336,3.27297,30.29407
337,3.15555,30.80938
338,3.03747,30.38696
339,2.91872,30.8177
340,2.79981,31.25013
341,2.67833,31.79704
342,2.5572,31.39999
343,2.43686,30.96907
344,2.31622,31.41393
345,2.19841,31.15646
346,2.07935,30.39428
347,1.96164,31.0748
348,1.84285,30.13062
349,1.72685,30.19432
350,1.61112,29.96284
351,1.49613,29.81677
352,1.3818,29.76136
353,1.26836,28.92025
354,1.1565,29.30344
355,1.04534,28.45011
356,0.937614,27.13662
357,0.832224,26.27079
358,0.731263,27.19958
359,0.631916,25.54026
360,0.535843,23.22361
361,0.444454,22.72025
362,0.353515,21.01312
363,0.268703,20.31969
364,0.19101,18.75278
365,0.121546,15.84738
366,0.0647194,9.36895
367,0.0534511,0.03256196
368,0.0534357,1.14E-07
369,0.0534357,1.49E-15
370,0.0534357,3.61E-25
371,0.0534357,3.93E-36
372,0.0534357,7.39E-46
373,0.0534357,7.35E-46
374,0.0534357,7.35E-46
375,0.0534357,7.35E-46
376,0.0534357,7.35E-46
377,0.0534357,7.35E-46
378,0.0534357,7.35E-46
379,0.0534357,7.35E-46
380,0.0534357,7.35E-46
381,0.0534357,7.35E-46
382,0.0534357,7.35E-46
383,0.0534357,7.35E-46
384,0.0534357,7.35E-46
385,0.0534357,7.35E-46
386,0.0534357,7.35E-46
387,0.0534357,7.35E-46
388,0.0534357,7.35E-46
389,0.0534357,7.35E-46
390,0.0534357,7.35E-46
391,0.0534357,7.35E-46
392,0.0534357,7.35E-46
393,0.0534357,7.35E-46
394,0.0534357,7.35E-46
395,0.0534357,7.35E-46
396,0.0534357,7.35E-46
397,0.0534357,7.35E-46
398,0.0534357,7.35E-46
399,0.0534357,7.35E-46
400,0.0534357,7.35E-46
401,0.0534357,7.35E-46
402,0.0534357,7.35E-46
403,0.0534357,7.35E-46
404,0.0534357,7.35E-46
405,0.0534357,7.35E-46
406,0.0534357,7.35E-46
407,0.0534357,7.35E-46
408,0.0534357,7.35E-46
409,0.0534357,7.35E-46
410,0.0534357,7.35E-46
411,0.0534357,7.35E-46
412,0.0534357,7.35E-46
413,0.0534357,7.35E-46
414,0.0534357,7.35E-46
415,0.0534357,7.35E-46
416,0.0534357,7.35E-46
417,0.0534357,7.35E-46
418,0.0534357,7.35E-46
419,0.0534357,7.35E-46
420,0.0534357,7.35E-46
421,0.0534357,7.35E-46
422,0.0534357,7.35E-46
423,0.0534357,7.35E-46
424,0.0534357,7.35E-46
425,0.0534357,7.35E-46
426,0.0534357,7.35E-46
427,0.0534357,7.35E-46
428,0.0534357,7.35E-46
429,0.0534357,7.35E-46
430,0.0534357,7.35E-46
431,0.0534357,7.35E-46
432,0.0534357,7.35E-46
433,0.0534357,7.35E-46
434,0.0534357,7.35E-46
435,0.0534357,7.35E-46
436,0.0534357,7.35E-46
437,0.0534357,7.35E-46
438,0.0534357,7.35E-46
439,0.0534357,7.35E-46
440,0.0534357,7.35E-46
441,0.0534357,7.35E-46
442,0.0534357,7.35E-46
443,0.0534357,7.35E-46
444,0.0534357,7.35E-46
445,0.0534357,7.35E-46
446,0.0534357,7.35E-46
447,0.0534357,7.35E-46
448,0.0534357,7.35E-46
449,0.0534357,7.35E-46
450,0.0534357,7.35E-46