File: PMMA/Calibration_Data/FSRI/FSRI_STA_N2_20K_1.csv
Temp,time,TGA,DSC,Sensitivity,Heating Rate,Heat Capacity
[K],[s],[mg],[uV/mg],[mW/uV],[K/s],[J/g/K]
322.1,0.0,3.9605,-3.63E-03,2.861,0.005,-2.21
322.6,33.1,3.9567,2.54E-02,2.008,0.054,0.95
323.1,40.9,3.9581,5.58E-02,1.764,0.078,1.26
323.6,46.5,3.9578,7.96E-02,1.639,0.100,1.31
324.1,51.1,3.9575,0.10575,1.505,0.115,1.39
324.6,55.2,3.9575,0.12599,1.452,0.130,1.41
325.1,58.8,3.9574,0.1485,1.398,0.146,1.43
325.6,62.0,3.9590,0.16827,1.338,0.160,1.41
326.1,65.0,3.9565,0.18631,1.308,0.173,1.41
326.6,67.9,3.9565,0.20345,1.265,0.181,1.42
327.1,70.6,3.9566,0.21883,1.235,0.189,1.43
327.6,73.1,3.9567,0.23556,1.222,0.197,1.46
328.1,75.6,3.9562,0.24945,1.202,0.207,1.45
328.6,78.0,3.9574,0.26019,1.190,0.213,1.45
329.1,80.3,3.9583,0.27145,1.175,0.222,1.44
329.6,82.5,3.9569,0.28545,1.158,0.226,1.46
330.1,84.7,3.9567,0.29576,1.134,0.231,1.45
330.6,86.8,3.9569,0.30628,1.125,0.239,1.44
331.1,88.9,3.9563,0.31846,1.106,0.244,1.44
331.6,90.9,3.9572,0.32764,1.124,0.248,1.48
332.1,92.9,3.9566,0.33693,1.093,0.250,1.47
332.6,94.9,3.9570,0.34758,1.072,0.255,1.46
333.1,96.9,3.9579,0.35506,1.043,0.259,1.43
333.6,98.8,3.9577,0.36412,1.062,0.263,1.47
334.1,100.7,3.9580,0.37016,1.057,0.268,1.46
334.6,102.5,3.9576,0.38094,1.056,0.272,1.48
335.1,104.4,3.9569,0.38708,1.042,0.274,1.47
335.6,106.2,3.9563,0.39538,1.036,0.278,1.47
336.1,108.0,3.9567,0.40054,1.027,0.278,1.48
336.6,109.8,3.9574,0.40678,1.027,0.281,1.49
337.1,111.5,3.9567,0.4145,1.011,0.282,1.49
337.6,113.3,3.9566,0.42109,0.998,0.286,1.47
338.1,115.0,3.9572,0.42663,1.001,0.289,1.48
338.6,116.8,3.9577,0.43204,1.008,0.290,1.50
339.1,118.5,3.9578,0.43431,0.997,0.292,1.48
339.6,120.2,3.9572,0.44014,0.987,0.293,1.48
340.1,121.9,3.9577,0.44644,0.992,0.299,1.48
340.6,123.6,3.9573,0.45137,0.984,0.296,1.50
341.1,125.2,3.9553,0.45508,0.974,0.300,1.48
341.6,126.9,3.9553,0.46195,0.981,0.299,1.51
342.1,128.6,3.9557,0.46683,0.971,0.293,1.55
342.6,130.3,3.9563,0.46767,0.966,0.302,1.50
343.1,131.9,3.9566,0.47353,0.965,0.302,1.51
343.6,133.6,3.9564,0.47813,0.956,0.304,1.50
344.1,135.2,3.9568,0.48271,0.960,0.307,1.51
344.6,136.9,3.9562,0.48565,0.956,0.305,1.52
345.1,138.5,3.9567,0.49025,0.959,0.306,1.54
345.6,140.1,3.9572,0.49362,0.952,0.307,1.53
346.1,141.8,3.9556,0.49585,0.947,0.306,1.53
346.6,143.4,3.9565,0.50142,0.961,0.308,1.56
347.1,145.0,3.9558,0.50475,0.948,0.308,1.55
347.6,146.6,3.9558,0.50981,0.948,0.310,1.56
348.1,148.2,3.9568,0.51154,0.937,0.311,1.54
348.6,149.8,3.9560,0.51701,0.925,0.311,1.54
349.1,151.4,3.9573,0.51854,0.931,0.311,1.55
349.6,153.0,3.9559,0.52056,0.925,0.311,1.55
350.1,154.7,3.9572,0.52528,0.939,0.311,1.58
350.6,156.3,3.9562,0.52782,0.932,0.312,1.58
351.1,157.9,3.9572,0.53438,0.928,0.312,1.59
351.6,159.5,3.9571,0.53421,0.931,0.314,1.58
352.1,161.0,3.9569,0.53777,0.925,0.315,1.58
352.6,162.6,3.9562,0.54061,0.928,0.317,1.58
353.1,164.2,3.9557,0.54362,0.926,0.316,1.59
353.6,165.8,3.9557,0.54591,0.927,0.317,1.60
354.1,167.4,3.9558,0.55019,0.919,0.316,1.60
354.6,169.0,3.9562,0.55155,0.917,0.315,1.61
355.1,170.5,3.9559,0.55471,0.923,0.318,1.61
355.6,172.1,3.9571,0.55369,0.911,0.319,1.58
356.1,173.7,3.9570,0.55572,0.916,0.319,1.60
356.6,175.3,3.9557,0.5553,0.921,0.318,1.61
357.1,176.8,3.9571,0.55667,0.920,0.319,1.61
357.6,178.4,3.9556,0.55578,0.927,0.317,1.62
358.1,180.0,3.9557,0.55552,0.918,0.319,1.60
358.6,181.5,3.9571,0.55397,0.917,0.319,1.59
359.1,183.1,3.9556,0.55369,0.918,0.321,1.58
359.6,184.6,3.9570,0.55407,0.921,0.323,1.58
360.1,186.2,3.9570,0.55216,0.924,0.321,1.59
360.6,187.8,3.9570,0.55042,0.921,0.323,1.57
361.1,189.3,3.9556,0.54977,0.918,0.320,1.58
361.6,190.9,3.9556,0.54984,0.916,0.321,1.57
362.1,192.4,3.9550,0.54875,0.915,0.324,1.55
362.6,194.0,3.9545,0.54903,0.910,0.323,1.55
363.1,195.5,3.9543,0.54904,0.917,0.325,1.55
363.6,197.1,3.9549,0.54989,0.915,0.326,1.54
364.1,198.6,3.9543,0.54821,0.913,0.324,1.55
364.6,200.1,3.9543,0.54844,0.914,0.324,1.55
365.1,201.7,3.9543,0.55035,0.917,0.325,1.55
365.6,203.2,3.9553,0.55094,0.916,0.326,1.55
366.1,204.7,3.9550,0.54939,0.922,0.325,1.56
366.6,206.3,3.9547,0.55279,0.916,0.325,1.56
367.1,207.8,3.9544,0.55168,0.911,0.326,1.54
367.6,209.4,3.9543,0.55187,0.910,0.326,1.54
368.1,210.9,3.9557,0.55357,0.911,0.325,1.55
368.6,212.4,3.9543,0.55571,0.914,0.329,1.54
369.1,213.9,3.9543,0.55575,0.913,0.327,1.55
369.6,215.5,3.9544,0.55497,0.913,0.328,1.54
370.1,217.0,3.9543,0.55847,0.909,0.328,1.55
370.6,218.5,3.9544,0.55771,0.906,0.327,1.54
371.1,220.0,3.9552,0.56002,0.912,0.327,1.56
371.6,221.6,3.9543,0.56141,0.913,0.329,1.56
372.1,223.1,3.9543,0.56507,0.915,0.329,1.57
372.6,224.6,3.9541,0.56441,0.913,0.331,1.56
373.1,226.1,3.9530,0.56483,0.912,0.332,1.55
373.6,227.6,3.9530,0.56635,0.903,0.329,1.55
374.1,229.1,3.9527,0.56945,0.907,0.330,1.56
374.6,230.7,3.9530,0.56877,0.905,0.330,1.56
375.1,232.2,3.9530,0.57151,0.908,0.329,1.58
375.6,233.7,3.9539,0.57449,0.905,0.332,1.57
376.1,235.2,3.9543,0.57594,0.909,0.329,1.59
376.6,236.7,3.9531,0.5775,0.909,0.332,1.58
377.1,238.2,3.9543,0.57899,0.906,0.332,1.58
377.6,239.7,3.9543,0.58125,0.906,0.330,1.60
378.1,241.2,3.9543,0.5851,0.901,0.330,1.60
378.6,242.7,3.9530,0.58435,0.902,0.330,1.60
379.1,244.2,3.9530,0.58547,0.905,0.331,1.60
379.6,245.8,3.9530,0.58963,0.903,0.330,1.62
380.1,247.3,3.9530,0.58865,0.904,0.334,1.59
380.6,248.8,3.9544,0.5922,0.892,0.333,1.59
381.1,250.3,3.9543,0.59349,0.898,0.334,1.60
381.6,251.8,3.9530,0.59663,0.898,0.335,1.60
382.1,253.2,3.9530,0.59687,0.898,0.333,1.61
382.6,254.7,3.9531,0.59991,0.899,0.335,1.61
383.1,256.2,3.9541,0.60275,0.900,0.335,1.62
383.6,257.7,3.9538,0.60456,0.899,0.332,1.64
384.1,259.2,3.9530,0.60854,0.896,0.333,1.64
384.6,260.7,3.9530,0.60862,0.892,0.335,1.62
385.1,262.2,3.9530,0.61139,0.895,0.335,1.63
385.6,263.7,3.9516,0.61348,0.895,0.339,1.62
386.1,265.2,3.9530,0.61301,0.898,0.339,1.62
386.6,266.7,3.9517,0.61932,0.887,0.335,1.64
387.1,268.2,3.9517,0.62175,0.890,0.339,1.63
387.6,269.6,3.9517,0.62328,0.892,0.330,1.69
388.1,271.2,3.9517,0.62594,0.891,0.329,1.69
388.6,272.7,3.9517,0.63093,0.885,0.332,1.68
389.1,274.2,3.9517,0.63339,0.892,0.337,1.68
389.6,275.7,3.9530,0.6361,0.894,0.337,1.69
390.1,277.1,3.9530,0.641,0.889,0.337,1.69
390.6,278.6,3.9523,0.63983,0.892,0.336,1.70
391.1,280.1,3.9517,0.64409,0.893,0.338,1.70
391.6,281.6,3.9517,0.64592,0.887,0.336,1.70
392.1,283.1,3.9517,0.65202,0.898,0.334,1.75
392.6,284.6,3.9517,0.65664,0.894,0.339,1.73
393.1,286.1,3.9518,0.66117,0.893,0.336,1.76
393.6,287.5,3.9504,0.66462,0.888,0.338,1.74
394.1,289.0,3.9517,0.66992,0.894,0.337,1.78
394.6,290.5,3.9517,0.67265,0.896,0.339,1.78
395.1,292.0,3.9517,0.67673,0.893,0.338,1.79
395.6,293.4,3.9517,0.68124,0.890,0.339,1.79
396.1,294.9,3.9517,0.68449,0.886,0.339,1.79
396.6,296.4,3.9517,0.68962,0.891,0.340,1.81
397.1,297.9,3.9517,0.6942,0.886,0.342,1.80
397.6,299.3,3.9517,0.70067,0.897,0.340,1.85
398.1,300.8,3.9516,0.70336,0.888,0.337,1.85
398.6,302.3,3.9510,0.70662,0.896,0.339,1.87
399.1,303.7,3.9511,0.71038,0.890,0.343,1.84
399.6,305.2,3.9511,0.71482,0.891,0.342,1.87
400.1,306.7,3.9511,0.71862,0.888,0.342,1.86
400.6,308.1,3.9511,0.72059,0.886,0.340,1.87
401.1,309.6,3.9511,0.72387,0.893,0.343,1.89
401.6,311.1,3.9511,0.72994,0.899,0.343,1.92
402.1,312.5,3.9511,0.73065,0.893,0.344,1.89
402.6,314.0,3.9511,0.73474,0.894,0.341,1.93
403.1,315.4,3.9511,0.73866,0.889,0.341,1.93
403.6,316.9,3.9509,0.74132,0.888,0.343,1.92
404.1,318.4,3.9497,0.7426,0.884,0.345,1.90
404.6,319.8,3.9504,0.74573,0.890,0.343,1.93
405.1,321.3,3.9505,0.74649,0.890,0.342,1.95
405.6,322.7,3.9517,0.75064,0.893,0.343,1.96
406.1,324.2,3.9517,0.75293,0.896,0.350,1.93
406.6,325.6,3.9503,0.75558,0.890,0.345,1.95
407.1,327.1,3.9504,0.75512,0.892,0.344,1.96
407.6,328.5,3.9504,0.75893,0.887,0.343,1.96
408.1,330.0,3.9504,0.75873,0.887,0.345,1.95
408.6,331.5,3.9504,0.76174,0.890,0.344,1.97
409.1,332.9,3.9504,0.76274,0.895,0.343,1.99
409.6,334.4,3.9502,0.76562,0.888,0.345,1.97
410.1,335.8,3.9491,0.76978,0.886,0.344,1.98
410.6,337.2,3.9491,0.77194,0.887,0.343,1.99
411.1,338.7,3.9491,0.77268,0.895,0.345,2.00
411.6,340.1,3.9491,0.77266,0.891,0.347,1.99
412.1,341.6,3.9491,0.77422,0.894,0.347,2.00
412.6,343.0,3.9491,0.77764,0.888,0.346,1.99
413.1,344.5,3.9491,0.77855,0.890,0.348,1.99
413.6,345.9,3.9505,0.77963,0.885,0.346,2.00
414.1,347.4,3.9491,0.78028,0.887,0.347,2.00
414.6,348.8,3.9491,0.78119,0.890,0.348,2.00
415.1,350.2,3.9491,0.78323,0.889,0.347,2.01
415.6,351.7,3.9491,0.78546,0.879,0.350,1.97
416.1,353.1,3.9491,0.78421,0.894,0.351,2.00
416.6,354.5,3.9491,0.78863,0.887,0.349,2.01
417.1,356.0,3.9491,0.78921,0.882,0.348,2.00
417.6,357.4,3.9479,0.78989,0.885,0.347,2.02
418.1,358.9,3.9465,0.79015,0.894,0.344,2.05
418.6,360.3,3.9465,0.79403,0.893,0.344,2.06
419.1,361.8,3.9465,0.79418,0.891,0.348,2.03
419.6,363.2,3.9462,0.79514,0.898,0.349,2.04
420.1,364.6,3.9459,0.79583,0.891,0.347,2.04
420.6,366.1,3.9461,0.79816,0.893,0.353,2.02
421.1,367.5,3.9461,0.80026,0.891,0.350,2.04
421.6,368.9,3.9461,0.80154,0.885,0.350,2.03
422.1,370.3,3.9461,0.80108,0.893,0.348,2.06
422.6,371.8,3.9461,0.80296,0.889,0.348,2.05
423.1,373.2,3.9461,0.80539,0.886,0.349,2.05
423.6,374.6,3.9461,0.80703,0.889,0.350,2.05
424.1,376.1,3.9461,0.81091,0.890,0.349,2.07
424.6,377.5,3.9461,0.80721,0.888,0.349,2.05
425.1,378.9,3.9461,0.81,0.886,0.349,2.05
425.6,380.4,3.9461,0.81396,0.888,0.349,2.07
426.1,381.8,3.9461,0.81413,0.886,0.350,2.06
426.6,383.2,3.9454,0.81454,0.885,0.351,2.05
427.1,384.6,3.9448,0.81796,0.887,0.350,2.07
427.6,386.1,3.9448,0.81912,0.889,0.351,2.07
428.1,387.5,3.9448,0.82033,0.890,0.349,2.09
428.6,388.9,3.9443,0.82127,0.891,0.352,2.08
429.1,390.4,3.9435,0.82161,0.889,0.353,2.07
429.6,391.8,3.9438,0.82473,0.890,0.352,2.08
430.1,393.2,3.9441,0.82517,0.882,0.352,2.07
430.6,394.6,3.9442,0.82774,0.884,0.352,2.08
431.1,396.0,3.9438,0.82831,0.887,0.351,2.10
431.6,397.5,3.9439,0.83092,0.885,0.351,2.10
432.1,398.9,3.9425,0.83343,0.885,0.349,2.11
432.6,400.3,3.9425,0.83475,0.893,0.352,2.12
433.1,401.7,3.9425,0.83502,0.887,0.353,2.10
433.6,403.2,3.9425,0.83927,0.886,0.352,2.11
434.1,404.6,3.9411,0.84068,0.883,0.354,2.09
434.6,406.0,3.9402,0.84313,0.885,0.352,2.12
435.1,407.4,3.9402,0.84322,0.890,0.353,2.13
435.6,408.8,3.9402,0.84483,0.885,0.352,2.12
436.1,410.3,3.9402,0.84719,0.885,0.351,2.13
436.6,411.7,3.9402,0.8489,0.885,0.352,2.14
437.1,413.1,3.9391,0.85158,0.881,0.355,2.11
437.6,414.5,3.9389,0.85469,0.884,0.351,2.15
438.1,415.9,3.9389,0.85926,0.881,0.353,2.14
438.6,417.4,3.9375,0.86001,0.884,0.351,2.17
439.1,418.8,3.9376,0.86344,0.882,0.352,2.17
439.6,420.2,3.9376,0.86565,0.887,0.352,2.18
440.1,421.6,3.9376,0.86854,0.885,0.354,2.17
440.6,423.0,3.9376,0.87126,0.883,0.353,2.18
441.1,424.4,3.9376,0.87278,0.879,0.352,2.18
441.6,425.9,3.9363,0.876,0.876,0.352,2.18
442.1,427.3,3.9362,0.88155,0.885,0.346,2.25
442.6,428.7,3.9349,0.88145,0.885,0.357,2.19
443.1,430.1,3.9349,0.88771,0.888,0.353,2.23
443.6,431.6,3.9343,0.88636,0.887,0.352,2.23
444.1,433.0,3.9336,0.89235,0.878,0.352,2.23
444.6,434.4,3.9336,0.89372,0.884,0.352,2.24
445.1,435.8,3.9337,0.89655,0.878,0.353,2.23
445.6,437.3,3.9335,0.90044,0.878,0.352,2.24
446.1,438.7,3.9336,0.90489,0.880,0.350,2.27
446.6,440.1,3.9337,0.90736,0.879,0.353,2.26
447.1,441.5,3.9323,0.91085,0.879,0.356,2.25
447.6,442.9,3.9323,0.91602,0.880,0.352,2.29
448.1,444.3,3.9312,0.9201,0.876,0.352,2.29
448.6,445.8,3.9310,0.92334,0.884,0.355,2.30
449.1,447.2,3.9297,0.92725,0.881,0.354,2.31
449.6,448.6,3.9297,0.92855,0.885,0.347,2.37
450.1,450.0,3.9293,0.93412,0.888,0.351,2.36
450.6,451.4,3.9284,0.93662,0.881,0.356,2.32
451.1,452.9,3.9279,0.93936,0.881,0.352,2.35
451.6,454.3,3.9270,0.94382,0.886,0.351,2.39
452.1,455.7,3.9270,0.94743,0.878,0.353,2.36
452.6,457.1,3.9271,0.95009,0.880,0.353,2.37
453.1,458.5,3.9257,0.95487,0.882,0.353,2.39
453.6,460.0,3.9244,0.95937,0.886,0.353,2.41
454.1,461.4,3.9241,0.96099,0.887,0.356,2.40
454.6,462.8,3.9231,0.96341,0.884,0.353,2.42
455.1,464.2,3.9221,0.96958,0.892,0.354,2.44
455.6,465.6,3.9218,0.97137,0.885,0.355,2.43
456.1,467.0,3.9205,0.97544,0.889,0.355,2.44
456.6,468.4,3.9199,0.97753,0.884,0.355,2.44
457.1,469.8,3.9189,0.98364,0.887,0.353,2.47
457.6,471.2,3.9182,0.98292,0.886,0.357,2.44
458.1,472.6,3.9173,0.98544,0.889,0.356,2.46
458.6,474.1,3.9165,0.99139,0.886,0.354,2.48
459.1,475.5,3.9150,0.99072,0.890,0.351,2.52
459.6,476.9,3.9136,0.99468,0.886,0.355,2.48
460.1,478.3,3.9130,0.99741,0.892,0.353,2.52
460.6,479.7,3.9121,0.99968,0.890,0.355,2.51
461.1,481.1,3.9105,1.00228,0.893,0.353,2.53
461.6,482.5,3.9096,1.00307,0.889,0.358,2.49
462.1,483.9,3.9087,1.00545,0.889,0.354,2.52
462.6,485.3,3.9074,1.00808,0.884,0.355,2.51
463.1,486.8,3.9059,1.01034,0.892,0.357,2.53
463.6,488.2,3.9057,1.01059,0.888,0.362,2.48
464.1,489.5,3.9034,1.01159,0.896,0.355,2.55
464.6,491.0,3.9021,1.01543,0.898,0.357,2.55
465.1,492.4,3.9013,1.01491,0.890,0.356,2.54
465.6,493.8,3.9004,1.01601,0.890,0.358,2.52
466.1,495.2,3.8992,1.01713,0.885,0.350,2.57
466.6,496.6,3.8991,1.01735,0.878,0.357,2.50
467.1,498.0,3.8978,1.01725,0.887,0.354,2.55
467.6,499.4,3.8970,1.01774,0.892,0.356,2.55
468.1,500.8,3.8959,1.01674,0.893,0.358,2.53
468.6,502.2,3.8947,1.01554,0.885,0.357,2.52
469.1,503.6,3.8933,1.01853,0.890,0.357,2.54
469.6,505.0,3.8927,1.01736,0.891,0.355,2.55
470.1,506.4,3.8921,1.01608,0.887,0.355,2.54
470.6,507.8,3.8911,1.01397,0.888,0.357,2.52
471.1,509.2,3.8906,1.01689,0.891,0.357,2.54
471.6,510.6,3.8892,1.01286,0.891,0.356,2.54
472.1,512.0,3.8867,1.0143,0.894,0.357,2.54
472.6,513.4,3.8867,1.01377,0.892,0.357,2.53
473.1,514.8,3.8851,1.00942,0.892,0.356,2.53
473.6,516.2,3.8838,1.00965,0.893,0.356,2.53
474.1,517.6,3.8832,1.00677,0.888,0.357,2.50
474.6,519.0,3.8823,1.00578,0.890,0.358,2.50
475.1,520.4,3.8805,1.00567,0.889,0.357,2.51
475.6,521.8,3.8794,1.0041,0.891,0.358,2.50
476.1,523.2,3.8786,1.00138,0.886,0.358,2.48
476.6,524.6,3.8777,1.00045,0.892,0.357,2.50
477.1,526.0,3.8763,0.99904,0.890,0.356,2.50
477.6,527.4,3.8749,0.99871,0.890,0.356,2.50
478.1,528.8,3.8743,0.99634,0.892,0.357,2.49
478.6,530.2,3.8736,0.99431,0.895,0.357,2.49
479.1,531.6,3.8721,0.99336,0.896,0.356,2.50
479.6,533.0,3.8719,0.9914,0.890,0.356,2.48
480.1,534.4,3.8707,0.99198,0.891,0.358,2.46
480.6,535.8,3.8711,0.99259,0.894,0.355,2.50
481.1,537.2,3.8706,0.99217,0.888,0.357,2.47
481.6,538.6,3.8693,0.99083,0.882,0.357,2.45
482.1,540.0,3.8680,0.99177,0.891,0.356,2.48
482.6,541.4,3.8661,0.99216,0.893,0.355,2.49
483.1,542.8,3.8647,0.98926,0.895,0.359,2.46
483.6,544.2,3.8644,0.98976,0.893,0.357,2.47
484.1,545.6,3.8634,0.98948,0.896,0.358,2.47
484.6,547.0,3.8630,0.98962,0.895,0.359,2.47
485.1,548.4,3.8621,0.99011,0.895,0.360,2.46
485.6,549.8,3.8614,0.99355,0.906,0.358,2.51
486.1,551.2,3.8608,0.99499,0.896,0.358,2.49
486.6,552.6,3.8608,0.99407,0.892,0.358,2.48
487.1,554.0,3.8596,0.99453,0.891,0.357,2.48
487.6,555.4,3.8596,0.99598,0.893,0.357,2.49
488.1,556.8,3.8581,0.99797,0.884,0.361,2.45
488.6,558.2,3.8574,0.99952,0.890,0.360,2.47
489.1,559.5,3.8567,1.00022,0.893,0.361,2.47
489.6,560.9,3.8539,1.00133,0.895,0.362,2.47
490.1,562.3,3.8536,1.00325,0.890,0.360,2.48
490.6,563.7,3.8522,1.00458,0.891,0.355,2.52
491.1,565.1,3.8509,1.00479,0.896,0.358,2.51
491.6,566.5,3.8507,1.00815,0.894,0.359,2.51
492.1,567.9,3.8489,1.00687,0.894,0.357,2.52
492.6,569.3,3.8480,1.0098,0.893,0.357,2.53
493.1,570.7,3.8466,1.01076,0.896,0.359,2.52
493.6,572.1,3.8457,1.01087,0.899,0.356,2.55
494.1,573.5,3.8451,1.00927,0.894,0.356,2.54
494.6,574.9,3.8437,1.01239,0.899,0.355,2.56
495.1,576.3,3.8439,1.01042,0.892,0.358,2.51
495.6,577.7,3.8425,1.01189,0.888,0.354,2.54
496.1,579.1,3.8424,1.01376,0.893,0.358,2.53
496.6,580.5,3.8411,1.01035,0.888,0.358,2.50
497.1,581.9,3.8403,1.01024,0.889,0.358,2.51
497.6,583.3,3.8401,1.00947,0.898,0.359,2.52
498.1,584.7,3.8394,1.00519,0.893,0.357,2.51
498.6,586.1,3.8369,1.0053,0.894,0.357,2.52
499.1,587.5,3.8367,1.00421,0.898,0.359,2.51
499.6,588.9,3.8353,1.00135,0.899,0.357,2.52
500.1,590.3,3.8354,0.99843,0.888,0.357,2.48
500.6,591.7,3.8344,0.99611,0.895,0.359,2.48
501.1,593.1,3.8342,0.99203,0.892,0.358,2.47
501.6,594.5,3.8328,0.99048,0.888,0.358,2.46
502.1,595.9,3.8328,0.989,0.896,0.360,2.46
502.6,597.3,3.8318,0.98415,0.897,0.360,2.45
503.1,598.7,3.8301,0.98172,0.897,0.360,2.45
503.6,600.1,3.8302,0.97633,0.898,0.358,2.45
504.1,601.4,3.8301,0.97362,0.901,0.358,2.45
504.6,602.9,3.8288,0.96868,0.897,0.355,2.45
505.1,604.3,3.8289,0.96661,0.896,0.359,2.41
505.6,605.6,3.8279,0.96216,0.895,0.360,2.39
506.1,607.0,3.8276,0.9579,0.899,0.361,2.39
506.6,608.4,3.8276,0.95615,0.896,0.360,2.38
507.1,609.8,3.8266,0.95307,0.897,0.359,2.38
507.6,611.2,3.8263,0.9512,0.898,0.362,2.36
508.1,612.6,3.8262,0.94669,0.908,0.359,2.39
508.6,614.0,3.8256,0.94399,0.895,0.358,2.36
509.1,615.4,3.8256,0.94035,0.895,0.358,2.35
509.6,616.8,3.8256,0.94021,0.900,0.360,2.35
510.1,618.2,3.8245,0.93743,0.896,0.359,2.34
510.6,619.6,3.8241,0.93439,0.895,0.360,2.33
511.1,621.0,3.8239,0.9336,0.899,0.359,2.34
511.6,622.4,3.8236,0.93314,0.902,0.362,2.33
512.1,623.8,3.8236,0.93049,0.899,0.359,2.33
512.6,625.2,3.8236,0.92869,0.906,0.360,2.33
513.1,626.5,3.8236,0.92548,0.904,0.361,2.32
513.6,627.9,3.8236,0.92663,0.899,0.364,2.29
514.1,629.3,3.8236,0.92423,0.899,0.357,2.33
514.6,630.7,3.8229,0.92548,0.904,0.360,2.32
515.1,632.1,3.8228,0.92435,0.904,0.360,2.32
515.6,633.5,3.8223,0.92402,0.900,0.360,2.31
516.1,634.9,3.8223,0.92182,0.902,0.351,2.37
516.6,636.3,3.8213,0.92171,0.900,0.359,2.31
517.1,637.7,3.8197,0.9212,0.902,0.359,2.31
517.6,639.1,3.8197,0.92291,0.901,0.359,2.32
518.1,640.5,3.8197,0.9223,0.909,0.358,2.34
518.6,641.9,3.8197,0.92125,0.902,0.360,2.31
519.1,643.3,3.8197,0.92127,0.903,0.357,2.33
519.6,644.7,3.8201,0.91882,0.900,0.360,2.29
520.1,646.0,3.8206,0.91794,0.901,0.359,2.30
520.6,647.4,3.8206,0.92046,0.900,0.358,2.31
521.1,648.8,3.8206,0.91925,0.905,0.358,2.32
521.6,650.2,3.8206,0.92116,0.904,0.358,2.32
522.1,651.6,3.8206,0.91854,0.901,0.357,2.32
522.6,653.0,3.8190,0.91948,0.898,0.358,2.31
523.1,654.4,3.8180,0.91994,0.904,0.359,2.32
523.6,655.8,3.8180,0.92148,0.910,0.357,2.35
524.1,657.2,3.8180,0.91917,0.910,0.359,2.33
524.6,658.6,3.8180,0.91803,0.906,0.359,2.32
525.1,660.0,3.8180,0.92088,0.912,0.358,2.35
525.6,661.4,3.8180,0.92082,0.906,0.357,2.34
526.1,662.8,3.8180,0.92376,0.907,0.360,2.33
526.6,664.2,3.8180,0.92111,0.901,0.357,2.33
527.1,665.6,3.8180,0.92349,0.909,0.359,2.34
527.6,667.0,3.8180,0.92206,0.909,0.359,2.33
528.1,668.4,3.8180,0.92282,0.909,0.359,2.34
528.6,669.8,3.8179,0.92255,0.906,0.357,2.34
529.1,671.2,3.8166,0.92325,0.908,0.359,2.33
529.6,672.5,3.8167,0.92318,0.907,0.360,2.33
530.1,673.9,3.8162,0.92572,0.912,0.359,2.35
530.6,675.3,3.8154,0.9271,0.911,0.360,2.35
531.1,676.7,3.8154,0.92975,0.912,0.360,2.36
531.6,678.1,3.8153,0.92874,0.908,0.357,2.36
532.1,679.5,3.8140,0.9291,0.908,0.357,2.36
532.6,680.9,3.8141,0.93022,0.906,0.360,2.34
533.1,682.3,3.8140,0.92973,0.911,0.358,2.36
533.6,683.7,3.8127,0.93203,0.909,0.358,2.37
534.1,685.1,3.8127,0.93261,0.915,0.357,2.39
534.6,686.5,3.8127,0.93545,0.911,0.359,2.37
535.1,687.9,3.8127,0.93474,0.914,0.359,2.38
535.6,689.3,3.8127,0.93514,0.914,0.359,2.38
536.1,690.7,3.8127,0.93696,0.911,0.356,2.40
536.6,692.1,3.8127,0.93642,0.912,0.359,2.38
537.1,693.5,3.8128,0.93816,0.918,0.357,2.41
537.6,694.9,3.8106,0.93987,0.918,0.357,2.42
538.1,696.3,3.8101,0.94076,0.911,0.358,2.40
538.6,697.7,3.8101,0.94131,0.912,0.360,2.39
539.1,699.1,3.8101,0.94373,0.918,0.357,2.43
539.6,700.5,3.8091,0.94569,0.918,0.357,2.43
540.1,701.9,3.8099,0.94613,0.912,0.358,2.41
540.6,703.2,3.8101,0.94623,0.918,0.357,2.43
541.1,704.6,3.8097,0.948,0.916,0.358,2.42
541.6,706.0,3.8081,0.94909,0.918,0.359,2.43
542.1,707.4,3.8075,0.94842,0.917,0.359,2.42
542.6,708.8,3.8075,0.95427,0.919,0.359,2.44
543.1,710.2,3.8075,0.95374,0.917,0.360,2.43
543.6,711.6,3.8068,0.95473,0.920,0.358,2.45
544.1,713.0,3.8062,0.95794,0.919,0.358,2.46
544.6,714.4,3.8062,0.95814,0.922,0.360,2.46
545.1,715.8,3.8062,0.96027,0.914,0.358,2.45
545.6,717.2,3.8048,0.96188,0.920,0.358,2.47
546.1,718.6,3.8048,0.96329,0.916,0.356,2.48
546.6,720.0,3.8048,0.96524,0.917,0.360,2.46
547.1,721.4,3.8048,0.968,0.913,0.357,2.48
547.6,722.8,3.8048,0.97081,0.920,0.358,2.49
548.1,724.2,3.8045,0.97307,0.916,0.357,2.50
548.6,725.6,3.8035,0.97435,0.918,0.358,2.50
549.1,727.0,3.8025,0.97746,0.916,0.358,2.50
549.6,728.4,3.8022,0.97826,0.922,0.358,2.52
550.1,729.8,3.7994,0.98012,0.918,0.354,2.54
550.6,731.2,3.7996,0.98413,0.925,0.359,2.54
551.1,732.6,3.7983,0.98588,0.919,0.360,2.52
551.6,734.0,3.7983,0.98861,0.919,0.357,2.55
552.1,735.4,3.7971,0.99076,0.921,0.357,2.55
552.6,736.8,3.7970,0.99311,0.919,0.358,2.55
553.1,738.2,3.7956,0.99738,0.918,0.356,2.57
553.6,739.6,3.7955,0.99627,0.925,0.357,2.59
554.1,741.0,3.7943,1.00169,0.923,0.356,2.60
554.6,742.4,3.7941,1.00425,0.921,0.359,2.57
555.1,743.8,3.7930,1.00569,0.922,0.358,2.59
555.6,745.2,3.7930,1.00642,0.927,0.358,2.61
556.1,746.6,3.7928,1.01139,0.921,0.357,2.61
556.6,748.0,3.7916,1.01464,0.923,0.357,2.62
557.1,749.4,3.7908,1.01824,0.918,0.357,2.62
557.6,750.8,3.7901,1.01905,0.923,0.358,2.63
558.1,752.2,3.7879,1.02211,0.921,0.357,2.63
558.6,753.6,3.7874,1.02727,0.926,0.357,2.66
559.1,755.0,3.7861,1.02813,0.926,0.354,2.69
559.6,756.4,3.7843,1.0315,0.926,0.357,2.67
560.1,757.8,3.7845,1.03831,0.939,0.357,2.73
560.6,759.2,3.7830,1.04154,0.925,0.358,2.69
561.1,760.6,3.7824,1.04232,0.932,0.360,2.70
561.6,762.0,3.7817,1.04317,0.929,0.357,2.72
562.1,763.4,3.7808,1.05014,0.930,0.356,2.74
562.6,764.8,3.7804,1.05204,0.916,0.354,2.72
563.1,766.2,3.7789,1.0587,0.929,0.356,2.77
563.6,767.6,3.7779,1.06173,0.926,0.357,2.76
564.1,769.0,3.7766,1.06462,0.925,0.358,2.75
564.6,770.4,3.7749,1.07111,0.931,0.358,2.79
565.1,771.8,3.7733,1.07505,0.930,0.358,2.79
565.6,773.2,3.7725,1.07993,0.927,0.357,2.80
566.1,774.6,3.7708,1.08557,0.928,0.358,2.81
566.6,776.0,3.7695,1.09038,0.930,0.357,2.84
567.1,777.4,3.7679,1.09521,0.930,0.357,2.86
567.6,778.8,3.7665,1.09999,0.935,0.358,2.87
568.1,780.2,3.7649,1.10687,0.934,0.357,2.89
568.6,781.6,3.7633,1.11421,0.936,0.356,2.93
569.1,783.0,3.7627,1.11801,0.930,0.358,2.90
569.6,784.4,3.7633,1.12253,0.933,0.357,2.93
570.1,785.8,3.7615,1.133,0.929,0.357,2.95
570.6,787.2,3.7600,1.13525,0.932,0.357,2.96
571.1,788.6,3.7582,1.14287,0.930,0.357,2.98
571.6,790.0,3.7564,1.14608,0.933,0.355,3.01
572.1,791.4,3.7550,1.14982,0.936,0.357,3.01
572.6,792.8,3.7534,1.15476,0.938,0.356,3.05
573.1,794.2,3.7515,1.158,0.933,0.357,3.03
573.6,795.6,3.7496,1.16044,0.939,0.356,3.06
574.1,797.0,3.7480,1.165,0.936,0.357,3.05
574.6,798.4,3.7463,1.1695,0.941,0.358,3.08
575.1,799.8,3.7444,1.17282,0.933,0.357,3.07
575.6,801.2,3.7414,1.17562,0.941,0.356,3.11
576.1,802.6,3.7399,1.17671,0.938,0.356,3.10
576.6,804.0,3.7383,1.17939,0.942,0.356,3.12
577.1,805.4,3.7367,1.1826,0.942,0.356,3.13
577.6,806.8,3.7348,1.18573,0.943,0.360,3.10
578.1,808.2,3.7327,1.18854,0.937,0.358,3.11
578.6,809.6,3.7308,1.19243,0.939,0.356,3.15
579.1,811.0,3.7289,1.19599,0.938,0.356,3.15
579.6,812.4,3.7270,1.19951,0.941,0.358,3.15
580.1,813.8,3.7245,1.20272,0.939,0.352,3.21
580.6,815.2,3.7218,1.20445,0.948,0.355,3.22
581.1,816.6,3.7203,1.20561,0.939,0.357,3.17
581.6,818.0,3.7189,1.20932,0.942,0.352,3.24
582.1,819.4,3.7162,1.20987,0.941,0.351,3.24
582.6,820.8,3.7133,1.21394,0.949,0.359,3.21
583.1,822.2,3.7111,1.21812,0.937,0.356,3.21
583.6,823.6,3.7090,1.22082,0.943,0.354,3.25
584.1,825.1,3.7069,1.22374,0.943,0.357,3.24
584.6,826.5,3.7051,1.2265,0.945,0.355,3.26
585.1,827.9,3.7031,1.22968,0.941,0.352,3.29
585.6,829.3,3.7006,1.23218,0.944,0.355,3.28
586.1,830.7,3.6981,1.23741,0.944,0.356,3.28
586.6,832.1,3.6961,1.24245,0.940,0.358,3.27
587.1,833.5,3.6935,1.24474,0.941,0.357,3.29
587.6,834.9,3.6906,1.24731,0.947,0.355,3.33
588.1,836.3,3.6881,1.25089,0.942,0.355,3.32
588.6,837.7,3.6862,1.25419,0.945,0.355,3.34
589.1,839.1,3.6846,1.25782,0.947,0.353,3.37
589.6,840.5,3.6823,1.26345,0.948,0.355,3.38
590.1,841.9,3.6794,1.26827,0.948,0.355,3.39
590.6,843.3,3.6758,1.27272,0.946,0.356,3.38
591.1,844.7,3.6722,1.27871,0.949,0.354,3.43
591.6,846.1,3.6690,1.28342,0.955,0.356,3.45
592.1,847.5,3.6658,1.28908,0.955,0.357,3.45
592.6,849.0,3.6619,1.29567,0.947,0.355,3.46
593.1,850.4,3.6590,1.30268,0.951,0.355,3.49
593.6,851.8,3.6563,1.31024,0.950,0.354,3.51
594.1,853.2,3.6519,1.31652,0.950,0.355,3.52
594.6,854.6,3.6486,1.32463,0.949,0.353,3.56
595.1,856.0,3.6476,1.33291,0.949,0.355,3.57
595.6,857.4,3.6449,1.33849,0.951,0.356,3.58
596.1,858.8,3.6418,1.34959,0.954,0.356,3.61
596.6,860.2,3.6386,1.35826,0.954,0.354,3.66
597.1,861.6,3.6361,1.36805,0.955,0.355,3.68
597.6,863.0,3.6321,1.37611,0.949,0.355,3.67
598.1,864.4,3.6286,1.38894,0.952,0.355,3.73
598.6,865.8,3.6253,1.40242,0.953,0.355,3.77
599.1,867.3,3.6216,1.41423,0.956,0.357,3.79
599.6,868.7,3.6157,1.4287,0.958,0.355,3.86
600.1,870.1,3.6107,1.44021,0.960,0.353,3.91
600.6,871.5,3.6068,1.45557,0.959,0.354,3.94
601.1,872.9,3.6021,1.47019,0.960,0.355,3.98
601.6,874.3,3.5986,1.48403,0.954,0.354,4.00
602.1,875.7,3.5942,1.50191,0.956,0.354,4.06
602.6,877.1,3.5898,1.51977,0.952,0.354,4.08
603.1,878.5,3.5847,1.53989,0.954,0.355,4.14
603.6,880.0,3.5795,1.55741,0.960,0.354,4.22
604.1,881.4,3.5742,1.57462,0.960,0.353,4.28
604.6,882.8,3.5697,1.59423,0.957,0.355,4.30
605.1,884.2,3.5652,1.61607,0.959,0.353,4.38
605.6,885.6,3.5592,1.63808,0.961,0.354,4.45
606.1,887.0,3.5523,1.66023,0.963,0.353,4.53
606.6,888.4,3.5463,1.68242,0.957,0.352,4.57
607.1,889.9,3.5385,1.70731,0.961,0.352,4.66
607.6,891.3,3.5327,1.73154,0.965,0.353,4.73
608.1,892.7,3.5257,1.7582,0.961,0.352,4.80
608.6,894.1,3.5188,1.7845,0.956,0.352,4.84
609.1,895.5,3.5119,1.80929,0.961,0.353,4.92
609.6,896.9,3.5039,1.83803,0.962,0.355,4.99
610.1,898.4,3.4977,1.86809,0.962,0.353,5.09
610.6,899.8,3.4904,1.89741,0.964,0.354,5.17
611.1,901.2,3.4827,1.92644,0.966,0.355,5.25
611.6,902.6,3.4744,1.9589,0.961,0.353,5.33
612.1,904.0,3.4648,1.99134,0.969,0.352,5.48
612.6,905.4,3.4571,2.02477,0.966,0.355,5.51
613.1,906.8,3.4480,2.05545,0.967,0.353,5.64
613.6,908.3,3.4398,2.09245,0.966,0.352,5.74
614.1,909.7,3.4305,2.12834,0.973,0.353,5.87
614.6,911.1,3.4204,2.16566,0.963,0.353,5.90
615.1,912.5,3.4107,2.20214,0.966,0.349,6.09
615.6,913.9,3.3991,2.24092,0.969,0.353,6.14
616.1,915.4,3.3891,2.2807,0.967,0.351,6.28
616.6,916.8,3.3776,2.3209,0.970,0.352,6.39
617.1,918.2,3.3662,2.36352,0.970,0.352,6.52
617.6,919.6,3.3556,2.40764,0.972,0.350,6.69
618.1,921.1,3.3424,2.45027,0.975,0.350,6.82
618.6,922.5,3.3313,2.49322,0.975,0.349,6.96
619.1,923.9,3.3186,2.53578,0.977,0.350,7.08
619.6,925.3,3.3069,2.58486,0.969,0.350,7.15
620.1,926.8,3.2952,2.63401,0.974,0.350,7.33
620.6,928.2,3.2810,2.68201,0.971,0.351,7.43
621.1,929.6,3.2676,2.73083,0.970,0.350,7.56
621.6,931.0,3.2505,2.77904,0.969,0.350,7.70
622.1,932.5,3.2352,2.83136,0.977,0.349,7.93
622.6,933.9,3.2202,2.88233,0.975,0.351,8.01
623.1,935.3,3.2037,2.93578,0.969,0.352,8.08
623.6,936.7,3.1893,2.99064,0.973,0.352,8.27
624.1,938.1,3.1712,3.0457,0.974,0.352,8.44
624.6,939.6,3.1553,3.09815,0.975,0.351,8.60
625.1,941.0,3.1383,3.15398,0.978,0.348,8.86
625.6,942.4,3.1193,3.21098,0.976,0.348,8.99
626.1,943.9,3.1020,3.26709,0.975,0.347,9.18
626.6,945.3,3.0806,3.32603,0.984,0.347,9.45
627.1,946.8,3.0618,3.38768,0.981,0.346,9.60
627.6,948.2,3.0420,3.44372,0.981,0.346,9.76
628.1,949.6,3.0207,3.50495,0.979,0.348,9.86
628.6,951.1,3.0022,3.56524,0.980,0.349,10.01
629.1,952.5,2.9795,3.62439,0.977,0.350,10.13
629.6,953.9,2.9594,3.68745,0.980,0.348,10.40
630.1,955.4,2.9377,3.74568,0.981,0.349,10.52
630.6,956.8,2.9141,3.80607,0.983,0.348,10.77
631.1,958.2,2.8930,3.86875,0.979,0.351,10.81
631.6,959.7,2.8684,3.92778,0.985,0.346,11.17
632.1,961.1,2.8462,3.98974,0.981,0.351,11.15
632.6,962.5,2.8217,4.04818,0.983,0.348,11.45
633.1,964.0,2.7952,4.10849,0.984,0.347,11.66
633.6,965.4,2.7719,4.16854,0.994,0.344,12.06
634.1,966.9,2.7445,4.2258,0.982,0.344,12.07
634.6,968.3,2.7195,4.2877,0.989,0.345,12.29
635.1,969.8,2.6924,4.34361,0.981,0.347,12.27
635.6,971.2,2.6632,4.40036,0.990,0.347,12.56
636.1,972.6,2.6369,4.45733,0.984,0.348,12.59
636.6,974.1,2.6059,4.51314,0.995,0.345,13.00
637.1,975.5,2.5789,4.56419,0.988,0.345,13.05
637.6,977.0,2.5498,4.61588,0.991,0.347,13.20
638.1,978.4,2.5185,4.66809,0.989,0.347,13.31
638.6,979.9,2.4912,4.71823,0.992,0.347,13.50
639.1,981.3,2.4586,4.76341,0.983,0.347,13.50
639.6,982.7,2.4291,4.80554,0.990,0.346,13.74
640.1,984.2,2.3978,4.84926,0.985,0.345,13.83
640.6,985.6,2.3645,4.88758,0.989,0.346,13.97
641.1,987.1,2.3356,4.92337,0.991,0.347,14.08
641.6,988.5,2.3009,4.96006,0.993,0.345,14.26
642.1,990.0,2.2697,4.99377,0.995,0.345,14.38
642.6,991.4,2.2373,5.02322,0.989,0.345,14.39
643.1,992.9,2.2015,5.04908,0.995,0.347,14.47
643.6,994.3,2.1706,5.06953,0.993,0.347,14.52
644.1,995.7,2.1345,5.09133,0.999,0.348,14.63
644.6,997.2,2.1020,5.11096,0.994,0.348,14.58
645.1,998.6,2.0682,5.11931,0.999,0.348,14.68
645.6,1000.0,2.0306,5.13552,0.997,0.348,14.70
646.1,1001.5,1.9991,5.16136,0.995,0.348,14.78
646.6,1002.9,1.9628,5.19183,0.997,0.347,14.90
647.1,1004.4,1.9310,5.19417,0.999,0.348,14.92
647.6,1005.8,1.8966,5.19589,0.993,0.349,14.80
648.1,1007.2,1.8597,5.18611,0.997,0.347,14.92
648.6,1008.7,1.8282,5.18402,0.997,0.347,14.88
649.1,1010.1,1.7909,5.21645,0.998,0.348,14.94
649.6,1011.6,1.7581,5.23623,0.998,0.348,15.01
650.1,1013.0,1.7238,5.22281,1.002,0.345,15.17
650.6,1014.4,1.6859,5.20976,0.996,0.348,14.92
651.1,1015.9,1.6538,5.20628,1.000,0.347,15.03
651.6,1017.3,1.6162,5.20608,1.001,0.348,14.96
652.1,1018.8,1.5836,5.19802,1.001,0.346,15.05
652.6,1020.2,1.5489,5.1839,0.997,0.349,14.81
653.1,1021.6,1.5116,5.16497,1.004,0.348,14.91
653.6,1023.1,1.4798,5.15037,1.000,0.349,14.74
654.1,1024.5,1.4427,5.12176,1.002,0.350,14.68
654.6,1025.9,1.4105,5.09381,0.999,0.350,14.54
655.1,1027.4,1.3758,5.05963,1.007,0.349,14.61
655.6,1028.8,1.3392,5.02521,1.001,0.349,14.42
656.1,1030.2,1.3074,4.99127,1.007,0.350,14.36
656.6,1031.6,1.2702,4.94985,1.005,0.355,14.00
657.1,1033.1,1.2391,4.90119,1.008,0.349,14.14
657.6,1034.5,1.2057,4.84956,1.005,0.351,13.87
658.1,1035.9,1.1724,4.79595,1.008,0.349,13.86
658.6,1037.4,1.1421,4.73849,1.010,0.350,13.69
659.1,1038.8,1.1065,4.6853,1.004,0.351,13.42
659.6,1040.2,1.0773,4.62614,0.998,0.352,13.12
660.1,1041.7,1.0452,4.56433,1.013,0.352,13.12
660.6,1043.1,1.0133,4.50185,1.003,0.352,12.84
661.1,1044.5,0.9847,4.43274,1.006,0.352,12.67
661.6,1045.9,0.9520,4.36287,1.004,0.353,12.41
662.1,1047.3,0.9251,4.28915,1.013,0.352,12.35
662.6,1048.8,0.8948,4.21368,1.003,0.349,12.12
663.1,1050.2,0.8659,4.13918,1.010,0.353,11.85
663.6,1051.6,0.8387,4.05694,1.011,0.351,11.69
664.1,1053.0,0.8084,3.97848,1.013,0.353,11.42
664.6,1054.4,0.7842,3.89755,1.011,0.352,11.21
665.1,1055.9,0.7561,3.81411,1.014,0.354,10.93
665.6,1057.3,0.7310,3.72961,1.013,0.352,10.73
666.1,1058.7,0.7064,3.65284,1.018,0.354,10.49
666.6,1060.1,0.6792,3.5693,1.018,0.353,10.28
667.1,1061.5,0.6575,3.48887,1.013,0.355,9.96
667.6,1062.9,0.6319,3.40744,1.013,0.356,9.69
668.1,1064.3,0.6098,3.32722,1.019,0.354,9.57
668.6,1065.7,0.5873,3.24743,1.019,0.353,9.38
669.1,1067.1,0.5639,3.16177,1.015,0.351,9.14
669.6,1068.6,0.5438,3.07853,1.019,0.352,8.91
670.1,1070.0,0.5215,2.99527,1.022,0.354,8.65
670.6,1071.4,0.5028,2.91085,1.015,0.352,8.38
671.1,1072.8,0.4830,2.83215,1.018,0.353,8.16
671.6,1074.2,0.4638,2.75197,1.017,0.354,7.91
672.1,1075.6,0.4462,2.66964,1.020,0.356,7.65
672.6,1077.0,0.4258,2.58689,1.017,0.355,7.41
673.1,1078.4,0.4098,2.50049,1.020,0.356,7.17
673.6,1079.9,0.3921,2.41859,1.017,0.356,6.91
674.1,1081.3,0.3758,2.33406,1.023,0.354,6.74
674.6,1082.7,0.3599,2.27225,1.025,0.355,6.56
675.1,1084.1,0.3437,2.20553,1.028,0.356,6.37
675.6,1085.5,0.3309,2.13217,1.025,0.353,6.18
676.1,1086.9,0.3159,2.05978,1.022,0.354,5.94
676.6,1088.3,0.3027,1.99661,1.026,0.356,5.76
677.1,1089.7,0.2883,1.92905,1.027,0.355,5.58
677.6,1091.1,0.2744,1.86253,1.024,0.354,5.39
678.1,1092.5,0.2627,1.79847,1.025,0.355,5.20
678.6,1093.9,0.2483,1.73646,1.022,0.354,5.01
679.1,1095.4,0.2369,1.67297,1.024,0.355,4.83
679.6,1096.8,0.2247,1.61399,1.025,0.355,4.66
680.1,1098.2,0.2138,1.55236,1.027,0.355,4.50
680.6,1099.6,0.2039,1.49287,1.039,0.354,4.38
681.1,1101.0,0.1929,1.43724,1.036,0.354,4.21
681.6,1102.4,0.1842,1.38076,1.030,0.353,4.02
682.1,1103.8,0.1744,1.32561,1.028,0.354,3.85
682.6,1105.2,0.1662,1.27112,1.028,0.354,3.69
683.1,1106.6,0.1582,1.21831,1.022,0.355,3.50
683.6,1108.1,0.1494,1.16937,1.019,0.354,3.36
684.1,1109.5,0.1424,1.11842,1.031,0.353,3.26
684.6,1110.9,0.1340,1.07143,1.032,0.355,3.11
685.1,1112.3,0.1268,1.02818,1.032,0.355,2.99
685.6,1113.7,0.1194,0.98221,1.037,0.354,2.88
686.1,1115.1,0.1125,0.93931,1.029,0.355,2.72
686.6,1116.5,0.1070,0.89732,1.036,0.355,2.62
687.1,1117.9,0.0998,0.85713,1.037,0.354,2.51
687.6,1119.4,0.0948,0.81972,1.033,0.356,2.38
688.1,1120.8,0.0902,0.78206,1.034,0.355,2.28
688.6,1122.2,0.0852,0.74956,1.034,0.357,2.17
689.1,1123.6,0.0794,0.71371,1.035,0.355,2.08
689.6,1125.0,0.0750,0.68107,1.038,0.354,2.00
690.1,1126.4,0.0701,0.64973,1.039,0.354,1.91
690.6,1127.8,0.0662,0.61936,1.040,0.352,1.83
691.1,1129.2,0.0621,0.59071,1.039,0.353,1.74
691.6,1130.7,0.0582,0.56332,1.044,0.354,1.66
692.1,1132.1,0.0542,0.53734,1.040,0.354,1.58
692.6,1133.5,0.0510,0.51218,1.034,0.352,1.51
693.1,1134.9,0.0483,0.48664,1.039,0.351,1.44
693.6,1136.3,0.0451,0.46378,1.040,0.352,1.37
694.1,1137.8,0.0422,0.44223,1.053,0.352,1.32
694.6,1139.2,0.0392,0.4229,1.045,0.352,1.26
695.1,1140.6,0.0368,0.40034,1.039,0.352,1.18
695.6,1142.0,0.0345,0.3818,1.043,0.352,1.13
696.1,1143.4,0.0324,0.36476,1.040,0.351,1.08
696.6,1144.9,0.0301,0.34678,1.040,0.349,1.03
697.1,1146.3,0.0274,0.33019,1.044,0.349,0.99
697.6,1147.7,0.0252,0.31615,1.048,0.348,0.95
698.1,1149.2,0.0229,0.30074,1.047,0.347,0.91
698.6,1150.6,0.0214,0.28605,1.050,0.349,0.86
699.1,1152.1,0.0197,0.27522,1.047,0.350,0.82
699.6,1153.5,0.0182,0.26143,1.046,0.349,0.78
700.1,1154.9,0.0167,0.24959,1.050,0.350,0.75
700.6,1156.4,0.0151,0.23789,1.043,0.349,0.71
701.1,1157.8,0.0138,0.22694,1.051,0.349,0.68
701.6,1159.2,0.0121,0.21749,1.047,0.348,0.65
702.1,1160.6,0.0119,0.20946,1.049,0.350,0.63
702.6,1162.1,0.0108,0.20041,1.050,0.349,0.60
703.1,1163.5,0.0092,0.19041,1.044,0.348,0.57
703.6,1164.9,0.0083,0.18216,1.055,0.349,0.55
704.1,1166.4,0.0080,0.17604,1.052,0.347,0.53
704.6,1167.8,0.0070,0.16874,1.054,0.349,0.51
705.1,1169.2,0.0060,0.1622,1.056,0.348,0.49
705.6,1170.7,0.0044,0.15526,1.056,0.349,0.47
706.1,1172.1,0.0041,0.14802,1.052,0.348,0.45
706.6,1173.6,0.0031,0.14349,1.056,0.348,0.44
707.1,1175.0,0.0031,0.13935,1.062,0.347,0.43
707.6,1176.4,0.0031,0.1338,1.057,0.348,0.41
708.1,1177.9,0.0018,0.12812,1.054,0.347,0.39
708.6,1179.3,0.0021,0.12561,1.060,0.347,0.38
709.1,1180.7,0.0010,0.11868,1.058,0.348,0.36
709.6,1182.2,0.0015,0.11485,1.058,0.348,0.35
710.1,1183.6,0.0004,0.11097,1.065,0.347,0.34
710.6,1185.1,0.0004,0.10642,1.062,0.348,0.32
711.1,1186.5,0.0004,0.10388,1.055,0.349,0.31
711.6,1187.9,0.0004,0.10058,1.059,0.347,0.31
712.1,1189.4,0.0004,9.88E-02,1.060,0.346,0.30
712.6,1190.8,-0.0010,9.68E-02,1.061,0.348,0.29
713.1,1192.2,-0.0009,9.50E-02,1.061,0.348,0.29
713.6,1193.7,-0.0009,9.41E-02,1.059,0.347,0.29
714.1,1195.1,-0.0012,9.09E-02,1.065,0.348,0.28
714.6,1196.6,-0.0022,8.85E-02,1.065,0.348,0.27
715.1,1198.0,-0.0023,8.97E-02,1.067,0.348,0.28
715.6,1199.4,-0.0030,8.83E-02,1.069,0.346,0.27
716.1,1200.9,-0.0035,8.73E-02,1.066,0.347,0.27
716.6,1202.3,-0.0035,8.94E-02,1.067,0.347,0.28
717.1,1203.8,-0.0049,8.95E-02,1.066,0.347,0.28
717.6,1205.2,-0.0049,8.94E-02,1.065,0.347,0.27
718.1,1206.7,-0.0049,9.00E-02,1.068,0.348,0.28
718.6,1208.1,-0.0049,9.12E-02,1.070,0.347,0.28
719.1,1209.5,-0.0049,9.05E-02,1.065,0.346,0.28
719.6,1211.0,-0.0043,9.05E-02,1.058,0.347,0.28
720.1,1212.4,-0.0056,8.97E-02,1.068,0.344,0.28
720.6,1213.9,-0.0055,9.02E-02,1.071,0.346,0.28
721.1,1215.3,-0.0055,8.87E-02,1.067,0.347,0.27
721.6,1216.8,-0.0043,8.88E-02,1.071,0.347,0.27
722.1,1218.2,-0.0042,8.59E-02,1.070,0.348,0.26
722.6,1219.7,-0.0041,8.47E-02,1.064,0.344,0.26
723.1,1221.1,-0.0055,7.87E-02,1.074,0.347,0.24
723.6,1222.6,-0.0055,7.49E-02,1.070,0.346,0.23
724.1,1224.0,-0.0055,7.10E-02,1.077,0.345,0.22
724.6,1225.5,-0.0055,6.50E-02,1.074,0.345,0.20
725.1,1226.9,-0.0067,5.72E-02,1.071,0.347,0.18
725.6,1228.3,-0.0069,5.07E-02,1.075,0.345,0.16
726.1,1229.8,-0.0069,4.55E-02,1.073,0.343,0.14
726.6,1231.3,-0.0069,4.20E-02,1.077,0.344,0.13
727.1,1232.7,-0.0071,3.84E-02,1.078,0.344,0.12
727.6,1234.2,-0.0073,3.67E-02,1.073,0.344,0.11
728.1,1235.6,-0.0087,3.56E-02,1.076,0.344,0.11
728.6,1237.1,-0.0073,3.41E-02,1.075,0.343,0.11
729.1,1238.5,-0.0069,3.56E-02,1.071,0.344,0.11
729.6,1240.0,-0.0058,3.73E-02,1.077,0.343,0.12
730.1,1241.4,-0.0058,4.02E-02,1.076,0.344,0.13
730.6,1242.9,-0.0057,4.28E-02,1.082,0.344,0.13
731.1,1244.3,-0.0049,4.46E-02,1.081,0.344,0.14
731.6,1245.8,-0.0046,4.69E-02,1.077,0.343,0.15
732.1,1247.2,-0.0051,5.04E-02,1.082,0.343,0.16
732.6,1248.7,-0.0052,5.39E-02,1.083,0.344,0.17
733.1,1250.2,-0.0065,5.74E-02,1.087,0.345,0.18
733.6,1251.6,-0.0064,5.97E-02,1.086,0.345,0.19
734.1,1253.1,-0.0071,6.32E-02,1.082,0.344,0.20
734.6,1254.5,-0.0071,6.62E-02,1.081,0.344,0.21
735.1,1256.0,-0.0071,7.16E-02,1.076,0.344,0.22
735.6,1257.4,-0.0071,7.58E-02,1.084,0.344,0.24
736.1,1258.9,-0.0071,7.74E-02,1.084,0.345,0.24
736.6,1260.3,-0.0071,7.87E-02,1.089,0.342,0.25
737.1,1261.8,-0.0071,8.11E-02,1.090,0.343,0.26
737.6,1263.2,-0.0071,8.32E-02,1.083,0.342,0.26
738.1,1264.7,-0.0071,8.22E-02,1.082,0.344,0.26
738.6,1266.1,-0.0071,8.76E-02,1.085,0.343,0.28
739.1,1267.6,-0.0071,8.84E-02,1.090,0.343,0.28
739.6,1269.1,-0.0075,9.06E-02,1.085,0.343,0.29
740.1,1270.5,-0.0081,9.39E-02,1.086,0.344,0.30
740.6,1272.0,-0.0084,9.34E-02,1.087,0.343,0.30
741.1,1273.4,-0.0084,9.31E-02,1.091,0.343,0.30
741.6,1274.9,-0.0084,9.49E-02,1.090,0.342,0.30
742.1,1276.3,-0.0078,9.57E-02,1.090,0.344,0.30
742.6,1277.8,-0.0077,9.66E-02,1.093,0.343,0.31
743.1,1279.2,-0.0077,9.83E-02,1.093,0.345,0.31
743.6,1280.7,-0.0077,9.92E-02,1.095,0.343,0.32
744.1,1282.2,-0.0077,9.92E-02,1.100,0.344,0.32
744.6,1283.6,-0.0077,9.81E-02,1.094,0.344,0.31
745.1,1285.1,-0.0077,0.10271,1.095,0.342,0.33
745.6,1286.5,-0.0077,0.10383,1.103,0.344,0.33
746.1,1288.0,-0.0077,0.10354,1.096,0.343,0.33
746.6,1289.4,-0.0077,0.10483,1.099,0.342,0.34
747.1,1290.9,-0.0077,0.10547,1.100,0.343,0.34
747.6,1292.4,-0.0077,0.10673,1.100,0.342,0.34
748.1,1293.8,-0.0089,0.10783,1.100,0.344,0.35
748.6,1295.3,-0.0090,0.10877,1.098,0.343,0.35
749.1,1296.7,-0.0091,0.10846,1.098,0.343,0.35
749.6,1298.2,-0.0091,0.10972,1.110,0.343,0.36
750.1,1299.7,-0.0097,0.10817,1.103,0.343,0.35
750.6,1301.1,-0.0098,0.11093,1.098,0.343,0.36
751.1,1302.6,-0.0084,0.10767,1.099,0.346,0.34
751.6,1304.0,-0.0084,0.10878,1.109,0.344,0.35
752.1,1305.5,-0.0084,0.10767,1.106,0.344,0.35
752.6,1306.9,-0.0084,0.11067,1.109,0.346,0.35
753.1,1308.4,-0.0084,0.10708,1.107,0.345,0.34
753.6,1309.8,-0.0084,0.10781,1.107,0.343,0.35
754.1,1311.3,-0.0098,0.11026,1.108,0.342,0.36
754.6,1312.7,-0.0097,0.11118,1.108,0.343,0.36
755.1,1314.2,-0.0097,0.11017,1.101,0.340,0.36
755.6,1315.7,-0.0097,0.10938,1.104,0.341,0.35
756.1,1317.2,-0.0097,0.11054,1.107,0.340,0.36
756.6,1318.6,-0.0097,0.11086,1.109,0.341,0.36
757.1,1320.1,-0.0097,0.11094,1.106,0.341,0.36
757.6,1321.6,-0.0097,0.11204,1.112,0.341,0.37
758.1,1323.0,-0.0097,0.11287,1.115,0.344,0.37
758.6,1324.5,-0.0097,0.11156,1.113,0.343,0.36
759.1,1325.9,-0.0097,0.1109,1.120,0.342,0.36
759.6,1327.4,-0.0097,0.11042,1.120,0.343,0.36
760.1,1328.8,-0.0086,0.11102,1.118,0.344,0.36
760.6,1330.3,-0.0070,0.11108,1.113,0.342,0.36
761.1,1331.8,-0.0071,0.11298,1.112,0.339,0.37
761.6,1333.2,-0.0071,0.11302,1.115,0.342,0.37
762.1,1334.7,-0.0086,0.11471,1.127,0.342,0.38
762.6,1336.2,-0.0094,0.11384,1.117,0.342,0.37
763.1,1337.6,-0.0098,0.11291,1.121,0.342,0.37
763.6,1339.1,-0.0086,0.11484,1.124,0.344,0.37
764.1,1340.5,-0.0085,0.11542,1.111,0.341,0.38
764.6,1342.0,-0.0085,0.11428,1.102,0.340,0.37
765.1,1343.5,-0.0072,0.11303,1.126,0.343,0.37
765.6,1344.9,-0.0077,0.11436,1.123,0.342,0.38
766.1,1346.4,-0.0082,0.11662,1.127,0.338,0.39
766.6,1347.9,-0.0082,0.11744,1.125,0.342,0.39
767.1,1349.3,-0.0082,0.11818,1.121,0.340,0.39
767.6,1350.8,-0.0082,0.11927,1.121,0.341,0.39
768.1,1352.3,-0.0082,0.11594,1.124,0.342,0.38
768.6,1353.7,-0.0082,0.11461,1.122,0.343,0.37
769.1,1355.2,-0.0082,0.11723,1.126,0.341,0.39
769.6,1356.7,-0.0082,0.11802,1.130,0.342,0.39
770.1,1358.1,-0.0082,0.11778,1.131,0.341,0.39
770.6,1359.6,-0.0082,0.1178,1.127,0.340,0.39
771.1,1361.1,-0.0082,0.11545,1.129,0.340,0.38
771.6,1362.5,-0.0082,0.11682,1.132,0.342,0.39
772.1,1364.0,-0.0082,0.11961,1.134,0.342,0.40
772.6,1365.5,-0.0082,0.11965,1.119,0.342,0.39
773.1,1366.9,-0.0082,0.11976,1.128,0.341,0.40
773.6,1368.4,-0.0082,0.12167,1.133,0.342,0.40
774.1,1369.9,-0.0082,0.11996,1.125,0.341,0.40
774.6,1371.3,-0.0083,0.12191,1.131,0.344,0.40
775.1,1372.8,-0.0085,0.12306,1.131,0.342,0.41
775.6,1374.2,-0.0085,0.12221,1.137,0.340,0.41
776.1,1375.7,-0.0084,0.12122,1.134,0.342,0.40
776.6,1377.2,-0.0098,0.12184,1.137,0.342,0.40
777.1,1378.6,-0.0098,0.12315,1.139,0.340,0.41
777.6,1380.1,-0.0082,0.12279,1.134,0.340,0.41
778.1,1381.6,-0.0084,0.12665,1.141,0.338,0.43
778.6,1383.1,-0.0070,0.12566,1.136,0.339,0.42
779.1,1384.5,-0.0070,0.12412,1.134,0.341,0.41
779.6,1386.0,-0.0073,0.12696,1.136,0.339,0.43
780.1,1387.5,-0.0083,0.12602,1.149,0.341,0.42
780.6,1388.9,-0.0083,0.12844,1.134,0.342,0.43
781.1,1390.4,-0.0083,0.12699,1.142,0.342,0.42
781.6,1391.9,-0.0086,0.12732,1.145,0.342,0.43
782.1,1393.3,-0.0081,0.12878,1.129,0.343,0.42
782.6,1394.8,-0.0076,0.12853,1.147,0.340,0.43
783.1,1396.3,-0.0076,0.1279,1.146,0.341,0.43
783.6,1397.7,-0.0076,0.12838,1.138,0.340,0.43
784.1,1399.2,-0.0080,0.12753,1.144,0.340,0.43
784.6,1400.7,-0.0086,0.12901,1.138,0.341,0.43
785.1,1402.1,-0.0086,0.129,1.143,0.342,0.43
785.6,1403.6,-0.0086,0.13042,1.149,0.340,0.44
786.1,1405.1,-0.0083,0.13141,1.149,0.342,0.44
786.6,1406.5,-0.0083,0.12949,1.149,0.340,0.44
787.1,1408.0,-0.0083,0.13113,1.151,0.340,0.44
787.6,1409.5,-0.0083,0.1307,1.150,0.343,0.44
788.1,1411.0,-0.0083,0.12919,1.147,0.340,0.44
788.6,1412.4,-0.0083,0.12929,1.147,0.340,0.44
789.1,1413.9,-0.0083,0.12967,1.151,0.338,0.44
789.6,1415.4,-0.0083,0.13103,1.147,0.340,0.44
790.1,1416.8,-0.0083,0.13037,1.154,0.340,0.44
790.6,1418.3,-0.0079,0.1308,1.154,0.342,0.44
791.1,1419.8,-0.0090,0.1324,1.152,0.340,0.45
791.6,1421.2,-0.0089,0.13177,1.153,0.342,0.44
792.1,1422.7,-0.0089,0.1308,1.162,0.340,0.45
792.6,1424.2,-0.0089,0.13184,1.156,0.340,0.45
793.1,1425.6,-0.0089,0.13249,1.154,0.340,0.45
793.6,1427.1,-0.0089,0.13046,1.144,0.339,0.44
794.1,1428.6,-0.0089,0.13367,1.157,0.335,0.46
794.6,1430.1,-0.0089,0.1322,1.164,0.340,0.45
795.1,1431.5,-0.0089,0.13479,1.152,0.342,0.45
795.6,1433.0,-0.0089,0.13247,1.154,0.340,0.45
796.1,1434.5,-0.0089,0.13305,1.157,0.340,0.45
796.6,1435.9,-0.0089,0.13528,1.162,0.342,0.46
797.1,1437.4,-0.0089,0.13289,1.159,0.340,0.45
797.6,1438.9,-0.0090,0.13637,1.158,0.340,0.46
798.1,1440.4,-0.0080,0.13435,1.164,0.340,0.46
798.6,1441.8,-0.0079,0.13433,1.159,0.339,0.46
799.1,1443.3,-0.0080,0.13472,1.162,0.340,0.46
799.6,1444.8,-0.0080,0.13482,1.166,0.340,0.46
800.1,1446.2,-0.0079,0.13342,1.164,0.341,0.46
800.6,1447.7,-0.0083,0.13527,1.168,0.341,0.46
801.1,1449.2,-0.0083,0.13577,1.167,0.339,0.47
801.6,1450.6,-0.0083,0.13377,1.173,0.339,0.46
802.1,1452.1,-0.0083,0.13666,1.173,0.340,0.47
802.6,1453.6,-0.0083,0.13411,1.169,0.339,0.46
803.1,1455.1,-0.0083,0.13813,1.167,0.339,0.48
803.6,1456.5,-0.0083,0.13553,1.168,0.338,0.47
804.1,1458.0,-0.0083,0.13753,1.169,0.342,0.47
804.6,1459.5,-0.0083,0.13725,1.167,0.340,0.47
805.1,1461.0,-0.0083,0.13622,1.172,0.339,0.47
805.6,1462.4,-0.0082,0.13715,1.181,0.339,0.48
806.1,1463.9,-0.0090,0.13644,1.176,0.339,0.47
806.6,1465.4,-0.0089,0.13677,1.176,0.339,0.47
807.1,1466.8,-0.0089,0.13639,1.183,0.339,0.48
807.6,1468.3,-0.0089,0.13745,1.174,0.340,0.47
808.1,1469.8,-0.0089,0.13973,1.172,0.341,0.48
808.6,1471.3,-0.0089,0.13814,1.171,0.339,0.48
809.1,1472.7,-0.0089,0.13776,1.173,0.338,0.48
809.6,1474.2,-0.0089,0.13958,1.177,0.341,0.48
810.1,1475.7,-0.0089,0.1376,1.179,0.342,0.47
810.6,1477.2,-0.0089,0.13842,1.180,0.340,0.48
811.1,1478.6,-0.0089,0.1391,1.179,0.338,0.48
811.6,1480.1,-0.0089,0.14052,1.178,0.340,0.49
812.1,1481.6,-0.0089,0.14035,1.177,0.340,0.49
812.6,1483.0,-0.0089,0.14139,1.181,0.338,0.49
813.1,1484.5,-0.0089,0.13965,1.179,0.339,0.49
813.6,1486.0,-0.0089,0.14105,1.183,0.337,0.49
814.1,1487.5,-0.0090,0.14017,1.187,0.339,0.49
814.6,1488.9,-0.0093,0.14021,1.191,0.343,0.49
815.1,1490.4,-0.0093,0.14061,1.184,0.338,0.49
815.6,1491.9,-0.0093,0.14295,1.184,0.339,0.50
816.1,1493.4,-0.0093,0.14319,1.195,0.339,0.50
816.6,1494.8,-0.0079,0.14152,1.192,0.339,0.50
817.1,1496.3,-0.0082,0.14224,1.188,0.340,0.50
817.6,1497.8,-0.0083,0.1418,1.182,0.339,0.49
817.8,1498.4,-0.0083,0.14186,1.166,0.340,0.49