File: PMMA/Calibration_Data/FSRI/FSRI_STA_N2_20K_3.csv
Temp,time ,TGA,DSC,Sensitivity,Heating Rate,Heat Capacity,Heat Capacity,Heat Capacity
[K],[s],[mg],[uV/mg],[mW/uV],[K/s],[J/g/K],[J/g/K],[J/g/K]
322.1,0.0,3.9773,6.10E-03,2.861,0.005,3.22,0.46,-2.211
322.7,34.8,3.9792,4.80E-02,1.988,0.055,1.72,1.56,1.107
323.3,43.2,3.9780,8.16E-02,1.715,0.087,1.62,1.59,1.313
323.9,49.3,3.9784,0.11151,1.568,0.112,1.56,1.57,1.333
324.5,54.2,3.9773,0.13917,1.460,0.131,1.55,1.54,1.415
325.1,58.6,3.9785,0.16171,1.398,0.146,1.55,1.53,1.426
325.7,62.5,3.9778,0.1853,1.334,0.162,1.52,1.51,1.406
326.3,66.0,3.9781,0.20565,1.287,0.175,1.52,1.53,1.426
326.9,69.3,3.9773,0.22263,1.258,0.186,1.51,1.52,1.458
327.5,72.5,3.9771,0.24071,1.224,0.198,1.49,1.52,1.427
328.1,75.5,3.9761,0.25968,1.202,0.205,1.52,1.50,1.451
328.7,78.3,3.9771,0.27236,1.195,0.215,1.51,1.52,1.461
329.3,81.1,3.9779,0.28828,1.174,0.222,1.52,1.53,1.453
329.9,83.7,3.9791,0.30194,1.131,0.232,1.47,1.52,1.444
330.5,86.3,3.9779,0.31415,1.126,0.234,1.51,1.49,1.445
331.1,88.8,3.9781,0.32601,1.106,0.242,1.49,1.52,1.443
331.7,91.3,3.9777,0.33767,1.103,0.250,1.49,1.56,1.455
332.3,93.7,3.9781,0.34807,1.082,0.253,1.49,1.52,1.470
332.9,96.0,3.9775,0.35849,1.058,0.259,1.47,1.49,1.439
333.5,98.3,3.9786,0.36807,1.069,0.259,1.52,1.48,1.477
334.1,100.6,3.9782,0.37738,1.057,0.264,1.51,1.49,1.459
334.7,102.9,3.9780,0.38715,1.051,0.267,1.53,1.52,1.473
335.3,105.1,3.9781,0.39496,1.040,0.274,1.50,1.50,1.470
335.9,107.3,3.9787,0.4041,1.035,0.275,1.52,1.53,1.500
336.5,109.4,3.9780,0.41154,1.027,0.278,1.52,1.50,1.492
337.1,111.6,3.9775,0.41832,1.011,0.282,1.50,1.51,1.487
337.7,113.7,3.9777,0.4246,1.002,0.288,1.48,1.50,1.476
338.3,115.8,3.9779,0.43317,1.004,0.288,1.51,1.50,1.481
338.9,117.8,3.9773,0.43947,1.006,0.288,1.53,1.53,1.487
339.5,119.9,3.9770,0.4429,0.992,0.292,1.51,1.53,1.493
340.1,121.9,3.9781,0.45012,0.992,0.296,1.51,1.52,1.479
340.7,124.0,3.9788,0.45678,0.981,0.295,1.52,1.52,1.498
341.3,126.0,3.9785,0.46313,0.977,0.296,1.53,1.52,1.508
341.9,128.0,3.9773,0.46668,0.973,0.297,1.53,1.52,1.517
342.5,130.0,3.9781,0.47188,0.965,0.300,1.52,1.54,1.489
343.1,132.0,3.9770,0.47835,0.965,0.303,1.52,1.52,1.513
343.7,134.0,3.9767,0.48333,0.962,0.305,1.52,1.52,1.512
344.3,136.0,3.9768,0.48621,0.952,0.303,1.53,1.53,1.519
344.9,138.0,3.9770,0.49183,0.952,0.305,1.54,1.55,1.526
345.5,139.9,3.9775,0.49546,0.956,0.304,1.56,1.55,1.529
346.1,141.9,3.9779,0.49978,0.947,0.306,1.55,1.56,1.535
346.7,143.9,3.9780,0.50464,0.966,0.305,1.60,1.59,1.574
347.3,145.8,3.9777,0.5094,0.939,0.306,1.56,1.57,1.535
347.9,147.8,3.9781,0.5128,0.938,0.308,1.56,1.57,1.536
348.5,149.7,3.9786,0.51507,0.929,0.309,1.55,1.56,1.539
349.1,151.7,3.9780,0.52155,0.931,0.309,1.57,1.54,1.554
349.7,153.6,3.9785,0.52716,0.929,0.310,1.58,1.56,1.554
350.3,155.5,3.9771,0.53013,0.935,0.312,1.59,1.60,1.579
350.9,157.4,3.9770,0.53162,0.932,0.312,1.59,1.60,1.579
351.5,159.4,3.9774,0.5343,0.931,0.312,1.60,1.60,1.574
352.1,161.3,3.9784,0.53833,0.925,0.312,1.60,1.61,1.580
352.7,163.2,3.9771,0.54205,0.928,0.314,1.60,1.60,1.593
353.3,165.1,3.9784,0.5453,0.926,0.312,1.62,1.62,1.586
353.9,167.0,3.9771,0.54618,0.925,0.315,1.60,1.61,1.600
354.5,168.9,3.9770,0.54806,0.919,0.315,1.60,1.62,1.606
355.1,170.8,3.9768,0.55278,0.923,0.315,1.62,1.62,1.608
355.7,172.7,3.9755,0.5549,0.916,0.315,1.61,1.61,1.591
356.3,174.6,3.9770,0.55611,0.921,0.315,1.62,1.60,1.608
356.9,176.5,3.9775,0.5554,0.922,0.315,1.62,1.61,1.608
357.5,178.4,3.9770,0.55355,0.924,0.319,1.60,1.60,1.611
358.1,180.3,3.9770,0.55376,0.918,0.320,1.59,1.60,1.598
358.7,182.2,3.9770,0.55447,0.919,0.318,1.60,1.59,1.600
359.3,184.1,3.9770,0.55364,0.915,0.319,1.59,1.60,1.577
359.9,185.9,3.9767,0.55393,0.920,0.322,1.58,1.59,1.579
360.5,187.8,3.9770,0.55142,0.922,0.320,1.59,1.58,1.570
361.1,189.7,3.9770,0.55082,0.918,0.319,1.58,1.57,1.576
361.7,191.5,3.9771,0.54899,0.918,0.322,1.57,1.56,1.575
362.3,193.4,3.9773,0.55025,0.918,0.324,1.56,1.55,1.569
362.9,195.3,3.9782,0.55075,0.923,0.322,1.58,1.56,1.564
363.5,197.1,3.9769,0.54811,0.918,0.324,1.55,1.56,1.555
364.1,199.0,3.9769,0.55047,0.913,0.325,1.55,1.55,1.546
364.7,200.8,3.9758,0.54809,0.915,0.327,1.54,1.54,1.543
365.3,202.7,3.9768,0.54823,0.911,0.325,1.54,1.56,1.541
365.9,204.5,3.9767,0.5489,0.919,0.324,1.56,1.54,1.558
366.5,206.4,3.9757,0.55105,0.917,0.326,1.55,1.54,1.567
367.1,208.2,3.9757,0.55162,0.911,0.325,1.55,1.55,1.544
367.7,210.1,3.9756,0.55486,0.912,0.322,1.57,1.54,1.547
368.3,211.9,3.9756,0.55449,0.915,0.328,1.55,1.54,1.539
368.9,213.7,3.9756,0.55424,0.914,0.327,1.55,1.54,1.541
369.5,215.6,3.9764,0.55722,0.914,0.328,1.55,1.54,1.545
370.1,217.4,3.9761,0.5592,0.909,0.331,1.54,1.55,1.549
370.7,219.2,3.9757,0.56051,0.907,0.329,1.55,1.54,1.547
371.3,221.0,3.9754,0.56234,0.912,0.331,1.55,1.55,1.563
371.9,222.9,3.9756,0.56269,0.913,0.327,1.57,1.54,1.557
372.5,224.7,3.9761,0.56532,0.911,0.328,1.57,1.56,1.560
373.1,226.5,3.9770,0.56748,0.912,0.330,1.57,1.53,1.552
373.7,228.3,3.9756,0.56876,0.904,0.331,1.55,1.55,1.557
374.3,230.1,3.9756,0.5711,0.910,0.330,1.58,1.57,1.580
374.9,232.0,3.9747,0.57206,0.909,0.332,1.57,1.57,1.574
375.5,233.8,3.9760,0.57308,0.901,0.330,1.57,1.57,1.555
376.1,235.6,3.9760,0.57537,0.909,0.333,1.57,1.58,1.591
376.7,237.4,3.9760,0.57805,0.909,0.331,1.59,1.59,1.578
377.3,239.2,3.9756,0.57776,0.907,0.328,1.60,1.59,1.577
377.9,241.0,3.9761,0.58304,0.903,0.331,1.59,1.61,1.585
378.5,242.8,3.9758,0.58277,0.906,0.332,1.59,1.60,1.599
379.1,244.7,3.9771,0.58545,0.905,0.332,1.60,1.60,1.602
379.7,246.5,3.9756,0.58981,0.902,0.333,1.60,1.60,1.607
380.3,248.3,3.9756,0.59291,0.901,0.333,1.61,1.62,1.589
380.9,250.1,3.9770,0.59441,0.900,0.334,1.60,1.59,1.607
381.5,251.9,3.9770,0.5968,0.898,0.333,1.61,1.60,1.609
382.1,253.7,3.9770,0.60069,0.898,0.332,1.63,1.62,1.610
382.7,255.5,3.9770,0.60153,0.898,0.332,1.63,1.62,1.614
383.3,257.3,3.9756,0.60499,0.903,0.334,1.63,1.64,1.631
383.9,259.1,3.9757,0.60734,0.892,0.336,1.61,1.63,1.626
384.5,260.8,3.9745,0.61062,0.898,0.336,1.63,1.64,1.634
385.1,262.6,3.9757,0.61291,0.895,0.335,1.64,1.64,1.633
385.7,264.4,3.9756,0.61373,0.895,0.330,1.67,1.64,1.610
386.3,266.2,3.9756,0.61768,0.899,0.335,1.66,1.66,1.629
386.9,268.0,3.9756,0.62248,0.895,0.334,1.67,1.64,1.660
387.5,269.8,3.9754,0.62332,0.891,0.336,1.65,1.66,1.679
388.1,271.6,3.9756,0.62997,0.891,0.335,1.67,1.67,1.694
388.7,273.4,3.9757,0.63196,0.887,0.335,1.67,1.65,1.674
389.3,275.2,3.9757,0.63443,0.897,0.338,1.69,1.69,1.714
389.9,277.0,3.9743,0.63786,0.899,0.336,1.71,1.69,1.700
390.5,278.7,3.9756,0.64279,0.889,0.337,1.69,1.74,1.688
391.1,280.5,3.9756,0.64658,0.893,0.337,1.71,1.74,1.704
391.7,282.3,3.9756,0.64983,0.883,0.336,1.71,1.73,1.695
392.3,284.1,3.9757,0.65698,0.887,0.337,1.73,1.75,1.717
392.9,285.9,3.9743,0.66053,0.891,0.336,1.75,1.74,1.743
393.5,287.6,3.9743,0.66376,0.890,0.337,1.75,1.76,1.750
394.1,289.4,3.9743,0.66869,0.894,0.337,1.78,1.78,1.776
394.7,291.2,3.9743,0.6761,0.895,0.338,1.79,1.76,1.784
395.3,293.0,3.9751,0.68164,0.883,0.339,1.78,1.80,1.758
395.9,294.7,3.9743,0.68664,0.895,0.339,1.81,1.81,1.787
396.5,296.5,3.9743,0.68993,0.888,0.340,1.80,1.82,1.798
397.1,298.3,3.9743,0.69547,0.886,0.341,1.81,1.83,1.801
397.7,300.0,3.9747,0.7005,0.899,0.341,1.85,1.82,1.850
398.3,301.8,3.9743,0.70495,0.892,0.342,1.84,1.80,1.847
398.9,303.6,3.9743,0.71036,0.889,0.339,1.86,1.87,1.859
399.5,305.3,3.9743,0.71644,0.888,0.339,1.88,1.91,1.859
400.1,307.1,3.9743,0.721,0.888,0.341,1.88,1.87,1.864
400.7,308.8,3.9743,0.72718,0.886,0.342,1.88,1.87,1.875
401.3,310.6,3.9743,0.73103,0.893,0.340,1.92,1.92,1.919
401.9,312.4,3.9743,0.73533,0.896,0.343,1.92,1.94,1.927
402.5,314.1,3.9742,0.73814,0.893,0.345,1.91,1.93,1.924
403.1,315.9,3.9753,0.74233,0.889,0.349,1.89,1.96,1.925
403.7,317.6,3.9753,0.74438,0.885,0.347,1.90,1.94,1.915
404.3,319.3,3.9755,0.74743,0.891,0.345,1.93,1.93,1.938
404.9,321.0,3.9743,0.75025,0.885,0.343,1.94,1.95,1.930
405.5,322.8,3.9743,0.75623,0.895,0.341,1.98,1.97,1.954
406.1,324.5,3.9743,0.75782,0.896,0.342,1.99,1.99,1.930
406.7,326.3,3.9743,0.76089,0.890,0.344,1.97,1.98,1.951
407.3,328.0,3.9743,0.76255,0.893,0.343,1.99,1.99,1.949
407.9,329.8,3.9729,0.76616,0.894,0.340,2.02,1.99,1.968
408.5,331.5,3.9740,0.7687,0.887,0.345,1.98,1.98,1.974
409.1,333.3,3.9740,0.77079,0.895,0.347,1.99,1.98,1.988
409.7,335.0,3.9740,0.77424,0.885,0.348,1.97,1.99,1.967
410.3,336.7,3.9732,0.77758,0.888,0.347,1.99,1.97,1.975
410.9,338.5,3.9727,0.77922,0.891,0.345,2.01,1.99,1.998
411.5,340.2,3.9727,0.77972,0.887,0.347,1.99,2.00,1.973
412.1,341.9,3.9727,0.78221,0.894,0.351,1.99,2.01,1.998
412.7,343.6,3.9727,0.78621,0.889,0.347,2.02,2.00,1.994
413.3,345.4,3.9727,0.78686,0.901,0.346,2.05,2.02,2.022
413.9,347.1,3.9718,0.78669,0.887,0.347,2.01,2.01,1.990
414.5,348.8,3.9714,0.78716,0.887,0.342,2.04,2.01,1.997
415.1,350.6,3.9715,0.78835,0.889,0.345,2.03,2.03,2.009
415.7,352.3,3.9717,0.79072,0.881,0.340,2.05,2.00,1.974
416.3,354.1,3.9717,0.78993,0.892,0.345,2.04,2.02,2.008
416.9,355.8,3.9717,0.79346,0.889,0.350,2.01,2.01,2.023
417.5,357.5,3.9715,0.79443,0.887,0.348,2.03,2.03,2.013
418.1,359.2,3.9704,0.79488,0.894,0.350,2.03,2.05,2.054
418.7,360.9,3.9704,0.7977,0.892,0.348,2.05,2.04,2.046
419.3,362.7,3.9704,0.79879,0.899,0.345,2.08,2.04,2.060
419.9,364.4,3.9704,0.79972,0.891,0.349,2.04,2.04,2.045
420.5,366.1,3.9704,0.80237,0.891,0.350,2.04,2.04,2.014
421.1,367.8,3.9704,0.80093,0.891,0.351,2.03,2.04,2.039
421.7,369.5,3.9704,0.80333,0.884,0.351,2.02,2.03,2.031
422.3,371.2,3.9704,0.80593,0.890,0.351,2.04,2.03,2.037
422.9,373.0,3.9690,0.80774,0.886,0.350,2.05,2.04,2.071
423.5,374.7,3.9691,0.80917,0.889,0.351,2.05,2.06,2.055
424.1,376.4,3.9691,0.81063,0.890,0.351,2.06,2.05,2.067
424.7,378.1,3.9691,0.81232,0.891,0.351,2.06,2.08,2.064
425.3,379.8,3.9691,0.81177,0.887,0.351,2.05,2.07,2.051
425.9,381.5,3.9678,0.81564,0.888,0.353,2.05,2.07,2.066
426.5,383.2,3.9677,0.8194,0.886,0.352,2.06,2.08,2.051
427.1,384.9,3.9678,0.82079,0.887,0.351,2.08,2.09,2.074
427.7,386.6,3.9677,0.82113,0.888,0.353,2.06,2.08,2.078
428.3,388.3,3.9665,0.82392,0.890,0.351,2.09,2.09,2.100
428.9,390.0,3.9664,0.82274,0.892,0.352,2.09,2.09,2.087
429.5,391.8,3.9664,0.82444,0.888,0.351,2.09,2.06,2.075
430.1,393.5,3.9664,0.82621,0.882,0.349,2.09,2.10,2.070
430.7,395.2,3.9651,0.82912,0.883,0.351,2.08,2.10,2.080
431.3,396.9,3.9651,0.83177,0.886,0.349,2.11,2.11,2.100
431.9,398.6,3.9651,0.8349,0.884,0.352,2.10,2.08,2.105
432.5,400.3,3.9651,0.83562,0.893,0.351,2.13,2.12,2.113
433.1,402.0,3.9651,0.83713,0.887,0.352,2.11,2.10,2.099
433.7,403.7,3.9651,0.83847,0.888,0.355,2.10,2.13,2.115
434.3,405.4,3.9651,0.84322,0.889,0.352,2.13,2.16,2.113
434.9,407.1,3.9651,0.84591,0.890,0.353,2.14,2.12,2.148
435.5,408.8,3.9650,0.84685,0.883,0.353,2.12,2.14,2.119
436.1,410.5,3.9637,0.85011,0.885,0.346,2.17,2.14,2.134
436.7,412.2,3.9625,0.85512,0.884,0.353,2.14,2.13,2.129
437.3,413.9,3.9625,0.85294,0.879,0.351,2.13,2.15,2.123
437.9,415.6,3.9625,0.85726,0.882,0.352,2.15,2.16,2.150
438.5,417.3,3.9625,0.86133,0.881,0.357,2.13,2.16,2.157
439.1,419.0,3.9625,0.86578,0.882,0.354,2.16,2.16,2.167
439.7,420.7,3.9612,0.86728,0.884,0.354,2.17,2.17,2.159
440.3,422.4,3.9612,0.87299,0.884,0.354,2.18,2.19,2.181
440.9,424.1,3.9612,0.87342,0.885,0.349,2.21,2.20,2.178
441.5,425.8,3.9612,0.87607,0.878,0.349,2.20,2.21,2.190
442.1,427.5,3.9604,0.8795,0.885,0.358,2.18,2.22,2.255
442.7,429.2,3.9605,0.88353,0.884,0.353,2.21,2.21,2.203
443.3,430.9,3.9605,0.887,0.887,0.354,2.22,2.24,2.243
443.9,432.6,3.9598,0.89055,0.886,0.355,2.22,2.24,2.230
444.5,434.3,3.9592,0.8944,0.888,0.349,2.28,2.22,2.256
445.1,436.0,3.9592,0.89805,0.878,0.353,2.24,2.27,2.232
445.7,437.7,3.9583,0.90014,0.879,0.353,2.24,2.24,2.257
446.3,439.4,3.9572,0.90697,0.882,0.352,2.27,2.25,2.285
446.9,441.1,3.9572,0.90796,0.883,0.352,2.28,2.27,2.281
447.5,442.8,3.9565,0.91471,0.884,0.355,2.28,2.28,2.307
448.1,444.5,3.9559,0.91917,0.876,0.353,2.28,2.26,2.287
448.7,446.2,3.9545,0.92453,0.884,0.356,2.29,2.33,2.303
449.3,447.9,3.9534,0.92691,0.881,0.356,2.29,2.33,2.311
449.9,449.6,3.9519,0.93351,0.893,0.355,2.35,2.35,2.364
450.5,451.3,3.9519,0.93494,0.885,0.356,2.33,2.39,2.336
451.1,453.0,3.9517,0.94256,0.881,0.352,2.36,2.36,2.349
451.7,454.7,3.9506,0.94804,0.887,0.355,2.37,2.37,2.386
452.3,456.4,3.9507,0.95008,0.877,0.354,2.36,2.36,2.340
452.9,458.1,3.9488,0.9544,0.885,0.354,2.38,2.39,2.401
453.5,459.8,3.9484,0.96103,0.888,0.355,2.40,2.39,2.422
454.1,461.4,3.9470,0.96476,0.887,0.354,2.42,2.42,2.395
454.7,463.1,3.9467,0.96605,0.882,0.358,2.38,2.44,2.405
455.3,464.8,3.9454,0.96901,0.886,0.358,2.40,2.45,2.438
455.9,466.5,3.9451,0.97498,0.890,0.357,2.43,2.42,2.454
456.5,468.2,3.9441,0.97818,0.885,0.355,2.44,2.44,2.445
457.1,469.9,3.9441,0.98214,0.887,0.356,2.45,2.44,2.470
457.7,471.6,3.9427,0.98763,0.885,0.354,2.47,2.44,2.439
458.3,473.3,3.9414,0.98928,0.879,0.355,2.45,2.48,2.450
458.9,474.9,3.9407,0.99289,0.890,0.358,2.47,2.47,2.493
459.5,476.6,3.9389,0.99587,0.887,0.354,2.50,2.50,2.486
460.1,478.3,3.9369,0.99773,0.892,0.357,2.50,2.51,2.518
460.7,480.0,3.9356,1.00175,0.890,0.357,2.50,2.50,2.507
461.3,481.7,3.9347,1.00489,0.890,0.355,2.52,2.53,2.522
461.9,483.4,3.9333,1.00602,0.890,0.357,2.51,2.52,2.528
462.5,485.1,3.9322,1.00746,0.884,0.355,2.51,2.51,2.512
463.1,486.7,3.9310,1.00805,0.892,0.357,2.52,2.53,2.529
463.7,488.4,3.9294,1.0097,0.887,0.356,2.51,2.52,2.481
464.3,490.1,3.9289,1.01367,0.897,0.356,2.55,2.55,2.558
464.9,491.8,3.9266,1.01483,0.889,0.358,2.52,2.55,2.519
465.5,493.5,3.9252,1.01561,0.890,0.355,2.54,2.52,2.526
466.1,495.2,3.9237,1.0164,0.885,0.356,2.53,2.52,2.574
466.7,496.8,3.9223,1.01393,0.875,0.357,2.49,2.53,2.497
467.3,498.5,3.9224,1.01454,0.884,0.355,2.53,2.53,2.527
467.9,500.2,3.9209,1.01302,0.890,0.358,2.52,2.53,2.548
468.5,501.9,3.9193,1.01395,0.887,0.358,2.52,2.56,2.530
469.1,503.6,3.9179,1.01628,0.890,0.355,2.55,2.53,2.541
469.7,505.3,3.9169,1.01355,0.890,0.358,2.52,2.52,2.545
470.3,506.9,3.9160,1.01196,0.885,0.357,2.51,2.55,2.528
470.9,508.6,3.9149,1.00948,0.891,0.355,2.53,2.53,2.530
471.5,510.3,3.9135,1.00845,0.892,0.357,2.52,2.55,2.538
472.1,512.0,3.9121,1.00931,0.894,0.357,2.53,2.53,2.543
472.7,513.7,3.9105,1.00645,0.893,0.358,2.51,2.52,2.536
473.3,515.3,3.9076,1.00539,0.893,0.359,2.50,2.52,2.523
473.9,517.0,3.9064,1.00298,0.891,0.363,2.46,2.50,2.512
474.5,518.7,3.9057,1.00114,0.889,0.358,2.48,2.51,2.491
475.1,520.4,3.9048,0.99966,0.889,0.358,2.49,2.49,2.508
475.7,522.0,3.9035,0.99938,0.890,0.356,2.50,2.51,2.495
476.3,523.7,3.9035,0.99463,0.890,0.353,2.51,2.48,2.495
476.9,525.4,3.9022,0.99201,0.891,0.356,2.48,2.50,2.504
477.5,527.1,3.9010,0.99115,0.890,0.356,2.48,2.50,2.495
478.1,528.8,3.8993,0.98899,0.892,0.358,2.47,2.46,2.491
478.7,530.5,3.8972,0.98803,0.893,0.358,2.47,2.49,2.492
479.3,532.1,3.8964,0.98721,0.896,0.357,2.48,2.49,2.507
479.9,533.8,3.8950,0.98586,0.893,0.357,2.47,2.47,2.470
480.5,535.5,3.8942,0.98549,0.895,0.358,2.46,2.47,2.500
481.1,537.2,3.8936,0.98464,0.888,0.357,2.45,2.44,2.469
481.7,538.8,3.8923,0.98218,0.886,0.358,2.43,2.42,2.453
482.3,540.5,3.8910,0.9825,0.895,0.358,2.46,2.45,2.496
482.9,542.2,3.8896,0.98173,0.891,0.358,2.45,2.46,2.463
483.5,543.9,3.8881,0.98229,0.895,0.358,2.46,2.46,2.483
484.1,545.6,3.8868,0.98322,0.896,0.358,2.46,2.46,2.475
484.7,547.2,3.8868,0.98262,0.891,0.357,2.45,2.47,2.459
485.3,548.9,3.8868,0.98451,0.894,0.356,2.47,2.47,2.469
485.9,550.6,3.8852,0.98385,0.904,0.358,2.49,2.51,2.502
486.5,552.3,3.8841,0.98667,0.892,0.358,2.46,2.48,2.469
487.1,554.0,3.8835,0.98787,0.891,0.357,2.46,2.46,2.480
487.7,555.6,3.8811,0.98698,0.890,0.358,2.46,2.44,2.479
488.3,557.3,3.8798,0.99008,0.885,0.358,2.45,2.45,2.440
488.9,559.0,3.8794,0.9919,0.891,0.358,2.47,2.46,2.474
489.5,560.7,3.8782,0.99319,0.896,0.358,2.49,2.47,2.483
490.1,562.3,3.8769,0.99595,0.890,0.359,2.47,2.52,2.482
490.7,564.0,3.8755,0.99835,0.892,0.358,2.49,2.49,2.518
491.3,565.7,3.8743,0.9984,0.896,0.357,2.51,2.51,2.518
491.9,567.4,3.8741,0.99905,0.893,0.358,2.49,2.50,2.516
492.5,569.1,3.8729,1.0022,0.894,0.355,2.52,2.52,2.525
493.1,570.7,3.8727,1.00385,0.896,0.357,2.52,2.50,2.523
493.7,572.4,3.8716,1.00518,0.897,0.358,2.52,2.52,2.549
494.3,574.1,3.8700,1.00589,0.899,0.357,2.54,2.51,2.546
494.9,575.8,3.8672,1.00425,0.897,0.358,2.52,2.51,2.542
495.5,577.5,3.8669,1.00623,0.890,0.357,2.51,2.51,2.542
496.1,579.1,3.8665,1.00442,0.893,0.357,2.51,2.50,2.526
496.7,580.8,3.8660,1.00404,0.886,0.358,2.48,2.50,2.493
497.3,582.5,3.8652,1.00605,0.886,0.360,2.48,2.51,2.497
497.9,584.2,3.8629,1.00275,0.898,0.363,2.48,2.51,2.529
498.5,585.8,3.8620,1.00256,0.896,0.359,2.50,2.53,2.527
499.1,587.5,3.8605,1.00105,0.898,0.359,2.51,2.51,2.510
499.7,589.2,3.8606,1.00062,0.899,0.358,2.51,2.51,2.522
500.3,590.9,3.8592,0.99702,0.898,0.354,2.53,2.48,2.500
500.9,592.5,3.8578,0.99356,0.891,0.358,2.47,2.47,2.473
501.5,594.2,3.8578,0.98965,0.892,0.359,2.46,2.48,2.483
502.1,595.9,3.8565,0.98558,0.896,0.356,2.48,2.46,2.460
502.7,597.6,3.8556,0.98233,0.895,0.358,2.45,2.46,2.454
503.3,599.2,3.8547,0.97902,0.899,0.357,2.46,2.46,2.457
503.9,600.9,3.8537,0.97217,0.894,0.358,2.43,2.44,2.419
504.5,602.6,3.8536,0.96942,0.896,0.360,2.42,2.43,2.446
505.1,604.3,3.8524,0.9666,0.896,0.359,2.41,2.42,2.411
505.7,605.9,3.8523,0.95906,0.898,0.357,2.41,2.40,2.396
506.3,607.6,3.8512,0.95472,0.904,0.357,2.42,2.40,2.418
506.9,609.3,3.8510,0.9505,0.895,0.358,2.38,2.38,2.378
507.5,611.0,3.8509,0.94689,0.895,0.360,2.35,2.37,2.351
508.1,612.6,3.8497,0.94184,0.908,0.361,2.37,2.39,2.395
508.7,614.3,3.8498,0.93783,0.896,0.360,2.33,2.35,2.359
509.3,616.0,3.8487,0.93401,0.901,0.359,2.34,2.34,2.375
509.9,617.6,3.8487,0.9325,0.899,0.357,2.35,2.35,2.376
510.5,619.3,3.8487,0.92928,0.890,0.358,2.31,2.31,2.312
511.1,621.0,3.8474,0.9287,0.899,0.358,2.33,2.31,2.338
511.7,622.7,3.8474,0.92144,0.900,0.359,2.31,2.34,2.328
512.3,624.3,3.8460,0.92109,0.897,0.358,2.31,2.33,2.324
512.9,626.0,3.8461,0.91758,0.905,0.361,2.30,2.33,2.341
513.5,627.7,3.8461,0.91516,0.900,0.360,2.29,2.34,2.309
514.1,629.3,3.8461,0.91604,0.899,0.359,2.29,2.33,2.325
514.7,631.0,3.8450,0.91604,0.904,0.360,2.30,2.31,2.323
515.3,632.7,3.8448,0.91445,0.898,0.357,2.30,2.33,2.309
515.9,634.4,3.8448,0.91435,0.899,0.359,2.29,2.31,2.327
516.5,636.0,3.8448,0.91277,0.899,0.360,2.28,2.30,2.294
517.1,637.7,3.8448,0.91201,0.902,0.358,2.30,2.32,2.314
517.7,639.4,3.8449,0.91082,0.906,0.359,2.30,2.29,2.334
518.3,641.0,3.8435,0.91221,0.902,0.362,2.27,2.33,2.313
518.9,642.7,3.8435,0.91198,0.904,0.362,2.28,2.31,2.327
519.5,644.3,3.8426,0.9129,0.901,0.360,2.29,2.31,2.298
520.1,646.0,3.8422,0.91066,0.901,0.357,2.30,2.31,2.303
520.7,647.7,3.8422,0.91305,0.904,0.355,2.32,2.30,2.318
521.3,649.4,3.8422,0.91122,0.900,0.356,2.30,2.32,2.293
521.9,651.1,3.8414,0.91253,0.903,0.360,2.29,2.32,2.330
522.5,652.8,3.8408,0.91195,0.903,0.359,2.29,2.31,2.323
523.1,654.4,3.8408,0.9137,0.904,0.358,2.31,2.31,2.318
523.7,656.1,3.8408,0.91489,0.911,0.358,2.33,2.32,2.354
524.3,657.8,3.8408,0.91352,0.911,0.359,2.32,2.32,2.330
524.9,659.4,3.8408,0.91385,0.910,0.359,2.32,2.31,2.335
525.5,661.1,3.8409,0.91546,0.905,0.360,2.30,2.32,2.322
526.1,662.8,3.8398,0.91547,0.907,0.358,2.32,2.31,2.331
526.7,664.5,3.8402,0.91633,0.903,0.358,2.31,2.32,2.328
527.3,666.1,3.8402,0.91599,0.905,0.360,2.30,2.34,2.325
527.9,667.8,3.8402,0.91915,0.907,0.358,2.33,2.33,2.324
528.5,669.5,3.8397,0.91857,0.906,0.360,2.31,2.33,2.337
529.1,671.1,3.8389,0.91893,0.908,0.360,2.32,2.34,2.334
529.7,672.8,3.8389,0.9199,0.907,0.360,2.32,2.33,2.337
530.3,674.5,3.8389,0.9209,0.911,0.360,2.33,2.35,2.362
530.9,676.2,3.8389,0.92177,0.909,0.358,2.34,2.35,2.344
531.5,677.8,3.8375,0.91972,0.910,0.358,2.34,2.36,2.356
532.1,679.5,3.8372,0.92128,0.908,0.358,2.33,2.35,2.362
532.7,681.2,3.8372,0.92205,0.907,0.359,2.33,2.35,2.342
533.3,682.8,3.8372,0.92569,0.910,0.358,2.35,2.36,2.367
533.9,684.5,3.8373,0.92652,0.913,0.359,2.36,2.37,2.383
534.5,686.2,3.8352,0.92871,0.916,0.360,2.36,2.40,2.395
535.1,687.9,3.8349,0.92779,0.914,0.360,2.36,2.37,2.382
535.7,689.5,3.8349,0.9287,0.913,0.360,2.36,2.38,2.384
536.3,691.2,3.8349,0.93174,0.912,0.358,2.37,2.37,2.376
536.9,692.9,3.8337,0.93263,0.913,0.358,2.38,2.38,2.382
537.5,694.5,3.8336,0.93386,0.915,0.364,2.35,2.39,2.416
538.1,696.2,3.8336,0.93458,0.911,0.360,2.37,2.38,2.397
538.7,697.9,3.8336,0.93493,0.912,0.360,2.37,2.40,2.398
539.3,699.5,3.8336,0.93755,0.911,0.358,2.39,2.41,2.401
539.9,701.2,3.8324,0.94221,0.910,0.354,2.42,2.43,2.396
540.5,702.9,3.8324,0.94289,0.920,0.359,2.42,2.45,2.433
541.1,704.6,3.8310,0.94347,0.916,0.357,2.42,2.44,2.424
541.7,706.2,3.8310,0.94883,0.920,0.358,2.44,2.42,2.438
542.3,707.9,3.8310,0.94715,0.919,0.361,2.41,2.43,2.436
542.9,709.6,3.8310,0.95025,0.915,0.359,2.42,2.44,2.434
543.5,711.3,3.8309,0.95143,0.917,0.360,2.43,2.45,2.450
544.1,712.9,3.8298,0.95349,0.919,0.360,2.44,2.48,2.460
544.7,714.6,3.8297,0.9575,0.920,0.358,2.46,2.47,2.462
545.3,716.3,3.8294,0.95894,0.915,0.358,2.45,2.45,2.452
545.9,718.0,3.8280,0.96024,0.920,0.358,2.47,2.46,2.481
546.5,719.6,3.8280,0.96221,0.916,0.359,2.46,2.47,2.461
547.1,721.3,3.8261,0.96448,0.913,0.358,2.46,2.46,2.475
547.7,723.0,3.8254,0.96695,0.922,0.358,2.49,2.50,2.495
548.3,724.6,3.8249,0.96831,0.914,0.359,2.47,2.49,2.487
548.9,726.3,3.8241,0.97181,0.921,0.358,2.50,2.50,2.529
549.5,728.0,3.8239,0.97569,0.924,0.358,2.52,2.50,2.517
550.1,729.7,3.8227,0.97629,0.918,0.357,2.51,2.52,2.539
550.7,731.4,3.8228,0.97992,0.924,0.358,2.53,2.53,2.541
551.3,733.0,3.8214,0.98332,0.917,0.357,2.52,2.54,2.524
551.9,734.7,3.8210,0.98455,0.920,0.358,2.53,2.55,2.549
552.5,736.4,3.8201,0.98762,0.920,0.358,2.54,2.57,2.542
553.1,738.1,3.8200,0.99193,0.918,0.358,2.54,2.54,2.572
553.7,739.7,3.8187,0.99501,0.927,0.358,2.57,2.55,2.575
554.3,741.4,3.8188,0.9968,0.920,0.357,2.57,2.58,2.580
554.9,743.1,3.8174,1.00206,0.926,0.358,2.59,2.57,2.601
555.5,744.8,3.8174,1.0051,0.927,0.358,2.60,2.60,2.615
556.1,746.4,3.8160,1.00649,0.921,0.356,2.60,2.61,2.613
556.7,748.1,3.8148,1.01211,0.924,0.358,2.61,2.59,2.608
557.3,749.8,3.8134,1.01599,0.921,0.358,2.61,2.60,2.624
557.9,751.5,3.8119,1.01894,0.921,0.358,2.62,2.61,2.627
558.5,753.1,3.8111,1.02158,0.924,0.359,2.63,2.61,2.655
559.1,754.8,3.8106,1.02753,0.926,0.359,2.65,2.67,2.688
559.7,756.5,3.8090,1.02971,0.926,0.357,2.67,2.66,2.670
560.3,758.2,3.8076,1.0362,0.935,0.362,2.68,2.71,2.714
560.9,759.8,3.8058,1.03908,0.929,0.359,2.69,2.68,2.719
561.5,761.5,3.8045,1.04253,0.928,0.356,2.72,2.68,2.717
562.1,763.2,3.8039,1.04732,0.930,0.357,2.73,2.71,2.741
562.7,764.9,3.8025,1.05073,0.921,0.353,2.74,2.67,2.729
563.3,766.6,3.8012,1.05494,0.925,0.357,2.74,2.74,2.752
563.9,768.2,3.7999,1.06125,0.926,0.360,2.73,2.74,2.761
564.5,769.9,3.7985,1.06628,0.930,0.359,2.76,2.76,2.785
565.1,771.6,3.7970,1.06958,0.930,0.360,2.76,2.75,2.788
565.7,773.3,3.7950,1.07294,0.926,0.358,2.78,2.75,2.804
566.3,774.9,3.7931,1.07895,0.928,0.357,2.81,2.77,2.834
566.9,776.6,3.7920,1.08353,0.930,0.357,2.82,2.79,2.845
567.5,778.3,3.7908,1.09018,0.932,0.357,2.85,2.83,2.862
568.1,780.0,3.7893,1.09516,0.934,0.357,2.87,2.87,2.894
568.7,781.7,3.7878,1.10376,0.936,0.358,2.88,2.88,2.922
569.3,783.3,3.7861,1.10976,0.928,0.358,2.87,2.87,2.903
569.9,785.0,3.7842,1.11822,0.925,0.362,2.86,2.90,2.928
570.5,786.7,3.7825,1.12553,0.930,0.358,2.92,2.91,2.949
571.1,788.4,3.7809,1.13376,0.930,0.358,2.95,2.93,2.981
571.7,790.0,3.7789,1.14175,0.932,0.359,2.96,2.95,3.001
572.3,791.7,3.7761,1.14669,0.937,0.354,3.04,2.98,3.019
572.9,793.4,3.7734,1.1528,0.933,0.359,3.00,2.98,3.019
573.5,795.1,3.7709,1.15872,0.938,0.358,3.03,3.03,3.057
574.1,796.7,3.7693,1.16121,0.936,0.357,3.04,3.04,3.054
574.7,798.4,3.7675,1.16375,0.938,0.358,3.05,3.04,3.073
575.3,800.1,3.7653,1.16997,0.932,0.357,3.06,3.05,3.067
575.9,801.8,3.7630,1.17277,0.933,0.356,3.07,3.04,3.062
576.5,803.5,3.7612,1.17492,0.943,0.357,3.10,3.08,3.125
577.1,805.1,3.7591,1.17795,0.942,0.356,3.11,3.06,3.127
577.7,806.8,3.7571,1.17868,0.942,0.358,3.10,3.07,3.107
578.3,808.5,3.7544,1.18339,0.938,0.358,3.10,3.09,3.139
578.9,810.2,3.7513,1.1846,0.937,0.357,3.11,3.09,3.150
579.5,811.8,3.7488,1.18707,0.938,0.362,3.08,3.10,3.131
580.1,813.5,3.7471,1.1907,0.939,0.356,3.14,3.12,3.208
580.7,815.2,3.7452,1.19219,0.946,0.355,3.17,3.14,3.195
581.3,816.9,3.7422,1.19502,0.942,0.356,3.16,3.14,3.192
581.9,818.6,3.7387,1.19649,0.940,0.352,3.20,3.14,3.231
582.5,820.3,3.7371,1.20212,0.950,0.358,3.19,3.15,3.225
583.1,822.0,3.7354,1.20246,0.937,0.358,3.15,3.14,3.209
583.7,823.6,3.7325,1.20397,0.941,0.355,3.19,3.17,3.231
584.3,825.3,3.7299,1.20561,0.944,0.357,3.19,3.19,3.241
584.9,827.0,3.7259,1.20774,0.932,0.355,3.17,3.21,3.244
585.5,828.7,3.7236,1.21063,0.943,0.356,3.21,3.21,3.286
586.1,830.4,3.7215,1.21383,0.944,0.356,3.22,3.19,3.278
586.7,832.1,3.7208,1.21565,0.941,0.357,3.21,3.22,3.269
587.3,833.8,3.7172,1.21695,0.946,0.357,3.23,3.22,3.299
587.9,835.4,3.7136,1.22097,0.944,0.356,3.24,3.25,3.307
588.5,837.1,3.7103,1.22363,0.946,0.356,3.25,3.23,3.339
589.1,838.8,3.7069,1.22738,0.947,0.356,3.27,3.25,3.375
589.7,840.5,3.7027,1.23018,0.945,0.355,3.27,3.31,3.355
590.3,842.2,3.7003,1.23418,0.952,0.356,3.30,3.32,3.402
590.9,843.9,3.6972,1.23841,0.950,0.357,3.29,3.37,3.423
591.5,845.6,3.6937,1.24398,0.949,0.355,3.32,3.36,3.417
592.1,847.2,3.6905,1.24725,0.955,0.357,3.34,3.35,3.455
592.7,848.9,3.6870,1.24858,0.951,0.355,3.34,3.37,3.464
593.3,850.6,3.6832,1.25652,0.950,0.356,3.35,3.42,3.470
593.9,852.3,3.6803,1.26325,0.950,0.355,3.38,3.44,3.519
594.5,854.0,3.6770,1.26671,0.949,0.353,3.40,3.47,3.556
595.1,855.7,3.6729,1.2752,0.949,0.355,3.40,3.51,3.566
595.7,857.4,3.6689,1.27989,0.952,0.355,3.43,3.53,3.590
596.3,859.1,3.6652,1.29042,0.954,0.356,3.46,3.57,3.631
596.9,860.7,3.6615,1.29994,0.951,0.358,3.46,3.57,3.643
597.5,862.4,3.6575,1.30949,0.954,0.355,3.52,3.61,3.694
598.1,864.1,3.6538,1.32291,0.952,0.355,3.55,3.63,3.728
598.7,865.8,3.6494,1.33907,0.950,0.355,3.58,3.64,3.756
599.3,867.5,3.6442,1.35458,0.957,0.354,3.66,3.75,3.842
599.9,869.2,3.6379,1.37101,0.953,0.355,3.68,3.77,3.856
600.5,870.9,3.6330,1.39134,0.957,0.356,3.74,3.83,3.929
601.1,872.6,3.6286,1.41191,0.960,0.353,3.83,3.92,3.979
601.7,874.3,3.6229,1.43298,0.957,0.356,3.85,3.87,4.015
602.3,876.0,3.6178,1.4545,0.954,0.353,3.93,3.96,4.067
602.9,877.7,3.6131,1.47893,0.954,0.355,3.97,3.99,4.119
603.5,879.3,3.6074,1.50117,0.957,0.354,4.06,4.06,4.199
604.1,881.0,3.6011,1.52771,0.960,0.353,4.16,4.16,4.278
604.7,882.7,3.5952,1.5529,0.960,0.354,4.21,4.17,4.329
605.3,884.4,3.5890,1.58103,0.956,0.353,4.28,4.25,4.394
605.9,886.1,3.5822,1.60718,0.960,0.355,4.34,4.29,4.488
606.5,887.8,3.5750,1.6338,0.957,0.355,4.40,4.37,4.545
607.1,889.5,3.5670,1.6642,0.961,0.354,4.51,4.46,4.660
607.7,891.2,3.5592,1.69393,0.965,0.353,4.63,4.56,4.741
608.3,892.9,3.5519,1.7243,0.962,0.353,4.70,4.65,4.814
608.9,894.6,3.5445,1.75885,0.960,0.353,4.79,4.71,4.890
609.5,896.3,3.5360,1.78819,0.966,0.354,4.88,4.84,4.991
610.1,898.0,3.5277,1.82425,0.962,0.353,4.97,4.93,5.089
610.7,899.7,3.5186,1.86053,0.963,0.354,5.06,5.03,5.171
611.3,901.4,3.5089,1.8965,0.967,0.354,5.19,5.17,5.300
611.9,903.1,3.4999,1.9342,0.961,0.352,5.28,5.26,5.401
612.5,904.8,3.4898,1.97025,0.966,0.354,5.38,5.39,5.494
613.1,906.5,3.4789,2.0135,0.967,0.352,5.53,5.49,5.636
613.7,908.2,3.4681,2.05336,0.968,0.351,5.67,5.59,5.760
614.3,909.9,3.4571,2.09828,0.969,0.351,5.80,5.78,5.881
614.9,911.6,3.4437,2.13796,0.968,0.352,5.88,5.84,6.061
615.5,913.3,3.4314,2.18452,0.969,0.351,6.04,6.01,6.135
616.1,915.0,3.4201,2.23145,0.967,0.351,6.14,6.18,6.285
616.7,916.7,3.4075,2.28045,0.968,0.351,6.29,6.33,6.429
617.3,918.5,3.3938,2.33297,0.969,0.349,6.47,6.50,6.540
617.9,920.2,3.3809,2.38204,0.970,0.352,6.57,6.65,6.728
618.5,921.9,3.3673,2.43463,0.974,0.352,6.73,6.73,6.911
619.1,923.6,3.3519,2.48972,0.977,0.352,6.91,6.90,7.084
619.7,925.3,3.3352,2.5442,0.971,0.351,7.03,7.06,7.180
620.3,927.0,3.3197,2.60102,0.974,0.349,7.26,7.29,7.373
620.9,928.7,3.3036,2.66026,0.978,0.349,7.46,7.41,7.520
621.5,930.4,3.2858,2.72089,0.968,0.350,7.52,7.55,7.655
622.1,932.1,3.2666,2.77856,0.977,0.348,7.80,7.74,7.929
622.7,933.9,3.2500,2.84042,0.973,0.352,7.86,7.90,7.995
623.3,935.6,3.2311,2.90509,0.969,0.351,8.03,8.11,8.137
623.9,937.3,3.2100,2.96801,0.979,0.347,8.37,8.29,8.419
624.5,939.0,3.1903,3.03544,0.973,0.349,8.45,8.48,8.532
625.1,940.7,3.1699,3.09821,0.978,0.349,8.69,8.73,8.864
625.7,942.5,3.1482,3.16642,0.980,0.348,8.91,8.84,9.122
626.3,944.2,3.1254,3.23611,0.973,0.349,9.02,9.10,9.223
626.9,945.9,3.1036,3.30233,0.979,0.351,9.22,9.36,9.529
627.5,947.6,3.0800,3.3746,0.982,0.347,9.54,9.54,9.711
628.1,949.3,3.0546,3.44443,0.979,0.350,9.63,9.81,9.863
628.7,951.1,3.0309,3.5164,0.981,0.349,9.88,9.94,10.062
629.3,952.8,3.0051,3.5861,0.979,0.347,10.12,10.12,10.225
629.9,954.5,2.9782,3.65994,0.984,0.349,10.33,10.41,10.530
630.5,956.2,2.9506,3.73061,0.983,0.347,10.57,10.64,10.733
631.1,958.0,2.9257,3.80353,0.979,0.345,10.78,10.85,10.805
631.7,959.7,2.8974,3.87568,0.981,0.347,10.96,11.12,11.063
632.3,961.4,2.8669,3.94713,0.984,0.348,11.17,11.22,11.236
632.9,963.1,2.8382,4.01708,0.982,0.347,11.36,11.46,11.529
633.5,964.9,2.8090,4.08831,0.990,0.348,11.63,11.58,11.996
634.1,966.6,2.7774,4.1588,0.982,0.348,11.75,11.79,12.065
634.7,968.3,2.7440,4.22789,0.992,0.347,12.11,12.07,12.259
635.3,970.1,2.7142,4.29332,0.988,0.347,12.25,12.24,12.473
635.9,971.8,2.6814,4.36121,0.987,0.348,12.38,12.55,12.584
636.5,973.5,2.6445,4.42664,0.993,0.346,12.70,12.75,12.970
637.1,975.2,2.6103,4.49553,0.988,0.347,12.79,12.83,13.053
637.7,977.0,2.5774,4.55507,0.990,0.349,12.93,13.15,13.199
638.3,978.7,2.5419,4.61291,0.991,0.347,13.17,13.29,13.459
638.9,980.4,2.5038,4.67134,0.986,0.348,13.25,13.41,13.466
639.5,982.2,2.4696,4.7253,0.991,0.345,13.56,13.49,13.701
640.1,983.9,2.4332,4.77625,0.985,0.350,13.45,13.67,13.830
640.7,985.6,2.3939,4.82365,0.987,0.347,13.74,13.90,13.946
641.3,987.3,2.3543,4.87156,0.992,0.347,13.94,13.90,14.155
641.9,989.1,2.3177,4.91292,0.988,0.346,14.03,14.12,14.254
642.5,990.8,2.2783,4.94875,0.990,0.343,14.27,14.34,14.378
643.1,992.5,2.2361,4.98524,0.995,0.346,14.33,14.33,14.469
643.7,994.3,2.1979,5.01492,0.993,0.349,14.27,14.58,14.485
644.3,996.0,2.1582,5.02733,0.994,0.347,14.41,14.66,14.557
644.9,997.7,2.1160,5.05354,0.997,0.347,14.53,14.53,14.597
645.5,999.5,2.0733,5.07,0.997,0.347,14.57,14.80,14.722
646.1,1001.2,2.0348,5.08861,0.995,0.346,14.65,14.76,14.779
646.7,1002.9,1.9942,5.10937,0.997,0.348,14.65,14.81,14.951
647.3,1004.7,1.9509,5.11307,0.996,0.349,14.57,15.00,14.960
647.9,1006.4,1.9108,5.11286,0.995,0.348,14.64,14.80,14.830
648.5,1008.1,1.8718,5.13195,0.994,0.349,14.60,14.84,14.844
649.1,1009.8,1.8301,5.12706,0.998,0.348,14.72,14.79,14.941
649.7,1011.5,1.7862,5.13288,0.997,0.348,14.71,14.77,14.976
650.3,1013.3,1.7479,5.13492,1.001,0.348,14.77,14.97,15.082
650.9,1015.0,1.7049,5.1327,0.998,0.345,14.84,14.92,14.909
651.5,1016.7,1.6606,5.13067,0.999,0.348,14.75,14.86,14.923
652.1,1018.4,1.6192,5.11998,1.001,0.347,14.77,14.82,15.045
652.7,1020.2,1.5795,5.11075,0.997,0.349,14.61,14.68,14.793
653.3,1021.9,1.5376,5.08609,1.001,0.349,14.61,14.74,14.852
653.9,1023.6,1.4924,5.05684,0.998,0.351,14.39,14.60,14.716
654.5,1025.3,1.4537,5.02078,0.999,0.349,14.35,14.47,14.521
655.1,1027.0,1.4132,4.98296,1.007,0.347,14.45,14.33,14.612
655.7,1028.8,1.3706,4.94532,1.001,0.348,14.23,14.15,14.406
656.3,1030.5,1.3297,4.91745,1.004,0.352,14.03,14.03,14.257
656.9,1032.2,1.2915,4.87469,1.006,0.349,14.04,13.90,14.200
657.5,1033.9,1.2508,4.81812,1.014,0.352,13.86,13.79,13.998
658.1,1035.6,1.2089,4.75724,1.008,0.350,13.70,13.61,13.855
658.7,1037.3,1.1725,4.6996,1.008,0.348,13.60,13.43,13.669
659.3,1039.0,1.1341,4.63544,1.008,0.353,13.22,13.16,13.404
659.9,1040.8,1.0936,4.56128,1.005,0.351,13.04,12.82,13.223
660.5,1042.5,1.0561,4.4844,1.003,0.352,12.80,12.70,12.844
661.1,1044.2,1.0211,4.40482,1.006,0.351,12.65,12.42,12.673
661.7,1045.9,0.9844,4.32198,1.004,0.350,12.40,12.21,12.371
662.3,1047.6,0.9465,4.23513,1.009,0.351,12.18,11.81,12.183
662.9,1049.3,0.9142,4.14924,1.009,0.352,11.89,11.57,11.963
663.5,1051.0,0.8806,4.05581,1.010,0.353,11.62,11.47,11.719
664.1,1052.7,0.8446,3.96214,1.013,0.353,11.37,11.17,11.424
664.7,1054.4,0.8123,3.87037,1.016,0.352,11.16,11.00,11.198
665.3,1056.1,0.7823,3.77397,1.012,0.354,10.79,10.84,10.836
665.9,1057.8,0.7503,3.67516,1.012,0.354,10.51,10.41,10.533
666.5,1059.5,0.7180,3.58244,1.014,0.355,10.24,10.15,10.316
667.1,1061.2,0.6911,3.48546,1.013,0.360,9.82,9.91,9.959
667.7,1062.8,0.6628,3.38675,1.011,0.355,9.65,9.59,9.630
668.3,1064.5,0.6334,3.28597,1.016,0.357,9.36,9.40,9.453
668.9,1066.2,0.6081,3.18429,1.012,0.353,9.12,9.13,9.104
669.5,1067.9,0.5822,3.08701,1.016,0.351,8.93,8.80,8.892
670.1,1069.6,0.5550,2.99529,1.022,0.356,8.61,8.55,8.654
670.7,1071.3,0.5310,2.89738,1.014,0.355,8.29,8.28,8.289
671.3,1073.0,0.5094,2.80159,1.022,0.355,8.08,7.97,8.072
671.9,1074.7,0.4850,2.70416,1.018,0.355,7.76,7.68,7.718
672.5,1076.4,0.4610,2.60687,1.016,0.355,7.46,7.42,7.448
673.1,1078.1,0.4406,2.50989,1.020,0.354,7.23,7.15,7.170
673.7,1079.8,0.4205,2.41284,1.019,0.356,6.91,6.92,6.888
674.3,1081.5,0.3995,2.32404,1.019,0.354,6.69,6.69,6.635
674.9,1083.2,0.3809,2.23848,1.023,0.356,6.44,6.40,6.436
675.5,1084.8,0.3635,2.1523,1.029,0.354,6.25,6.17,6.278
676.1,1086.5,0.3456,2.06594,1.022,0.353,5.98,5.95,5.942
676.7,1088.2,0.3281,1.98649,1.027,0.357,5.71,5.70,5.739
677.3,1089.9,0.3143,1.90532,1.020,0.354,5.49,5.51,5.486
677.9,1091.6,0.2986,1.82862,1.024,0.356,5.26,5.27,5.261
678.5,1093.3,0.2823,1.7508,1.024,0.357,5.03,5.01,5.048
679.1,1095.0,0.2681,1.67879,1.024,0.353,4.87,4.83,4.826
679.7,1096.7,0.2551,1.6035,1.027,0.355,4.64,4.59,4.621
680.3,1098.4,0.2409,1.53156,1.030,0.355,4.44,4.42,4.440
680.9,1100.1,0.2280,1.46165,1.037,0.355,4.27,4.26,4.287
681.5,1101.8,0.2163,1.39546,1.031,0.353,4.08,4.09,4.061
682.1,1103.5,0.2052,1.32791,1.028,0.353,3.87,3.83,3.851
682.7,1105.2,0.1935,1.26334,1.022,0.352,3.67,3.66,3.640
683.3,1106.9,0.1841,1.20117,1.019,0.353,3.47,3.46,3.457
683.9,1108.6,0.1753,1.14252,1.032,0.353,3.34,3.29,3.313
684.5,1110.3,0.1659,1.08295,1.030,0.353,3.16,3.15,3.139
685.1,1112.0,0.1571,1.02854,1.032,0.352,3.01,2.98,2.991
685.7,1113.7,0.1496,0.97376,1.035,0.353,2.86,2.81,2.835
686.3,1115.4,0.1418,0.92362,1.035,0.352,2.71,2.66,2.699
686.9,1117.1,0.1336,0.87566,1.039,0.353,2.58,2.57,2.563
687.5,1118.8,0.1271,0.8288,1.037,0.354,2.43,2.44,2.422
688.1,1120.5,0.1192,0.78418,1.034,0.352,2.31,2.35,2.279
688.7,1122.2,0.1126,0.74092,1.032,0.353,2.17,2.21,2.154
689.3,1123.9,0.1066,0.70338,1.035,0.352,2.07,2.05,2.049
689.9,1125.6,0.1012,0.66232,1.036,0.352,1.95,1.95,1.947
690.5,1127.3,0.0972,0.62716,1.042,0.352,1.86,1.85,1.849
691.1,1129.0,0.0924,0.59316,1.039,0.351,1.76,1.74,1.740
691.7,1130.7,0.0880,0.55929,1.040,0.350,1.66,1.66,1.644
692.3,1132.4,0.0837,0.52865,1.037,0.355,1.54,1.56,1.555
692.9,1134.1,0.0793,0.49944,1.041,0.351,1.48,1.47,1.467
693.5,1135.8,0.0750,0.47076,1.042,0.352,1.39,1.39,1.388
694.1,1137.5,0.0715,0.44569,1.053,0.351,1.34,1.32,1.324
694.7,1139.2,0.0682,0.42142,1.049,0.349,1.27,1.25,1.255
695.3,1140.9,0.0648,0.39881,1.044,0.351,1.19,1.17,1.176
695.9,1142.7,0.0615,0.37461,1.045,0.350,1.12,1.12,1.107
696.5,1144.4,0.0592,0.35506,1.037,0.349,1.05,1.05,1.039
697.1,1146.1,0.0577,0.33499,1.044,0.348,1.00,0.99,0.988
697.7,1147.8,0.0556,0.31741,1.047,0.350,0.95,0.94,0.946
698.3,1149.5,0.0529,0.3004,1.049,0.350,0.90,0.89,0.899
698.9,1151.2,0.0506,0.28359,1.044,0.348,0.85,0.85,0.836
699.5,1153.0,0.0486,0.2713,1.047,0.349,0.81,0.80,0.791
700.1,1154.7,0.0468,0.2542,1.050,0.347,0.77,0.76,0.748
700.7,1156.4,0.0451,0.24015,1.043,0.349,0.72,0.72,0.702
701.3,1158.1,0.0443,0.22737,1.049,0.351,0.68,0.68,0.669
701.9,1159.8,0.0425,0.21689,1.048,0.348,0.65,0.64,0.639
702.5,1161.6,0.0406,0.20678,1.047,0.349,0.62,0.62,0.603
703.1,1163.3,0.0390,0.19582,1.044,0.349,0.59,0.59,0.571
703.7,1165.0,0.0380,0.18481,1.053,0.348,0.56,0.56,0.543
704.3,1166.7,0.0361,0.17711,1.057,0.348,0.54,0.53,0.524
704.9,1168.5,0.0340,0.16664,1.047,0.349,0.50,0.51,0.497
705.5,1170.2,0.0334,0.16033,1.057,0.347,0.49,0.49,0.473
706.1,1171.9,0.0320,0.15666,1.052,0.348,0.47,0.46,0.447
706.7,1173.6,0.0319,0.14636,1.054,0.347,0.44,0.44,0.434
707.3,1175.4,0.0307,0.14265,1.058,0.347,0.44,0.43,0.417
707.9,1177.1,0.0299,0.13596,1.054,0.350,0.41,0.41,0.390
708.5,1178.8,0.0293,0.12947,1.055,0.347,0.39,0.39,0.385
709.1,1180.5,0.0281,0.12759,1.058,0.348,0.39,0.38,0.361
709.7,1182.3,0.0280,0.12118,1.060,0.347,0.37,0.37,0.345
710.3,1184.0,0.0269,0.11845,1.065,0.346,0.36,0.36,0.332
710.9,1185.7,0.0267,0.11551,1.061,0.347,0.35,0.34,0.318
711.5,1187.5,0.0260,0.11307,1.061,0.347,0.35,0.33,0.310
712.1,1189.2,0.0254,0.10719,1.060,0.346,0.33,0.32,0.302
712.7,1190.9,0.0254,0.1049,1.061,0.348,0.32,0.31,0.294
713.3,1192.7,0.0254,0.10446,1.060,0.348,0.32,0.30,0.282
713.9,1194.4,0.0254,0.10295,1.063,0.347,0.32,0.29,0.283
714.5,1196.1,0.0240,9.99E-02,1.065,0.349,0.30,0.30,0.270
715.1,1197.8,0.0241,9.93E-02,1.067,0.347,0.31,0.29,0.275
715.7,1199.6,0.0239,9.83E-02,1.069,0.346,0.30,0.28,0.271
716.3,1201.3,0.0236,9.73E-02,1.064,0.347,0.30,0.28,0.269
716.9,1203.0,0.0241,0.10034,1.063,0.347,0.31,0.28,0.273
717.5,1204.8,0.0241,9.88E-02,1.068,0.347,0.30,0.30,0.276
718.1,1206.5,0.0241,9.82E-02,1.068,0.347,0.30,0.30,0.276
718.7,1208.2,0.0241,0.10148,1.068,0.347,0.31,0.29,0.283
719.3,1210.0,0.0241,0.10279,1.066,0.347,0.32,0.29,0.284
719.9,1211.7,0.0217,0.10203,1.069,0.347,0.31,0.29,0.283
720.5,1213.4,0.0215,9.71E-02,1.078,0.345,0.30,0.28,0.283
721.1,1215.2,0.0215,9.43E-02,1.067,0.345,0.29,0.28,0.273
721.7,1216.9,0.0215,8.99E-02,1.073,0.345,0.28,0.26,0.275
722.3,1218.6,0.0215,8.36E-02,1.067,0.345,0.26,0.25,0.261
722.9,1220.4,0.0215,7.37E-02,1.071,0.345,0.23,0.22,0.251
723.5,1222.1,0.0215,6.50E-02,1.071,0.347,0.20,0.19,0.234
724.1,1223.8,0.0215,6.08E-02,1.077,0.345,0.19,0.17,0.222
724.7,1225.6,0.0215,5.28E-02,1.072,0.344,0.16,0.15,0.197
725.3,1227.3,0.0216,4.71E-02,1.068,0.344,0.15,0.12,0.161
725.9,1229.1,0.0218,4.40E-02,1.071,0.346,0.14,0.10,0.148
726.5,1230.8,0.0218,3.78E-02,1.073,0.344,0.12,0.09,0.130
727.1,1232.5,0.0218,3.41E-02,1.078,0.344,0.11,0.08,0.120
727.7,1234.3,0.0218,3.40E-02,1.073,0.344,0.11,0.08,0.111
728.3,1236.0,0.0218,3.23E-02,1.072,0.344,0.10,0.08,0.107
728.9,1237.8,0.0218,3.47E-02,1.072,0.348,0.11,0.10,0.107
729.5,1239.5,0.0218,4.00E-02,1.077,0.347,0.12,0.12,0.112
730.1,1241.2,0.0218,4.42E-02,1.076,0.347,0.14,0.14,0.126
730.7,1243.0,0.0218,5.13E-02,1.080,0.346,0.16,0.16,0.135
731.3,1244.7,0.0218,5.79E-02,1.079,0.342,0.18,0.19,0.144
731.9,1246.4,0.0218,6.41E-02,1.081,0.343,0.20,0.21,0.157
732.5,1248.2,0.0218,7.21E-02,1.083,0.343,0.23,0.24,0.168
733.1,1249.9,0.0218,7.72E-02,1.087,0.343,0.24,0.27,0.181
733.7,1251.7,0.0218,8.94E-02,1.084,0.342,0.28,0.30,0.191
734.3,1253.4,0.0218,9.76E-02,1.079,0.342,0.31,0.32,0.196
734.9,1255.2,0.0218,0.10357,1.081,0.344,0.33,0.34,0.214
735.5,1256.9,0.0218,0.10949,1.084,0.347,0.34,0.36,0.232
736.1,1258.7,0.0218,0.11591,1.084,0.344,0.37,0.38,0.243
736.7,1260.4,0.0205,0.12131,1.087,0.344,0.38,0.39,0.253
737.3,1262.2,0.0205,0.12537,1.092,0.343,0.40,0.41,0.256
737.9,1263.9,0.0205,0.13226,1.090,0.341,0.42,0.43,0.264
738.5,1265.7,0.0205,0.13823,1.086,0.345,0.44,0.43,0.276
739.1,1267.4,0.0205,0.14263,1.090,0.343,0.45,0.44,0.281
739.7,1269.2,0.0218,0.14617,1.086,0.344,0.46,0.45,0.290
740.3,1270.9,0.0218,0.14924,1.088,0.344,0.47,0.46,0.297
740.9,1272.7,0.0218,0.14867,1.091,0.342,0.47,0.46,0.300
741.5,1274.4,0.0218,0.15396,1.090,0.347,0.48,0.47,0.302
742.1,1276.2,0.0218,0.15387,1.090,0.343,0.49,0.48,0.303
742.7,1277.9,0.0205,0.15535,1.094,0.344,0.49,0.49,0.305
743.3,1279.6,0.0205,0.15736,1.090,0.343,0.50,0.49,0.309
743.9,1281.4,0.0198,0.15984,1.093,0.337,0.52,0.49,0.319
744.5,1283.2,0.0198,0.16121,1.092,0.341,0.52,0.48,0.312
745.1,1284.9,0.0205,0.16314,1.095,0.342,0.52,0.50,0.329
745.7,1286.7,0.0205,0.16474,1.103,0.341,0.53,0.50,0.334
746.3,1288.4,0.0205,0.16581,1.103,0.344,0.53,0.50,0.332
746.9,1290.2,0.0205,0.16693,1.098,0.342,0.54,0.51,0.336
747.5,1291.9,0.0205,0.16864,1.098,0.341,0.54,0.50,0.345
748.1,1293.7,0.0205,0.1685,1.100,0.345,0.54,0.51,0.345
748.7,1295.4,0.0205,0.16613,1.103,0.343,0.53,0.50,0.353
749.3,1297.2,0.0205,0.16818,1.098,0.343,0.54,0.49,0.339
749.9,1298.9,0.0205,0.165,1.101,0.344,0.53,0.49,0.353
750.5,1300.7,0.0205,0.16663,1.099,0.342,0.54,0.50,0.356
751.1,1302.4,0.0205,0.16555,1.099,0.340,0.53,0.50,0.342
751.7,1304.2,0.0205,0.16414,1.108,0.342,0.53,0.49,0.349
752.3,1305.9,0.0205,0.16692,1.106,0.342,0.54,0.50,0.356
752.9,1307.7,0.0205,0.16795,1.108,0.342,0.54,0.50,0.351
753.5,1309.5,0.0205,0.16581,1.104,0.343,0.53,0.50,0.351
754.1,1311.2,0.0205,0.1678,1.108,0.341,0.55,0.50,0.357
754.7,1313.0,0.0205,0.16638,1.108,0.343,0.54,0.50,0.362
755.3,1314.7,0.0213,0.16779,1.107,0.341,0.54,0.50,0.358
755.9,1316.5,0.0218,0.16586,1.113,0.342,0.54,0.50,0.363
756.5,1318.2,0.0218,0.16786,1.109,0.341,0.55,0.50,0.355
757.1,1320.0,0.0218,0.1688,1.106,0.341,0.55,0.50,0.360
757.7,1321.7,0.0218,0.16989,1.112,0.342,0.55,0.50,0.364
758.3,1323.5,0.0205,0.1698,1.114,0.340,0.56,0.51,0.367
758.9,1325.3,0.0205,0.17172,1.116,0.342,0.56,0.51,0.360
759.5,1327.0,0.0205,0.17086,1.121,0.342,0.56,0.51,0.356
760.1,1328.8,0.0205,0.16956,1.118,0.343,0.55,0.51,0.361
760.7,1330.5,0.0205,0.17176,1.115,0.341,0.56,0.50,0.362
761.3,1332.3,0.0205,0.16945,1.113,0.342,0.55,0.51,0.366
761.9,1334.0,0.0205,0.17106,1.128,0.340,0.57,0.51,0.376
762.5,1335.8,0.0205,0.17143,1.125,0.341,0.57,0.52,0.369
763.1,1337.5,0.0205,0.17215,1.121,0.340,0.57,0.51,0.370
763.7,1339.3,0.0205,0.17272,1.123,0.340,0.57,0.51,0.368
764.3,1341.1,0.0205,0.17294,1.107,0.341,0.56,0.52,0.370
764.9,1342.8,0.0215,0.17244,1.122,0.340,0.57,0.50,0.376
765.5,1344.6,0.0215,0.17298,1.120,0.340,0.57,0.51,0.375
766.1,1346.3,0.0215,0.17389,1.127,0.342,0.57,0.51,0.389
766.7,1348.1,0.0215,0.17332,1.124,0.339,0.57,0.51,0.386
767.3,1349.9,0.0219,0.17452,1.120,0.339,0.58,0.51,0.377
767.9,1351.6,0.0228,0.17545,1.119,0.342,0.57,0.51,0.385
768.5,1353.4,0.0223,0.17543,1.122,0.341,0.58,0.52,0.375
769.1,1355.1,0.0208,0.1749,1.126,0.340,0.58,0.52,0.387
769.7,1356.9,0.0208,0.17701,1.131,0.342,0.59,0.52,0.390
770.3,1358.6,0.0208,0.17534,1.139,0.340,0.59,0.53,0.394
770.9,1360.4,0.0208,0.17541,1.129,0.342,0.58,0.52,0.389
771.5,1362.2,0.0214,0.17698,1.129,0.342,0.58,0.53,0.389
772.1,1363.9,0.0221,0.17629,1.134,0.340,0.59,0.52,0.397
772.7,1365.7,0.0221,0.17904,1.128,0.342,0.59,0.52,0.396
773.3,1367.4,0.0221,0.17823,1.127,0.341,0.59,0.53,0.399
773.9,1369.2,0.0208,0.17987,1.124,0.341,0.59,0.53,0.403
774.5,1371.0,0.0208,0.17936,1.130,0.340,0.60,0.54,0.406
775.1,1372.7,0.0208,0.17954,1.131,0.341,0.60,0.53,0.407
775.7,1374.5,0.0208,0.18073,1.136,0.341,0.60,0.54,0.406
776.3,1376.2,0.0208,0.17952,1.138,0.339,0.60,0.54,0.403
776.9,1378.0,0.0208,0.18049,1.137,0.342,0.60,0.54,0.410
777.5,1379.7,0.0214,0.17835,1.130,0.342,0.59,0.54,0.407
778.1,1381.5,0.0221,0.17841,1.141,0.343,0.59,0.54,0.427
778.7,1383.3,0.0221,0.18053,1.134,0.342,0.60,0.54,0.418
779.3,1385.0,0.0214,0.18217,1.134,0.342,0.60,0.53,0.414
779.9,1386.8,0.0208,0.18331,1.147,0.342,0.62,0.55,0.428
780.5,1388.5,0.0208,0.18398,1.130,0.341,0.61,0.55,0.421
781.1,1390.3,0.0208,0.18292,1.142,0.338,0.62,0.54,0.425
781.7,1392.1,0.0209,0.1859,1.142,0.339,0.63,0.55,0.426
782.3,1393.8,0.0221,0.18321,1.129,0.340,0.61,0.54,0.425
782.9,1395.6,0.0215,0.18521,1.144,0.341,0.62,0.55,0.434
783.5,1397.4,0.0215,0.18122,1.136,0.341,0.60,0.55,0.425
784.1,1399.1,0.0202,0.18515,1.144,0.341,0.62,0.55,0.429
784.7,1400.9,0.0201,0.18644,1.135,0.343,0.62,0.55,0.427
785.3,1402.6,0.0202,0.18585,1.146,0.340,0.63,0.55,0.430
785.9,1404.4,0.0202,0.18479,1.146,0.341,0.62,0.55,0.435
786.5,1406.2,0.0202,0.18519,1.149,0.342,0.62,0.55,0.435
787.1,1407.9,0.0201,0.18877,1.151,0.342,0.63,0.56,0.444
787.7,1409.7,0.0202,0.18684,1.151,0.342,0.63,0.56,0.440
788.3,1411.4,0.0214,0.18768,1.149,0.341,0.63,0.56,0.443
788.9,1413.2,0.0215,0.19034,1.153,0.339,0.65,0.56,0.446
789.5,1415.0,0.0215,0.18888,1.150,0.339,0.64,0.56,0.443
790.1,1416.7,0.0214,0.19127,1.154,0.340,0.65,0.56,0.442
790.7,1418.5,0.0205,0.19264,1.156,0.343,0.65,0.56,0.445
791.3,1420.2,0.0205,0.19082,1.164,0.340,0.65,0.57,0.449
791.9,1422.0,0.0198,0.19188,1.162,0.341,0.65,0.57,0.453
792.5,1423.8,0.0198,0.19068,1.154,0.340,0.65,0.58,0.446
793.1,1425.5,0.0192,0.19148,1.154,0.339,0.65,0.58,0.449
793.7,1427.3,0.0192,0.19271,1.147,0.342,0.65,0.58,0.440
794.3,1429.0,0.0192,0.19157,1.151,0.342,0.65,0.58,0.456
794.9,1430.8,0.0198,0.19315,1.155,0.343,0.65,0.58,0.450
795.5,1432.6,0.0205,0.19114,1.156,0.341,0.65,0.58,0.450
796.1,1434.3,0.0205,0.19298,1.157,0.339,0.66,0.57,0.453
796.7,1436.1,0.0205,0.19451,1.152,0.341,0.66,0.59,0.455
797.3,1437.9,0.0205,0.19188,1.156,0.340,0.65,0.59,0.458
797.9,1439.6,0.0205,0.19257,1.164,0.342,0.65,0.59,0.457
798.5,1441.4,0.0205,0.19562,1.159,0.342,0.66,0.60,0.463
799.1,1443.1,0.0215,0.19463,1.162,0.342,0.66,0.59,0.460
799.7,1444.9,0.0204,0.19385,1.168,0.343,0.66,0.60,0.463
800.3,1446.6,0.0202,0.19683,1.163,0.340,0.67,0.60,0.461
800.9,1448.4,0.0202,0.19549,1.166,0.340,0.67,0.61,0.465
801.5,1450.1,0.0201,0.19641,1.170,0.341,0.67,0.60,0.455
802.1,1451.9,0.0215,0.19743,1.173,0.342,0.68,0.60,0.471
802.7,1453.7,0.0215,0.1958,1.168,0.340,0.67,0.61,0.462
803.3,1455.4,0.0215,0.19677,1.167,0.339,0.68,0.61,0.466
803.9,1457.2,0.0217,0.19706,1.166,0.340,0.68,0.61,0.473
804.5,1459.0,0.0218,0.19766,1.168,0.339,0.68,0.60,0.473
805.1,1460.7,0.0218,0.19757,1.172,0.341,0.68,0.61,0.471
805.7,1462.5,0.0218,0.19928,1.184,0.341,0.69,0.61,0.473
806.3,1464.3,0.0218,0.19824,1.178,0.339,0.69,0.62,0.473
806.9,1466.0,0.0218,0.19923,1.178,0.339,0.69,0.62,0.468
807.5,1467.8,0.0218,0.20047,1.173,0.338,0.70,0.62,0.474
808.1,1469.6,0.0217,0.20215,1.172,0.338,0.70,0.62,0.480
808.7,1471.3,0.0205,0.20011,1.175,0.340,0.69,0.61,0.475
809.3,1473.1,0.0205,0.20063,1.173,0.339,0.69,0.62,0.479
809.9,1474.9,0.0205,0.20061,1.182,0.340,0.70,0.62,0.486
810.5,1476.6,0.0205,0.20285,1.178,0.340,0.70,0.63,0.479
811.1,1478.4,0.0205,0.20275,1.179,0.340,0.70,0.64,0.485
811.7,1480.2,0.0205,0.20336,1.178,0.343,0.70,0.63,0.489
812.3,1481.9,0.0205,0.2051,1.180,0.339,0.71,0.64,0.488
812.9,1483.7,0.0205,0.2038,1.186,0.339,0.71,0.63,0.488
813.5,1485.5,0.0205,0.20355,1.183,0.341,0.71,0.65,0.498
814.1,1487.2,0.0205,0.20326,1.187,0.338,0.71,0.64,0.490
814.7,1489.0,0.0205,0.2038,1.194,0.336,0.72,0.65,0.491
815.3,1490.8,0.0194,0.20343,1.186,0.335,0.72,0.65,0.501
815.9,1492.6,0.0195,0.20496,1.185,0.333,0.73,0.65,0.492
816.5,1494.4,0.0202,0.20498,1.190,0.335,0.73,0.65,0.498
817.1,1496.2,0.0201,0.20388,1.188,0.338,0.72,0.65,0.497
817.7,1497.9,0.0201,0.20527,1.172,0.336,0.72,0.65,0.490
817.8,1498.2,0.0201,0.2056,1.166,0.337,0.71,0.64,0.486