File: PMMA/Calibration_Data/FSRI/FSRI_STA_N2_30K_1.csv
Temp,time,TGA,DSC
[K],[s],[mg],[mW/mg]
322.1,0.0,4.0291,1.38E-03
322.5,27.3,4.0290,2.96E-02
322.9,33.2,4.0279,4.92E-02
323.3,37.6,4.0283,7.25E-02
323.7,41.2,4.0286,9.50E-02
324.1,44.3,4.0293,0.11569
324.5,47.0,4.0298,0.13396
324.9,49.4,4.0296,0.15153
325.3,51.7,4.0300,0.171
325.7,53.8,4.0297,0.18694
326.1,55.8,4.0297,0.20367
326.5,57.6,4.0306,0.21736
326.9,59.4,4.0316,0.2317
327.3,61.0,4.0314,0.24697
327.7,62.7,4.0308,0.25978
328.1,64.2,4.0308,0.27163
328.5,65.7,4.0305,0.28712
328.9,67.2,4.0296,0.29805
329.3,68.6,4.0290,0.31029
329.7,70.0,4.0290,0.32206
330.1,71.4,4.0290,0.33409
330.5,72.7,4.0291,0.34374
330.9,74.0,4.0295,0.35577
331.3,75.2,4.0294,0.36702
331.7,76.5,4.0288,0.37742
332.1,77.7,4.0285,0.38674
332.5,78.9,4.0286,0.39749
332.9,80.1,4.0288,0.40713
333.3,81.3,4.0291,0.41607
333.7,82.5,4.0287,0.42486
334.1,83.6,4.0280,0.43619
334.5,84.7,4.0268,0.44454
334.9,85.8,4.0263,0.44949
335.3,86.9,4.0268,0.46065
335.7,88.0,4.0271,0.46954
336.1,89.1,4.0278,0.47637
336.5,90.1,4.0283,0.48304
336.9,91.2,4.0292,0.48976
337.3,92.2,4.0304,0.49728
337.7,93.3,4.0311,0.50694
338.1,94.3,4.0308,0.51355
338.5,95.3,4.0292,0.52115
338.9,96.3,4.0279,0.52773
339.3,97.3,4.0278,0.53568
339.7,98.3,4.0278,0.54278
340.1,99.3,4.0278,0.54736
340.5,100.2,4.0275,0.55737
340.9,101.2,4.0287,0.56209
341.3,102.2,4.0294,0.57028
341.7,103.1,4.0293,0.5754
342.1,104.1,4.0284,0.58152
342.5,105.0,4.0286,0.58811
342.9,106.0,4.0282,0.59353
343.3,106.9,4.0271,0.59737
343.7,107.9,4.0277,0.60554
344.1,108.8,4.0272,0.6097
344.5,109.7,4.0273,0.61693
344.9,110.7,4.0277,0.62322
345.3,111.6,4.0280,0.62839
345.7,112.5,4.0281,0.63242
346.1,113.4,4.0274,0.63915
346.5,114.3,4.0278,0.64493
346.9,115.2,4.0287,0.65154
347.3,116.1,4.0290,0.65637
347.7,117.0,4.0303,0.6619
348.1,117.9,4.0308,0.66707
348.5,118.8,4.0308,0.67081
348.9,119.7,4.0311,0.67721
349.3,120.6,4.0311,0.68252
349.7,121.5,4.0311,0.68522
350.1,122.4,4.0307,0.69209
350.5,123.3,4.0307,0.69739
350.9,124.2,4.0295,0.70189
351.3,125.1,4.0307,0.7062
351.7,125.9,4.0293,0.71225
352.1,126.8,4.0304,0.71484
352.5,127.7,4.0299,0.7215
352.9,128.6,4.0294,0.72707
353.3,129.4,4.0292,0.73315
353.7,130.3,4.0290,0.73732
354.1,131.1,4.0284,0.74234
354.5,132.0,4.0276,0.74632
354.9,132.9,4.0285,0.75057
355.3,133.7,4.0286,0.75504
355.7,134.6,4.0276,0.75919
356.1,135.4,4.0289,0.76174
356.5,136.3,4.0279,0.7656
356.9,137.1,4.0288,0.76805
357.3,138.0,4.0291,0.77323
357.7,138.9,4.0300,0.77485
358.1,139.7,4.0300,0.77865
358.5,140.6,4.0290,0.78065
358.9,141.4,4.0291,0.78113
359.3,142.2,4.0290,0.7839
359.7,143.1,4.0288,0.78712
360.1,143.9,4.0289,0.78834
360.5,144.7,4.0283,0.79089
360.9,145.6,4.0292,0.79044
361.3,146.4,4.0294,0.79115
361.7,147.2,4.0300,0.79166
362.1,148.1,4.0292,0.79172
362.5,148.9,4.0301,0.79304
362.9,149.8,4.0301,0.79362
363.3,150.6,4.0293,0.79407
363.7,151.4,4.0303,0.79209
364.1,152.3,4.0309,0.79348
364.5,153.1,4.0308,0.79555
364.9,153.9,4.0308,0.79447
365.3,154.7,4.0308,0.79518
365.7,155.6,4.0309,0.79664
366.1,156.4,4.0303,0.79623
366.5,157.2,4.0307,0.7976
366.9,158.0,4.0307,0.79896
367.3,158.9,4.0306,0.79877
367.7,159.7,4.0293,0.79934
368.1,160.5,4.0303,0.80029
368.5,161.3,4.0308,0.8029
368.9,162.1,4.0308,0.80377
369.3,163.0,4.0314,0.80487
369.7,163.8,4.0318,0.80491
370.1,164.6,4.0307,0.8068
370.5,165.4,4.0308,0.80732
370.9,166.2,4.0308,0.81037
371.3,167.0,4.0301,0.80971
371.7,167.9,4.0295,0.81195
372.1,168.7,4.0295,0.81437
372.5,169.5,4.0293,0.81625
372.9,170.3,4.0283,0.81846
373.3,171.1,4.0283,0.8193
373.7,171.9,4.0294,0.8228
374.1,172.7,4.0283,0.82185
374.5,173.6,4.0282,0.82574
374.9,174.4,4.0285,0.8278
375.3,175.2,4.0295,0.83009
375.7,176.0,4.0295,0.83197
376.1,176.8,4.0295,0.83169
376.5,177.6,4.0295,0.83158
376.9,178.4,4.0282,0.83496
377.3,179.2,4.0289,0.83853
377.7,180.0,4.0295,0.84072
378.1,180.9,4.0295,0.8426
378.5,181.7,4.0295,0.84484
378.9,182.5,4.0295,0.84545
379.3,183.3,4.0292,0.84699
379.7,184.1,4.0291,0.85067
380.1,184.9,4.0295,0.85292
380.5,185.7,4.0295,0.85488
380.9,186.5,4.0295,0.85714
381.3,187.3,4.0297,0.85891
381.7,188.1,4.0308,0.86113
382.1,188.9,4.0306,0.86294
382.5,189.8,4.0294,0.86582
382.9,190.6,4.0295,0.86864
383.3,191.4,4.0295,0.87027
383.7,192.2,4.0295,0.87298
384.1,193.0,4.0296,0.87605
384.5,193.8,4.0289,0.87606
384.9,194.6,4.0290,0.88242
385.3,195.4,4.0292,0.88349
385.7,196.2,4.0292,0.88394
386.1,197.0,4.0292,0.88745
386.5,197.8,4.0292,0.88953
386.9,198.6,4.0292,0.89421
387.3,199.4,4.0292,0.89841
387.7,200.2,4.0293,0.89989
388.1,201.0,4.0282,0.90201
388.5,201.8,4.0279,0.90572
388.9,202.6,4.0278,0.90932
389.3,203.4,4.0282,0.9117
389.7,204.2,4.0282,0.91779
390.1,205.0,4.0270,0.91867
390.5,205.8,4.0279,0.92245
390.9,206.6,4.0282,0.92528
391.3,207.4,4.0282,0.92754
391.7,208.2,4.0282,0.93238
392.1,209.0,4.0282,0.93734
392.5,209.8,4.0282,0.93911
392.9,210.6,4.0282,0.94479
393.3,211.4,4.0284,0.9477
393.7,212.2,4.0294,0.95134
394.1,213.0,4.0295,0.95551
394.5,213.8,4.0288,0.96106
394.9,214.6,4.0281,0.96581
395.3,215.4,4.0282,0.9675
395.7,216.2,4.0282,0.97342
396.1,217.0,4.0282,0.97735
396.5,217.8,4.0282,0.98223
396.9,218.6,4.0282,0.98724
397.3,219.4,4.0281,0.99133
397.7,220.2,4.0269,0.99517
398.1,221.0,4.0269,1.0015
398.5,221.8,4.0269,1.00681
398.9,222.6,4.0269,1.01298
399.3,223.4,4.0269,1.01693
399.7,224.1,4.0269,1.02234
400.1,224.9,4.0268,1.02855
400.5,225.7,4.0280,1.03266
400.9,226.5,4.0282,1.03724
401.3,227.3,4.0282,1.04178
401.7,228.1,4.0281,1.04815
402.1,228.9,4.0271,1.05055
402.5,229.7,4.0269,1.05707
402.9,230.5,4.0269,1.06124
403.3,231.2,4.0269,1.06555
403.7,232.0,4.0269,1.06977
404.1,232.8,4.0269,1.07447
404.5,233.6,4.0272,1.07629
404.9,234.4,4.0282,1.08033
405.3,235.2,4.0282,1.08303
405.7,236.0,4.0282,1.08918
406.1,236.7,4.0282,1.08972
406.5,237.5,4.0283,1.09582
406.9,238.3,4.0271,1.09787
407.3,239.1,4.0269,1.1031
407.7,239.9,4.0269,1.10714
408.1,240.7,4.0269,1.10847
408.5,241.5,4.0269,1.11196
408.9,242.2,4.0269,1.11314
409.3,243.0,4.0269,1.11628
409.7,243.8,4.0269,1.12198
410.1,244.6,4.0269,1.12418
410.5,245.4,4.0269,1.12833
410.9,246.1,4.0269,1.12719
411.3,246.9,4.0268,1.1318
411.7,247.7,4.0257,1.13219
412.1,248.5,4.0256,1.13515
412.5,249.2,4.0256,1.13662
412.9,250.0,4.0256,1.14009
413.3,250.8,4.0256,1.14375
413.7,251.6,4.0256,1.14514
414.1,252.4,4.0256,1.14963
414.5,253.1,4.0256,1.15047
414.9,253.9,4.0256,1.15083
415.3,254.7,4.0256,1.15327
415.7,255.4,4.0256,1.15615
416.1,256.2,4.0256,1.15835
416.5,257.0,4.0256,1.16222
416.9,257.8,4.0256,1.16469
417.3,258.5,4.0256,1.16559
417.7,259.3,4.0252,1.16903
418.1,260.1,4.0249,1.17151
418.5,260.9,4.0249,1.17268
418.9,261.6,4.0249,1.17682
419.3,262.4,4.0242,1.17685
419.7,263.2,4.0243,1.18117
420.1,263.9,4.0242,1.18226
420.5,264.7,4.0242,1.18386
420.9,265.5,4.0243,1.18625
421.3,266.2,4.0243,1.18794
421.7,267.0,4.0243,1.18903
422.1,267.8,4.0242,1.19123
422.5,268.5,4.0243,1.1907
422.9,269.3,4.0234,1.19254
423.3,270.1,4.0229,1.19808
423.7,270.8,4.0229,1.19768
424.1,271.6,4.0229,1.20131
424.5,272.4,4.0229,1.20269
424.9,273.1,4.0229,1.20456
425.3,273.9,4.0229,1.20443
425.7,274.7,4.0230,1.20964
426.1,275.4,4.0226,1.20996
426.5,276.2,4.0223,1.21099
426.9,276.9,4.0221,1.2133
427.3,277.7,4.0216,1.21489
427.7,278.5,4.0216,1.2187
428.1,279.2,4.0217,1.22206
428.5,280.0,4.0209,1.22068
428.9,280.8,4.0203,1.22393
429.3,281.5,4.0203,1.22472
429.7,282.3,4.0203,1.22672
430.1,283.0,4.0203,1.22972
430.5,283.8,4.0203,1.23052
430.9,284.6,4.0194,1.23341
431.3,285.3,4.0189,1.23632
431.7,286.1,4.0190,1.23782
432.1,286.9,4.0190,1.23986
432.5,287.6,4.0190,1.24272
432.9,288.4,4.0190,1.24444
433.3,289.1,4.0190,1.24677
433.7,289.9,4.0190,1.24965
434.1,290.7,4.0190,1.2508
434.5,291.4,4.0190,1.25286
434.9,292.2,4.0190,1.25577
435.3,292.9,4.0190,1.26057
435.7,293.7,4.0190,1.26
436.1,294.4,4.0190,1.26335
436.5,295.2,4.0190,1.26552
436.9,296.0,4.0190,1.26891
437.3,296.7,4.0190,1.26899
437.7,297.5,4.0190,1.27206
438.1,298.2,4.0190,1.27492
438.5,299.0,4.0181,1.27668
438.9,299.7,4.0176,1.27934
439.3,300.5,4.0177,1.2822
439.7,301.3,4.0177,1.2859
440.1,302.0,4.0176,1.28815
440.5,302.8,4.0178,1.28996
440.9,303.5,4.0168,1.29274
441.3,304.3,4.0163,1.29511
441.7,305.0,4.0164,1.29824
442.1,305.8,4.0163,1.29974
442.5,306.5,4.0164,1.30545
442.9,307.3,4.0164,1.30704
443.3,308.0,4.0162,1.31049
443.7,308.8,4.0148,1.31418
444.1,309.5,4.0137,1.31679
444.5,310.3,4.0137,1.31969
444.9,311.1,4.0137,1.3216
445.3,311.8,4.0127,1.32715
445.7,312.6,4.0124,1.32762
446.1,313.3,4.0124,1.33415
446.5,314.1,4.0124,1.33546
446.9,314.8,4.0124,1.33792
447.3,315.6,4.0124,1.34306
447.7,316.3,4.0123,1.34654
448.1,317.1,4.0114,1.34878
448.5,317.8,4.0110,1.35492
448.9,318.6,4.0111,1.35802
449.3,319.3,4.0111,1.36143
449.7,320.1,4.0110,1.3659
450.1,320.8,4.0100,1.3696
450.5,321.6,4.0097,1.37331
450.9,322.3,4.0097,1.37784
451.3,323.1,4.0098,1.38298
451.7,323.8,4.0091,1.38687
452.1,324.6,4.0085,1.39203
452.5,325.3,4.0085,1.39484
452.9,326.0,4.0085,1.39906
453.3,326.8,4.0083,1.40227
453.7,327.5,4.0072,1.41092
454.1,328.3,4.0071,1.41115
454.5,329.0,4.0071,1.41564
454.9,329.8,4.0071,1.41953
455.3,330.5,4.0071,1.42638
455.7,331.3,4.0071,1.42986
456.1,332.0,4.0072,1.43551
456.5,332.8,4.0068,1.43859
456.9,333.5,4.0059,1.44194
457.3,334.2,4.0058,1.44987
457.7,335.0,4.0058,1.45337
458.1,335.7,4.0058,1.45921
458.5,336.5,4.0058,1.46247
458.9,337.2,4.0051,1.46803
459.3,338.0,4.0044,1.47137
459.7,338.7,4.0042,1.47426
460.1,339.4,4.0030,1.47854
460.5,340.2,4.0029,1.48545
460.9,340.9,4.0016,1.4877
461.3,341.7,4.0014,1.49389
461.7,342.4,4.0006,1.49699
462.1,343.1,3.9998,1.50133
462.5,343.9,3.9998,1.50508
462.9,344.6,3.9990,1.5114
463.3,345.4,3.9980,1.51412
463.7,346.1,3.9969,1.51626
464.1,346.8,3.9953,1.52248
464.5,347.6,3.9952,1.52518
464.9,348.3,3.9941,1.53027
465.3,349.1,3.9939,1.53201
465.7,349.8,3.9931,1.53718
466.1,350.5,3.9921,1.54172
466.5,351.3,3.9919,1.54262
466.9,352.0,3.9908,1.54627
467.3,352.8,3.9907,1.5503
467.7,353.5,3.9906,1.55467
468.1,354.2,3.9893,1.55685
468.5,355.0,3.9891,1.55998
468.9,355.7,3.9875,1.56305
469.3,356.4,3.9874,1.5669
469.7,357.2,3.9864,1.56789
470.1,357.9,3.9858,1.5713
470.5,358.7,3.9854,1.57178
470.9,359.4,3.9844,1.57484
471.3,360.1,3.9844,1.57523
471.7,360.9,3.9833,1.57695
472.1,361.6,3.9828,1.57912
472.5,362.3,3.9829,1.58082
472.9,363.1,3.9825,1.5804
473.3,363.8,3.9815,1.58241
473.7,364.5,3.9816,1.58491
474.1,365.3,3.9799,1.58453
474.5,366.0,3.9793,1.58745
474.9,366.7,3.9771,1.58907
475.3,367.5,3.9759,1.58976
475.7,368.2,3.9749,1.59088
476.1,369.0,3.9737,1.59117
476.5,369.7,3.9730,1.59021
476.9,370.4,3.9722,1.59027
477.3,371.2,3.9714,1.5922
477.7,371.9,3.9710,1.58874
478.1,372.6,3.9699,1.58905
478.5,373.4,3.9698,1.58916
478.9,374.1,3.9681,1.58942
479.3,374.8,3.9670,1.58833
479.7,375.6,3.9657,1.58787
480.1,376.3,3.9647,1.58754
480.5,377.0,3.9638,1.58796
480.9,377.8,3.9627,1.58731
481.3,378.5,3.9621,1.58723
481.7,379.2,3.9613,1.58534
482.1,380.0,3.9604,1.58613
482.5,380.7,3.9593,1.58601
482.9,381.4,3.9586,1.58455
483.3,382.2,3.9574,1.58321
483.7,382.9,3.9568,1.58528
484.1,383.6,3.9564,1.58241
484.5,384.4,3.9553,1.58047
484.9,385.1,3.9553,1.58181
485.3,385.8,3.9545,1.58048
485.7,386.6,3.9536,1.5812
486.1,387.3,3.9538,1.58206
486.5,388.0,3.9533,1.58208
486.9,388.8,3.9523,1.58001
487.3,389.5,3.9522,1.5814
487.7,390.2,3.9511,1.58197
488.1,391.0,3.9504,1.58338
488.5,391.7,3.9492,1.58374
488.9,392.4,3.9490,1.58345
489.3,393.2,3.9484,1.58494
489.7,393.9,3.9476,1.58527
490.1,394.6,3.9478,1.58605
490.5,395.3,3.9466,1.58701
490.9,396.1,3.9459,1.58703
491.3,396.8,3.9448,1.58845
491.7,397.5,3.9436,1.59226
492.1,398.3,3.9419,1.59147
492.5,399.0,3.9417,1.59443
492.9,399.7,3.9408,1.59436
493.3,400.5,3.9400,1.59817
493.7,401.2,3.9402,1.599
494.1,401.9,3.9396,1.60009
494.5,402.7,3.9383,1.60207
494.9,403.4,3.9372,1.60439
495.3,404.1,3.9360,1.60853
495.7,404.8,3.9353,1.60883
496.1,405.6,3.9339,1.61064
496.5,406.3,3.9338,1.61185
496.9,407.0,3.9330,1.61301
497.3,407.8,3.9332,1.61522
497.7,408.5,3.9321,1.61664
498.1,409.2,3.9319,1.61976
498.5,410.0,3.9308,1.62168
498.9,410.7,3.9302,1.62288
499.3,411.4,3.9293,1.62539
499.7,412.1,3.9283,1.62917
500.1,412.9,3.9278,1.62977
500.5,413.6,3.9264,1.6318
500.9,414.3,3.9265,1.63485
501.3,415.1,3.9252,1.637
501.7,415.8,3.9250,1.6397
502.1,416.5,3.9244,1.63989
502.5,417.3,3.9233,1.64105
502.9,418.0,3.9234,1.64071
503.3,418.7,3.9236,1.64265
503.7,419.4,3.9213,1.64426
504.1,420.2,3.9208,1.64525
504.5,420.9,3.9201,1.64555
504.9,421.6,3.9189,1.64603
505.3,422.4,3.9181,1.64693
505.7,423.1,3.9170,1.64712
506.1,423.8,3.9162,1.64913
506.5,424.5,3.9152,1.64768
506.9,425.3,3.9149,1.64686
507.3,426.0,3.9137,1.64436
507.7,426.7,3.9135,1.64511
508.1,427.5,3.9121,1.64648
508.5,428.2,3.9120,1.64212
508.9,428.9,3.9110,1.64158
509.3,429.6,3.9104,1.64066
509.7,430.4,3.9101,1.63791
510.1,431.1,3.9088,1.63779
510.5,431.8,3.9086,1.63408
510.9,432.5,3.9073,1.63236
511.3,433.3,3.9072,1.63084
511.7,434.0,3.9065,1.62502
512.1,434.7,3.9056,1.62156
512.5,435.5,3.9056,1.61862
512.9,436.2,3.9040,1.61535
513.3,436.9,3.9040,1.61166
513.7,437.6,3.9032,1.60908
514.1,438.3,3.9024,1.60529
514.5,439.1,3.9026,1.60353
514.9,439.8,3.9015,1.59889
515.3,440.5,3.9012,1.59403
515.7,441.3,3.9013,1.59161
516.1,442.0,3.9006,1.58761
516.5,442.7,3.8998,1.58331
516.9,443.4,3.8998,1.57934
517.3,444.2,3.8991,1.57553
517.7,444.9,3.8981,1.57314
518.1,445.6,3.8983,1.57078
518.5,446.4,3.8973,1.56745
518.9,447.1,3.8968,1.56525
519.3,447.8,3.8968,1.5606
519.7,448.6,3.8968,1.55784
520.1,449.3,3.8969,1.55577
520.5,450.0,3.8958,1.55534
520.9,450.7,3.8955,1.55108
521.3,451.5,3.8955,1.54753
521.7,452.2,3.8955,1.54719
522.1,452.9,3.8955,1.54593
522.5,453.6,3.8955,1.54443
522.9,454.4,3.8949,1.54233
523.3,455.1,3.8941,1.54086
523.7,455.8,3.8942,1.53906
524.1,456.5,3.8941,1.53733
524.5,457.3,3.8941,1.53663
524.9,458.0,3.8942,1.5339
525.3,458.7,3.8941,1.53175
525.7,459.5,3.8942,1.53355
526.1,460.2,3.8935,1.53184
526.5,460.9,3.8928,1.52969
526.9,461.6,3.8929,1.53019
527.3,462.3,3.8928,1.53028
527.7,463.1,3.8928,1.52926
528.1,463.8,3.8928,1.52752
528.5,464.5,3.8928,1.52776
528.9,465.2,3.8929,1.52641
529.3,466.0,3.8925,1.52768
529.7,466.7,3.8916,1.52637
530.1,467.4,3.8915,1.52783
530.5,468.2,3.8915,1.5248
530.9,468.9,3.8915,1.52674
531.3,469.6,3.8915,1.52749
531.7,470.3,3.8915,1.52735
532.1,471.1,3.8915,1.52629
532.5,471.8,3.8906,1.52617
532.9,472.5,3.8902,1.52764
533.3,473.2,3.8902,1.52672
533.7,474.0,3.8902,1.52928
534.1,474.7,3.8902,1.52655
534.5,475.4,3.8899,1.52902
534.9,476.2,3.8889,1.53044
535.3,476.9,3.8889,1.52959
535.7,477.6,3.8889,1.53323
536.1,478.3,3.8889,1.53316
536.5,479.1,3.8881,1.53417
536.9,479.8,3.8875,1.53284
537.3,480.5,3.8876,1.53555
537.7,481.2,3.8876,1.53611
538.1,482.0,3.8876,1.53741
538.5,482.7,3.8876,1.53853
538.9,483.4,3.8876,1.54151
539.3,484.1,3.8876,1.54151
539.7,484.9,3.8876,1.54221
540.1,485.6,3.8876,1.54359
540.5,486.3,3.8877,1.54456
540.9,487.0,3.8868,1.54582
541.3,487.8,3.8863,1.54662
541.7,488.5,3.8863,1.54893
542.1,489.2,3.8862,1.54931
542.5,489.9,3.8863,1.54937
542.9,490.7,3.8862,1.55319
543.3,491.4,3.8862,1.55183
543.7,492.1,3.8863,1.55391
544.1,492.9,3.8862,1.55593
544.5,493.6,3.8863,1.55677
544.9,494.3,3.8862,1.56011
545.3,495.0,3.8862,1.55961
545.7,495.8,3.8854,1.56175
546.1,496.5,3.8844,1.56306
546.5,497.2,3.8837,1.56532
546.9,497.9,3.8836,1.56579
547.3,498.7,3.8836,1.56679
547.7,499.4,3.8836,1.56991
548.1,500.1,3.8836,1.57458
548.5,500.9,3.8836,1.57385
548.9,501.6,3.8836,1.57574
549.3,502.3,3.8837,1.57797
549.7,503.0,3.8833,1.57998
550.1,503.8,3.8821,1.58103
550.5,504.5,3.8821,1.58371
550.9,505.2,3.8814,1.58507
551.3,505.9,3.8807,1.58912
551.7,506.7,3.8808,1.59005
552.1,507.4,3.8809,1.59438
552.5,508.1,3.8799,1.59519
552.9,508.9,3.8793,1.59893
553.3,509.6,3.8794,1.60134
553.7,510.3,3.8788,1.605
554.1,511.0,3.8778,1.60721
554.5,511.8,3.8778,1.60757
554.9,512.5,3.8778,1.61233
555.3,513.2,3.8771,1.6121
555.7,513.9,3.8764,1.61548
556.1,514.7,3.8765,1.62017
556.5,515.4,3.8762,1.62281
556.9,516.1,3.8749,1.62353
557.3,516.9,3.8747,1.62855
557.7,517.6,3.8731,1.63194
558.1,518.3,3.8727,1.63616
558.5,519.0,3.8724,1.63766
558.9,519.8,3.8711,1.64008
559.3,520.5,3.8713,1.64429
559.7,521.2,3.8708,1.64747
560.1,522.0,3.8699,1.64824
560.5,522.7,3.8699,1.65306
560.9,523.4,3.8692,1.65601
561.3,524.1,3.8684,1.66066
561.7,524.9,3.8683,1.66277
562.1,525.6,3.8670,1.66805
562.5,526.3,3.8669,1.66982
562.9,527.0,3.8658,1.67466
563.3,527.8,3.8655,1.67956
563.7,528.5,3.8644,1.6811
564.1,529.2,3.8643,1.68523
564.5,530.0,3.8640,1.68882
564.9,530.7,3.8630,1.69531
565.3,531.4,3.8633,1.69814
565.7,532.2,3.8620,1.70322
566.1,532.9,3.8615,1.70775
566.5,533.6,3.8606,1.71053
566.9,534.3,3.8597,1.71634
567.3,535.1,3.8589,1.71929
567.7,535.8,3.8582,1.72452
568.1,536.5,3.8573,1.72894
568.5,537.3,3.8567,1.73472
568.9,538.0,3.8560,1.74041
569.3,538.7,3.8551,1.74907
569.7,539.4,3.8547,1.75426
570.1,540.2,3.8532,1.76202
570.5,540.9,3.8528,1.76971
570.9,541.6,3.8518,1.77737
571.3,542.3,3.8512,1.7871
571.7,543.1,3.8501,1.79178
572.1,543.8,3.8493,1.79908
572.5,544.5,3.8473,1.80498
572.9,545.2,3.8462,1.81217
573.3,546.0,3.8454,1.81944
573.7,546.7,3.8444,1.82695
574.1,547.4,3.8434,1.83474
574.5,548.2,3.8421,1.83932
574.9,548.9,3.8415,1.84701
575.3,549.6,3.8402,1.85378
575.7,550.3,3.8384,1.86035
576.1,551.1,3.8370,1.86709
576.5,551.8,3.8360,1.87079
576.9,552.5,3.8346,1.87689
577.3,553.3,3.8334,1.88206
577.7,554.0,3.8318,1.88953
578.1,554.7,3.8303,1.89415
578.5,555.4,3.8290,1.90016
578.9,556.2,3.8276,1.90558
579.3,556.9,3.8266,1.90783
579.7,557.6,3.8252,1.9123
580.1,558.4,3.8238,1.9192
580.5,559.1,3.8221,1.92798
580.9,559.8,3.8207,1.92988
581.3,560.5,3.8186,1.93432
581.7,561.3,3.8175,1.93846
582.1,562.0,3.8163,1.94417
582.5,562.7,3.8146,1.9492
582.9,563.5,3.8139,1.95028
583.3,564.2,3.8117,1.95801
583.7,564.9,3.8108,1.96214
584.1,565.7,3.8091,1.96667
584.5,566.4,3.8082,1.96979
584.9,567.1,3.8067,1.97653
585.3,567.8,3.8057,1.98079
585.7,568.6,3.8045,1.98487
586.1,569.3,3.8028,1.98957
586.5,570.0,3.8014,1.99081
586.9,570.8,3.7995,1.99783
587.3,571.5,3.7983,2.00274
587.7,572.2,3.7965,2.00603
588.1,573.0,3.7956,2.01146
588.5,573.7,3.7941,2.01539
588.9,574.4,3.7930,2.02124
589.3,575.2,3.7911,2.0254
589.7,575.9,3.7885,2.02712
590.1,576.6,3.7870,2.03162
590.5,577.3,3.7846,2.03547
590.9,578.1,3.7827,2.0426
591.3,578.8,3.7807,2.04535
591.7,579.5,3.7793,2.05363
592.1,580.3,3.7776,2.05558
592.5,581.0,3.7757,2.05991
592.9,581.7,3.7741,2.0657
593.3,582.5,3.7732,2.07062
593.7,583.2,3.7715,2.07596
594.1,583.9,3.7696,2.07827
594.5,584.6,3.7674,2.08433
594.9,585.4,3.7651,2.08976
595.3,586.1,3.7632,2.09311
595.7,586.8,3.7604,2.09764
596.1,587.6,3.7583,2.1038
596.5,588.3,3.7557,2.11199
596.9,589.0,3.7542,2.11745
597.3,589.8,3.7519,2.12492
597.7,590.5,3.7508,2.12989
598.1,591.2,3.7485,2.13942
598.5,592.0,3.7465,2.14428
598.9,592.7,3.7436,2.1519
599.3,593.4,3.7415,2.15869
599.7,594.1,3.7387,2.16902
600.1,594.9,3.7373,2.17848
600.5,595.6,3.7350,2.18724
600.9,596.3,3.7334,2.19582
601.3,597.1,3.7306,2.20787
601.7,597.8,3.7292,2.21718
602.1,598.5,3.7256,2.22908
602.5,599.3,3.7232,2.24039
602.9,600.0,3.7197,2.25572
603.3,600.7,3.7179,2.26702
603.7,601.5,3.7147,2.27881
604.1,602.2,3.7117,2.29572
604.5,602.9,3.7090,2.31092
604.9,603.7,3.7054,2.32821
605.3,604.4,3.7029,2.34402
605.7,605.1,3.6999,2.36177
606.1,605.9,3.6965,2.37963
606.5,606.6,3.6939,2.39819
606.9,607.3,3.6910,2.41743
607.3,608.1,3.6867,2.43561
607.7,608.8,3.6833,2.45636
608.1,609.5,3.6805,2.47821
608.5,610.3,3.6769,2.50072
608.9,611.0,3.6728,2.52093
609.3,611.7,3.6695,2.5452
609.7,612.5,3.6654,2.56656
610.1,613.2,3.6603,2.59261
610.5,613.9,3.6567,2.61718
610.9,614.7,3.6524,2.64196
611.3,615.4,3.6473,2.66617
611.7,616.1,3.6435,2.69369
612.1,616.9,3.6395,2.72171
612.5,617.6,3.6348,2.74931
612.9,618.3,3.6302,2.77719
613.3,619.1,3.6262,2.8086
613.7,619.8,3.6210,2.83684
614.1,620.5,3.6153,2.86904
614.5,621.3,3.6111,2.90125
614.9,622.0,3.6061,2.93483
615.3,622.8,3.6004,2.96587
615.7,623.5,3.5958,3.0016
616.1,624.2,3.5903,3.036
616.5,625.0,3.5832,3.07127
616.9,625.7,3.5773,3.10642
617.3,626.4,3.5717,3.14545
617.7,627.2,3.5656,3.18633
618.1,627.9,3.5590,3.22438
618.5,628.7,3.5536,3.26499
618.9,629.4,3.5473,3.30331
619.3,630.1,3.5401,3.34762
619.7,630.9,3.5345,3.38962
620.1,631.6,3.5274,3.43423
620.5,632.3,3.5177,3.4782
620.9,633.1,3.5112,3.52528
621.3,633.8,3.5035,3.57098
621.7,634.6,3.4939,3.62042
622.1,635.3,3.4861,3.6648
622.5,636.1,3.4784,3.71675
622.9,636.8,3.4695,3.76539
623.3,637.5,3.4610,3.81841
623.7,638.3,3.4537,3.87132
624.1,639.0,3.4446,3.92432
624.5,639.8,3.4342,3.98029
624.9,640.5,3.4261,4.03481
625.3,641.2,3.4164,4.08905
625.7,642.0,3.4046,4.14814
626.1,642.7,3.3961,4.20527
626.5,643.5,3.3864,4.26419
626.9,644.2,3.3744,4.32429
627.3,645.0,3.3649,4.38466
627.7,645.7,3.3548,4.44746
628.1,646.4,3.3423,4.51062
628.5,647.2,3.3305,4.57189
628.9,647.9,3.3199,4.63725
629.3,648.7,3.3067,4.70532
629.7,649.4,3.2927,4.77301
630.1,650.2,3.2819,4.83929
630.5,650.9,3.2689,4.90614
630.9,651.7,3.2536,4.97665
631.3,652.4,3.2427,5.04593
631.7,653.2,3.2293,5.11718
632.1,653.9,3.2127,5.1871
632.5,654.6,3.2002,5.26186
632.9,655.4,3.1864,5.33188
633.3,656.1,3.1697,5.40722
633.7,656.9,3.1558,5.48349
634.1,657.6,3.1421,5.55719
634.5,658.4,3.1253,5.63365
634.9,659.1,3.1090,5.71007
635.3,659.9,3.0951,5.78382
635.7,660.6,3.0781,5.86295
636.1,661.4,3.0598,5.94023
636.5,662.1,3.0452,6.02107
636.9,662.9,3.0270,6.09746
637.3,663.6,3.0060,6.17407
637.7,664.4,2.9908,6.25256
638.1,665.1,2.9729,6.33031
638.5,665.9,2.9510,6.40988
638.9,666.6,2.9347,6.48922
639.3,667.4,2.9169,6.56577
639.7,668.1,2.8949,6.64647
640.1,668.9,2.8764,6.72387
640.5,669.6,2.8581,6.79931
640.9,670.4,2.8358,6.88079
641.3,671.1,2.8140,6.95931
641.7,671.9,2.7955,7.03667
642.1,672.6,2.7737,7.11348
642.5,673.4,2.7502,7.18799
642.9,674.2,2.7323,7.26258
643.3,674.9,2.7104,7.33477
643.7,675.7,2.6846,7.41021
644.1,676.4,2.6656,7.48236
644.5,677.2,2.6433,7.55148
644.9,677.9,2.6161,7.6224
645.3,678.7,2.5959,7.68967
645.7,679.4,2.5729,7.75562
646.1,680.2,2.5448,7.81734
646.5,680.9,2.5223,7.88099
646.9,681.7,2.4997,7.94088
647.3,682.4,2.4726,7.9981
647.7,683.2,2.4477,8.05264
648.1,684.0,2.4252,8.10662
648.5,684.7,2.3980,8.15803
648.9,685.5,2.3700,8.2082
649.3,686.2,2.3476,8.25265
649.7,687.0,2.3209,8.29203
650.1,687.7,2.2906,8.33278
650.5,688.5,2.2683,8.37883
650.9,689.2,2.2416,8.42285
651.3,690.0,2.2099,8.46335
651.7,690.8,2.1870,8.50399
652.1,691.5,2.1595,8.54104
652.5,692.3,2.1273,8.57471
652.9,693.0,2.1032,8.60757
653.3,693.8,2.0774,8.62751
653.7,694.5,2.0460,8.64764
654.1,695.3,2.0197,8.67274
654.5,696.0,1.9945,8.70084
654.9,696.8,1.9642,8.71878
655.3,697.5,1.9362,8.74227
655.7,698.3,1.9119,8.75912
656.1,699.1,1.8825,8.77556
656.5,699.8,1.8514,8.79351
656.9,700.6,1.8278,8.80662
657.3,701.3,1.7995,8.81579
657.7,702.1,1.7666,8.82741
658.1,702.8,1.7429,8.8318
658.5,703.6,1.7141,8.83605
658.9,704.3,1.6806,8.83515
659.3,705.1,1.6563,8.83252
659.7,705.8,1.6293,8.83108
660.1,706.6,1.5971,8.8185
660.5,707.3,1.5713,8.8034
660.9,708.1,1.5455,8.78061
661.3,708.8,1.5144,8.76183
661.7,709.6,1.4859,8.7334
662.1,710.3,1.4610,8.70381
662.5,711.1,1.4308,8.67468
662.9,711.8,1.3993,8.63969
663.3,712.6,1.3758,8.59696
663.7,713.3,1.3478,8.56508
664.1,714.1,1.3157,8.52075
664.5,714.8,1.2930,8.47524
664.9,715.6,1.2664,8.42212
665.3,716.3,1.2348,8.36955
665.7,717.1,1.2115,8.31013
666.1,717.8,1.1857,8.24642
666.5,718.6,1.1550,8.18454
666.9,719.3,1.1301,8.11576
667.3,720.1,1.1061,8.04357
667.7,720.8,1.0776,7.96488
668.1,721.5,1.0510,7.88891
668.5,722.3,1.0286,7.80531
668.9,723.0,1.0020,7.7192
669.3,723.8,0.9737,7.6292
669.7,724.5,0.9530,7.53804
670.1,725.3,0.9286,7.44724
670.5,726.0,0.9009,7.34542
670.9,726.8,0.8814,7.24818
671.3,727.5,0.8588,7.15165
671.7,728.2,0.8316,7.04866
672.1,729.0,0.8111,6.94599
672.5,729.7,0.7902,6.84122
672.9,730.5,0.7657,6.73652
673.3,731.2,0.7444,6.63209
673.7,731.9,0.7255,6.52522
674.1,732.7,0.7030,6.42079
674.5,733.4,0.6797,6.31699
674.9,734.2,0.6624,6.20731
675.3,734.9,0.6422,6.09815
675.7,735.6,0.6197,5.98748
676.1,736.4,0.6040,5.87636
676.5,737.1,0.5860,5.76368
676.9,737.8,0.5651,5.65024
677.3,738.6,0.5493,5.5419
677.7,739.3,0.5328,5.42998
678.1,740.1,0.5131,5.32288
678.5,740.8,0.4956,5.21292
678.9,741.5,0.4809,5.10298
679.3,742.3,0.4638,4.99258
679.7,743.0,0.4464,4.8799
680.1,743.7,0.4339,4.76608
680.5,744.5,0.4191,4.65038
680.9,745.2,0.4021,4.54345
681.3,745.9,0.3901,4.43594
681.7,746.7,0.3764,4.32331
682.1,747.4,0.3605,4.21686
682.5,748.1,0.3487,4.11264
682.9,748.9,0.3368,4.0104
683.3,749.6,0.3229,3.90679
683.7,750.4,0.3103,3.80563
684.1,751.1,0.2998,3.7146
684.5,751.8,0.2874,3.6206
684.9,752.6,0.2743,3.52824
685.3,753.3,0.2653,3.43686
685.7,754.0,0.2551,3.34481
686.1,754.8,0.2429,3.25479
686.5,755.5,0.2345,3.17129
686.9,756.2,0.2252,3.0824
687.3,757.0,0.2142,2.99458
687.7,757.7,0.2054,2.90907
688.1,758.4,0.1971,2.82486
688.5,759.2,0.1865,2.74394
688.9,759.9,0.1773,2.66329
689.3,760.6,0.1702,2.58199
689.7,761.4,0.1621,2.50487
690.1,762.1,0.1534,2.42493
690.5,762.8,0.1471,2.34898
690.9,763.6,0.1399,2.27391
691.3,764.3,0.1316,2.20117
691.7,765.0,0.1258,2.12994
692.1,765.8,0.1196,2.05938
692.5,766.5,0.1127,1.98808
692.9,767.2,0.1081,1.92057
693.3,768.0,0.1033,1.85431
693.7,768.7,0.0971,1.79206
694.1,769.4,0.0910,1.72698
694.5,770.2,0.0865,1.66727
694.9,770.9,0.0812,1.60538
695.3,771.7,0.0753,1.54929
695.7,772.4,0.0713,1.49392
696.1,773.1,0.0667,1.43859
696.5,773.9,0.0617,1.38907
696.9,774.6,0.0583,1.33424
697.3,775.3,0.0548,1.28645
697.7,776.1,0.0506,1.23582
698.1,776.8,0.0472,1.19123
698.5,777.5,0.0448,1.14625
698.9,778.3,0.0413,1.1016
699.3,779.0,0.0378,1.05746
699.7,779.8,0.0353,1.01906
700.1,780.5,0.0322,0.97807
700.5,781.2,0.0287,0.94008
700.9,782.0,0.0264,0.90493
701.3,782.7,0.0240,0.86879
701.7,783.5,0.0212,0.83346
702.1,784.2,0.0192,0.80181
702.5,784.9,0.0162,0.77083
702.9,785.7,0.0148,0.74011
703.3,786.4,0.0124,0.71069
703.7,787.2,0.0108,0.686
704.1,787.9,0.0083,0.65753
704.5,788.6,0.0070,0.63329
704.9,789.4,0.0039,0.60676
705.3,790.1,0.0023,0.58238
705.7,790.9,0.0002,0.56063
706.1,791.6,-0.0008,0.53971
706.5,792.4,-0.0020,0.5178
706.9,793.1,-0.0030,0.49627
707.3,793.8,-0.0039,0.47842
707.7,794.6,-0.0052,0.45882
708.1,795.3,-0.0063,0.44237
708.5,796.1,-0.0073,0.42619
708.9,796.8,-0.0088,0.41065
709.3,797.6,-0.0098,0.39411
709.7,798.3,-0.0111,0.38078
710.1,799.1,-0.0123,0.36707
710.5,799.8,-0.0131,0.35349
710.9,800.6,-0.0142,0.33944
711.3,801.3,-0.0151,0.3279
711.7,802.0,-0.0164,0.31432
712.1,802.8,-0.0167,0.30461
712.5,803.5,-0.0168,0.2933
712.9,804.3,-0.0177,0.28623
713.3,805.0,-0.0180,0.27698
713.7,805.8,-0.0180,0.26947
714.1,806.5,-0.0187,0.2587
714.5,807.3,-0.0199,0.25497
714.9,808.0,-0.0199,0.24698
715.3,808.8,-0.0211,0.24454
715.7,809.5,-0.0211,0.23854
716.1,810.3,-0.0211,0.23481
716.5,811.0,-0.0211,0.2335
716.9,811.7,-0.0211,0.2306
717.3,812.5,-0.0211,0.22831
717.7,813.2,-0.0214,0.22489
718.1,814.0,-0.0226,0.22511
718.5,814.7,-0.0226,0.22733
718.9,815.5,-0.0238,0.22915
719.3,816.2,-0.0242,0.23047
719.7,817.0,-0.0241,0.23116
720.1,817.7,-0.0247,0.23285
720.5,818.5,-0.0255,0.23581
720.9,819.2,-0.0255,0.23644
721.3,820.0,-0.0255,0.23892
721.7,820.7,-0.0254,0.2389
722.1,821.5,-0.0265,0.24012
722.5,822.2,-0.0268,0.2409
722.9,823.0,-0.0268,0.24156
723.3,823.7,-0.0268,0.24172
723.7,824.5,-0.0268,0.23773
724.1,825.2,-0.0268,0.23577
724.5,826.0,-0.0267,0.23008
724.9,826.7,-0.0274,0.2248
725.3,827.5,-0.0282,0.21758
725.7,828.2,-0.0291,0.20974
726.1,829.0,-0.0295,0.20235
726.5,829.8,-0.0294,0.19371
726.9,830.5,-0.0294,0.1867
727.3,831.3,-0.0294,0.17487
727.7,832.0,-0.0294,0.1632
728.1,832.8,-0.0294,0.15474
728.5,833.6,-0.0294,0.1366
728.9,834.3,-0.0295,0.12575
729.3,835.1,-0.0306,0.11015
729.7,835.8,-0.0307,9.19E-02
730.1,836.6,-0.0307,7.66E-02
730.5,837.4,-0.0307,6.13E-02
730.9,838.1,-0.0307,4.62E-02
731.3,838.9,-0.0307,3.48E-02
731.7,839.6,-0.0307,2.37E-02
732.1,840.4,-0.0307,1.72E-02
732.5,841.2,-0.0307,1.33E-02
732.9,841.9,-0.0307,1.08E-02
733.3,842.7,-0.0308,1.29E-02
733.7,843.5,-0.0300,1.63E-02
734.1,844.2,-0.0298,2.12E-02
734.5,845.0,-0.0297,2.48E-02
734.9,845.7,-0.0298,3.31E-02
735.3,846.5,-0.0297,4.19E-02
735.7,847.3,-0.0298,4.79E-02
736.1,848.0,-0.0297,5.57E-02
736.5,848.8,-0.0299,6.51E-02
736.9,849.5,-0.0310,7.21E-02
737.3,850.3,-0.0311,8.11E-02
737.7,851.1,-0.0311,8.94E-02
738.1,851.8,-0.0311,9.45E-02
738.5,852.6,-0.0311,0.10077
738.9,853.4,-0.0311,0.10855
739.3,854.1,-0.0311,0.11304
739.7,854.9,-0.0311,0.12193
740.1,855.6,-0.0311,0.1258
740.5,856.4,-0.0311,0.12984
740.9,857.2,-0.0305,0.13587
741.3,857.9,-0.0298,0.13909
741.7,858.7,-0.0298,0.14246
742.1,859.4,-0.0297,0.14616
742.5,860.2,-0.0298,0.1495
742.9,861.0,-0.0297,0.15241
743.3,861.7,-0.0297,0.15625
743.7,862.5,-0.0287,0.15962
744.1,863.3,-0.0284,0.1615
744.5,864.0,-0.0284,0.15683
744.9,864.8,-0.0285,0.1624
745.3,865.5,-0.0293,0.15953
745.7,866.3,-0.0303,0.1606
746.1,867.1,-0.0311,0.16115
746.5,867.8,-0.0311,0.16338
746.9,868.6,-0.0311,0.16258
747.3,869.4,-0.0311,0.16368
747.7,870.1,-0.0311,0.16215
748.1,870.9,-0.0311,0.1636
748.5,871.7,-0.0311,0.16322
748.9,872.4,-0.0314,0.16418
749.3,873.2,-0.0325,0.16326
749.7,874.0,-0.0324,0.16547
750.1,874.7,-0.0324,0.16403
750.5,875.5,-0.0324,0.16149
750.9,876.2,-0.0324,0.16547
751.3,877.0,-0.0325,0.16542
751.7,877.8,-0.0315,0.16651
752.1,878.5,-0.0311,0.16627
752.5,879.3,-0.0311,0.16732
752.9,880.1,-0.0311,0.16746
753.3,880.8,-0.0311,0.16611
753.7,881.6,-0.0311,0.16523
754.1,882.4,-0.0311,0.16499
754.5,883.1,-0.0311,0.16565
754.9,883.9,-0.0311,0.16579
755.3,884.6,-0.0311,0.16637
755.7,885.4,-0.0311,0.16568
756.1,886.2,-0.0311,0.16755
756.5,886.9,-0.0311,0.16815
756.9,887.7,-0.0311,0.16972
757.3,888.5,-0.0311,0.16911
757.7,889.2,-0.0311,0.16965
758.1,890.0,-0.0311,0.1693
758.5,890.8,-0.0310,0.16855
758.9,891.5,-0.0320,0.16818
759.3,892.3,-0.0324,0.16983
759.7,893.1,-0.0324,0.16996
760.1,893.8,-0.0324,0.17054
760.5,894.6,-0.0324,0.17011
760.9,895.4,-0.0324,0.17411
761.3,896.1,-0.0324,0.17079
761.7,896.9,-0.0324,0.17132
762.1,897.7,-0.0324,0.17115
762.5,898.4,-0.0334,0.17219
762.9,899.2,-0.0334,0.17272
763.3,900.0,-0.0324,0.17314
763.7,900.7,-0.0324,0.17322
764.1,901.5,-0.0324,0.17616
764.5,902.3,-0.0324,0.17351
764.9,903.0,-0.0324,0.1752
765.3,903.8,-0.0324,0.17681
765.7,904.5,-0.0324,0.17931
766.1,905.3,-0.0324,0.17585
766.5,906.1,-0.0324,0.17697
766.9,906.8,-0.0324,0.17655
767.3,907.6,-0.0324,0.17801
767.7,908.4,-0.0324,0.18095
768.1,909.1,-0.0324,0.17678
768.5,909.9,-0.0324,0.17832
768.9,910.7,-0.0324,0.17975
769.3,911.4,-0.0324,0.17876
769.7,912.2,-0.0322,0.18119
770.1,913.0,-0.0317,0.17967
770.5,913.7,-0.0317,0.18103
770.9,914.5,-0.0317,0.18114
771.3,915.3,-0.0317,0.18007
771.7,916.1,-0.0317,0.1822
772.1,916.8,-0.0317,0.181
772.5,917.6,-0.0317,0.18328
772.9,918.4,-0.0316,0.18269
773.3,919.1,-0.0311,0.18311
773.7,919.9,-0.0311,0.18219
774.1,920.7,-0.0311,0.18461
774.5,921.4,-0.0311,0.18257
774.9,922.2,-0.0311,0.18336
775.3,923.0,-0.0311,0.18374
775.7,923.7,-0.0311,0.18574
776.1,924.5,-0.0311,0.1873
776.5,925.3,-0.0311,0.1869
776.9,926.0,-0.0311,0.18595
777.3,926.8,-0.0311,0.1856
777.7,927.6,-0.0311,0.18917
778.1,928.4,-0.0311,0.1873
778.5,929.1,-0.0310,0.19212
778.9,929.9,-0.0302,0.19178
779.3,930.7,-0.0301,0.19147
779.7,931.4,-0.0301,0.18944
780.1,932.2,-0.0301,0.19463
780.5,933.0,-0.0301,0.19412
780.9,933.7,-0.0303,0.19498
781.3,934.5,-0.0315,0.19309
781.7,935.3,-0.0316,0.19593
782.1,936.1,-0.0317,0.19575
782.5,936.8,-0.0328,0.19617
782.9,937.6,-0.0329,0.19613
783.3,938.4,-0.0329,0.19678
783.7,939.1,-0.0329,0.19843
784.1,939.9,-0.0329,0.19818
784.5,940.7,-0.0329,0.19877
784.9,941.4,-0.0329,0.1974
785.3,942.2,-0.0336,0.19719
785.7,943.0,-0.0343,0.19849
786.1,943.7,-0.0342,0.19698
786.5,944.5,-0.0343,0.19971
786.9,945.3,-0.0342,0.19903
787.3,946.0,-0.0343,0.199
787.7,946.8,-0.0336,0.20013
788.1,947.6,-0.0328,0.19865
788.5,948.3,-0.0328,0.20171
788.9,949.1,-0.0316,0.20208
789.3,949.9,-0.0315,0.20043
789.7,950.7,-0.0316,0.201
790.1,951.4,-0.0335,0.2015
790.5,952.2,-0.0344,0.20123
790.9,953.0,-0.0344,0.20386
791.3,953.7,-0.0345,0.20157
791.7,954.5,-0.0356,0.20482
792.1,955.3,-0.0357,0.20398
792.5,956.1,-0.0357,0.20499
792.9,956.8,-0.0357,0.20654
793.3,957.6,-0.0357,0.20694
793.7,958.4,-0.0348,0.20748
794.1,959.1,-0.0343,0.20755
794.5,959.9,-0.0344,0.20764
794.9,960.7,-0.0344,0.20664
795.3,961.5,-0.0344,0.20746
795.7,962.2,-0.0344,0.20831
796.1,963.0,-0.0344,0.2094
796.5,963.8,-0.0335,0.20792
796.9,964.6,-0.0330,0.20942
797.3,965.3,-0.0331,0.20938
797.7,966.1,-0.0331,0.21045
798.1,966.9,-0.0330,0.21165
798.5,967.7,-0.0331,0.21113
798.9,968.4,-0.0331,0.21337
799.3,969.2,-0.0331,0.21342
799.7,970.0,-0.0331,0.21189
800.1,970.7,-0.0331,0.21441
800.5,971.5,-0.0331,0.2115
800.9,972.3,-0.0330,0.21276
801.3,973.1,-0.0331,0.21134
801.7,973.8,-0.0323,0.21258
802.1,974.6,-0.0317,0.21539
802.5,975.4,-0.0317,0.21357
802.9,976.2,-0.0317,0.21738
803.3,976.9,-0.0317,0.21496
803.7,977.7,-0.0317,0.21354
804.1,978.5,-0.0317,0.21397
804.5,979.3,-0.0317,0.21627
804.9,980.0,-0.0317,0.21642
805.3,980.8,-0.0317,0.21689
805.7,981.6,-0.0317,0.21719
806.1,982.4,-0.0317,0.21593
806.5,983.1,-0.0321,0.21788
806.9,983.9,-0.0324,0.22028
807.3,984.7,-0.0323,0.2208
807.7,985.5,-0.0316,0.22067
808.1,986.3,-0.0320,0.2207
808.5,987.0,-0.0324,0.2199
808.9,987.8,-0.0324,0.22211
809.3,988.6,-0.0324,0.22197
809.7,989.3,-0.0324,0.22108
810.1,990.1,-0.0324,0.2208
810.5,990.9,-0.0324,0.22172
810.9,991.7,-0.0324,0.22447
811.3,992.4,-0.0324,0.22301
811.7,993.2,-0.0324,0.22183
812.1,994.0,-0.0324,0.22317
812.5,994.8,-0.0324,0.22357
812.9,995.6,-0.0324,0.2249
813.3,996.3,-0.0324,0.22458
813.7,997.1,-0.0324,0.22682
814.1,997.9,-0.0313,0.22469
814.5,998.7,-0.0311,0.2262
814.8,999.3,-0.0311,0.2263