File: PMMA/Calibration_Data/FSRI/FSRI_STA_N2_30K_3.csv
Temp,time,TGA,DSC
[K],[s],[mg],[mW/mg]
322.2,0.0,3.9307,-3.73E-03
322.6,27.3,3.9295,2.09E-02
323.0,33.6,3.9299,4.60E-02
323.4,38.0,3.9310,6.80E-02
323.8,41.5,3.9282,9.14E-02
324.2,44.5,3.9304,0.10982
324.6,47.2,3.9302,0.13058
325.0,49.6,3.9295,0.14671
325.4,51.8,3.9295,0.16574
325.8,53.9,3.9308,0.18109
326.2,55.9,3.9301,0.19755
326.6,57.7,3.9299,0.21178
327.0,59.5,3.9297,0.22554
327.4,61.2,3.9295,0.24148
327.8,62.8,3.9295,0.25503
328.2,64.3,3.9307,0.26804
328.6,65.8,3.9317,0.28202
329.0,67.3,3.9313,0.29306
329.4,68.8,3.9307,0.30661
329.8,70.2,3.9301,0.31979
330.2,71.5,3.9310,0.33082
330.6,72.8,3.9306,0.34069
331.0,74.1,3.9310,0.35298
331.4,75.4,3.9310,0.36205
331.8,76.6,3.9305,0.37247
332.2,77.8,3.9298,0.38253
332.6,79.0,3.9296,0.39144
333.0,80.2,3.9294,0.40274
333.4,81.4,3.9303,0.41222
333.8,82.5,3.9304,0.42087
334.2,83.7,3.9301,0.42923
334.6,84.8,3.9302,0.43957
335.0,85.9,3.9303,0.44663
335.4,87.0,3.9297,0.45515
335.8,88.1,3.9285,0.46426
336.2,89.1,3.9285,0.47211
336.6,90.2,3.9294,0.47771
337.0,91.2,3.9302,0.48484
337.4,92.3,3.9309,0.49543
337.8,93.3,3.9308,0.50111
338.2,94.3,3.9304,0.50936
338.6,95.3,3.9299,0.51588
339.0,96.3,3.9294,0.52268
339.4,97.3,3.9300,0.53005
339.8,98.3,3.9302,0.53786
340.2,99.3,3.9297,0.54302
340.6,100.3,3.9287,0.55103
341.0,101.3,3.9295,0.5564
341.4,102.2,3.9293,0.56307
341.8,103.2,3.9287,0.56982
342.2,104.1,3.9287,0.57646
342.6,105.1,3.9299,0.58016
343.0,106.0,3.9299,0.58568
343.4,107.0,3.9293,0.59271
343.8,107.9,3.9303,0.59944
344.2,108.8,3.9302,0.60421
344.6,109.8,3.9303,0.61123
345.0,110.7,3.9301,0.61604
345.4,111.6,3.9297,0.62031
345.8,112.5,3.9300,0.62733
346.2,113.4,3.9304,0.6324
346.6,114.3,3.9307,0.63663
347.0,115.3,3.9312,0.64073
347.4,116.2,3.9311,0.64862
347.8,117.1,3.9309,0.65224
348.2,118.0,3.9313,0.65785
348.6,118.9,3.9307,0.66269
349.0,119.8,3.9315,0.66853
349.4,120.6,3.9312,0.6734
349.8,121.5,3.9310,0.67814
350.2,122.4,3.9305,0.68365
350.6,123.3,3.9300,0.68652
351.0,124.2,3.9302,0.69268
351.4,125.0,3.9302,0.69893
351.8,125.9,3.9306,0.70081
352.2,126.8,3.9312,0.70553
352.6,127.7,3.9309,0.71242
353.0,128.5,3.9312,0.71691
353.4,129.4,3.9309,0.72099
353.8,130.3,3.9306,0.72522
354.2,131.1,3.9308,0.72895
354.6,132.0,3.9306,0.73326
355.0,132.9,3.9305,0.73832
355.4,133.7,3.9304,0.74176
355.8,134.6,3.9294,0.74638
356.2,135.4,3.9288,0.75153
356.6,136.3,3.9296,0.75442
357.0,137.1,3.9299,0.75924
357.4,138.0,3.9294,0.76209
357.8,138.8,3.9307,0.76519
358.2,139.7,3.9304,0.7665
358.6,140.5,3.9298,0.77025
359.0,141.4,3.9307,0.77216
359.4,142.2,3.9306,0.77589
359.8,143.0,3.9306,0.77502
360.2,143.9,3.9307,0.77678
360.6,144.7,3.9300,0.77825
361.0,145.6,3.9305,0.7788
361.4,146.4,3.9302,0.77995
361.8,147.2,3.9291,0.77907
362.2,148.1,3.9303,0.77967
362.6,148.9,3.9300,0.78224
363.0,149.7,3.9291,0.78177
363.4,150.5,3.9291,0.78316
363.8,151.4,3.9300,0.78265
364.2,152.2,3.9295,0.78271
364.6,153.0,3.9292,0.78213
365.0,153.9,3.9294,0.78239
365.4,154.7,3.9299,0.78178
365.8,155.5,3.9291,0.78295
366.2,156.3,3.9292,0.78376
366.6,157.2,3.9291,0.78437
367.0,158.0,3.9303,0.78414
367.4,158.8,3.9305,0.78481
367.8,159.6,3.9301,0.78362
368.2,160.4,3.9290,0.7853
368.6,161.3,3.9296,0.78547
369.0,162.1,3.9301,0.78848
369.4,162.9,3.9288,0.78959
369.8,163.7,3.9290,0.78903
370.2,164.5,3.9290,0.79309
370.6,165.3,3.9287,0.7935
371.0,166.2,3.9289,0.79239
371.4,167.0,3.9289,0.79411
371.8,167.8,3.9289,0.79555
372.2,168.6,3.9289,0.79805
372.6,169.4,3.9289,0.79931
373.0,170.2,3.9297,0.80184
373.4,171.0,3.9292,0.80361
373.8,171.8,3.9289,0.8045
374.2,172.7,3.9289,0.80754
374.6,173.5,3.9289,0.80635
375.0,174.3,3.9289,0.80939
375.4,175.1,3.9289,0.81082
375.8,175.9,3.9289,0.81212
376.2,176.7,3.9289,0.81614
376.6,177.5,3.9290,0.81685
377.0,178.3,3.9291,0.81742
377.4,179.2,3.9297,0.81867
377.8,180.0,3.9290,0.82175
378.2,180.8,3.9290,0.82399
378.6,181.6,3.9289,0.823
379.0,182.4,3.9289,0.82718
379.4,183.2,3.9280,0.82677
379.8,184.0,3.9275,0.83103
380.2,184.8,3.9283,0.83366
380.6,185.6,3.9290,0.83578
381.0,186.4,3.9289,0.8381
381.4,187.2,3.9286,0.83972
381.8,188.0,3.9275,0.84261
382.2,188.9,3.9281,0.84318
382.6,189.7,3.9290,0.84528
383.0,190.5,3.9290,0.84858
383.4,191.3,3.9285,0.85007
383.8,192.1,3.9276,0.85379
384.2,192.9,3.9276,0.85618
384.6,193.7,3.9276,0.85786
385.0,194.5,3.9281,0.85911
385.4,195.3,3.9290,0.86135
385.8,196.1,3.9289,0.86604
386.2,196.9,3.9289,0.86814
386.6,197.7,3.9289,0.87197
387.0,198.5,3.9277,0.87288
387.4,199.3,3.9277,0.87661
387.8,200.1,3.9276,0.87591
388.2,200.9,3.9276,0.87986
388.6,201.7,3.9276,0.88714
389.0,202.5,3.9276,0.88715
389.4,203.4,3.9279,0.88752
389.8,204.2,3.9285,0.89117
390.2,205.0,3.9275,0.89571
390.6,205.8,3.9276,0.89901
391.0,206.6,3.9276,0.90301
391.4,207.4,3.9276,0.90642
391.8,208.2,3.9276,0.90901
392.2,209.0,3.9276,0.91147
392.6,209.8,3.9277,0.91573
393.0,210.6,3.9270,0.91747
393.4,211.4,3.9263,0.92224
393.8,212.2,3.9273,0.92506
394.2,213.0,3.9276,0.92721
394.6,213.8,3.9276,0.93532
395.0,214.6,3.9276,0.93991
395.4,215.4,3.9276,0.94463
395.8,216.1,3.9276,0.94851
396.2,216.9,3.9275,0.95136
396.6,217.7,3.9264,0.95565
397.0,218.5,3.9263,0.96213
397.4,219.3,3.9263,0.96779
397.8,220.1,3.9263,0.97047
398.2,220.9,3.9263,0.97653
398.6,221.7,3.9263,0.9803
399.0,222.5,3.9263,0.98633
399.4,223.3,3.9263,0.99189
399.8,224.1,3.9268,0.99686
400.2,224.9,3.9272,0.99972
400.6,225.7,3.9272,1.00607
401.0,226.5,3.9264,1.012
401.4,227.2,3.9263,1.01608
401.8,228.0,3.9263,1.0184
402.2,228.8,3.9263,1.02615
402.6,229.6,3.9263,1.02842
403.0,230.4,3.9263,1.03496
403.4,231.2,3.9262,1.03698
403.8,232.0,3.9269,1.04314
404.2,232.8,3.9276,1.04606
404.6,233.6,3.9276,1.04858
405.0,234.3,3.9276,1.05391
405.4,235.1,3.9276,1.05762
405.8,235.9,3.9276,1.06151
406.2,236.7,3.9276,1.06528
406.6,237.5,3.9274,1.06947
407.0,238.3,3.9262,1.07316
407.4,239.0,3.9264,1.07728
407.8,239.8,3.9258,1.08095
408.2,240.6,3.9257,1.08442
408.6,241.4,3.9256,1.08717
409.0,242.2,3.9257,1.09122
409.4,243.0,3.9256,1.09348
409.8,243.7,3.9256,1.09881
410.2,244.5,3.9256,1.10067
410.6,245.3,3.9256,1.10436
411.0,246.1,3.9256,1.10827
411.4,246.8,3.9257,1.109
411.8,247.6,3.9256,1.11339
412.2,248.4,3.9256,1.11652
412.6,249.2,3.9257,1.1199
413.0,250.0,3.9256,1.12387
413.4,250.7,3.9259,1.12586
413.8,251.5,3.9263,1.12902
414.2,252.3,3.9262,1.13053
414.6,253.0,3.9266,1.13143
415.0,253.8,3.9260,1.13536
415.4,254.6,3.9256,1.13575
415.8,255.4,3.9257,1.13922
416.2,256.1,3.9256,1.14214
416.6,256.9,3.9256,1.1444
417.0,257.7,3.9256,1.14458
417.4,258.5,3.9256,1.14994
417.8,259.2,3.9256,1.15039
418.2,260.0,3.9256,1.15255
418.6,260.8,3.9257,1.15628
419.0,261.5,3.9256,1.15655
419.4,262.3,3.9256,1.16085
419.8,263.1,3.9250,1.1629
420.2,263.8,3.9246,1.16354
420.6,264.6,3.9247,1.1686
421.0,265.4,3.9247,1.16763
421.4,266.1,3.9247,1.17275
421.8,266.9,3.9247,1.17372
422.2,267.7,3.9242,1.17539
422.6,268.4,3.9233,1.17782
423.0,269.2,3.9234,1.18
423.4,270.0,3.9234,1.18246
423.8,270.7,3.9230,1.18109
424.2,271.5,3.9230,1.18317
424.6,272.3,3.9230,1.18633
425.0,273.0,3.9230,1.1893
425.4,273.8,3.9230,1.19085
425.8,274.5,3.9230,1.19066
426.2,275.3,3.9230,1.19532
426.6,276.1,3.9230,1.19567
427.0,276.8,3.9230,1.19819
427.4,277.6,3.9230,1.20167
427.8,278.4,3.9230,1.20177
428.2,279.1,3.9230,1.20448
428.6,279.9,3.9231,1.2052
429.0,280.7,3.9223,1.20874
429.4,281.4,3.9217,1.21113
429.8,282.2,3.9217,1.2119
430.2,282.9,3.9218,1.2142
430.6,283.7,3.9209,1.21678
431.0,284.5,3.9207,1.2173
431.4,285.2,3.9206,1.21844
431.8,286.0,3.9204,1.22224
432.2,286.7,3.9198,1.22364
432.6,287.5,3.9190,1.22563
433.0,288.3,3.9191,1.22912
433.4,289.0,3.9191,1.23102
433.8,289.8,3.9191,1.23341
434.2,290.5,3.9191,1.23497
434.6,291.3,3.9191,1.23755
435.0,292.1,3.9191,1.24126
435.4,292.8,3.9191,1.24213
435.8,293.6,3.9191,1.24577
436.2,294.3,3.9191,1.24791
436.6,295.1,3.9191,1.25109
437.0,295.8,3.9191,1.25275
437.4,296.6,3.9191,1.25546
437.8,297.4,3.9192,1.25631
438.2,298.1,3.9182,1.26025
438.6,298.9,3.9177,1.26326
439.0,299.6,3.9178,1.26466
439.4,300.4,3.9177,1.26507
439.8,301.1,3.9178,1.27276
440.2,301.9,3.9178,1.27425
440.6,302.6,3.9177,1.27663
441.0,303.4,3.9178,1.28044
441.4,304.2,3.9172,1.28351
441.8,304.9,3.9164,1.28504
442.2,305.7,3.9165,1.28701
442.6,306.4,3.9164,1.29087
443.0,307.2,3.9164,1.29646
443.4,307.9,3.9165,1.29889
443.8,308.7,3.9160,1.30285
444.2,309.4,3.9151,1.30651
444.6,310.2,3.9151,1.30985
445.0,310.9,3.9151,1.31385
445.4,311.7,3.9151,1.31683
445.8,312.4,3.9151,1.32199
446.2,313.2,3.9151,1.32466
446.6,313.9,3.9151,1.32886
447.0,314.7,3.9149,1.33317
447.4,315.4,3.9139,1.33848
447.8,316.2,3.9138,1.34155
448.2,316.9,3.9138,1.34525
448.6,317.7,3.9138,1.34989
449.0,318.4,3.9138,1.35468
449.4,319.2,3.9138,1.35761
449.8,319.9,3.9125,1.36361
450.2,320.7,3.9112,1.36903
450.6,321.4,3.9112,1.37287
451.0,322.2,3.9112,1.3751
451.4,322.9,3.9112,1.38248
451.8,323.7,3.9103,1.38581
452.2,324.4,3.9098,1.39023
452.6,325.2,3.9098,1.39424
453.0,325.9,3.9098,1.39877
453.4,326.7,3.9088,1.40573
453.8,327.4,3.9085,1.40906
454.2,328.2,3.9085,1.41463
454.6,328.9,3.9084,1.41778
455.0,329.7,3.9073,1.42268
455.4,330.4,3.9072,1.42599
455.8,331.1,3.9072,1.4316
456.2,331.9,3.9071,1.43838
456.6,332.6,3.9060,1.44158
457.0,333.4,3.9058,1.44403
457.4,334.1,3.9058,1.44872
457.8,334.9,3.9054,1.45285
458.2,335.6,3.9044,1.45852
458.6,336.4,3.9045,1.46565
459.0,337.1,3.9040,1.46881
459.4,337.8,3.9029,1.47321
459.8,338.6,3.9028,1.48008
460.2,339.3,3.9016,1.48191
460.6,340.1,3.9010,1.48669
461.0,340.8,3.8996,1.49136
461.4,341.6,3.8996,1.49349
461.8,342.3,3.8983,1.50146
462.2,343.0,3.8979,1.50457
462.6,343.8,3.8973,1.50797
463.0,344.5,3.8963,1.51152
463.4,345.3,3.8963,1.51572
463.8,346.0,3.8952,1.5168
464.2,346.7,3.8938,1.52478
464.6,347.5,3.8929,1.52536
465.0,348.2,3.8918,1.52945
465.4,349.0,3.8916,1.53247
465.8,349.7,3.8904,1.53717
466.2,350.4,3.8903,1.53908
466.6,351.2,3.8897,1.54317
467.0,351.9,3.8887,1.54548
467.4,352.6,3.8884,1.54753
467.8,353.4,3.8873,1.55093
468.2,354.1,3.8867,1.55158
468.6,354.9,3.8856,1.55628
469.0,355.6,3.8854,1.55822
469.4,356.3,3.8840,1.56046
469.8,357.1,3.8839,1.5626
470.2,357.8,3.8824,1.56331
470.6,358.5,3.8819,1.56698
471.0,359.3,3.8818,1.56751
471.4,360.0,3.8819,1.57057
471.8,360.7,3.8805,1.57001
472.2,361.5,3.8802,1.57185
472.6,362.2,3.8794,1.57612
473.0,362.9,3.8786,1.57465
473.4,363.7,3.8786,1.57741
473.8,364.4,3.8771,1.57563
474.2,365.2,3.8755,1.57646
474.6,365.9,3.8739,1.57798
475.0,366.6,3.8737,1.57422
475.4,367.4,3.8722,1.57614
475.8,368.1,3.8717,1.57616
476.2,368.8,3.8705,1.57652
476.6,369.6,3.8700,1.57683
477.0,370.3,3.8684,1.57644
477.4,371.0,3.8684,1.57572
477.8,371.8,3.8671,1.57399
478.2,372.5,3.8668,1.57642
478.6,373.2,3.8659,1.57404
479.0,374.0,3.8650,1.5743
479.4,374.7,3.8644,1.572
479.8,375.4,3.8634,1.57175
480.2,376.2,3.8634,1.57032
480.6,376.9,3.8622,1.56869
481.0,377.7,3.8620,1.5706
481.4,378.4,3.8612,1.56833
481.8,379.1,3.8604,1.56613
482.2,379.9,3.8600,1.56466
482.6,380.6,3.8588,1.56268
483.0,381.3,3.8583,1.56383
483.4,382.1,3.8573,1.56301
483.8,382.8,3.8565,1.56152
484.2,383.5,3.8554,1.56193
484.6,384.3,3.8550,1.55858
485.0,385.0,3.8538,1.55877
485.4,385.7,3.8539,1.55751
485.8,386.5,3.8526,1.55693
486.2,387.2,3.8523,1.55525
486.6,387.9,3.8511,1.55612
487.0,388.7,3.8505,1.5568
487.4,389.4,3.8502,1.55522
487.8,390.1,3.8491,1.55652
488.2,390.9,3.8493,1.55397
488.6,391.6,3.8488,1.55445
489.0,392.3,3.8477,1.55257
489.4,393.1,3.8476,1.55383
489.8,393.8,3.8462,1.5548
490.2,394.5,3.8456,1.5558
490.6,395.3,3.8444,1.55548
491.0,396.0,3.8440,1.55642
491.4,396.7,3.8422,1.55799
491.8,397.5,3.8419,1.55645
492.2,398.2,3.8407,1.5563
492.6,398.9,3.8404,1.55731
493.0,399.7,3.8392,1.55931
493.4,400.4,3.8383,1.56079
493.8,401.1,3.8381,1.56285
494.2,401.8,3.8370,1.56277
494.6,402.6,3.8365,1.56393
495.0,403.3,3.8350,1.56668
495.4,404.0,3.8349,1.56695
495.8,404.8,3.8338,1.56831
496.2,405.5,3.8335,1.5706
496.6,406.2,3.8331,1.5708
497.0,407.0,3.8320,1.57303
497.4,407.7,3.8318,1.57284
497.8,408.4,3.8304,1.57633
498.2,409.2,3.8296,1.57534
498.6,409.9,3.8275,1.57917
499.0,410.6,3.8273,1.57888
499.4,411.4,3.8274,1.58084
499.8,412.1,3.8264,1.58117
500.2,412.8,3.8260,1.58488
500.6,413.6,3.8259,1.58719
501.0,414.3,3.8247,1.58687
501.4,415.0,3.8242,1.58802
501.8,415.8,3.8225,1.59037
502.2,416.5,3.8223,1.58858
502.6,417.2,3.8209,1.5896
503.0,418.0,3.8208,1.58777
503.4,418.7,3.8208,1.58924
503.8,419.4,3.8208,1.59157
504.2,420.2,3.8208,1.5939
504.6,420.9,3.8206,1.59221
505.0,421.6,3.8194,1.59048
505.4,422.3,3.8189,1.59024
505.8,423.1,3.8171,1.59056
506.2,423.8,3.8163,1.58987
506.6,424.5,3.8152,1.58926
507.0,425.3,3.8143,1.58646
507.4,426.0,3.8135,1.58582
507.8,426.7,3.8129,1.58599
508.2,427.5,3.8119,1.58265
508.6,428.2,3.8126,1.583
509.0,428.9,3.8116,1.58032
509.4,429.6,3.8115,1.57527
509.8,430.4,3.8113,1.57283
510.2,431.1,3.8103,1.5716
510.6,431.8,3.8099,1.56672
511.0,432.6,3.8099,1.56729
511.4,433.3,3.8099,1.5633
511.8,434.0,3.8090,1.55875
512.2,434.7,3.8086,1.55484
512.6,435.5,3.8086,1.55292
513.0,436.2,3.8083,1.5466
513.4,436.9,3.8072,1.54522
513.8,437.7,3.8074,1.54195
514.2,438.4,3.8067,1.5397
514.6,439.1,3.8059,1.53693
515.0,439.9,3.8059,1.5343
515.4,440.6,3.8052,1.53203
515.8,441.3,3.8045,1.52901
516.2,442.0,3.8046,1.52512
516.6,442.8,3.8046,1.52419
517.0,443.5,3.8046,1.51916
517.4,444.2,3.8039,1.51921
517.8,444.9,3.8032,1.51373
518.2,445.7,3.8032,1.51214
518.6,446.4,3.8032,1.51096
519.0,447.1,3.8021,1.50747
519.4,447.9,3.8019,1.50607
519.8,448.6,3.8019,1.50644
520.2,449.3,3.8019,1.50298
520.6,450.0,3.8019,1.49953
521.0,450.8,3.8019,1.4971
521.4,451.5,3.8019,1.49839
521.8,452.2,3.8008,1.49634
522.2,453.0,3.8006,1.4945
522.6,453.7,3.8006,1.49386
523.0,454.4,3.8006,1.49295
523.4,455.1,3.8007,1.49087
523.8,455.9,3.7998,1.49184
524.2,456.6,3.7993,1.48888
524.6,457.3,3.7993,1.49004
525.0,458.1,3.7993,1.48956
525.4,458.8,3.7993,1.48957
525.8,459.5,3.7993,1.48665
526.2,460.2,3.7993,1.4869
526.6,461.0,3.7992,1.4891
527.0,461.7,3.7983,1.48667
527.4,462.4,3.7979,1.48564
527.8,463.1,3.7980,1.48592
528.2,463.9,3.7980,1.48461
528.6,464.6,3.7980,1.48584
529.0,465.3,3.7980,1.48676
529.4,466.1,3.7980,1.48739
529.8,466.8,3.7980,1.48746
530.2,467.5,3.7975,1.48566
530.6,468.2,3.7966,1.48703
531.0,469.0,3.7967,1.48823
531.4,469.7,3.7967,1.48873
531.8,470.4,3.7967,1.48806
532.2,471.1,3.7967,1.48794
532.6,471.9,3.7967,1.48882
533.0,472.6,3.7965,1.49114
533.4,473.3,3.7954,1.49026
533.8,474.0,3.7954,1.49011
534.2,474.8,3.7953,1.49016
534.6,475.5,3.7954,1.49222
535.0,476.2,3.7953,1.49197
535.4,477.0,3.7953,1.49148
535.8,477.7,3.7953,1.49306
536.2,478.4,3.7953,1.49307
536.6,479.1,3.7953,1.49388
537.0,479.9,3.7954,1.49541
537.4,480.6,3.7953,1.49608
537.8,481.3,3.7953,1.49929
538.2,482.0,3.7944,1.49893
538.6,482.8,3.7940,1.49935
539.0,483.5,3.7940,1.50035
539.4,484.2,3.7940,1.50216
539.8,484.9,3.7940,1.50355
540.2,485.7,3.7932,1.50314
540.6,486.4,3.7927,1.50569
541.0,487.1,3.7927,1.50654
541.4,487.8,3.7927,1.50575
541.8,488.6,3.7927,1.50928
542.2,489.3,3.7927,1.51151
542.6,490.0,3.7926,1.51219
543.0,490.7,3.7915,1.51429
543.4,491.5,3.7914,1.51417
543.8,492.2,3.7913,1.5161
544.2,492.9,3.7910,1.51939
544.6,493.6,3.7911,1.51919
545.0,494.4,3.7911,1.52147
545.4,495.1,3.7910,1.52237
545.8,495.8,3.7901,1.52405
546.2,496.6,3.7897,1.5262
546.6,497.3,3.7898,1.5281
547.0,498.0,3.7898,1.53104
547.4,498.7,3.7897,1.53244
547.8,499.5,3.7890,1.53301
548.2,500.2,3.7884,1.53461
548.6,500.9,3.7884,1.53915
549.0,501.6,3.7884,1.53951
549.4,502.4,3.7885,1.54053
549.8,503.1,3.7882,1.54408
550.2,503.8,3.7873,1.54786
550.6,504.5,3.7871,1.54763
551.0,505.3,3.7871,1.55108
551.4,506.0,3.7871,1.55482
551.8,506.7,3.7871,1.55333
552.2,507.4,3.7859,1.55805
552.6,508.2,3.7857,1.56239
553.0,508.9,3.7857,1.56342
553.4,509.6,3.7850,1.56466
553.8,510.3,3.7844,1.56818
554.2,511.1,3.7839,1.57005
554.6,511.8,3.7834,1.57168
555.0,512.5,3.7834,1.57419
555.4,513.2,3.7835,1.57864
555.8,514.0,3.7828,1.58101
556.2,514.7,3.7821,1.58356
556.6,515.4,3.7821,1.58745
557.0,516.1,3.7820,1.59089
557.4,516.9,3.7812,1.59117
557.8,517.6,3.7809,1.59537
558.2,518.3,3.7810,1.60002
558.6,519.0,3.7805,1.60297
559.0,519.8,3.7804,1.60597
559.4,520.5,3.7795,1.60697
559.8,521.2,3.7788,1.61136
560.2,521.9,3.7789,1.61458
560.6,522.7,3.7778,1.61578
561.0,523.4,3.7775,1.62265
561.4,524.1,3.7772,1.62511
561.8,524.8,3.7761,1.62488
562.2,525.6,3.7759,1.63255
562.6,526.3,3.7759,1.63717
563.0,527.0,3.7749,1.64066
563.4,527.8,3.7745,1.64512
563.8,528.5,3.7744,1.64883
564.2,529.2,3.7729,1.65374
564.6,529.9,3.7723,1.65555
565.0,530.7,3.7704,1.66054
565.4,531.4,3.7701,1.66367
565.8,532.1,3.7696,1.66744
566.2,532.8,3.7686,1.67008
566.6,533.6,3.7684,1.67647
567.0,534.3,3.7672,1.68157
567.4,535.0,3.7669,1.68818
567.8,535.7,3.7657,1.68992
568.2,536.5,3.7656,1.69616
568.6,537.2,3.7645,1.69972
569.0,537.9,3.7638,1.7073
569.4,538.6,3.7634,1.71109
569.8,539.4,3.7622,1.71861
570.2,540.1,3.7621,1.72308
570.6,540.8,3.7607,1.72932
571.0,541.5,3.7601,1.73615
571.4,542.3,3.7588,1.74105
571.8,543.0,3.7578,1.74829
572.2,543.7,3.7567,1.75405
572.6,544.4,3.7556,1.76134
573.0,545.2,3.7547,1.7656
573.4,545.9,3.7532,1.77206
573.8,546.6,3.7530,1.77928
574.2,547.3,3.7524,1.78557
574.6,548.1,3.7514,1.78986
575.0,548.8,3.7511,1.79675
575.4,549.5,3.7500,1.8033
575.8,550.2,3.7495,1.80624
576.2,551.0,3.7479,1.81322
576.6,551.7,3.7469,1.81848
577.0,552.4,3.7459,1.82249
577.4,553.2,3.7438,1.83076
577.8,553.9,3.7432,1.83398
578.2,554.6,3.7414,1.84042
578.6,555.3,3.7403,1.84717
579.0,556.1,3.7394,1.85232
579.4,556.8,3.7377,1.8563
579.8,557.5,3.7371,1.85992
580.2,558.2,3.7355,1.86546
580.6,559.0,3.7341,1.8697
581.0,559.7,3.7332,1.87427
581.4,560.4,3.7317,1.88175
581.8,561.2,3.7311,1.88702
582.2,561.9,3.7297,1.88895
582.6,562.6,3.7283,1.89501
583.0,563.3,3.7277,1.89804
583.4,564.1,3.7256,1.90421
583.8,564.8,3.7248,1.90909
584.2,565.5,3.7232,1.91477
584.6,566.3,3.7214,1.91735
585.0,567.0,3.7201,1.92126
585.4,567.7,3.7186,1.92595
585.8,568.4,3.7169,1.93216
586.2,569.2,3.7152,1.93756
586.6,569.9,3.7140,1.94196
587.0,570.6,3.7126,1.94571
587.4,571.3,3.7111,1.95088
587.8,572.1,3.7094,1.95707
588.2,572.8,3.7078,1.96263
588.6,573.5,3.7061,1.96502
589.0,574.3,3.7042,1.97063
589.4,575.0,3.7024,1.97634
589.8,575.7,3.7004,1.97867
590.2,576.4,3.6989,1.98484
590.6,577.2,3.6968,1.9881
591.0,577.9,3.6952,1.99438
591.4,578.6,3.6932,1.99844
591.8,579.4,3.6921,2.00271
592.2,580.1,3.6905,2.00675
592.6,580.8,3.6892,2.01184
593.0,581.6,3.6872,2.01655
593.4,582.3,3.6860,2.02233
593.8,583.0,3.6839,2.02401
594.2,583.7,3.6823,2.03062
594.6,584.5,3.6797,2.037
595.0,585.2,3.6786,2.0418
595.4,585.9,3.6766,2.04632
595.8,586.7,3.6751,2.05265
596.2,587.4,3.6716,2.05898
596.6,588.1,3.6698,2.06438
597.0,588.8,3.6676,2.0691
597.4,589.6,3.6660,2.07869
597.8,590.3,3.6633,2.0844
598.2,591.0,3.6618,2.09277
598.6,591.8,3.6595,2.0997
599.0,592.5,3.6572,2.10964
599.4,593.2,3.6545,2.11504
599.8,594.0,3.6528,2.1245
600.2,594.7,3.6507,2.13281
600.6,595.4,3.6487,2.14086
601.0,596.1,3.6465,2.15131
601.4,596.9,3.6447,2.16211
601.8,597.6,3.6427,2.17173
602.2,598.3,3.6400,2.18321
602.6,599.1,3.6372,2.19693
603.0,599.8,3.6345,2.20497
603.4,600.5,3.6322,2.21948
603.8,601.2,3.6294,2.23016
604.2,602.0,3.6269,2.24562
604.6,602.7,3.6241,2.26132
605.0,603.4,3.6215,2.27435
605.4,604.2,3.6183,2.28647
605.8,604.9,3.6158,2.30428
606.2,605.6,3.6128,2.32135
606.6,606.4,3.6092,2.34009
607.0,607.1,3.6064,2.35506
607.4,607.8,3.6037,2.37378
607.8,608.6,3.6000,2.38919
608.2,609.3,3.5966,2.40943
608.6,610.0,3.5938,2.42829
609.0,610.8,3.5903,2.44852
609.4,611.5,3.5864,2.47006
609.8,612.2,3.5833,2.49141
610.2,613.0,3.5794,2.51359
610.6,613.7,3.5746,2.53729
611.0,614.4,3.5710,2.55908
611.4,615.1,3.5672,2.58376
611.8,615.9,3.5624,2.60983
612.2,616.6,3.5582,2.63466
612.6,617.3,3.5544,2.66228
613.0,618.1,3.5499,2.68907
613.4,618.8,3.5451,2.71617
613.8,619.6,3.5415,2.74385
614.2,620.3,3.5372,2.77241
614.6,621.0,3.5316,2.80622
615.0,621.8,3.5273,2.83593
615.4,622.5,3.5223,2.8665
615.8,623.2,3.5162,2.89978
616.2,624.0,3.5116,2.93036
616.6,624.7,3.5069,2.9658
617.0,625.4,3.5011,2.99764
617.4,626.2,3.4956,3.03407
617.8,626.9,3.4905,3.06972
618.2,627.6,3.4843,3.10682
618.6,628.4,3.4776,3.14618
619.0,629.1,3.4725,3.18183
619.4,629.8,3.4662,3.22347
619.8,630.6,3.4588,3.26316
620.2,631.3,3.4533,3.30669
620.6,632.1,3.4462,3.34747
621.0,632.8,3.4366,3.3883
621.4,633.5,3.4296,3.43414
621.8,634.3,3.4228,3.47963
622.2,635.0,3.4147,3.5238
622.6,635.7,3.4070,3.57062
623.0,636.5,3.4003,3.6176
623.4,637.2,3.3921,3.66531
623.8,637.9,3.3827,3.71433
624.2,638.7,3.3757,3.76418
624.6,639.4,3.3672,3.81332
625.0,640.1,3.3570,3.86435
625.4,640.9,3.3494,3.91752
625.8,641.6,3.3410,3.97019
626.2,642.4,3.3307,4.02603
626.6,643.1,3.3219,4.08203
627.0,643.9,3.3129,4.14054
627.4,644.6,3.3017,4.19693
627.8,645.3,3.2910,4.2564
628.2,646.1,3.2816,4.31418
628.6,646.8,3.2703,4.3747
629.0,647.6,3.2579,4.43509
629.4,648.3,3.2485,4.4968
629.8,649.1,3.2372,4.56071
630.2,649.8,3.2236,4.62274
630.6,650.6,3.2136,4.69009
631.0,651.3,3.2022,4.75173
631.4,652.1,3.1884,4.82254
631.8,652.8,3.1789,4.88969
632.2,653.6,3.1674,4.9556
632.6,654.3,3.1528,5.02274
633.0,655.0,3.1397,5.08985
633.4,655.8,3.1274,5.16195
633.8,656.5,3.1122,5.23224
634.2,657.3,3.0969,5.30479
634.6,658.0,3.0846,5.37457
635.0,658.8,3.0694,5.44483
635.4,659.5,3.0517,5.51904
635.8,660.3,3.0379,5.5946
636.2,661.0,3.0224,5.66684
636.6,661.8,3.0042,5.74234
637.0,662.5,2.9910,5.81542
637.4,663.3,2.9758,5.89298
637.8,664.0,2.9572,5.96713
638.2,664.8,2.9424,6.04373
638.6,665.5,2.9267,6.12063
639.0,666.3,2.9074,6.19685
639.4,667.0,2.8886,6.27237
639.8,667.8,2.8717,6.35001
640.2,668.5,2.8524,6.42569
640.6,669.3,2.8325,6.50458
641.0,670.0,2.8167,6.57871
641.4,670.8,2.7974,6.65495
641.8,671.5,2.7751,6.7322
642.2,672.3,2.7589,6.80867
642.6,673.0,2.7395,6.88609
643.0,673.8,2.7159,6.96126
643.4,674.5,2.6984,7.03732
643.8,675.3,2.6787,7.11253
644.2,676.0,2.6548,7.19084
644.6,676.8,2.6363,7.262
645.0,677.5,2.6174,7.33544
645.4,678.2,2.5934,7.4097
645.8,679.0,2.5715,7.48714
646.2,679.7,2.5517,7.55833
646.6,680.5,2.5279,7.62647
647.0,681.3,2.5033,7.69476
647.4,682.0,2.4838,7.75886
647.8,682.8,2.4601,7.81631
648.2,683.5,2.4327,7.87445
648.6,684.3,2.4118,7.92782
649.0,685.0,2.3880,7.97893
649.4,685.8,2.3596,8.02537
649.8,686.5,2.3388,8.07318
650.2,687.3,2.3149,8.117
650.6,688.0,2.2857,8.16066
651.0,688.8,2.2628,8.1968
651.4,689.5,2.2391,8.21685
651.8,690.3,2.2105,8.23887
652.2,691.0,2.1855,8.2709
652.6,691.8,2.1624,8.30043
653.0,692.6,2.1343,8.32661
653.4,693.3,2.1067,8.35718
653.8,694.1,2.0842,8.39819
654.2,694.8,2.0571,8.43809
654.6,695.6,2.0278,8.45977
655.0,696.3,2.0057,8.48784
655.4,697.1,1.9790,8.5197
655.8,697.8,1.9486,8.5497
656.2,698.6,1.9267,8.57271
656.6,699.4,1.9009,8.58248
657.0,700.1,1.8698,8.60914
657.4,700.9,1.8468,8.61538
657.8,701.6,1.8215,8.61398
658.2,702.4,1.7910,8.61258
658.6,703.1,1.7661,8.60366
659.0,703.9,1.7411,8.58457
659.4,704.6,1.7108,8.56486
659.8,705.4,1.6835,8.54406
660.2,706.1,1.6596,8.5421
660.6,706.9,1.6312,8.52029
661.0,707.7,1.6026,8.49106
661.4,708.4,1.5803,8.46339
661.8,709.2,1.5532,8.43879
662.2,709.9,1.5227,8.41565
662.6,710.7,1.5007,8.38215
663.0,711.4,1.4755,8.34691
663.4,712.2,1.4450,8.31066
663.8,712.9,1.4229,8.26698
664.2,713.7,1.3979,8.19603
664.6,714.4,1.3676,8.14528
665.0,715.2,1.3437,8.13698
665.4,715.9,1.3195,8.1009
665.8,716.6,1.2911,8.07636
666.2,717.4,1.2662,8.02095
666.6,718.1,1.2436,7.95733
667.0,718.9,1.2169,7.90788
667.4,719.6,1.1901,7.81978
667.8,720.4,1.1695,7.73288
668.2,721.1,1.1449,7.65488
668.6,721.9,1.1163,7.57276
669.0,722.6,1.0958,7.49834
669.4,723.4,1.0722,7.43889
669.8,724.1,1.0448,7.38017
670.2,724.9,1.0252,7.30619
670.6,725.6,1.0037,7.2385
671.0,726.4,0.9779,7.16052
671.4,727.1,0.9572,7.1162
671.8,727.8,0.9364,7.05703
672.2,728.6,0.9112,7.06206
672.6,729.3,0.8889,7.02635
673.0,730.1,0.8703,6.93148
673.4,730.8,0.8481,6.89127
673.8,731.6,0.8241,6.83414
674.2,732.3,0.8064,6.73817
674.6,733.0,0.7853,6.65596
675.0,733.8,0.7605,6.58392
675.4,734.5,0.7429,6.49295
675.8,735.3,0.7231,6.40681
676.2,736.0,0.6998,6.32103
676.6,736.8,0.6818,6.2283
677.0,737.5,0.6637,6.1193
677.4,738.2,0.6420,6.00255
677.8,739.0,0.6226,5.90324
678.2,739.7,0.6060,5.78314
678.6,740.5,0.5869,5.68651
679.0,741.2,0.5672,5.56341
679.4,741.9,0.5525,5.44596
679.8,742.7,0.5354,5.33491
680.2,743.4,0.5157,5.23392
680.6,744.2,0.5031,5.10995
681.0,744.9,0.4880,4.98307
681.4,745.6,0.4696,4.86449
681.8,746.4,0.4561,4.75491
682.2,747.1,0.4422,4.64267
682.6,747.8,0.4262,4.52035
683.0,748.6,0.4125,4.39157
683.4,749.3,0.4009,4.29052
683.8,750.1,0.3873,4.18116
684.2,750.8,0.3728,4.06991
684.6,751.5,0.3620,3.96455
685.0,752.3,0.3494,3.84996
685.4,753.0,0.3352,3.74085
685.8,753.7,0.3256,3.64839
686.2,754.5,0.3146,3.55036
686.6,755.2,0.3020,3.45171
687.0,756.0,0.2924,3.34903
687.4,756.7,0.2827,3.25601
687.8,757.4,0.2716,3.16149
688.2,758.2,0.2617,3.06802
688.6,758.9,0.2535,2.97388
689.0,759.6,0.2442,2.88391
689.4,760.4,0.2346,2.79517
689.8,761.1,0.2278,2.70861
690.2,761.8,0.2197,2.61881
690.6,762.6,0.2103,2.53779
691.0,763.3,0.2034,2.45001
691.4,764.0,0.1951,2.37059
691.8,764.8,0.1868,2.29011
692.2,765.5,0.1806,2.20712
692.6,766.2,0.1748,2.13223
693.0,767.0,0.1679,2.05685
693.4,767.7,0.1612,1.98552
693.8,768.5,0.1555,1.91348
694.2,769.2,0.1479,1.84184
694.6,769.9,0.1412,1.77396
695.0,770.7,0.1367,1.70684
695.4,771.4,0.1316,1.64246
695.8,772.1,0.1261,1.57779
696.2,772.9,0.1221,1.52091
696.6,773.6,0.1187,1.46014
697.0,774.4,0.1147,1.40242
697.4,775.1,0.1108,1.34947
697.8,775.8,0.1072,1.29514
698.2,776.6,0.1029,1.24559
698.6,777.3,0.0990,1.1954
699.0,778.0,0.0961,1.14455
699.4,778.8,0.0927,1.09923
699.8,779.5,0.0901,1.05455
700.2,780.3,0.0879,1.01245
700.6,781.0,0.0851,0.97217
701.0,781.7,0.0821,0.93121
701.4,782.5,0.0801,0.89195
701.8,783.2,0.0776,0.85511
702.2,784.0,0.0747,0.81736
702.6,784.7,0.0723,0.78535
703.0,785.5,0.0695,0.75267
703.4,786.2,0.0669,0.72126
703.8,786.9,0.0645,0.68996
704.2,787.7,0.0620,0.66135
704.6,788.4,0.0593,0.63362
705.0,789.2,0.0574,0.60963
705.4,789.9,0.0553,0.58109
705.8,790.7,0.0541,0.55677
706.2,791.4,0.0531,0.53441
706.6,792.2,0.0517,0.51153
707.0,792.9,0.0505,0.48736
707.4,793.6,0.0492,0.47025
707.8,794.4,0.0475,0.44723
708.2,795.1,0.0465,0.4289
708.6,795.9,0.0451,0.41139
709.0,796.6,0.0439,0.39537
709.4,797.4,0.0438,0.37719
709.8,798.1,0.0424,0.36295
710.2,798.9,0.0420,0.34588
710.6,799.6,0.0406,0.33337
711.0,800.4,0.0403,0.32061
711.4,801.1,0.0389,0.30729
711.8,801.8,0.0386,0.29268
712.2,802.6,0.0374,0.28041
712.6,803.3,0.0371,0.2715
713.0,804.1,0.0361,0.25831
713.4,804.8,0.0353,0.24735
713.8,805.6,0.0346,0.23602
714.2,806.4,0.0338,0.22914
714.6,807.1,0.0337,0.21691
715.0,807.9,0.0327,0.21024
715.4,808.6,0.0322,0.20152
715.8,809.3,0.0317,0.19211
716.2,810.1,0.0307,0.18586
716.6,810.8,0.0307,0.17975
717.0,811.6,0.0297,0.17003
717.4,812.3,0.0294,0.1664
717.8,813.1,0.0294,0.16072
718.2,813.9,0.0290,0.15178
718.6,814.6,0.0281,0.14669
719.0,815.4,0.0281,0.14235
719.4,816.1,0.0281,0.13729
719.8,816.9,0.0278,0.13403
720.2,817.6,0.0269,0.1303
720.6,818.4,0.0267,0.12218
721.0,819.1,0.0266,0.11797
721.4,819.9,0.0259,0.11417
721.8,820.6,0.0255,0.11259
722.2,821.4,0.0254,0.10721
722.6,822.1,0.0252,0.10368
723.0,822.9,0.0244,0.10243
723.4,823.7,0.0245,9.90E-02
723.8,824.4,0.0245,9.42E-02
724.2,825.2,0.0244,8.97E-02
724.6,825.9,0.0245,8.75E-02
725.0,826.7,0.0237,8.48E-02
725.4,827.4,0.0228,8.36E-02
725.8,828.2,0.0228,7.94E-02
726.2,828.9,0.0228,7.63E-02
726.6,829.7,0.0228,7.96E-02
727.0,830.5,0.0228,7.22E-02
727.4,831.2,0.0228,7.15E-02
727.8,832.0,0.0228,6.87E-02
728.2,832.7,0.0228,6.81E-02
728.6,833.5,0.0228,6.82E-02
729.0,834.2,0.0228,6.35E-02
729.4,835.0,0.0228,6.35E-02
729.8,835.8,0.0228,6.67E-02
730.2,836.5,0.0228,6.38E-02
730.6,837.3,0.0228,6.22E-02
731.0,838.0,0.0228,6.27E-02
731.4,838.8,0.0228,6.66E-02
731.8,839.5,0.0216,6.64E-02
732.2,840.3,0.0215,6.76E-02
732.6,841.1,0.0215,6.79E-02
733.0,841.8,0.0215,6.88E-02
733.4,842.6,0.0215,7.09E-02
733.8,843.3,0.0215,7.28E-02
734.2,844.1,0.0215,7.05E-02
734.6,844.8,0.0215,7.05E-02
735.0,845.6,0.0215,7.20E-02
735.4,846.4,0.0215,7.15E-02
735.8,847.1,0.0217,6.98E-02
736.2,847.9,0.0229,6.91E-02
736.6,848.6,0.0231,6.78E-02
737.0,849.4,0.0231,6.81E-02
737.4,850.2,0.0231,6.49E-02
737.8,850.9,0.0231,6.44E-02
738.2,851.7,0.0231,6.09E-02
738.6,852.5,0.0231,5.76E-02
739.0,853.2,0.0231,5.59E-02
739.4,854.0,0.0231,5.42E-02
739.8,854.7,0.0231,5.36E-02
740.2,855.5,0.0231,5.08E-02
740.6,856.3,0.0231,4.96E-02
741.0,857.0,0.0231,4.78E-02
741.4,857.8,0.0231,4.65E-02
741.8,858.6,0.0231,4.48E-02
742.2,859.3,0.0231,3.96E-02
742.6,860.1,0.0231,4.21E-02
743.0,860.8,0.0232,4.26E-02
743.4,861.6,0.0228,4.11E-02
743.8,862.4,0.0228,4.07E-02
744.2,863.1,0.0228,4.17E-02
744.6,863.9,0.0228,3.98E-02
745.0,864.7,0.0228,4.18E-02
745.4,865.4,0.0228,4.24E-02
745.8,866.2,0.0226,4.24E-02
746.2,867.0,0.0225,4.26E-02
746.6,867.7,0.0225,4.39E-02
747.0,868.5,0.0225,4.76E-02
747.4,869.3,0.0225,4.72E-02
747.8,870.0,0.0225,4.67E-02
748.2,870.8,0.0225,5.20E-02
748.6,871.6,0.0225,5.29E-02
749.0,872.3,0.0225,5.82E-02
749.4,873.1,0.0225,5.75E-02
749.8,873.8,0.0225,6.09E-02
750.2,874.6,0.0225,6.56E-02
750.6,875.4,0.0225,6.55E-02
751.0,876.1,0.0225,7.17E-02
751.4,876.9,0.0225,7.23E-02
751.8,877.7,0.0224,7.32E-02
752.2,878.4,0.0224,7.97E-02
752.6,879.2,0.0214,8.03E-02
753.0,880.0,0.0215,8.67E-02
753.4,880.7,0.0215,8.80E-02
753.8,881.5,0.0215,8.88E-02
754.2,882.3,0.0215,8.95E-02
754.6,883.0,0.0214,9.14E-02
755.0,883.8,0.0221,9.75E-02
755.4,884.6,0.0228,9.72E-02
755.8,885.3,0.0228,9.86E-02
756.2,886.1,0.0228,0.10267
756.6,886.9,0.0228,0.10344
757.0,887.6,0.0228,0.10769
757.4,888.4,0.0228,0.10511
757.8,889.2,0.0228,0.11137
758.2,889.9,0.0228,0.11197
758.6,890.7,0.0228,0.11388
759.0,891.5,0.0227,0.11511
759.4,892.2,0.0238,0.11743
759.8,893.0,0.0238,0.1203
760.2,893.8,0.0238,0.1197
760.6,894.5,0.0238,0.12313
761.0,895.3,0.0238,0.12384
761.4,896.1,0.0238,0.12625
761.8,896.8,0.0238,0.13029
762.2,897.6,0.0238,0.12686
762.6,898.4,0.0238,0.13287
763.0,899.1,0.0238,0.13542
763.4,899.9,0.0238,0.13587
763.8,900.7,0.0238,0.13733
764.2,901.4,0.0238,0.13755
764.6,902.2,0.0238,0.13888
765.0,903.0,0.0238,0.14219
765.4,903.8,0.0238,0.14337
765.8,904.5,0.0238,0.14502
766.2,905.3,0.0238,0.14567
766.6,906.1,0.0238,0.14567
767.0,906.8,0.0238,0.14834
767.4,907.6,0.0238,0.15012
767.8,908.4,0.0238,0.15156
768.2,909.1,0.0236,0.15117
768.6,909.9,0.0225,0.15192
769.0,910.7,0.0225,0.15413
769.4,911.4,0.0225,0.15559
769.8,912.2,0.0225,0.15585
770.2,913.0,0.0225,0.15668
770.6,913.8,0.0225,0.15875
771.0,914.5,0.0225,0.15673
771.4,915.3,0.0225,0.1578
771.8,916.1,0.0225,0.16042
772.2,916.8,0.0225,0.16058
772.6,917.6,0.0225,0.1634
773.0,918.4,0.0225,0.16458
773.4,919.1,0.0225,0.16436
773.8,919.9,0.0225,0.16632
774.2,920.7,0.0225,0.16734
774.6,921.5,0.0225,0.16887
775.0,922.2,0.0225,0.16898
775.4,923.0,0.0224,0.16928
775.8,923.8,0.0215,0.16867
776.2,924.5,0.0211,0.16702
776.6,925.3,0.0212,0.17148
777.0,926.1,0.0211,0.17222
777.4,926.9,0.0203,0.17257
777.8,927.6,0.0202,0.17496
778.2,928.4,0.0211,0.17289
778.6,929.2,0.0217,0.17494
779.0,929.9,0.0216,0.17703
779.4,930.7,0.0224,0.17676
779.8,931.5,0.0230,0.17511
780.2,932.3,0.0229,0.17491
780.6,933.0,0.0229,0.17577
781.0,933.8,0.0229,0.17764
781.4,934.6,0.0229,0.18026
781.8,935.3,0.0229,0.17785
782.2,936.1,0.0229,0.17938
782.6,936.9,0.0229,0.18098
783.0,937.7,0.0229,0.18149
783.4,938.4,0.0229,0.18177
783.8,939.2,0.0229,0.18251
784.2,940.0,0.0239,0.18241
784.6,940.7,0.0240,0.18229
785.0,941.5,0.0228,0.18365
785.4,942.3,0.0229,0.18377
785.8,943.1,0.0229,0.18417
786.2,943.8,0.0229,0.18562
786.6,944.6,0.0229,0.18408
787.0,945.4,0.0229,0.1847
787.4,946.1,0.0227,0.18615
787.8,946.9,0.0215,0.18751
788.2,947.7,0.0216,0.18609
788.6,948.4,0.0216,0.18534
789.0,949.2,0.0216,0.18429
789.4,950.0,0.0216,0.18468
789.8,950.8,0.0216,0.18507
790.2,951.6,0.0216,0.18474
790.6,952.3,0.0216,0.18617
791.0,953.1,0.0216,0.18575
791.4,953.9,0.0216,0.18394
791.8,954.7,0.0216,0.18548
792.2,955.4,0.0216,0.18344
792.6,956.2,0.0216,0.18643
793.0,957.0,0.0216,0.1868
793.4,957.7,0.0216,0.18524
793.8,958.5,0.0216,0.18856
794.2,959.3,0.0216,0.18779
794.6,960.1,0.0212,0.18765
795.0,960.8,0.0202,0.18617
795.4,961.6,0.0203,0.18827
795.8,962.4,0.0203,0.18807
796.2,963.2,0.0215,0.18872
796.6,963.9,0.0216,0.18636
797.0,964.7,0.0218,0.19063
797.4,965.5,0.0230,0.18703
797.8,966.3,0.0229,0.18958
798.2,967.0,0.0229,0.19061
798.6,967.8,0.0229,0.19153
799.0,968.6,0.0228,0.19109
799.4,969.3,0.0218,0.18955
799.8,970.1,0.0216,0.19356
800.2,970.9,0.0216,0.19368
800.6,971.6,0.0220,0.19252
801.0,972.4,0.0226,0.19459
801.4,973.2,0.0226,0.19243
801.8,974.0,0.0226,0.19051
802.2,974.7,0.0226,0.19297
802.6,975.5,0.0226,0.19436
803.0,976.3,0.0226,0.19349
803.4,977.1,0.0226,0.19552
803.8,977.9,0.0226,0.1963
804.2,978.6,0.0219,0.19464
804.6,979.4,0.0212,0.19517
805.0,980.2,0.0213,0.19596
805.4,981.0,0.0213,0.19657
805.8,981.7,0.0213,0.19558
806.2,982.5,0.0213,0.19459
806.6,983.3,0.0213,0.19766
807.0,984.1,0.0217,0.19925
807.4,984.8,0.0227,0.19754
807.8,985.6,0.0226,0.19837
808.2,986.4,0.0226,0.19838
808.6,987.2,0.0226,0.19855
809.0,987.9,0.0226,0.20101
809.4,988.7,0.0226,0.2013
809.8,989.5,0.0226,0.20289
810.2,990.3,0.0226,0.20085
810.6,991.0,0.0226,0.20194
811.0,991.8,0.0226,0.20747
811.4,992.6,0.0226,0.20655
811.8,993.4,0.0226,0.20556
812.2,994.1,0.0226,0.20354
812.6,994.9,0.0226,0.20585
813.0,995.7,0.0225,0.20614
813.4,996.5,0.0214,0.20854
813.8,997.3,0.0213,0.20672
814.2,998.0,0.0213,0.20751
814.6,998.9,0.0213,0.20723
273.2,-600.6,0.0000,
273.2,-600.6,0.0000,
273.2,-600.6,0.0000,
273.2,-600.6,0.0000,
273.2,-600.6,0.0000,
273.2,-600.6,0.0000,
273.2,-600.6,0.0000,
273.2,-600.6,0.0000,
273.2,-600.6,0.0000,
273.2,-600.6,0.0000,
273.2,-600.6,0.0000,
273.2,-600.6,0.0000,
273.2,-600.6,0.0000,
273.2,-600.6,0.0000,
273.2,-600.6,0.0000,
273.2,-600.6,0.0000,
273.2,-600.6,0.0000,