File: PMMA/Calibration_Data/FSRI/FSRI_STA_N2_20K_2.csv
Temp,time,TGA,DSC,Sensitivity,Heating Rate,Heat Capacity
[K],[s],[mg],[uV/mg],[mW/uV],[K/s],[J/g/K]
321.9,0.0,3.9505,9.63E-04,2.36,0.005,0.46
322.4,33.2,3.9499,3.53E-02,2.13,0.050,1.51
322.9,40.9,3.9471,6.75E-02,1.83,0.079,1.58
323.4,46.5,3.9502,9.15E-02,1.68,0.101,1.52
323.9,51.0,3.9490,0.11767,1.57,0.122,1.51
324.4,55.0,3.9482,0.1401,1.49,0.131,1.59
324.9,58.6,3.9480,0.15947,1.41,0.147,1.53
325.4,61.8,3.9478,0.17696,1.37,0.162,1.50
325.9,64.9,3.9488,0.19501,1.33,0.170,1.53
326.4,67.7,3.9498,0.21329,1.29,0.180,1.53
326.9,70.4,3.9501,0.22747,1.26,0.190,1.51
327.4,73.0,3.9490,0.24299,1.22,0.197,1.51
327.9,75.5,3.9491,0.25609,1.21,0.206,1.50
328.4,77.9,3.9488,0.26981,1.21,0.214,1.53
328.9,80.2,3.9486,0.28179,1.18,0.225,1.48
329.4,82.4,3.9480,0.29429,1.15,0.226,1.50
329.9,84.6,3.9478,0.30862,1.13,0.233,1.50
330.4,86.7,3.9469,0.31537,1.12,0.233,1.51
330.9,88.8,3.9472,0.32909,1.12,0.242,1.52
331.4,90.9,3.9478,0.33812,1.13,0.245,1.57
331.9,92.9,3.9481,0.34884,1.09,0.253,1.51
332.4,94.8,3.9473,0.3563,1.08,0.254,1.52
332.9,96.8,3.9483,0.36443,1.06,0.260,1.48
333.4,98.7,3.9483,0.37323,1.06,0.264,1.50
333.9,100.6,3.9484,0.37833,1.06,0.269,1.49
334.4,102.4,3.9482,0.3872,1.05,0.270,1.51
334.9,104.3,3.9480,0.39129,1.04,0.273,1.50
335.4,106.1,3.9481,0.40103,1.04,0.276,1.51
335.9,107.9,3.9480,0.40741,1.03,0.281,1.50
336.4,109.7,3.9480,0.41186,1.02,0.283,1.49
336.9,111.5,3.9478,0.42129,1.01,0.282,1.51
337.4,113.2,3.9474,0.42557,1.00,0.284,1.51
337.9,115.0,3.9480,0.43025,1.01,0.288,1.50
338.4,116.7,3.9481,0.43361,1.00,0.288,1.51
338.9,118.5,3.9482,0.44037,1.01,0.289,1.53
339.4,120.2,3.9491,0.44712,1.00,0.293,1.53
339.9,121.9,3.9492,0.45104,0.99,0.293,1.52
340.4,123.6,3.9490,0.45677,0.98,0.296,1.52
340.9,125.3,3.9485,0.46172,0.98,0.296,1.53
341.4,127.0,3.9478,0.46404,0.98,0.298,1.52
341.9,128.6,3.9473,0.47031,0.97,0.299,1.53
342.4,130.3,3.9474,0.47321,0.97,0.301,1.52
342.9,132.0,3.9482,0.47887,0.97,0.304,1.52
343.4,133.6,3.9475,0.48135,0.96,0.304,1.52
343.9,135.3,3.9476,0.48744,0.96,0.305,1.53
344.4,136.9,3.9479,0.49154,0.95,0.306,1.53
344.9,138.5,3.9473,0.49353,0.95,0.303,1.55
345.4,140.2,3.9475,0.49748,0.96,0.306,1.56
345.9,141.8,3.9463,0.50169,0.95,0.305,1.56
346.4,143.5,3.9475,0.50366,0.96,0.304,1.59
346.9,145.1,3.9479,0.50984,0.97,0.310,1.60
347.4,146.7,3.9476,0.51141,0.95,0.309,1.57
347.9,148.3,3.9488,0.51412,0.94,0.309,1.56
348.4,149.9,3.9475,0.51801,0.93,0.310,1.55
348.9,151.5,3.9480,0.51955,0.92,0.310,1.54
349.4,153.2,3.9474,0.52419,0.93,0.311,1.57
349.9,154.8,3.9472,0.52696,0.94,0.310,1.60
350.4,156.4,3.9473,0.53138,0.94,0.313,1.59
350.9,158.0,3.9468,0.53482,0.93,0.313,1.59
351.4,159.6,3.9474,0.53642,0.93,0.312,1.60
351.9,161.2,3.9477,0.54084,0.93,0.313,1.61
352.4,162.8,3.9474,0.54217,0.92,0.313,1.60
352.9,164.4,3.9483,0.54565,0.93,0.314,1.61
353.4,166.0,3.9474,0.54819,0.92,0.317,1.60
353.9,167.5,3.9479,0.54963,0.92,0.313,1.62
354.4,169.1,3.9487,0.55063,0.93,0.315,1.62
354.9,170.7,3.9487,0.55303,0.92,0.315,1.62
355.4,172.3,3.9485,0.55227,0.91,0.314,1.61
355.9,173.9,3.9473,0.55186,0.92,0.318,1.59
356.4,175.5,3.9472,0.55397,0.92,0.318,1.60
356.9,177.0,3.9473,0.5542,0.92,0.318,1.60
357.4,178.6,3.9473,0.55379,0.92,0.317,1.60
357.9,180.2,3.9460,0.5521,0.92,0.317,1.60
358.4,181.8,3.9473,0.55352,0.92,0.318,1.60
358.9,183.3,3.9473,0.55432,0.92,0.319,1.59
359.4,184.9,3.9459,0.55244,0.92,0.317,1.60
359.9,186.5,3.9473,0.5538,0.92,0.319,1.60
360.4,188.0,3.9473,0.55084,0.92,0.322,1.57
360.9,189.6,3.9460,0.55118,0.91,0.321,1.57
361.4,191.1,3.9471,0.55029,0.92,0.325,1.56
361.9,192.7,3.9459,0.54832,0.92,0.321,1.56
362.4,194.2,3.9471,0.54735,0.92,0.322,1.56
362.9,195.8,3.9473,0.54951,0.92,0.323,1.57
363.4,197.3,3.9467,0.54783,0.92,0.323,1.56
363.9,198.9,3.9459,0.54869,0.91,0.323,1.55
364.4,200.4,3.9473,0.54762,0.91,0.323,1.55
364.9,202.0,3.9473,0.5487,0.92,0.325,1.56
365.4,203.5,3.9468,0.54859,0.91,0.324,1.55
365.9,205.1,3.9473,0.5499,0.92,0.326,1.55
366.4,206.6,3.9473,0.55079,0.92,0.328,1.54
366.9,208.1,3.9473,0.55105,0.91,0.325,1.55
367.4,209.6,3.9472,0.55132,0.91,0.327,1.54
367.9,211.2,3.9479,0.55546,0.92,0.327,1.56
368.4,212.7,3.9473,0.55411,0.92,0.326,1.56
368.9,214.2,3.9473,0.55521,0.91,0.328,1.55
369.4,215.8,3.9476,0.5561,0.91,0.328,1.55
369.9,217.3,3.9473,0.55805,0.91,0.326,1.55
370.4,218.8,3.9472,0.55637,0.90,0.327,1.54
370.9,220.4,3.9486,0.55896,0.90,0.328,1.54
371.4,221.9,3.9487,0.5628,0.91,0.329,1.56
371.9,223.4,3.9473,0.56278,0.91,0.330,1.56
372.4,224.9,3.9473,0.56533,0.91,0.329,1.56
372.9,226.4,3.9471,0.5662,0.91,0.335,1.53
373.4,227.9,3.9472,0.56868,0.91,0.331,1.56
373.9,229.4,3.9471,0.56945,0.91,0.327,1.58
374.4,231.0,3.9459,0.57112,0.91,0.330,1.58
374.9,232.5,3.9474,0.57382,0.91,0.330,1.58
375.4,234.0,3.9473,0.57644,0.90,0.336,1.55
375.9,235.5,3.9473,0.57789,0.91,0.331,1.58
376.4,237.0,3.9473,0.57763,0.91,0.330,1.59
376.9,238.5,3.9473,0.58035,0.91,0.331,1.59
377.4,240.0,3.9473,0.58178,0.90,0.331,1.59
377.9,241.5,3.9476,0.58429,0.90,0.333,1.58
378.4,243.1,3.9486,0.58757,0.91,0.333,1.60
378.9,244.6,3.9473,0.59041,0.90,0.333,1.60
379.4,246.1,3.9473,0.59,0.90,0.333,1.60
379.9,247.6,3.9472,0.5942,0.90,0.333,1.61
380.4,249.1,3.9472,0.5947,0.90,0.331,1.61
380.9,250.6,3.9473,0.59678,0.90,0.334,1.61
381.4,252.1,3.9469,0.59918,0.90,0.334,1.61
381.9,253.6,3.9460,0.60106,0.90,0.333,1.62
382.4,255.1,3.9459,0.60329,0.90,0.336,1.62
382.9,256.5,3.9459,0.60429,0.90,0.332,1.64
383.4,258.1,3.9455,0.60818,0.90,0.334,1.64
383.9,259.6,3.9447,0.61095,0.89,0.334,1.63
384.4,261.0,3.9446,0.61443,0.90,0.335,1.65
384.9,262.5,3.9445,0.61225,0.90,0.335,1.64
385.4,264.0,3.9460,0.61649,0.89,0.335,1.65
385.9,265.5,3.9457,0.62128,0.90,0.336,1.66
386.4,267.0,3.9456,0.62286,0.90,0.335,1.67
386.9,268.5,3.9460,0.62446,0.90,0.336,1.67
387.4,270.0,3.9460,0.62918,0.89,0.337,1.66
387.9,271.5,3.9459,0.62981,0.89,0.336,1.67
388.4,272.9,3.9454,0.63373,0.89,0.340,1.66
388.9,274.4,3.9447,0.63689,0.90,0.338,1.69
389.4,275.9,3.9456,0.63952,0.90,0.339,1.70
389.9,277.4,3.9456,0.64315,0.90,0.337,1.72
390.4,278.9,3.9459,0.64879,0.89,0.330,1.75
390.9,280.4,3.9460,0.65055,0.90,0.335,1.74
391.4,281.8,3.9459,0.65336,0.89,0.338,1.72
391.9,283.3,3.9456,0.65805,0.89,0.337,1.74
392.4,284.8,3.9463,0.66041,0.89,0.338,1.74
392.9,286.3,3.9459,0.6652,0.89,0.339,1.75
393.4,287.8,3.9459,0.66748,0.89,0.336,1.76
393.9,289.2,3.9459,0.67275,0.90,0.339,1.78
394.4,290.7,3.9455,0.67639,0.88,0.344,1.74
394.9,292.2,3.9446,0.68123,0.89,0.338,1.80
395.4,293.6,3.9459,0.6875,0.88,0.337,1.80
395.9,295.1,3.9459,0.69077,0.89,0.337,1.83
396.4,296.6,3.9459,0.69553,0.89,0.334,1.84
396.9,298.1,3.9459,0.70109,0.89,0.340,1.83
397.4,299.5,3.9459,0.70415,0.89,0.346,1.82
397.9,301.0,3.9459,0.71021,0.89,0.344,1.84
398.4,302.4,3.9459,0.71433,0.89,0.340,1.88
398.9,303.9,3.9460,0.71766,0.89,0.340,1.88
399.4,305.4,3.9460,0.72256,0.89,0.335,1.91
399.9,306.9,3.9447,0.72569,0.89,0.344,1.87
400.4,308.3,3.9460,0.72907,0.89,0.340,1.91
400.9,309.8,3.9459,0.73352,0.89,0.345,1.89
401.4,311.2,3.9459,0.73556,0.89,0.342,1.92
401.9,312.7,3.9449,0.73839,0.90,0.343,1.93
402.4,314.2,3.9446,0.74191,0.89,0.342,1.93
402.9,315.6,3.9433,0.74502,0.89,0.339,1.96
403.4,317.1,3.9433,0.74863,0.89,0.344,1.93
403.9,318.6,3.9433,0.74999,0.88,0.343,1.93
404.4,320.0,3.9445,0.7531,0.89,0.342,1.97
404.9,321.5,3.9446,0.75459,0.88,0.345,1.94
405.4,322.9,3.9446,0.75821,0.90,0.345,1.97
405.9,324.4,3.9440,0.76175,0.90,0.342,1.99
406.4,325.8,3.9447,0.76297,0.89,0.344,1.98
406.9,327.3,3.9446,0.76605,0.89,0.345,1.98
407.4,328.7,3.9446,0.76524,0.89,0.345,1.98
407.9,330.2,3.9444,0.76778,0.89,0.342,2.01
408.4,331.6,3.9433,0.76802,0.89,0.344,1.98
408.9,333.1,3.9433,0.77318,0.88,0.345,1.98
409.4,334.5,3.9433,0.77287,0.89,0.348,1.98
409.9,336.0,3.9433,0.77415,0.89,0.346,2.00
410.4,337.4,3.9433,0.77351,0.89,0.346,1.99
410.9,338.9,3.9433,0.77732,0.89,0.345,2.01
411.4,340.3,3.9433,0.77788,0.89,0.345,2.00
411.9,341.8,3.9436,0.77901,0.89,0.347,2.01
412.4,343.2,3.9443,0.78105,0.89,0.346,2.01
412.9,344.6,3.9433,0.7828,0.89,0.347,2.01
413.4,346.1,3.9433,0.78353,0.89,0.346,2.02
413.9,347.5,3.9433,0.78857,0.89,0.345,2.03
414.4,349.0,3.9433,0.78442,0.89,0.346,2.01
414.9,350.4,3.9433,0.78608,0.89,0.347,2.03
415.4,351.8,3.9418,0.78884,0.89,0.349,2.01
415.9,353.3,3.9418,0.79017,0.89,0.350,2.01
416.4,354.7,3.9407,0.78961,0.89,0.350,2.01
416.9,356.1,3.9407,0.79211,0.89,0.349,2.02
417.4,357.6,3.9407,0.79466,0.89,0.349,2.02
417.9,359.0,3.9407,0.79545,0.89,0.347,2.05
418.4,360.4,3.9408,0.79537,0.89,0.347,2.04
418.9,361.9,3.9397,0.79643,0.89,0.349,2.03
419.4,363.3,3.9397,0.79976,0.90,0.349,2.07
419.9,364.7,3.9403,0.79984,0.89,0.348,2.05
420.4,366.2,3.9404,0.80127,0.89,0.348,2.05
420.9,367.6,3.9404,0.80245,0.89,0.350,2.04
421.4,369.0,3.9403,0.80321,0.89,0.352,2.02
421.9,370.4,3.9403,0.80715,0.88,0.350,2.04
422.4,371.8,3.9407,0.80965,0.89,0.353,2.04
422.9,373.3,3.9407,0.80997,0.89,0.352,2.04
423.4,374.7,3.9407,0.81058,0.89,0.347,2.08
423.9,376.1,3.9407,0.81387,0.89,0.353,2.05
424.4,377.5,3.9404,0.81443,0.89,0.348,2.08
424.9,379.0,3.9380,0.81496,0.89,0.352,2.06
425.4,380.4,3.9381,0.81824,0.89,0.349,2.08
425.9,381.8,3.9381,0.82016,0.89,0.351,2.08
426.4,383.3,3.9381,0.82195,0.88,0.350,2.08
426.9,384.7,3.9381,0.82135,0.89,0.350,2.09
427.4,386.1,3.9381,0.82411,0.89,0.352,2.08
427.9,387.5,3.9381,0.82293,0.89,0.353,2.08
428.4,389.0,3.9381,0.82615,0.89,0.351,2.10
428.9,390.4,3.9381,0.82769,0.89,0.356,2.07
429.4,391.8,3.9381,0.82864,0.88,0.354,2.07
429.9,393.2,3.9366,0.82989,0.89,0.352,2.10
430.4,394.6,3.9367,0.83356,0.88,0.353,2.08
430.9,396.0,3.9367,0.8308,0.89,0.354,2.09
431.4,397.5,3.9367,0.83292,0.89,0.349,2.11
431.9,398.9,3.9368,0.83423,0.88,0.355,2.08
432.4,400.3,3.9357,0.83683,0.89,0.351,2.12
432.9,401.7,3.9357,0.84038,0.89,0.355,2.10
433.4,403.1,3.9355,0.83944,0.89,0.351,2.12
433.9,404.6,3.9341,0.84354,0.89,0.349,2.15
434.4,406.0,3.9341,0.84408,0.89,0.352,2.13
434.9,407.4,3.9341,0.8462,0.89,0.351,2.15
435.4,408.8,3.9341,0.84776,0.88,0.351,2.13
435.9,410.3,3.9349,0.85174,0.89,0.353,2.14
436.4,411.7,3.9351,0.85261,0.89,0.355,2.13
436.9,413.1,3.9351,0.85507,0.88,0.352,2.15
437.4,414.5,3.9351,0.85849,0.88,0.353,2.14
437.9,415.9,3.9337,0.86001,0.88,0.352,2.16
438.4,417.4,3.9338,0.86212,0.88,0.351,2.16
438.9,418.8,3.9338,0.86559,0.88,0.352,2.16
439.4,420.2,3.9335,0.86831,0.89,0.354,2.17
439.9,421.6,3.9325,0.86998,0.89,0.352,2.19
440.4,423.0,3.9325,0.87323,0.89,0.354,2.19
440.9,424.4,3.9325,0.87495,0.89,0.354,2.19
441.4,425.9,3.9324,0.87736,0.88,0.353,2.19
441.9,427.3,3.9314,0.8816,0.89,0.352,2.22
442.4,428.7,3.9312,0.88345,0.88,0.354,2.20
442.9,430.1,3.9298,0.88739,0.89,0.355,2.22
443.4,431.5,3.9298,0.88889,0.89,0.353,2.23
443.9,432.9,3.9298,0.89388,0.89,0.353,2.25
444.4,434.4,3.9298,0.89735,0.88,0.353,2.25
444.9,435.8,3.9289,0.90147,0.89,0.352,2.27
445.4,437.2,3.9285,0.90478,0.88,0.355,2.25
445.9,438.6,3.9272,0.90763,0.89,0.353,2.27
446.4,440.0,3.9272,0.91235,0.88,0.354,2.27
446.9,441.4,3.9272,0.9171,0.88,0.355,2.28
447.4,442.8,3.9259,0.91884,0.88,0.355,2.29
447.9,444.2,3.9249,0.92234,0.88,0.359,2.26
448.4,445.6,3.9246,0.92504,0.88,0.352,2.32
448.9,447.0,3.9245,0.92986,0.89,0.352,2.34
449.4,448.5,3.9232,0.93511,0.88,0.353,2.34
449.9,449.9,3.9232,0.93769,0.89,0.354,2.36
450.4,451.3,3.9231,0.94223,0.89,0.351,2.38
450.9,452.7,3.9216,0.94286,0.89,0.354,2.36
451.4,454.1,3.9206,0.95046,0.88,0.355,2.36
451.9,455.5,3.9205,0.9528,0.88,0.356,2.37
452.4,456.9,3.9193,0.95454,0.88,0.355,2.36
452.9,458.3,3.9193,0.96099,0.89,0.353,2.41
453.4,459.7,3.9193,0.96352,0.89,0.356,2.41
453.9,461.2,3.9194,0.9665,0.89,0.355,2.42
454.4,462.6,3.9180,0.972,0.89,0.355,2.43
454.9,464.0,3.9179,0.97555,0.89,0.355,2.45
455.4,465.4,3.9166,0.97892,0.89,0.355,2.45
455.9,466.8,3.9153,0.9804,0.89,0.356,2.45
456.4,468.2,3.9151,0.98366,0.88,0.356,2.45
456.9,469.6,3.9139,0.98556,0.89,0.357,2.44
457.4,471.0,3.9139,0.9895,0.88,0.358,2.44
457.9,472.4,3.9133,0.99281,0.88,0.355,2.47
458.4,473.8,3.9127,0.9946,0.88,0.357,2.45
458.9,475.2,3.9112,1.00049,0.89,0.357,2.49
459.4,476.6,3.9087,1.00368,0.89,0.356,2.50
459.9,478.0,3.9085,1.00377,0.89,0.354,2.51
460.4,479.4,3.9082,1.00591,0.89,0.358,2.49
460.9,480.8,3.9073,1.00646,0.89,0.358,2.50
461.4,482.2,3.9062,1.00781,0.89,0.355,2.52
461.9,483.6,3.9059,1.00976,0.89,0.358,2.51
462.4,485.0,3.9046,1.01261,0.89,0.358,2.51
462.9,486.4,3.9034,1.01368,0.89,0.357,2.53
463.4,487.8,3.9028,1.0137,0.89,0.355,2.54
463.9,489.2,3.9018,1.01518,0.89,0.356,2.54
464.4,490.6,3.9006,1.01448,0.90,0.355,2.57
464.9,492.0,3.9000,1.0158,0.89,0.357,2.53
465.4,493.4,3.8991,1.01608,0.89,0.356,2.53
465.9,494.8,3.8975,1.01603,0.88,0.356,2.52
466.4,496.2,3.8964,1.01594,0.88,0.355,2.53
466.9,497.7,3.8944,1.0183,0.88,0.356,2.52
467.4,499.1,3.8933,1.01838,0.89,0.355,2.54
467.9,500.4,3.8929,1.01759,0.89,0.360,2.52
468.4,501.9,3.8920,1.01955,0.89,0.358,2.54
468.9,503.3,3.8912,1.01961,0.89,0.357,2.53
469.4,504.7,3.8907,1.01617,0.89,0.359,2.52
469.9,506.0,3.8892,1.01669,0.89,0.359,2.52
470.4,507.5,3.8873,1.01527,0.89,0.358,2.52
470.9,508.8,3.8860,1.01478,0.89,0.357,2.54
471.4,510.3,3.8846,1.01505,0.89,0.357,2.55
471.9,511.7,3.8832,1.01405,0.89,0.357,2.53
472.4,513.1,3.8831,1.01115,0.89,0.357,2.52
472.9,514.5,3.8817,1.01063,0.89,0.357,2.53
473.4,515.9,3.8819,1.00749,0.89,0.357,2.52
473.9,517.3,3.8802,1.0067,0.89,0.357,2.51
474.4,518.7,3.8800,1.00422,0.89,0.357,2.51
474.9,520.1,3.8798,1.00296,0.89,0.359,2.49
475.4,521.4,3.8785,1.00241,0.89,0.356,2.51
475.9,522.8,3.8783,0.99956,0.89,0.358,2.48
476.4,524.2,3.8759,0.99823,0.89,0.357,2.50
476.9,525.7,3.8742,0.99595,0.89,0.359,2.47
477.4,527.1,3.8743,0.99675,0.89,0.358,2.49
477.9,528.5,3.8729,0.99259,0.89,0.359,2.46
478.4,529.8,3.8722,0.99257,0.89,0.357,2.48
478.9,531.2,3.8715,0.99212,0.89,0.362,2.44
479.4,532.6,3.8701,0.9904,0.89,0.357,2.48
479.9,534.0,3.8691,0.98833,0.89,0.356,2.48
480.4,535.4,3.8679,0.98866,0.89,0.358,2.47
480.9,536.8,3.8665,0.98697,0.89,0.360,2.44
481.4,538.2,3.8657,0.98631,0.89,0.358,2.45
481.9,539.6,3.8651,0.98566,0.89,0.357,2.46
482.4,541.0,3.8643,0.98512,0.89,0.359,2.45
482.9,542.4,3.8635,0.9841,0.89,0.358,2.45
483.4,543.8,3.8627,0.98477,0.89,0.358,2.46
483.9,545.2,3.8620,0.98452,0.90,0.358,2.46
484.4,546.6,3.8602,0.98605,0.89,0.358,2.46
484.9,548.0,3.8596,0.98594,0.89,0.358,2.45
485.4,549.4,3.8584,0.98788,0.90,0.357,2.49
485.9,550.8,3.8582,0.98757,0.90,0.358,2.49
486.4,552.2,3.8570,0.98893,0.90,0.356,2.49
486.9,553.6,3.8570,0.98923,0.89,0.359,2.46
487.4,555.0,3.8555,0.99028,0.89,0.362,2.44
487.9,556.4,3.8541,0.99235,0.88,0.358,2.45
488.4,557.8,3.8533,0.99436,0.89,0.358,2.47
488.9,559.2,3.8525,0.99599,0.89,0.358,2.48
489.4,560.6,3.8513,0.99505,0.90,0.359,2.48
489.9,562.0,3.8510,0.9987,0.89,0.354,2.52
490.4,563.4,3.8496,0.99679,0.89,0.359,2.46
490.9,564.8,3.8494,1.00021,0.89,0.360,2.48
491.4,566.2,3.8483,0.99972,0.90,0.357,2.51
491.9,567.6,3.8483,1.00242,0.89,0.358,2.50
492.4,569.0,3.8469,1.00313,0.90,0.357,2.52
492.9,570.4,3.8469,1.00314,0.89,0.358,2.50
493.4,571.8,3.8456,1.00531,0.90,0.357,2.52
493.9,573.2,3.8444,1.00505,0.89,0.359,2.49
494.4,574.6,3.8439,1.0048,0.90,0.360,2.51
494.9,575.9,3.8423,1.00447,0.90,0.359,2.51
495.4,577.3,3.8408,1.00597,0.89,0.358,2.51
495.9,578.7,3.8391,1.00591,0.89,0.358,2.50
496.4,580.1,3.8393,1.00376,0.90,0.357,2.52
496.9,581.5,3.8369,1.00436,0.89,0.356,2.50
497.4,582.9,3.8367,1.00384,0.89,0.358,2.50
497.9,584.3,3.8366,1.00135,0.90,0.358,2.51
498.4,585.7,3.8352,1.00171,0.90,0.357,2.52
498.9,587.1,3.8352,0.99879,0.89,0.356,2.51
499.4,588.5,3.8338,0.99779,0.90,0.357,2.51
499.9,589.9,3.8338,0.99775,0.90,0.356,2.51
500.4,591.3,3.8324,0.99487,0.90,0.358,2.50
500.9,592.7,3.8312,0.99178,0.89,0.358,2.47
501.4,594.1,3.8311,0.98645,0.90,0.358,2.47
501.9,595.5,3.8306,0.98561,0.90,0.359,2.46
502.4,596.9,3.8298,0.982,0.90,0.358,2.46
502.9,598.3,3.8293,0.97979,0.89,0.357,2.46
503.4,599.7,3.8285,0.97669,0.90,0.357,2.45
503.9,601.1,3.8283,0.97381,0.89,0.357,2.44
504.4,602.5,3.8272,0.96645,0.89,0.358,2.42
504.9,603.9,3.8270,0.96588,0.89,0.357,2.42
505.4,605.3,3.8251,0.9617,0.89,0.359,2.40
505.9,606.7,3.8252,0.9602,0.90,0.358,2.41
506.4,608.1,3.8249,0.95528,0.90,0.358,2.40
506.9,609.5,3.8239,0.95344,0.90,0.358,2.39
507.4,610.9,3.8239,0.95006,0.89,0.358,2.37
507.9,612.3,3.8235,0.94652,0.91,0.359,2.39
508.4,613.7,3.8232,0.94433,0.89,0.358,2.36
508.9,615.1,3.8224,0.94168,0.90,0.358,2.36
509.4,616.5,3.8219,0.94014,0.90,0.359,2.36
509.9,617.9,3.8219,0.9354,0.90,0.362,2.33
510.4,619.3,3.8219,0.93289,0.88,0.359,2.30
510.9,620.6,3.8219,0.93071,0.90,0.363,2.31
511.4,622.0,3.8219,0.93104,0.91,0.360,2.34
511.9,623.4,3.8219,0.92839,0.90,0.360,2.32
512.4,624.8,3.8219,0.92619,0.90,0.357,2.33
512.9,626.2,3.8219,0.92553,0.90,0.359,2.33
513.4,627.6,3.8219,0.92264,0.90,0.357,2.33
513.9,629.0,3.8206,0.92326,0.90,0.356,2.33
514.4,630.4,3.8206,0.92211,0.90,0.359,2.32
514.9,631.8,3.8206,0.92034,0.90,0.359,2.30
515.4,633.2,3.8206,0.92001,0.90,0.358,2.31
515.9,634.6,3.8192,0.91994,0.90,0.358,2.31
516.4,636.0,3.8193,0.91727,0.90,0.358,2.30
516.9,637.4,3.8183,0.91978,0.90,0.357,2.32
517.4,638.8,3.8183,0.91726,0.90,0.360,2.28
517.9,640.2,3.8183,0.91995,0.90,0.359,2.30
518.4,641.6,3.8183,0.91743,0.90,0.357,2.31
518.9,643.0,3.8183,0.91731,0.90,0.360,2.30
519.4,644.4,3.8183,0.91549,0.90,0.359,2.30
519.9,645.8,3.8183,0.91581,0.91,0.359,2.31
520.4,647.2,3.8184,0.91606,0.90,0.357,2.31
520.9,648.6,3.8173,0.91567,0.91,0.358,2.31
521.4,650.0,3.8172,0.91401,0.90,0.358,2.30
521.9,651.4,3.8170,0.91752,0.90,0.358,2.31
522.4,652.8,3.8170,0.91603,0.90,0.358,2.31
522.9,654.2,3.8170,0.91701,0.90,0.359,2.31
523.4,655.6,3.8158,0.91692,0.91,0.359,2.31
523.9,656.9,3.8156,0.91799,0.90,0.360,2.31
524.4,658.3,3.8156,0.91757,0.91,0.357,2.34
524.9,659.7,3.8156,0.91726,0.91,0.357,2.34
525.4,661.1,3.8156,0.91704,0.91,0.358,2.32
525.9,662.5,3.8156,0.91775,0.90,0.357,2.31
526.4,663.9,3.8156,0.91892,0.91,0.358,2.32
526.9,665.3,3.8156,0.919,0.91,0.358,2.33
527.4,666.7,3.8156,0.92266,0.91,0.358,2.33
527.9,668.1,3.8157,0.92127,0.91,0.360,2.32
528.4,669.5,3.8153,0.92355,0.91,0.360,2.33
528.9,670.9,3.8152,0.92348,0.91,0.359,2.34
529.4,672.3,3.8140,0.92362,0.91,0.360,2.34
529.9,673.7,3.8140,0.92578,0.91,0.360,2.34
530.4,675.1,3.8140,0.92407,0.91,0.363,2.32
530.9,676.4,3.8140,0.92796,0.91,0.358,2.35
531.4,677.8,3.8140,0.92679,0.91,0.357,2.37
531.9,679.2,3.8126,0.92878,0.91,0.358,2.35
532.4,680.6,3.8114,0.93049,0.91,0.357,2.36
532.9,682.0,3.8114,0.93113,0.91,0.353,2.39
533.4,683.4,3.8114,0.92846,0.91,0.358,2.36
533.9,684.8,3.8114,0.92926,0.91,0.359,2.36
534.4,686.2,3.8114,0.93245,0.92,0.359,2.39
534.9,687.6,3.8114,0.93253,0.92,0.360,2.37
535.4,689.0,3.8114,0.93383,0.91,0.359,2.38
535.9,690.4,3.8114,0.93438,0.91,0.360,2.37
536.4,691.8,3.8114,0.93634,0.91,0.359,2.38
536.9,693.2,3.8111,0.93649,0.91,0.359,2.38
537.4,694.6,3.8100,0.93835,0.91,0.358,2.39
537.9,696.0,3.8094,0.94036,0.91,0.359,2.38
538.4,697.4,3.8088,0.94045,0.91,0.357,2.41
538.9,698.8,3.8087,0.94355,0.92,0.358,2.41
539.4,700.2,3.8087,0.94171,0.91,0.357,2.40
539.9,701.6,3.8087,0.94579,0.91,0.357,2.42
540.4,703.0,3.8088,0.94792,0.92,0.356,2.45
540.9,704.4,3.8074,0.94638,0.92,0.356,2.44
541.4,705.8,3.8062,0.95147,0.91,0.357,2.43
541.9,707.2,3.8061,0.95096,0.92,0.358,2.43
542.4,708.6,3.8061,0.95298,0.92,0.360,2.43
542.9,710.0,3.8061,0.95485,0.91,0.360,2.42
543.4,711.3,3.8062,0.95389,0.92,0.358,2.44
543.9,712.7,3.8048,0.95768,0.92,0.356,2.48
544.4,714.1,3.8048,0.95742,0.92,0.357,2.47
544.9,715.5,3.8048,0.96004,0.92,0.357,2.46
545.4,716.9,3.8048,0.96217,0.92,0.357,2.47
545.9,718.3,3.8047,0.96409,0.92,0.357,2.49
546.4,719.7,3.8033,0.96523,0.92,0.358,2.47
546.9,721.1,3.8034,0.96823,0.91,0.360,2.46
547.4,722.5,3.8020,0.97143,0.92,0.357,2.50
547.9,723.9,3.8020,0.97156,0.92,0.357,2.51
548.4,725.3,3.8020,0.97191,0.91,0.357,2.49
548.9,726.7,3.8019,0.97329,0.92,0.359,2.50
549.4,728.1,3.8007,0.97602,0.92,0.358,2.52
549.9,729.5,3.8008,0.97959,0.92,0.358,2.52
550.4,730.9,3.7994,0.9806,0.92,0.356,2.53
550.9,732.3,3.7994,0.98389,0.92,0.359,2.52
551.4,733.7,3.7994,0.98437,0.92,0.357,2.53
551.9,735.1,3.7983,0.9886,0.92,0.358,2.54
552.4,736.5,3.7981,0.98946,0.92,0.356,2.57
552.9,737.9,3.7981,0.992,0.92,0.358,2.54
553.4,739.3,3.7967,0.99511,0.92,0.358,2.55
553.9,740.7,3.7969,0.99431,0.93,0.358,2.57
554.4,742.1,3.7955,0.99663,0.92,0.357,2.57
554.9,743.5,3.7955,1.00043,0.93,0.357,2.60
555.4,744.9,3.7944,1.00371,0.93,0.358,2.60
555.9,746.3,3.7932,1.00305,0.92,0.355,2.61
556.4,747.7,3.7928,1.00555,0.92,0.357,2.60
556.9,749.1,3.7914,1.00939,0.92,0.355,2.63
557.4,750.5,3.7910,1.01336,0.92,0.356,2.62
557.9,751.9,3.7900,1.01758,0.92,0.357,2.63
558.4,753.3,3.7887,1.0201,0.92,0.358,2.62
558.9,754.7,3.7883,1.02213,0.93,0.356,2.67
559.4,756.1,3.7863,1.02469,0.93,0.357,2.66
559.9,757.5,3.7859,1.02776,0.93,0.357,2.68
560.4,758.9,3.7851,1.02942,0.93,0.358,2.67
560.9,760.3,3.7835,1.03434,0.93,0.356,2.70
561.4,761.7,3.7826,1.03618,0.93,0.358,2.69
561.9,763.1,3.7819,1.04016,0.93,0.357,2.71
562.4,764.5,3.7805,1.04352,0.91,0.357,2.67
562.9,765.9,3.7798,1.04524,0.93,0.357,2.71
563.4,767.3,3.7785,1.04874,0.93,0.357,2.72
563.9,768.7,3.7786,1.05384,0.93,0.358,2.73
564.4,770.1,3.7770,1.05569,0.93,0.355,2.76
564.9,771.5,3.7753,1.05998,0.93,0.359,2.75
565.4,772.9,3.7739,1.06556,0.93,0.359,2.76
565.9,774.3,3.7734,1.07003,0.93,0.358,2.77
566.4,775.7,3.7724,1.07355,0.93,0.359,2.78
566.9,777.1,3.7707,1.07963,0.93,0.358,2.80
567.4,778.5,3.7693,1.08443,0.93,0.358,2.82
567.9,779.9,3.7676,1.09116,0.94,0.357,2.87
568.4,781.3,3.7664,1.09549,0.94,0.356,2.88
568.9,782.7,3.7655,1.10339,0.93,0.358,2.88
569.4,784.1,3.7645,1.10917,0.93,0.358,2.88
569.9,785.5,3.7629,1.11307,0.93,0.356,2.89
570.4,786.9,3.7612,1.11998,0.93,0.356,2.93
570.9,788.3,3.7598,1.12461,0.93,0.357,2.93
571.4,789.7,3.7585,1.12782,0.93,0.357,2.95
571.9,791.1,3.7572,1.13261,0.93,0.355,2.98
572.4,792.5,3.7555,1.13558,0.94,0.356,2.99
572.9,793.9,3.7539,1.13968,0.93,0.356,2.98
573.4,795.3,3.7526,1.14485,0.94,0.353,3.03
573.9,796.7,3.7504,1.14818,0.93,0.353,3.04
574.4,798.1,3.7485,1.14997,0.93,0.355,3.01
574.9,799.6,3.7470,1.15483,0.93,0.352,3.05
575.4,801.0,3.7456,1.15546,0.94,0.357,3.03
575.9,802.4,3.7448,1.15809,0.93,0.357,3.03
576.4,803.8,3.7431,1.16356,0.94,0.355,3.09
576.9,805.2,3.7414,1.16517,0.94,0.357,3.06
577.4,806.6,3.7397,1.1674,0.94,0.357,3.07
577.9,808.0,3.7374,1.17008,0.94,0.354,3.09
578.4,809.4,3.7350,1.17252,0.94,0.355,3.10
578.9,810.8,3.7332,1.17393,0.94,0.357,3.09
579.4,812.2,3.7315,1.17672,0.94,0.356,3.10
579.9,813.6,3.7296,1.17854,0.94,0.354,3.12
580.4,815.0,3.7277,1.1823,0.94,0.356,3.12
580.9,816.4,3.7263,1.18406,0.94,0.357,3.12
581.4,817.8,3.7243,1.18584,0.95,0.358,3.14
581.9,819.2,3.7213,1.18848,0.94,0.358,3.12
582.4,820.6,3.7192,1.19088,0.95,0.356,3.16
582.9,822.0,3.7172,1.19382,0.94,0.356,3.14
583.4,823.4,3.7150,1.19701,0.94,0.356,3.16
583.9,824.8,3.7128,1.20009,0.94,0.357,3.16
584.4,826.3,3.7106,1.20048,0.94,0.356,3.18
584.9,827.7,3.7093,1.20501,0.93,0.357,3.14
585.4,829.1,3.7075,1.20983,0.94,0.356,3.21
585.9,830.5,3.7057,1.21131,0.94,0.357,3.19
586.4,831.9,3.7033,1.2152,0.94,0.355,3.23
586.9,833.3,3.7009,1.21978,0.95,0.355,3.25
587.4,834.7,3.6991,1.2209,0.95,0.356,3.26
587.9,836.1,3.6966,1.22512,0.94,0.361,3.21
588.4,837.5,3.6941,1.22888,0.95,0.360,3.24
588.9,838.9,3.6915,1.23231,0.95,0.358,3.25
589.4,840.3,3.6895,1.23758,0.94,0.356,3.28
589.9,841.7,3.6874,1.24304,0.94,0.359,3.26
590.4,843.1,3.6848,1.24685,0.95,0.351,3.38
590.9,844.5,3.6825,1.25208,0.95,0.354,3.36
591.4,845.9,3.6800,1.25669,0.95,0.356,3.36
591.9,847.3,3.6761,1.26062,0.95,0.357,3.35
592.4,848.7,3.6737,1.27041,0.95,0.356,3.39
592.9,850.1,3.6714,1.27441,0.95,0.354,3.43
593.4,851.5,3.6685,1.28082,0.95,0.356,3.43
593.9,853.0,3.6652,1.28756,0.95,0.355,3.44
594.4,854.4,3.6625,1.29491,0.95,0.356,3.46
594.9,855.8,3.6596,1.30337,0.95,0.353,3.51
595.4,857.2,3.6567,1.31185,0.95,0.356,3.52
595.9,858.6,3.6537,1.3198,0.95,0.355,3.54
596.4,860.0,3.6509,1.33049,0.95,0.355,3.57
596.9,861.4,3.6474,1.3391,0.95,0.354,3.60
597.4,862.8,3.6440,1.34887,0.95,0.354,3.63
597.9,864.2,3.6402,1.35855,0.95,0.357,3.63
598.4,865.6,3.6363,1.36887,0.95,0.358,3.64
598.9,867.0,3.6317,1.38181,0.95,0.358,3.67
599.4,868.4,3.6279,1.39113,0.95,0.354,3.75
599.9,869.8,3.6245,1.40475,0.95,0.356,3.76
600.4,871.2,3.6203,1.41879,0.96,0.353,3.83
600.9,872.7,3.6172,1.43058,0.96,0.349,3.92
601.4,874.1,3.6130,1.44408,0.95,0.356,3.86
601.9,875.5,3.6096,1.45893,0.96,0.355,3.93
602.4,876.9,3.6047,1.4736,0.95,0.354,3.97
602.9,878.3,3.5998,1.49015,0.95,0.355,4.01
603.4,879.7,3.5948,1.50776,0.96,0.354,4.07
603.9,881.1,3.5905,1.52436,0.96,0.352,4.16
604.4,882.6,3.5858,1.54148,0.96,0.354,4.17
604.9,884.0,3.5804,1.56186,0.96,0.354,4.22
605.4,885.4,3.5746,1.58205,0.96,0.357,4.24
605.9,886.8,3.5686,1.60257,0.96,0.356,4.32
606.4,888.2,3.5624,1.62458,0.96,0.355,4.39
606.9,889.6,3.5577,1.64924,0.96,0.355,4.46
607.4,891.0,3.5516,1.6728,0.96,0.355,4.53
607.9,892.4,3.5446,1.69756,0.96,0.356,4.58
608.4,893.8,3.5383,1.72526,0.96,0.354,4.67
608.9,895.2,3.5313,1.75161,0.96,0.354,4.75
609.4,896.6,3.5251,1.77808,0.97,0.356,4.85
609.9,898.1,3.5175,1.80959,0.96,0.353,4.93
610.4,899.5,3.5104,1.83883,0.96,0.352,5.03
610.9,900.9,3.5024,1.86696,0.96,0.352,5.11
611.4,902.3,3.4940,1.90247,0.97,0.354,5.19
611.9,903.7,3.4866,1.93292,0.96,0.352,5.28
612.4,905.2,3.4778,1.97037,0.97,0.352,5.42
612.9,906.6,3.4701,2.00358,0.97,0.352,5.49
613.4,908.0,3.4603,2.03935,0.96,0.353,5.57
613.9,909.4,3.4503,2.07524,0.97,0.351,5.72
614.4,910.8,3.4414,2.11255,0.96,0.351,5.80
614.9,912.3,3.4306,2.15179,0.97,0.352,5.91
615.4,913.7,3.4226,2.19003,0.97,0.352,6.03
615.9,915.1,3.4121,2.22937,0.97,0.349,6.18
616.4,916.5,3.4009,2.27322,0.96,0.349,6.28
616.9,918.0,3.3908,2.31334,0.97,0.349,6.40
617.4,919.4,3.3787,2.35784,0.97,0.350,6.53
617.9,920.8,3.3679,2.40345,0.97,0.351,6.64
618.4,922.3,3.3553,2.44578,0.97,0.351,6.78
618.9,923.7,3.3422,2.49443,0.97,0.352,6.90
619.4,925.1,3.3306,2.53881,0.97,0.351,7.04
619.9,926.5,3.3165,2.58947,0.98,0.352,7.17
620.4,928.0,3.3043,2.63734,0.97,0.350,7.33
620.9,929.4,3.2902,2.68702,0.98,0.353,7.45
621.4,930.8,3.2759,2.73658,0.97,0.352,7.53
621.9,932.2,3.2624,2.78991,0.98,0.353,7.74
622.4,933.7,3.2461,2.84211,0.97,0.351,7.87
622.9,935.1,3.2320,2.89449,0.97,0.352,8.00
623.4,936.5,3.2141,2.94985,0.97,0.351,8.19
623.9,937.9,3.1977,3.00529,0.98,0.349,8.42
624.4,939.4,3.1818,3.06176,0.97,0.349,8.51
624.9,940.8,3.1634,3.11591,0.98,0.349,8.73
625.4,942.2,3.1473,3.17588,0.98,0.349,8.87
625.9,943.7,3.1283,3.23309,0.98,0.348,9.09
626.4,945.1,3.1099,3.29116,0.98,0.350,9.18
626.9,946.5,3.0912,3.35059,0.98,0.349,9.39
627.4,948.0,3.0701,3.40772,0.98,0.349,9.56
627.9,949.4,3.0525,3.47099,0.98,0.347,9.81
628.4,950.8,3.0311,3.52725,0.98,0.349,9.93
628.9,952.3,3.0102,3.5859,0.98,0.350,10.06
629.4,953.7,2.9891,3.64658,0.98,0.351,10.18
629.9,955.1,2.9656,3.70638,0.98,0.350,10.43
630.4,956.6,2.9447,3.7674,0.98,0.347,10.67
630.9,958.0,2.9198,3.82852,0.98,0.347,10.85
631.4,959.4,2.8975,3.88635,0.99,0.348,11.03
631.9,960.9,2.8747,3.94838,0.99,0.347,11.21
632.4,962.3,2.8481,4.0089,0.98,0.347,11.35
632.9,963.8,2.8253,4.06865,0.98,0.347,11.51
633.4,965.2,2.7990,4.12615,0.99,0.349,11.66
633.9,966.6,2.7742,4.18549,0.98,0.349,11.79
634.4,968.1,2.7482,4.24253,0.98,0.349,11.97
634.9,969.5,2.7188,4.29899,0.99,0.348,12.24
635.4,971.0,2.6945,4.35918,0.99,0.346,12.46
635.9,972.4,2.6653,4.41289,0.99,0.349,12.49
636.4,973.8,2.6370,4.46748,0.99,0.346,12.79
636.9,975.3,2.6092,4.51809,0.99,0.348,12.83
637.4,976.7,2.5780,4.57118,1.00,0.346,13.16
637.9,978.2,2.5515,4.62042,0.99,0.346,13.22
638.4,979.6,2.5194,4.67108,0.99,0.348,13.28
638.9,981.1,2.4898,4.71463,0.99,0.346,13.42
639.4,982.5,2.4602,4.76381,0.99,0.347,13.54
639.9,983.9,2.4266,4.80655,0.99,0.347,13.67
640.4,985.4,2.3983,4.8463,0.99,0.347,13.89
640.9,986.8,2.3645,4.88189,0.99,0.347,13.92
641.4,988.3,2.3335,4.92082,0.99,0.348,14.04
641.9,989.7,2.3022,4.95384,0.99,0.347,14.10
642.4,991.1,2.2667,4.98301,0.99,0.346,14.31
642.9,992.6,2.2366,5.01479,0.99,0.347,14.33
643.4,994.0,2.2013,5.0422,0.99,0.345,14.54
643.9,995.5,2.1680,5.06521,0.99,0.344,14.62
644.4,996.9,2.1345,5.08307,0.99,0.346,14.58
644.9,998.4,2.0973,5.09687,1.00,0.347,14.67
645.4,999.8,2.0668,5.11583,1.00,0.346,14.75
645.9,1001.2,2.0310,5.12897,1.00,0.347,14.76
646.4,1002.7,1.9977,5.15028,0.99,0.347,14.77
646.9,1004.1,1.9643,5.16147,1.00,0.345,14.91
647.4,1005.6,1.9260,5.17032,0.99,0.349,14.75
647.9,1007.0,1.8944,5.18371,1.00,0.348,14.82
648.4,1008.4,1.8583,5.1835,0.99,0.347,14.85
648.9,1009.9,1.8248,5.19045,1.00,0.350,14.79
649.4,1011.3,1.7914,5.19123,0.99,0.351,14.71
649.9,1012.7,1.7534,5.18921,0.99,0.347,14.86
650.4,1014.2,1.7215,5.18396,1.00,0.348,14.88
650.9,1015.6,1.6843,5.18424,1.00,0.348,14.86
651.4,1017.1,1.6503,5.17261,1.00,0.348,14.83
651.9,1018.5,1.6162,5.16062,1.00,0.347,14.82
652.4,1019.9,1.5788,5.14351,0.99,0.348,14.68
652.9,1021.4,1.5484,5.12458,1.00,0.349,14.66
653.4,1022.8,1.5126,5.09962,1.00,0.349,14.64
653.9,1024.2,1.4785,5.06661,1.00,0.349,14.50
654.4,1025.7,1.4433,5.03375,1.00,0.348,14.45
654.9,1027.1,1.4071,5.0031,1.00,0.349,14.33
655.4,1028.5,1.3766,4.96707,1.00,0.351,14.19
655.9,1030.0,1.3406,4.9254,1.01,0.351,14.14
656.4,1031.4,1.3089,4.87784,1.00,0.349,14.01
656.9,1032.8,1.2764,4.83327,1.01,0.351,13.86
657.4,1034.2,1.2408,4.78153,1.02,0.352,13.81
657.9,1035.7,1.2107,4.73063,1.01,0.349,13.61
658.4,1037.1,1.1764,4.67075,1.01,0.351,13.43
658.9,1038.5,1.1471,4.61103,1.00,0.352,13.13
659.4,1039.9,1.1154,4.5496,1.01,0.352,13.04
659.9,1041.4,1.0819,4.48526,1.00,0.351,12.83
660.4,1042.8,1.0535,4.42107,1.01,0.352,12.65
660.9,1044.2,1.0207,4.35127,1.00,0.352,12.42
661.4,1045.6,0.9942,4.27954,1.01,0.353,12.22
661.9,1047.1,0.9646,4.20874,1.01,0.355,11.97
662.4,1048.5,0.9349,4.13754,1.00,0.353,11.76
662.9,1049.9,0.9074,4.0657,1.01,0.353,11.62
663.4,1051.3,0.8776,3.9913,1.01,0.352,11.44
663.9,1052.7,0.8532,3.91584,1.01,0.353,11.17
664.4,1054.1,0.8247,3.83974,1.00,0.349,11.02
664.9,1055.5,0.7974,3.76247,1.02,0.350,10.96
665.4,1057.0,0.7725,3.68974,1.01,0.355,10.54
665.9,1058.4,0.7449,3.61135,1.01,0.354,10.32
666.4,1059.8,0.7230,3.53503,1.01,0.355,10.10
666.9,1061.2,0.6969,3.45833,1.01,0.353,9.91
667.4,1062.6,0.6745,3.37714,1.01,0.355,9.61
667.9,1064.0,0.6519,3.29752,1.01,0.355,9.40
668.4,1065.4,0.6281,3.2195,1.02,0.355,9.20
668.9,1066.8,0.6079,3.1381,1.01,0.353,8.99
669.4,1068.3,0.5846,3.059,1.02,0.356,8.73
669.9,1069.7,0.5652,2.97989,1.02,0.355,8.55
670.4,1071.1,0.5447,2.90251,1.02,0.353,8.38
670.9,1072.5,0.5239,2.81881,1.02,0.354,8.08
671.4,1073.9,0.5077,2.73497,1.02,0.356,7.85
671.9,1075.3,0.4877,2.65498,1.02,0.355,7.61
672.4,1076.7,0.4715,2.57041,1.02,0.355,7.36
672.9,1078.1,0.4524,2.49879,1.02,0.357,7.15
673.4,1079.5,0.4346,2.42578,1.02,0.355,6.95
673.9,1080.9,0.4189,2.34971,1.02,0.353,6.80
674.4,1082.3,0.4013,2.27162,1.02,0.355,6.53
674.9,1083.8,0.3873,2.19524,1.02,0.356,6.31
675.4,1085.2,0.3709,2.1251,1.03,0.356,6.14
675.9,1086.6,0.3569,2.06064,1.02,0.355,5.95
676.4,1088.0,0.3430,1.99239,1.03,0.357,5.75
676.9,1089.4,0.3285,1.92597,1.02,0.355,5.56
677.4,1090.8,0.3165,1.85866,1.02,0.355,5.32
677.9,1092.2,0.3032,1.79469,1.02,0.356,5.17
678.4,1093.6,0.2918,1.73287,1.03,0.357,4.98
678.9,1095.0,0.2791,1.67137,1.03,0.355,4.83
679.4,1096.4,0.2675,1.60832,1.02,0.355,4.63
679.9,1097.8,0.2566,1.55121,1.02,0.355,4.48
680.4,1099.2,0.2443,1.49286,1.04,0.355,4.35
680.9,1100.7,0.2356,1.43536,1.04,0.353,4.22
681.4,1102.1,0.2254,1.37818,1.04,0.353,4.04
681.9,1103.5,0.2162,1.32423,1.03,0.354,3.83
682.4,1104.9,0.2074,1.2711,1.03,0.356,3.67
682.9,1106.3,0.1981,1.21981,1.02,0.354,3.50
683.4,1107.7,0.1908,1.17048,1.02,0.356,3.36
683.9,1109.1,0.1828,1.12018,1.03,0.355,3.25
684.4,1110.5,0.1759,1.0733,1.03,0.355,3.12
684.9,1111.9,0.1691,1.02811,1.03,0.355,2.98
685.4,1113.4,0.1624,0.98426,1.04,0.359,2.84
685.9,1114.8,0.1566,0.94173,1.03,0.355,2.74
686.4,1116.2,0.1491,0.89967,1.04,0.355,2.63
686.9,1117.6,0.1430,0.86099,1.04,0.353,2.54
687.4,1119.0,0.1366,0.82213,1.04,0.353,2.42
687.9,1120.4,0.1318,0.78574,1.04,0.347,2.35
688.4,1121.8,0.1263,0.75026,1.04,0.349,2.24
688.9,1123.3,0.1219,0.71582,1.04,0.354,2.10
689.4,1124.7,0.1163,0.68224,1.04,0.352,2.01
689.9,1126.1,0.1114,0.6499,1.04,0.352,1.91
690.4,1127.5,0.1074,0.6209,1.04,0.350,1.85
690.9,1128.9,0.1040,0.58975,1.04,0.352,1.74
691.4,1130.4,0.0995,0.56414,1.04,0.351,1.67
691.9,1131.8,0.0953,0.5373,1.04,0.352,1.58
692.4,1133.2,0.0922,0.51438,1.03,0.352,1.51
692.9,1134.6,0.0892,0.48828,1.04,0.351,1.45
693.4,1136.0,0.0861,0.46583,1.04,0.352,1.38
693.9,1137.5,0.0834,0.44419,1.04,0.350,1.32
694.4,1138.9,0.0810,0.42186,1.04,0.350,1.26
694.9,1140.3,0.0780,0.40272,1.04,0.350,1.20
695.4,1141.7,0.0752,0.3852,1.05,0.351,1.15
695.9,1143.2,0.0729,0.36773,1.05,0.350,1.10
696.4,1144.6,0.0708,0.35011,1.03,0.351,1.03
696.9,1146.0,0.0682,0.33345,1.04,0.352,0.99
697.4,1147.4,0.0661,0.31897,1.05,0.351,0.95
697.9,1148.9,0.0646,0.30343,1.05,0.349,0.91
698.4,1150.3,0.0631,0.28948,1.05,0.348,0.87
698.9,1151.7,0.0614,0.27716,1.04,0.349,0.83
699.4,1153.2,0.0598,0.26421,1.05,0.350,0.79
699.9,1154.6,0.0580,0.25464,1.04,0.349,0.76
700.4,1156.0,0.0566,0.24277,1.05,0.351,0.72
700.9,1157.4,0.0552,0.23339,1.06,0.352,0.70
701.4,1158.9,0.0543,0.22129,1.05,0.348,0.67
701.9,1160.3,0.0532,0.21171,1.05,0.349,0.63
702.4,1161.7,0.0520,0.2046,1.05,0.348,0.61
702.9,1163.2,0.0519,0.19584,1.06,0.348,0.59
703.4,1164.6,0.0502,0.18706,1.05,0.348,0.56
703.9,1166.0,0.0490,0.17835,1.05,0.349,0.53
704.4,1167.5,0.0487,0.17237,1.06,0.348,0.53
704.9,1168.9,0.0471,0.16638,1.05,0.349,0.50
705.4,1170.3,0.0466,0.15952,1.05,0.347,0.48
705.9,1171.8,0.0458,0.15406,1.05,0.350,0.46
706.4,1173.2,0.0445,0.14851,1.06,0.348,0.45
706.9,1174.6,0.0433,0.14189,1.05,0.348,0.43
707.4,1176.1,0.0431,0.13656,1.06,0.349,0.41
707.9,1177.5,0.0418,0.13245,1.05,0.350,0.40
708.4,1178.9,0.0418,0.12806,1.05,0.347,0.39
708.9,1180.4,0.0406,0.12371,1.05,0.347,0.38
709.4,1181.8,0.0418,0.12297,1.06,0.347,0.37
709.9,1183.3,0.0418,0.11694,1.06,0.347,0.36
710.4,1184.7,0.0405,0.11286,1.06,0.347,0.35
710.9,1186.1,0.0402,0.11012,1.06,0.351,0.33
711.4,1187.6,0.0385,0.10848,1.06,0.346,0.33
711.9,1189.0,0.0382,0.10513,1.06,0.349,0.32
712.4,1190.5,0.0381,0.10198,1.06,0.347,0.31
712.9,1191.9,0.0368,9.91E-02,1.06,0.347,0.30
713.4,1193.4,0.0368,0.10004,1.06,0.345,0.31
713.9,1194.8,0.0357,9.47E-02,1.06,0.348,0.29
714.4,1196.2,0.0355,9.53E-02,1.06,0.349,0.29
714.9,1197.7,0.0355,9.50E-02,1.06,0.347,0.29
715.4,1199.1,0.0355,9.25E-02,1.07,0.346,0.28
715.9,1200.5,0.0355,9.24E-02,1.07,0.347,0.28
716.4,1202.0,0.0355,9.46E-02,1.07,0.346,0.29
716.9,1203.4,0.0356,9.34E-02,1.06,0.347,0.29
717.4,1204.9,0.0342,9.56E-02,1.07,0.348,0.29
717.9,1206.3,0.0340,9.63E-02,1.07,0.347,0.30
718.4,1207.7,0.0339,9.56E-02,1.07,0.348,0.29
718.9,1209.2,0.0339,9.34E-02,1.06,0.346,0.29
719.4,1210.6,0.0339,9.65E-02,1.06,0.348,0.30
719.9,1212.1,0.0339,9.30E-02,1.07,0.347,0.29
720.4,1213.5,0.0339,8.98E-02,1.08,0.346,0.28
720.9,1215.0,0.0339,8.93E-02,1.07,0.346,0.28
721.4,1216.4,0.0339,8.34E-02,1.07,0.349,0.26
721.9,1217.9,0.0339,7.89E-02,1.07,0.346,0.24
722.4,1219.3,0.0339,7.52E-02,1.07,0.345,0.23
722.9,1220.7,0.0336,6.83E-02,1.07,0.347,0.21
723.4,1222.2,0.0326,6.06E-02,1.07,0.346,0.19
723.9,1223.6,0.0326,5.60E-02,1.07,0.346,0.17
724.4,1225.1,0.0331,4.74E-02,1.07,0.346,0.15
724.9,1226.5,0.0339,4.14E-02,1.07,0.347,0.13
725.4,1228.0,0.0342,3.71E-02,1.07,0.347,0.11
725.9,1229.4,0.0352,3.01E-02,1.07,0.344,0.09
726.4,1230.9,0.0352,2.84E-02,1.07,0.344,0.09
726.9,1232.3,0.0352,2.53E-02,1.08,0.346,0.08
727.4,1233.8,0.0353,2.64E-02,1.08,0.347,0.08
727.9,1235.2,0.0339,2.58E-02,1.07,0.344,0.08
728.4,1236.7,0.0335,2.98E-02,1.07,0.347,0.09
728.9,1238.1,0.0336,3.24E-02,1.07,0.346,0.10
729.4,1239.6,0.0336,3.89E-02,1.08,0.344,0.12
729.9,1241.0,0.0332,4.42E-02,1.08,0.347,0.14
730.4,1242.5,0.0326,5.04E-02,1.08,0.348,0.16
730.9,1243.9,0.0326,5.76E-02,1.08,0.345,0.18
731.4,1245.4,0.0326,6.42E-02,1.08,0.345,0.20
731.9,1246.8,0.0326,7.24E-02,1.08,0.344,0.23
732.4,1248.3,0.0326,7.97E-02,1.08,0.344,0.25
732.9,1249.7,0.0332,8.44E-02,1.08,0.345,0.27
733.4,1251.2,0.0332,9.31E-02,1.08,0.344,0.29
733.9,1252.6,0.0332,9.98E-02,1.08,0.345,0.31
734.4,1254.1,0.0332,0.10682,1.08,0.344,0.34
734.9,1255.5,0.0332,0.11081,1.08,0.346,0.35
735.4,1257.0,0.0332,0.11533,1.08,0.344,0.36
735.9,1258.4,0.0332,0.12094,1.08,0.345,0.38
736.4,1259.9,0.0332,0.12331,1.08,0.344,0.39
736.9,1261.3,0.0332,0.12993,1.08,0.343,0.41
737.4,1262.8,0.0332,0.13079,1.09,0.345,0.41
737.9,1264.2,0.0332,0.13761,1.09,0.344,0.44
738.4,1265.7,0.0332,0.13734,1.09,0.344,0.43
738.9,1267.2,0.0332,0.14009,1.09,0.345,0.44
739.4,1268.6,0.0332,0.14304,1.09,0.344,0.45
739.9,1270.1,0.0332,0.14573,1.10,0.345,0.46
740.4,1271.5,0.0332,0.14725,1.09,0.342,0.47
740.9,1273.0,0.0332,0.14819,1.09,0.345,0.47
741.4,1274.4,0.0329,0.14936,1.09,0.343,0.47
741.9,1275.9,0.0319,0.15067,1.09,0.345,0.48
742.4,1277.3,0.0319,0.15053,1.10,0.345,0.48
742.9,1278.8,0.0319,0.15287,1.10,0.341,0.49
743.4,1280.2,0.0319,0.15449,1.09,0.343,0.49
743.9,1281.7,0.0319,0.15345,1.09,0.344,0.49
744.4,1283.2,0.0319,0.15233,1.09,0.344,0.48
744.9,1284.6,0.0319,0.15486,1.10,0.342,0.50
745.4,1286.1,0.0319,0.15465,1.10,0.343,0.50
745.9,1287.5,0.0329,0.15706,1.10,0.343,0.50
746.4,1289.0,0.0330,0.15713,1.10,0.343,0.51
746.9,1290.5,0.0332,0.1581,1.10,0.343,0.51
747.4,1291.9,0.0332,0.15757,1.10,0.343,0.50
747.9,1293.4,0.0334,0.15813,1.10,0.343,0.51
748.4,1294.8,0.0339,0.15456,1.11,0.344,0.50
748.9,1296.3,0.0339,0.15445,1.10,0.343,0.50
749.4,1297.8,0.0339,0.15429,1.10,0.344,0.49
749.9,1299.2,0.0339,0.15302,1.10,0.342,0.49
750.4,1300.7,0.0339,0.1562,1.10,0.342,0.50
750.9,1302.1,0.0337,0.15389,1.10,0.342,0.50
751.4,1303.6,0.0326,0.1515,1.10,0.343,0.49
751.9,1305.1,0.0326,0.15332,1.10,0.342,0.49
752.4,1306.5,0.0321,0.1523,1.11,0.342,0.49
752.9,1308.0,0.0313,0.15396,1.11,0.343,0.50
753.4,1309.4,0.0313,0.1541,1.11,0.342,0.50
753.9,1310.9,0.0312,0.15369,1.11,0.343,0.50
754.4,1312.4,0.0328,0.15565,1.11,0.342,0.50
754.9,1313.8,0.0339,0.1553,1.10,0.341,0.50
755.4,1315.3,0.0339,0.15488,1.11,0.340,0.50
755.9,1316.8,0.0339,0.15506,1.11,0.342,0.50
756.4,1318.2,0.0339,0.15495,1.11,0.342,0.50
756.9,1319.7,0.0339,0.15432,1.10,0.341,0.50
757.4,1321.1,0.0339,0.15357,1.11,0.343,0.50
757.9,1322.6,0.0324,0.15566,1.12,0.343,0.51
758.4,1324.1,0.0316,0.15572,1.11,0.342,0.51
758.9,1325.5,0.0316,0.15613,1.12,0.343,0.51
759.4,1327.0,0.0316,0.15724,1.12,0.342,0.51
759.9,1328.5,0.0316,0.15589,1.11,0.342,0.51
760.4,1329.9,0.0316,0.15444,1.11,0.342,0.50
760.9,1331.4,0.0319,0.15524,1.11,0.340,0.51
761.4,1332.9,0.0329,0.15377,1.11,0.341,0.50
761.9,1334.3,0.0329,0.15413,1.13,0.340,0.51
762.4,1335.8,0.0330,0.15509,1.13,0.340,0.52
762.9,1337.3,0.0337,0.1568,1.12,0.342,0.51
763.4,1338.7,0.0322,0.15436,1.12,0.343,0.50
763.9,1340.2,0.0322,0.15694,1.12,0.342,0.51
764.4,1341.6,0.0322,0.15629,1.11,0.341,0.51
764.9,1343.1,0.0322,0.15781,1.12,0.340,0.52
765.4,1344.6,0.0322,0.15593,1.12,0.340,0.51
765.9,1346.0,0.0323,0.15705,1.12,0.341,0.51
766.4,1347.5,0.0323,0.15434,1.12,0.341,0.51
766.9,1349.0,0.0309,0.15642,1.12,0.342,0.51
767.4,1350.4,0.0309,0.15481,1.12,0.342,0.51
767.9,1351.9,0.0309,0.15566,1.12,0.342,0.51
768.4,1353.4,0.0309,0.1584,1.12,0.340,0.52
768.9,1354.8,0.0309,0.15804,1.12,0.341,0.52
769.4,1356.3,0.0308,0.15808,1.13,0.341,0.52
769.9,1357.8,0.0322,0.15696,1.12,0.342,0.51
770.4,1359.2,0.0322,0.15824,1.14,0.342,0.53
770.9,1360.7,0.0323,0.1596,1.13,0.342,0.53
771.4,1362.2,0.0331,0.15931,1.13,0.340,0.53
771.9,1363.6,0.0328,0.15894,1.13,0.344,0.52
772.4,1365.1,0.0326,0.15887,1.12,0.340,0.52
772.9,1366.6,0.0326,0.16075,1.13,0.341,0.53
773.4,1368.0,0.0326,0.16018,1.13,0.342,0.53
773.9,1369.5,0.0319,0.15926,1.12,0.341,0.52
774.4,1371.0,0.0319,0.16216,1.13,0.339,0.54
774.9,1372.4,0.0319,0.16093,1.13,0.341,0.53
775.4,1373.9,0.0319,0.15982,1.14,0.341,0.53
775.9,1375.4,0.0319,0.15994,1.13,0.342,0.53
776.4,1376.8,0.0319,0.16354,1.14,0.340,0.55
776.9,1378.3,0.0319,0.16414,1.14,0.341,0.55
777.4,1379.7,0.0319,0.16317,1.13,0.341,0.54
777.9,1381.2,0.0319,0.16262,1.13,0.340,0.54
778.4,1382.7,0.0319,0.16251,1.14,0.341,0.54
778.9,1384.1,0.0319,0.16112,1.14,0.341,0.54
779.4,1385.6,0.0319,0.16393,1.13,0.338,0.55
779.9,1387.1,0.0319,0.16316,1.15,0.342,0.55
780.4,1388.5,0.0319,0.16469,1.13,0.340,0.55
780.9,1390.0,0.0319,0.16273,1.14,0.342,0.54
781.4,1391.5,0.0319,0.16484,1.14,0.341,0.55
781.9,1392.9,0.0312,0.16377,1.13,0.340,0.55
782.4,1394.4,0.0313,0.16452,1.13,0.340,0.55
782.9,1395.9,0.0313,0.16308,1.14,0.340,0.55
783.4,1397.3,0.0313,0.16422,1.14,0.339,0.55
783.9,1398.8,0.0313,0.16476,1.14,0.341,0.55
784.4,1400.3,0.0313,0.16235,1.14,0.339,0.55
784.9,1401.8,0.0313,0.1641,1.14,0.339,0.55
785.4,1403.2,0.0313,0.16342,1.14,0.340,0.55
785.9,1404.7,0.0313,0.16279,1.15,0.339,0.55
786.4,1406.2,0.0313,0.16371,1.15,0.338,0.56
786.9,1407.6,0.0313,0.16473,1.15,0.339,0.56
787.4,1409.1,0.0313,0.16614,1.15,0.341,0.56
787.9,1410.6,0.0312,0.16527,1.15,0.339,0.56
788.4,1412.0,0.0323,0.16702,1.15,0.339,0.57
788.9,1413.5,0.0322,0.1654,1.15,0.342,0.56
789.4,1415.0,0.0322,0.16705,1.15,0.341,0.56
789.9,1416.4,0.0322,0.16646,1.15,0.342,0.56
790.4,1417.9,0.0322,0.16608,1.16,0.341,0.56
790.9,1419.4,0.0322,0.16737,1.15,0.341,0.57
791.4,1420.8,0.0322,0.16728,1.17,0.340,0.57
791.9,1422.3,0.0322,0.16586,1.16,0.341,0.57
792.4,1423.8,0.0322,0.16974,1.15,0.338,0.58
792.9,1425.3,0.0322,0.16959,1.16,0.339,0.58
793.4,1426.7,0.0322,0.17137,1.15,0.340,0.58
793.9,1428.2,0.0322,0.17184,1.16,0.344,0.58
794.4,1429.7,0.0322,0.17102,1.16,0.343,0.58
794.9,1431.1,0.0322,0.16911,1.15,0.342,0.57
795.4,1432.6,0.0322,0.17212,1.16,0.341,0.58
795.9,1434.0,0.0322,0.16984,1.15,0.341,0.57
796.4,1435.5,0.0322,0.16979,1.16,0.337,0.59
796.9,1437.0,0.0322,0.17125,1.15,0.337,0.59
797.4,1438.5,0.0322,0.17333,1.16,0.338,0.59
797.9,1440.0,0.0322,0.17446,1.16,0.337,0.60
798.4,1441.4,0.0322,0.17363,1.16,0.338,0.59
798.9,1442.9,0.0322,0.17279,1.16,0.340,0.59
799.4,1444.4,0.0322,0.17376,1.16,0.337,0.60
799.9,1445.9,0.0322,0.17526,1.17,0.338,0.61
800.4,1447.3,0.0322,0.17591,1.16,0.341,0.60
800.9,1448.8,0.0322,0.17463,1.17,0.339,0.60
801.4,1450.3,0.0322,0.17607,1.17,0.340,0.60
801.9,1451.8,0.0322,0.17675,1.16,0.340,0.60
802.4,1453.2,0.0322,0.17553,1.17,0.339,0.60
802.9,1454.7,0.0322,0.17666,1.17,0.340,0.61
803.4,1456.2,0.0322,0.17797,1.17,0.340,0.61
803.9,1457.6,0.0322,0.17761,1.17,0.340,0.61
804.4,1459.1,0.0312,0.17719,1.17,0.342,0.61
804.9,1460.6,0.0313,0.17708,1.17,0.340,0.61
805.4,1462.0,0.0313,0.17866,1.17,0.344,0.61
805.9,1463.5,0.0313,0.17943,1.17,0.342,0.62
806.4,1465.0,0.0313,0.17798,1.18,0.340,0.62
806.9,1466.4,0.0320,0.17839,1.18,0.340,0.62
807.4,1467.9,0.0326,0.17796,1.17,0.339,0.61
807.9,1469.4,0.0326,0.17801,1.16,0.335,0.62
808.4,1470.9,0.0326,0.17903,1.17,0.340,0.61
808.9,1472.4,0.0326,0.18177,1.17,0.340,0.63
809.4,1473.8,0.0326,0.17951,1.17,0.341,0.62
809.9,1475.3,0.0326,0.17892,1.18,0.342,0.62
810.4,1476.8,0.0326,0.1809,1.18,0.340,0.63
810.9,1478.2,0.0336,0.1837,1.18,0.340,0.64
811.4,1479.7,0.0336,0.18158,1.18,0.340,0.63
811.9,1481.2,0.0336,0.18058,1.18,0.339,0.63
812.4,1482.7,0.0336,0.18234,1.18,0.340,0.63
812.9,1484.1,0.0336,0.18114,1.19,0.340,0.63
813.4,1485.6,0.0336,0.18611,1.18,0.339,0.65
813.9,1487.1,0.0336,0.18452,1.18,0.340,0.64
814.4,1488.5,0.0336,0.18602,1.19,0.339,0.65
814.9,1490.0,0.0326,0.187,1.19,0.339,0.66
815.4,1491.5,0.0322,0.18643,1.18,0.339,0.65
815.9,1493.0,0.0322,0.18459,1.19,0.337,0.65
816.4,1494.4,0.0322,0.18639,1.19,0.340,0.65
816.9,1495.9,0.0322,0.18766,1.18,0.339,0.65
817.4,1497.4,0.0322,0.18669,1.20,0.339,0.66
817.6,1498.0,0.0322,0.18583,1.18,0.342,0.64