File: PMMA/Calibration_Data/FSRI/FSRI_STA_N2_10K_3.csv
Temp,time,TGA,DSC
[K],[s],[mg],[mW/mg]
323,0,3.9002,-2.16E-03
323.4,37.9,3.898,2.33E-02
323.8,47.5,3.8999,4.36E-02
324.2,54.5,3.8976,6.08E-02
324.6,60.3,3.8966,7.56E-02
325,65.4,3.8976,8.73E-02
325.4,70.1,3.8999,9.90E-02
325.8,74.3,3.8973,0.10865
326.2,78.4,3.8969,0.11968
326.6,82.2,3.8961,0.12681
327,85.8,3.8969,0.13626
327.4,89.3,3.8972,0.14318
327.8,92.7,3.8975,0.15151
328.2,96,3.8956,0.15694
328.6,99.3,3.8965,0.16181
329,102.4,3.8958,0.16735
329.4,105.5,3.895,0.17265
329.8,108.5,3.8944,0.17727
330.2,111.5,3.8949,0.18257
330.6,114.5,3.8948,0.18589
331,117.3,3.8962,0.18869
331.4,120.2,3.8969,0.19225
331.8,123,3.8968,0.19398
332.2,125.8,3.8954,0.19736
332.6,128.6,3.8955,0.19964
333,131.4,3.8953,0.20271
333.4,134.2,3.8959,0.20377
333.8,137,3.8954,0.20777
334.2,139.8,3.8954,0.211
334.6,142.5,3.8967,0.21337
335,145.2,3.896,0.21451
335.4,147.9,3.8956,0.21656
335.8,150.6,3.8967,0.21649
336.2,153.2,3.8968,0.21872
336.6,155.9,3.8952,0.22278
337,158.6,3.8952,0.22054
337.4,161.2,3.8939,0.22346
337.8,163.8,3.8953,0.22371
338.2,166.5,3.8952,0.22454
338.6,169.1,3.8966,0.22766
339,171.7,3.8954,0.23007
339.4,174.3,3.8954,0.22998
339.8,176.9,3.8967,0.23323
340.2,179.5,3.8954,0.2327
340.6,182.1,3.8967,0.23371
341,184.6,3.8963,0.2349
341.4,187.2,3.8954,0.23679
341.8,189.8,3.8955,0.23597
342.2,192.3,3.8982,0.23822
342.6,194.9,3.8977,0.23838
343,197.5,3.8956,0.24107
343.4,200.1,3.8951,0.24245
343.8,202.7,3.8943,0.24247
344.2,205.3,3.8943,0.24451
344.6,207.8,3.8942,0.24433
345,210.4,3.8942,0.24633
345.4,212.9,3.8956,0.24833
345.8,215.5,3.8943,0.24791
346.2,218,3.8943,0.2512
346.6,220.6,3.8929,0.25028
347,223.1,3.8925,0.25097
347.4,225.6,3.8929,0.25452
347.8,228.2,3.8938,0.25402
348.2,230.7,3.8939,0.25633
348.6,233.2,3.8939,0.25884
349,235.7,3.8939,0.25751
349.4,238.2,3.8929,0.25962
349.8,240.7,3.8932,0.26329
350.2,243.2,3.893,0.26313
350.6,245.7,3.893,0.26341
351,248.2,3.893,0.26457
351.4,250.7,3.8923,0.26407
351.8,253.2,3.8916,0.26467
352.2,255.7,3.8929,0.26611
352.6,258.2,3.8915,0.26675
353,260.7,3.8927,0.26424
353.4,263.2,3.893,0.26549
353.8,265.7,3.8917,0.26613
354.2,268.2,3.8916,0.26498
354.6,270.7,3.8916,0.2652
355,273.1,3.8916,0.26534
355.4,275.6,3.8916,0.26577
355.8,278.1,3.8916,0.26567
356.2,280.5,3.8921,0.2661
356.6,283,3.893,0.2645
357,285.5,3.8916,0.266
357.4,287.9,3.8919,0.2644
357.8,290.4,3.8926,0.26291
358.2,292.8,3.8926,0.26513
358.6,295.2,3.8916,0.26521
359,297.7,3.8912,0.26361
359.4,300.1,3.8916,0.26434
359.8,302.6,3.8916,0.26172
360.2,305,3.8926,0.26499
360.6,307.5,3.8916,0.2649
361,309.9,3.8916,0.26388
361.4,312.4,3.8902,0.26461
361.8,314.8,3.8903,0.26355
362.2,317.2,3.8904,0.26396
362.6,319.6,3.8903,0.26611
363,322,3.8903,0.26711
363.4,324.4,3.8903,0.26652
363.8,326.9,3.889,0.2665
364.2,329.3,3.8903,0.26776
364.6,331.7,3.889,0.26612
365,334.1,3.889,0.26719
365.4,336.5,3.8897,0.26829
365.8,338.9,3.8888,0.26954
366.2,341.3,3.8887,0.26896
366.6,343.7,3.8887,0.26791
367,346.1,3.889,0.26853
367.4,348.5,3.889,0.27022
367.8,350.9,3.8902,0.27283
368.2,353.3,3.8903,0.27346
368.6,355.7,3.8901,0.2737
369,358.1,3.889,0.27557
369.4,360.4,3.889,0.27643
369.8,362.8,3.8903,0.27614
370.2,365.2,3.889,0.27531
370.6,367.6,3.8886,0.27649
371,370,3.8877,0.27688
371.4,372.3,3.888,0.27728
371.8,374.7,3.8891,0.2784
372.2,377.1,3.888,0.27822
372.6,379.5,3.888,0.27919
373,381.8,3.8879,0.28047
373.4,384.2,3.8877,0.28102
373.8,386.6,3.8877,0.28181
374.2,389,3.8871,0.28127
374.6,391.4,3.8864,0.28382
375,393.7,3.8862,0.28478
375.4,396.1,3.8864,0.28447
375.8,398.5,3.8864,0.28551
376.2,400.9,3.8864,0.28456
376.6,403.2,3.8864,0.28729
377,405.6,3.8864,0.28956
377.4,408,3.8877,0.28612
377.8,410.3,3.8864,0.28794
378.2,412.7,3.8864,0.29067
378.6,415,3.8864,0.28903
379,417.4,3.8864,0.29087
379.4,419.7,3.8864,0.29198
379.8,422.1,3.8858,0.29303
380.2,424.4,3.8864,0.2934
380.6,426.8,3.8864,0.29444
381,429.1,3.8863,0.29669
381.4,431.5,3.8851,0.29581
381.8,433.8,3.8864,0.29667
382.2,436.2,3.885,0.29978
382.6,438.5,3.8851,0.30057
383,440.9,3.8855,0.29993
383.4,443.2,3.8864,0.30093
383.8,445.6,3.8864,0.3013
384.2,447.9,3.8853,0.30269
384.6,450.3,3.8851,0.30486
385,452.6,3.8851,0.30594
385.4,455,3.8837,0.30539
385.8,457.3,3.8837,0.30693
386.2,459.7,3.8851,0.30477
386.6,462,3.8851,0.30767
387,464.4,3.8851,0.3088
387.4,466.7,3.8838,0.3095
387.8,469.1,3.8837,0.31199
388.2,471.4,3.8837,0.31236
388.6,473.7,3.8837,0.31298
389,476.1,3.8838,0.31517
389.4,478.4,3.8851,0.31476
389.8,480.8,3.8851,0.31797
390.2,483.1,3.8864,0.3185
390.6,485.5,3.8851,0.32139
391,487.8,3.8851,0.32238
391.4,490.2,3.8837,0.32327
391.8,492.5,3.8837,0.32594
392.2,494.8,3.8837,0.3275
392.6,497.2,3.8824,0.33223
393,499.5,3.8824,0.33257
393.4,501.9,3.8818,0.33438
393.8,504.2,3.8831,0.33614
394.2,506.5,3.8831,0.33864
394.6,508.9,3.8824,0.34119
395,511.2,3.8824,0.34273
395.4,513.5,3.8824,0.34628
395.8,515.9,3.8819,0.34603
396.2,518.2,3.8811,0.34865
396.6,520.5,3.8811,0.34922
397,522.9,3.8811,0.3506
397.4,525.2,3.8813,0.35642
397.8,527.5,3.8824,0.35513
398.2,529.9,3.8811,0.35838
398.6,532.3,3.8811,0.35767
399,534.6,3.8811,0.36001
399.4,537,3.8802,0.36095
399.8,539.3,3.8798,0.36451
400.2,541.7,3.8798,0.36212
400.6,544,3.8808,0.366
401,546.3,3.8809,0.36719
401.4,548.6,3.8795,0.3687
401.8,551,3.8795,0.37102
402.2,553.3,3.8795,0.37092
402.6,555.6,3.8795,0.37131
403,558,3.8788,0.37254
403.4,560.3,3.8785,0.37454
403.8,562.6,3.8785,0.37357
404.2,565,3.8785,0.37438
404.6,567.3,3.8785,0.37759
405,569.7,3.8788,0.3775
405.4,572,3.8785,0.37794
405.8,574.3,3.8785,0.37911
406.2,576.7,3.8776,0.379
406.6,579,3.8785,0.37883
407,581.3,3.8785,0.37952
407.4,583.6,3.8785,0.38057
407.8,586,3.8785,0.38192
408.2,588.3,3.8785,0.38007
408.6,590.7,3.8785,0.38279
409,593,3.8776,0.38281
409.4,595.3,3.8771,0.3843
409.8,597.6,3.8775,0.38238
410.2,599.9,3.8775,0.3839
410.6,602.3,3.8775,0.38761
411,604.6,3.8771,0.38435
411.4,606.9,3.8772,0.38744
411.8,609.2,3.8768,0.38615
412.2,611.6,3.8768,0.38748
412.6,613.9,3.8768,0.38953
413,616.2,3.8755,0.38872
413.4,618.5,3.8755,0.39005
413.8,620.8,3.8755,0.39224
414.2,623.1,3.8755,0.3912
414.6,625.5,3.8755,0.39079
415,627.8,3.8755,0.39082
415.4,630.1,3.8755,0.39218
415.8,632.4,3.8755,0.39089
416.2,634.7,3.8755,0.39359
416.6,637.1,3.8744,0.3928
417,639.4,3.8742,0.39502
417.4,641.7,3.8742,0.39434
417.8,644,3.8742,0.39343
418.2,646.3,3.8729,0.39644
418.6,648.6,3.8729,0.39528
419,650.9,3.8729,0.39495
419.4,653.2,3.8732,0.39594
419.8,655.5,3.8732,0.39697
420.2,657.8,3.8723,0.39688
420.6,660.1,3.8732,0.39773
421,662.4,3.8732,0.39663
421.4,664.8,3.8732,0.39945
421.8,667.1,3.8726,0.39815
422.2,669.4,3.8714,0.39933
422.6,671.8,3.8712,0.39938
423,674.1,3.8712,0.40101
423.4,676.4,3.8712,0.40035
423.8,678.7,3.8712,0.40039
424.2,681,3.8712,0.40292
424.6,683.3,3.8726,0.40188
425,685.7,3.8712,0.4034
425.4,688,3.8702,0.40435
425.8,690.3,3.8702,0.40379
426.2,692.6,3.87,0.40848
426.6,694.9,3.8689,0.40586
427,697.2,3.8689,0.40768
427.4,699.5,3.8686,0.40651
427.8,701.8,3.8686,0.40802
428.2,704.1,3.8686,0.40989
428.6,706.4,3.8686,0.41149
429,708.7,3.8671,0.4116
429.4,711,3.8666,0.41405
429.8,713.3,3.8666,0.41501
430.2,715.6,3.867,0.41823
430.6,717.9,3.867,0.41673
431,720.2,3.867,0.41993
431.4,722.5,3.8669,0.42174
431.8,724.8,3.865,0.42327
432.2,727.1,3.865,0.42267
432.6,729.5,3.865,0.42426
433,731.8,3.865,0.42495
433.4,734.1,3.865,0.4279
433.8,736.4,3.864,0.43034
434.2,738.7,3.8637,0.42876
434.6,741,3.8637,0.43065
435,743.3,3.8637,0.43094
435.4,745.6,3.8624,0.43141
435.8,747.9,3.8624,0.43465
436.2,750.2,3.8623,0.43638
436.6,752.5,3.861,0.43615
437,754.9,3.86,0.43821
437.4,757.2,3.8597,0.44065
437.8,759.5,3.8599,0.44119
438.2,761.8,3.86,0.44132
438.6,764.1,3.8597,0.44513
439,766.4,3.8597,0.44429
439.4,768.7,3.8597,0.44393
439.8,771,3.8594,0.44642
440.2,773.2,3.8581,0.4472
440.6,775.5,3.8581,0.45095
441,777.8,3.8581,0.45243
441.4,780.1,3.8581,0.45272
441.8,782.5,3.8581,0.45224
442.2,784.8,3.8567,0.45639
442.6,787.1,3.8568,0.45565
443,789.4,3.8567,0.45785
443.4,791.7,3.8564,0.45953
443.8,794,3.8541,0.46201
444.2,796.3,3.8541,0.46218
444.6,798.6,3.8541,0.46652
445,800.9,3.8529,0.46687
445.4,803.2,3.8515,0.46668
445.8,805.6,3.8515,0.46995
446.2,807.9,3.8507,0.47118
446.6,810.2,3.8502,0.47522
447,812.5,3.8501,0.47613
447.4,814.8,3.8489,0.47878
447.8,817,3.8478,0.47908
448.2,819.3,3.8479,0.48091
448.6,821.6,3.8465,0.48227
449,823.9,3.8448,0.48359
449.4,826.2,3.8449,0.48597
449.8,828.5,3.8436,0.48737
450.2,830.8,3.8436,0.48852
450.6,833.1,3.8423,0.49058
451,835.4,3.8409,0.4941
451.4,837.7,3.8409,0.49307
451.8,840,3.8403,0.49529
452.2,842.3,3.8403,0.49758
452.6,844.6,3.8391,0.49898
453,846.9,3.839,0.49737
453.4,849.3,3.8378,0.49732
453.8,851.6,3.8377,0.50041
454.2,853.9,3.8366,0.5017
454.6,856.2,3.8357,0.50031
455,858.5,3.8351,0.5008
455.4,860.8,3.8337,0.50173
455.8,863.1,3.8324,0.50281
456.2,865.4,3.831,0.50358
456.6,867.7,3.8311,0.50482
457,870,3.8311,0.50218
457.4,872.3,3.8297,0.50463
457.8,874.5,3.8292,0.50142
458.2,876.9,3.8272,0.50365
458.6,879.2,3.8271,0.50513
459,881.5,3.8258,0.50502
459.4,883.8,3.8245,0.50442
459.8,886.1,3.8245,0.50533
460.2,888.4,3.8232,0.50425
460.6,890.7,3.8229,0.50324
461,893,3.8219,0.50433
461.4,895.3,3.8205,0.50161
461.8,897.6,3.8199,0.50355
462.2,899.9,3.8183,0.5045
462.6,902.2,3.8165,0.50247
463,904.5,3.8164,0.50035
463.4,906.8,3.8153,0.50304
463.8,909.1,3.8146,0.49867
464.2,911.3,3.8137,0.4998
464.6,913.6,3.8133,0.50187
465,915.9,3.8128,0.50032
465.4,918.2,3.8114,0.50036
465.8,920.5,3.81,0.49761
466.2,922.8,3.81,0.49672
466.6,925.1,3.8087,0.49751
467,927.4,3.8084,0.49649
467.4,929.7,3.8071,0.49392
467.8,932,3.8046,0.49287
468.2,934.2,3.8045,0.49284
468.6,936.5,3.8059,0.49108
469,938.8,3.8045,0.4886
469.4,941.1,3.8029,0.48947
469.8,943.4,3.8019,0.48937
470.2,945.7,3.8005,0.48764
470.6,948,3.8006,0.48736
471,950.3,3.7995,0.48728
471.4,952.5,3.7994,0.48515
471.8,954.8,3.7979,0.48512
472.2,957.1,3.7966,0.48408
472.6,959.4,3.7952,0.48428
473,961.7,3.7941,0.48584
473.4,964,3.7929,0.48318
473.8,966.3,3.7919,0.4842
474.2,968.6,3.7916,0.48302
474.6,970.9,3.7916,0.48173
475,973.2,3.79,0.48417
475.4,975.5,3.79,0.48531
475.8,977.8,3.7873,0.48202
476.2,980.1,3.7873,0.48274
476.6,982.3,3.7872,0.48297
477,984.6,3.786,0.4838
477.4,986.9,3.786,0.48486
477.8,989.2,3.7845,0.48383
478.2,991.5,3.7834,0.48636
478.6,993.8,3.7834,0.48542
479,996.1,3.7821,0.48665
479.4,998.4,3.782,0.48397
479.8,1000.7,3.7807,0.48516
480.2,1003,3.7807,0.48592
480.6,1005.3,3.7808,0.4861
481,1007.6,3.7781,0.48526
481.4,1009.9,3.7767,0.48578
481.8,1012.2,3.7768,0.48933
482.2,1014.5,3.7759,0.49008
482.6,1016.8,3.7755,0.48966
483,1019.1,3.7752,0.4903
483.4,1021.4,3.7741,0.48896
483.8,1023.7,3.7741,0.49038
484.2,1026,3.7728,0.49049
484.6,1028.3,3.7716,0.49211
485,1030.6,3.7706,0.49302
485.4,1032.9,3.7689,0.49301
485.8,1035.1,3.7689,0.4907
486.2,1037.4,3.7676,0.49011
486.6,1039.7,3.7673,0.49257
487,1042,3.7663,0.49302
487.4,1044.3,3.7663,0.49327
487.8,1046.6,3.765,0.49201
488.2,1048.9,3.765,0.49135
488.6,1051.2,3.765,0.49061
489,1053.5,3.7626,0.48939
489.4,1055.8,3.7626,0.48796
489.8,1058.1,3.7623,0.48633
490.2,1060.4,3.7623,0.48659
490.6,1062.7,3.761,0.48531
491,1065,3.7597,0.48504
491.4,1067.2,3.7597,0.48335
491.8,1069.5,3.7597,0.48431
492.2,1071.8,3.759,0.47958
492.6,1074.1,3.7584,0.47998
493,1076.4,3.7584,0.4759
493.4,1078.7,3.7584,0.47428
493.8,1080.9,3.7571,0.47392
494.2,1083.2,3.757,0.47288
494.6,1085.5,3.7559,0.46914
495,1087.8,3.7557,0.46954
495.4,1090.1,3.7557,0.46744
495.8,1092.4,3.7571,0.4661
496.2,1094.7,3.7557,0.46309
496.6,1097,3.7556,0.46266
497,1099.3,3.7544,0.46265
497.4,1101.6,3.7538,0.45874
497.8,1103.9,3.7535,0.45891
498.2,1106.2,3.7521,0.45731
498.6,1108.5,3.7521,0.45677
499,1110.7,3.7521,0.45683
499.4,1113,3.7521,0.45653
499.8,1115.3,3.7521,0.45534
500.2,1117.6,3.7521,0.45546
500.6,1119.9,3.7521,0.4531
501,1122.2,3.7521,0.45407
501.4,1124.5,3.7521,0.45155
501.8,1126.8,3.7521,0.45183
502.2,1129.1,3.7521,0.45146
502.6,1131.4,3.7507,0.45261
503,1133.7,3.7508,0.45378
503.4,1136,3.7502,0.45187
503.8,1138.3,3.7495,0.45173
504.2,1140.5,3.7481,0.44975
504.6,1142.8,3.7496,0.4513
505,1145.1,3.7492,0.45299
505.4,1147.4,3.7489,0.44998
505.8,1149.7,3.7489,0.45071
506.2,1152,3.7489,0.45443
506.6,1154.3,3.7489,0.45199
507,1156.5,3.7489,0.45174
507.4,1158.8,3.7489,0.4549
507.8,1161.1,3.7489,0.45289
508.2,1163.4,3.7476,0.45294
508.6,1165.7,3.7481,0.45561
509,1168,3.7489,0.45508
509.4,1170.3,3.7489,0.45588
509.8,1172.6,3.7489,0.45502
510.2,1174.9,3.7489,0.45536
510.6,1177.1,3.7484,0.45417
511,1179.4,3.7476,0.45542
511.4,1181.7,3.7476,0.45463
511.8,1184,3.7476,0.4562
512.2,1186.3,3.7476,0.45599
512.6,1188.6,3.747,0.45705
513,1190.9,3.7463,0.45561
513.4,1193.1,3.7469,0.45762
513.8,1195.4,3.7469,0.45807
514.2,1197.7,3.7469,0.45579
514.6,1200,3.7469,0.45768
515,1202.3,3.7469,0.45875
515.4,1204.6,3.7461,0.4575
515.8,1206.9,3.7453,0.45994
516.2,1209.2,3.7453,0.45887
516.6,1211.5,3.7453,0.46
517,1213.7,3.7453,0.46054
517.4,1216,3.7453,0.45824
517.8,1218.3,3.7453,0.46151
518.2,1220.6,3.7453,0.46144
518.6,1222.9,3.745,0.46078
519,1225.2,3.745,0.46317
519.4,1227.5,3.745,0.46377
519.8,1229.8,3.7445,0.4637
520.2,1232.1,3.743,0.46304
520.6,1234.4,3.7427,0.46666
521,1236.6,3.7427,0.4648
521.4,1238.9,3.7417,0.46323
521.8,1241.2,3.7417,0.46168
522.2,1243.5,3.7417,0.46468
522.6,1245.8,3.7417,0.46342
523,1248.1,3.7417,0.46292
523.4,1250.4,3.7417,0.46422
523.8,1252.7,3.7417,0.46566
524.2,1255,3.7417,0.46443
524.6,1257.3,3.7403,0.46513
525,1259.6,3.7404,0.46768
525.4,1261.9,3.7404,0.46727
525.8,1264.2,3.7404,0.46619
526.2,1266.5,3.7404,0.46676
526.6,1268.8,3.7404,0.46869
527,1271.1,3.7404,0.47018
527.4,1273.4,3.7404,0.47113
527.8,1275.7,3.7404,0.47043
528.2,1278,3.7404,0.4728
528.6,1280.3,3.7392,0.47195
529,1282.6,3.7377,0.47153
529.4,1284.9,3.7377,0.47472
529.8,1287.2,3.7377,0.47319
530.2,1289.5,3.7377,0.47416
530.6,1291.8,3.7377,0.47633
531,1294.1,3.7377,0.47682
531.4,1296.4,3.7377,0.47577
531.8,1298.6,3.7364,0.47929
532.2,1300.9,3.7365,0.47784
532.6,1303.2,3.7351,0.47881
533,1305.5,3.7351,0.47933
533.4,1307.8,3.7337,0.48015
533.8,1310.1,3.7338,0.48084
534.2,1312.4,3.7338,0.4818
534.6,1314.7,3.7339,0.48255
535,1317,3.7344,0.48377
535.4,1319.3,3.7344,0.48579
535.8,1321.6,3.7343,0.48603
536.2,1323.9,3.7335,0.48698
536.6,1326.2,3.7331,0.48895
537,1328.5,3.7331,0.48814
537.4,1330.8,3.7331,0.49005
537.8,1333.2,3.7318,0.48954
538.2,1335.5,3.7318,0.49112
538.6,1337.8,3.7318,0.49436
539,1340.1,3.7302,0.49412
539.4,1342.4,3.7292,0.49614
539.8,1344.7,3.7279,0.49669
540.2,1347,3.7265,0.49673
540.6,1349.3,3.7278,0.4992
541,1351.6,3.7279,0.50104
541.4,1353.9,3.728,0.50264
541.8,1356.2,3.7265,0.50024
542.2,1358.5,3.7252,0.50156
542.6,1360.8,3.7252,0.50558
543,1363.1,3.7252,0.50565
543.4,1365.4,3.7262,0.50756
543.8,1367.7,3.7248,0.50607
544.2,1370,3.7249,0.51047
544.6,1372.3,3.7235,0.51261
545,1374.6,3.7223,0.51377
545.4,1376.9,3.7223,0.51608
545.8,1379.2,3.7212,0.51343
546.2,1381.5,3.721,0.51675
546.6,1383.9,3.7209,0.52003
547,1386.2,3.7197,0.52213
547.4,1388.5,3.7183,0.5253
547.8,1390.8,3.717,0.52736
548.2,1393.1,3.717,0.52909
548.6,1395.4,3.7171,0.52977
549,1397.7,3.7171,0.53178
549.4,1400,3.7164,0.53614
549.8,1402.3,3.7157,0.53616
550.2,1404.6,3.7147,0.53889
550.6,1406.9,3.7144,0.53928
551,1409.2,3.7123,0.54144
551.4,1411.5,3.711,0.54545
551.8,1413.8,3.7097,0.54579
552.2,1416.1,3.7098,0.55003
552.6,1418.4,3.7098,0.55294
553,1420.7,3.7084,0.55375
553.4,1423,3.7083,0.55649
553.8,1425.3,3.7067,0.55724
554.2,1427.6,3.7057,0.56054
554.6,1429.9,3.7043,0.56185
555,1432.2,3.7049,0.56463
555.4,1434.5,3.7043,0.56597
555.8,1436.8,3.7032,0.56825
556.2,1439.1,3.7029,0.57023
556.6,1441.4,3.7016,0.57211
557,1443.8,3.7003,0.57324
557.4,1446,3.7004,0.57664
557.8,1448.3,3.6989,0.57734
558.2,1450.6,3.6964,0.57753
558.6,1452.9,3.6949,0.58173
559,1455.2,3.6936,0.58175
559.4,1457.5,3.6943,0.58324
559.8,1459.8,3.6933,0.58575
560.2,1462.1,3.692,0.58698
560.6,1464.4,3.6906,0.59189
561,1466.7,3.6882,0.58957
561.4,1469,3.687,0.59209
561.8,1471.3,3.6851,0.59266
562.2,1473.6,3.6842,0.59397
562.6,1475.9,3.6826,0.59605
563,1478.2,3.6811,0.59653
563.4,1480.5,3.681,0.59733
563.8,1482.8,3.6796,0.59938
564.2,1485.1,3.6782,0.60054
564.6,1487.4,3.6764,0.59941
565,1489.7,3.6742,0.60214
565.4,1492,3.6724,0.60272
565.8,1494.3,3.6702,0.6035
566.2,1496.6,3.6698,0.60612
566.6,1498.9,3.6687,0.60689
567,1501.2,3.6672,0.60846
567.4,1503.5,3.6656,0.60843
567.8,1505.8,3.6639,0.60852
568.2,1508.1,3.6619,0.61125
568.6,1510.4,3.66,0.61184
569,1512.7,3.6593,0.6117
569.4,1515.1,3.6577,0.61335
569.8,1517.4,3.6563,0.61414
570.2,1519.7,3.654,0.61389
570.6,1522,3.6509,0.61334
571,1524.3,3.6484,0.61274
571.4,1526.6,3.6473,0.61208
571.8,1528.9,3.6455,0.61301
572.2,1531.2,3.6451,0.61271
572.6,1533.5,3.6441,0.61431
573,1535.8,3.6429,0.61295
573.4,1538.1,3.6412,0.61416
573.8,1540.4,3.6389,0.61427
574.2,1542.7,3.6367,0.6143
574.6,1545,3.6353,0.61722
575,1547.3,3.633,0.61622
575.4,1549.6,3.6309,0.61888
575.8,1551.9,3.6287,0.62054
576.2,1554.2,3.6263,0.62083
576.6,1556.5,3.6247,0.62422
577,1558.8,3.623,0.62564
577.4,1561.1,3.6193,0.62861
577.8,1563.4,3.6177,0.62827
578.2,1565.7,3.6166,0.63274
578.6,1568,3.6143,0.63586
579,1570.3,3.6123,0.63747
579.4,1572.6,3.6108,0.64051
579.8,1574.9,3.6086,0.64272
580.2,1577.2,3.6063,0.6454
580.6,1579.6,3.6044,0.64961
581,1581.9,3.6028,0.65217
581.4,1584.2,3.6014,0.65705
581.8,1586.5,3.5993,0.65854
582.2,1588.8,3.5964,0.66126
582.6,1591.1,3.5934,0.66548
583,1593.4,3.5909,0.67049
583.4,1595.7,3.5883,0.67279
583.8,1598,3.5867,0.67794
584.2,1600.4,3.5845,0.67988
584.6,1602.7,3.5828,0.68371
585,1605,3.5799,0.68858
585.4,1607.3,3.5766,0.69424
585.8,1609.6,3.5737,0.69931
586.2,1611.9,3.572,0.70255
586.6,1614.2,3.5689,0.70446
587,1616.5,3.5649,0.71014
587.4,1618.8,3.5624,0.71382
587.8,1621.2,3.5591,0.72199
588.2,1623.5,3.5571,0.72846
588.6,1625.8,3.554,0.7326
589,1628.1,3.5507,0.73717
589.4,1630.4,3.5483,0.7442
589.8,1632.7,3.5441,0.75239
590.2,1635,3.5406,0.75865
590.6,1637.4,3.5396,0.76804
591,1639.7,3.536,0.77127
591.4,1642,3.5324,0.77992
591.8,1644.3,3.5285,0.78703
592.2,1646.6,3.5248,0.79608
592.6,1648.9,3.5213,0.80251
593,1651.2,3.5154,0.80975
593.4,1653.5,3.5123,0.81925
593.8,1655.8,3.5084,0.8284
594.2,1658.1,3.5037,0.83483
594.6,1660.4,3.4996,0.844
595,1662.7,3.4957,0.85435
595.4,1665,3.4909,0.86252
595.8,1667.4,3.486,0.8713
596.2,1669.7,3.4818,0.88285
596.6,1672,3.4766,0.89468
597,1674.3,3.4723,0.90272
597.4,1676.6,3.4675,0.91438
597.8,1678.9,3.4626,0.92436
598.2,1681.3,3.4577,0.93634
598.6,1683.6,3.4522,0.94891
599,1685.9,3.4467,0.959
599.4,1688.2,3.4415,0.9721
599.8,1690.5,3.4357,0.98517
600.2,1692.8,3.429,1.00096
600.6,1695.1,3.4224,1.01432
601,1697.5,3.4167,1.02817
601.4,1699.8,3.4108,1.0411
601.8,1702.1,3.4055,1.05717
602.2,1704.4,3.3984,1.07192
602.6,1706.7,3.392,1.08673
603,1709,3.3845,1.10323
603.4,1711.3,3.3774,1.11855
603.8,1713.7,3.3697,1.13298
604.2,1716,3.3613,1.15081
604.6,1718.3,3.3546,1.16818
605,1720.6,3.3458,1.18423
605.4,1722.9,3.3381,1.20326
605.8,1725.2,3.3298,1.22161
606.2,1727.6,3.3236,1.24076
606.6,1729.9,3.3143,1.25945
607,1732.2,3.3051,1.27868
607.4,1734.5,3.2963,1.29901
607.8,1736.9,3.2863,1.31907
608.2,1739.2,3.2765,1.33975
608.6,1741.5,3.2667,1.35845
609,1743.8,3.2568,1.38034
609.4,1746.1,3.2462,1.40528
609.8,1748.5,3.2353,1.42672
610.2,1750.8,3.2231,1.4492
610.6,1753.1,3.2117,1.47233
611,1755.5,3.2008,1.49639
611.4,1757.8,3.189,1.52106
611.8,1760.1,3.1769,1.54424
612.2,1762.5,3.1651,1.56831
612.6,1764.8,3.1523,1.59527
613,1767.2,3.1381,1.61992
613.4,1769.5,3.1242,1.64571
613.8,1771.8,3.1114,1.6702
614.2,1774.2,3.0976,1.69863
614.6,1776.5,3.0831,1.72466
615,1778.9,3.0693,1.74891
615.4,1781.2,3.0554,1.77856
615.8,1783.5,3.0408,1.80475
616.2,1785.9,3.0249,1.83328
616.6,1788.2,3.009,1.86253
617,1790.6,2.9928,1.89062
617.4,1792.9,2.9763,1.91611
617.8,1795.3,2.9602,1.9433
618.2,1797.6,2.9447,1.97503
618.6,1800,2.927,2.00455
619,1802.3,2.9101,2.03492
619.4,1804.6,2.892,2.06342
619.8,1807,2.8731,2.09274
620.2,1809.4,2.8549,2.12153
620.6,1811.7,2.8366,2.15296
621,1814.1,2.8173,2.17965
621.4,1816.4,2.7975,2.21257
621.8,1818.7,2.7765,2.23998
622.2,1821.1,2.7564,2.26932
622.6,1823.5,2.7372,2.29963
623,1825.8,2.7173,2.32664
623.4,1828.2,2.6951,2.35419
623.8,1830.5,2.673,2.38382
624.2,1832.9,2.6511,2.41374
624.6,1835.2,2.6296,2.43992
625,1837.6,2.6073,2.46811
625.4,1840,2.5847,2.4931
625.8,1842.3,2.5622,2.52176
626.2,1844.7,2.539,2.54916
626.6,1847,2.5155,2.57323
627,1849.4,2.4912,2.59923
627.4,1851.8,2.4662,2.624
627.8,1854.1,2.4425,2.65005
628.2,1856.5,2.4176,2.67034
628.6,1858.8,2.3921,2.69573
629,1861.2,2.367,2.71623
629.4,1863.6,2.3411,2.73937
629.8,1865.9,2.3148,2.75962
630.2,1868.3,2.2889,2.77924
630.6,1870.6,2.2621,2.79722
631,1873,2.2359,2.81844
631.4,1875.3,2.2083,2.83467
631.8,1877.7,2.1819,2.8528
632.2,1880,2.1536,2.86645
632.6,1882.4,2.1265,2.87875
633,1884.8,2.0993,2.89347
633.4,1887.1,2.0714,2.90396
633.8,1889.5,2.043,2.91217
634.2,1891.8,2.0144,2.92249
634.6,1894.1,1.9862,2.93075
635,1896.5,1.958,2.94007
635.4,1898.8,1.9303,2.946
635.8,1901.2,1.9014,2.94805
636.2,1903.5,1.8729,2.95027
636.6,1905.9,1.8428,2.95101
637,1908.2,1.8138,2.94421
637.4,1910.6,1.7853,2.93565
637.8,1912.9,1.7572,2.92698
638.2,1915.2,1.7281,2.93302
638.6,1917.6,1.6988,2.93104
639,1919.9,1.6704,2.9237
639.4,1922.2,1.6426,2.90739
639.8,1924.6,1.6143,2.8895
640.2,1926.9,1.5865,2.86713
640.6,1929.2,1.5591,2.84883
641,1931.6,1.5318,2.87631
641.4,1933.9,1.5035,2.88927
641.8,1936.2,1.4739,2.87683
642.2,1938.6,1.4459,2.86755
642.6,1940.9,1.4193,2.84788
643,1943.2,1.391,2.84259
643.4,1945.6,1.362,2.8443
643.8,1947.9,1.3347,2.82105
644.2,1950.2,1.3067,2.81647
644.6,1952.5,1.2797,2.79659
645,1954.8,1.2535,2.77597
645.4,1957.2,1.2267,2.74096
645.8,1959.5,1.2,2.73873
646.2,1961.8,1.172,2.71082
646.6,1964.1,1.1443,2.68646
647,1966.5,1.1179,2.66712
647.4,1968.8,1.0929,2.6382
647.8,1971.1,1.0666,2.60709
648.2,1973.4,1.0411,2.57978
648.6,1975.7,1.0151,2.54943
649,1978.1,0.9916,2.51901
649.4,1980.4,0.9664,2.49158
649.8,1982.7,0.9411,2.45515
650.2,1985,0.9172,2.42235
650.6,1987.3,0.892,2.38779
651,1989.6,0.8679,2.35328
651.4,1991.9,0.8445,2.31339
651.8,1994.2,0.8228,2.28194
652.2,1996.5,0.8005,2.24463
652.6,1998.9,0.7793,2.21291
653,2001.2,0.7582,2.17742
653.4,2003.5,0.7363,2.13775
653.8,2005.8,0.716,2.10121
654.2,2008.1,0.6947,2.06463
654.6,2010.4,0.675,2.02847
655,2012.7,0.6543,1.99377
655.4,2015,0.6343,1.95828
655.8,2017.3,0.6136,1.92276
656.2,2019.6,0.5948,1.88851
656.6,2021.9,0.5766,1.84938
657,2024.2,0.5584,1.8106
657.4,2026.5,0.5406,1.77396
657.8,2028.8,0.523,1.74085
658.2,2031.1,0.5055,1.70858
658.6,2033.4,0.4878,1.67112
659,2035.7,0.4706,1.63476
659.4,2038,0.4546,1.59874
659.8,2040.3,0.4379,1.56018
660.2,2042.6,0.4221,1.52342
660.6,2044.9,0.4074,1.49118
661,2047.2,0.3933,1.45833
661.4,2049.5,0.3791,1.42072
661.8,2051.8,0.3642,1.38818
662.2,2054.2,0.3502,1.35015
662.6,2056.5,0.338,1.31279
663,2058.8,0.3246,1.27956
663.4,2061.1,0.3118,1.24113
663.8,2063.4,0.2987,1.20809
664.2,2065.7,0.2864,1.17595
664.6,2068,0.2743,1.15307
665,2070.3,0.2619,1.12215
665.4,2072.6,0.2518,1.09014
665.8,2074.9,0.241,1.06052
666.2,2077.3,0.2315,1.03129
666.6,2079.6,0.2209,0.99919
667,2081.9,0.2108,0.96921
667.4,2084.2,0.2014,0.94047
667.8,2086.5,0.1912,0.91313
668.2,2088.9,0.1813,0.88373
668.6,2091.2,0.1723,0.85655
669,2093.5,0.1637,0.82983
669.4,2095.8,0.1543,0.8021
669.8,2098.1,0.147,0.78019
670.2,2100.5,0.1386,0.75551
670.6,2102.8,0.1303,0.72642
671,2105.1,0.1225,0.70479
671.4,2107.4,0.1153,0.68205
671.8,2109.8,0.1086,0.65901
672.2,2112.1,0.1024,0.6406
672.6,2114.4,0.0948,0.61645
673,2116.8,0.0894,0.59349
673.4,2119.1,0.0824,0.56957
673.8,2121.4,0.0765,0.55391
674.2,2123.8,0.0711,0.53257
674.6,2126.1,0.0659,0.51603
675,2128.4,0.0602,0.49529
675.4,2130.8,0.0551,0.47473
675.8,2133.1,0.0505,0.45731
676.2,2135.4,0.0461,0.44009
676.6,2137.7,0.0405,0.42503
677,2140.1,0.0358,0.40829
677.4,2142.4,0.0314,0.39153
677.8,2144.7,0.0269,0.37878
678.2,2147.1,0.0235,0.36467
678.6,2149.4,0.0206,0.34969
679,2151.8,0.0169,0.33582
679.4,2154.1,0.0138,0.32323
679.8,2156.4,0.0108,0.31074
680.2,2158.8,0.0069,0.29876
680.6,2161.1,0.0024,0.28445
681,2163.4,-0.0009,0.27404
681.4,2165.8,-0.0034,0.26113
681.8,2168.1,-0.0061,0.25202
682.2,2170.5,-0.0082,0.24054
682.6,2172.8,-0.0104,0.22984
683,2175.1,-0.0129,0.21969
683.4,2177.5,-0.0156,0.21344
683.8,2179.8,-0.0185,0.20409
684.2,2182.2,-0.0207,0.19641
684.6,2184.5,-0.0227,0.18853
685,2186.8,-0.0243,0.17965
685.4,2189.2,-0.0264,0.17171
685.8,2191.5,-0.0282,0.16458
686.2,2193.9,-0.0294,0.15778
686.6,2196.2,-0.0319,0.1515
687,2198.5,-0.0334,0.14119
687.4,2200.9,-0.0349,0.13735
687.8,2203.2,-0.0374,0.13183
688.2,2205.5,-0.0381,0.1244
688.6,2207.9,-0.0394,0.1193
689,2210.2,-0.0407,0.11413
689.4,2212.6,-0.0417,0.11062
689.8,2214.9,-0.0419,0.10449
690.2,2217.2,-0.0434,0.10163
690.6,2219.6,-0.0436,9.61E-02
691,2221.9,-0.0448,9.39E-02
691.4,2224.3,-0.046,9.12E-02
691.8,2226.6,-0.0473,8.26E-02
692.2,2228.9,-0.0488,8.03E-02
692.6,2231.3,-0.0503,8.00E-02
693,2233.6,-0.0516,7.45E-02
693.4,2236,-0.0532,7.20E-02
693.8,2238.3,-0.0544,6.79E-02
694.2,2240.6,-0.0545,6.41E-02
694.6,2243,-0.0558,6.08E-02
695,2245.3,-0.0559,6.14E-02
695.4,2247.7,-0.0571,5.64E-02
695.8,2250,-0.0571,5.74E-02
696.2,2252.3,-0.0571,5.51E-02
696.6,2254.7,-0.0583,5.22E-02
697,2257,-0.0584,5.18E-02
697.4,2259.4,-0.0594,4.63E-02
697.8,2261.7,-0.0597,4.64E-02
698.2,2264.1,-0.0596,4.82E-02
698.6,2266.4,-0.0592,4.55E-02
699,2268.8,-0.0594,4.53E-02
699.4,2271.1,-0.0597,4.53E-02
699.8,2273.4,-0.0597,4.52E-02
700.2,2275.8,-0.0597,4.75E-02
700.6,2278.1,-0.061,4.52E-02
701,2280.5,-0.0623,4.53E-02
701.4,2282.8,-0.0623,4.87E-02
701.8,2285.2,-0.0623,4.67E-02
702.2,2287.5,-0.0626,4.69E-02
702.6,2289.9,-0.0637,4.67E-02
703,2292.2,-0.0636,4.85E-02
703.4,2294.5,-0.0638,4.94E-02
703.8,2296.9,-0.0637,4.62E-02
704.2,2299.2,-0.0637,4.79E-02
704.6,2301.6,-0.0646,4.80E-02
705,2303.9,-0.0646,4.76E-02
705.4,2306.2,-0.0659,4.73E-02
705.8,2308.6,-0.066,4.56E-02
706.2,2310.9,-0.0651,4.49E-02
706.6,2313.3,-0.0646,4.50E-02
707,2315.6,-0.0648,4.20E-02
707.4,2318,-0.0651,4.05E-02
707.8,2320.4,-0.066,3.58E-02
708.2,2322.7,-0.066,3.40E-02
708.6,2325.1,-0.066,3.14E-02
709,2327.5,-0.066,3.06E-02
709.4,2329.8,-0.0646,2.50E-02
709.8,2332.2,-0.0646,2.34E-02
710.2,2334.5,-0.066,1.98E-02
710.6,2336.9,-0.066,1.39E-02
711,2339.2,-0.066,9.74E-03
711.4,2341.6,-0.0672,4.17E-03
711.8,2344,-0.0673,-1.96E-03
712.2,2346.3,-0.0686,-9.23E-03
712.6,2348.7,-0.0686,-1.70E-02
713,2351.1,-0.0686,-2.24E-02
713.4,2353.5,-0.0686,-3.07E-02
713.8,2355.8,-0.0686,-3.08E-02
714.2,2358.2,-0.0699,-3.41E-02
714.6,2360.5,-0.0693,-3.49E-02
715,2362.9,-0.0692,-3.53E-02
715.4,2365.3,-0.0692,-3.21E-02
715.8,2367.6,-0.0692,-3.25E-02
716.2,2370,-0.0692,-2.97E-02
716.6,2372.4,-0.0686,-2.74E-02
717,2374.8,-0.0686,-2.18E-02
717.4,2377.1,-0.0686,-1.67E-02
717.8,2379.5,-0.0672,-1.32E-02
718.2,2381.9,-0.0673,-9.31E-03
718.6,2384.2,-0.0673,-7.02E-03
719,2386.6,-0.0673,-1.28E-03
719.4,2389,-0.0673,-9.18E-04
719.8,2391.4,-0.0672,2.85E-03
720.2,2393.7,-0.0686,4.34E-03
720.6,2396.1,-0.0686,7.31E-03
721,2398.5,-0.0672,1.04E-02
721.4,2400.9,-0.0673,1.38E-02
721.8,2403.2,-0.0673,1.66E-02
722.2,2405.5,-0.0673,1.54E-02
722.6,2407.9,-0.0668,2.17E-02
723,2410.2,-0.066,2.36E-02
723.4,2412.6,-0.0659,2.04E-02
723.8,2414.9,-0.0673,2.11E-02
724.2,2417.3,-0.0673,2.29E-02
724.6,2419.7,-0.0675,2.33E-02
725,2422.1,-0.0687,2.60E-02
725.4,2424.4,-0.07,2.63E-02
725.8,2426.8,-0.0702,2.68E-02
726.2,2429.2,-0.0703,3.08E-02
726.6,2431.5,-0.0704,2.78E-02
727,2433.9,-0.0717,3.07E-02
727.4,2436.2,-0.0716,3.00E-02
727.8,2438.6,-0.0703,2.86E-02
728.2,2441,-0.0692,2.85E-02
728.6,2443.3,-0.069,2.52E-02
729,2445.7,-0.068,2.73E-02
729.4,2448,-0.068,2.42E-02
729.8,2450.4,-0.068,2.57E-02
730.2,2452.7,-0.0681,2.64E-02
730.6,2455.1,-0.0678,2.52E-02
731,2457.4,-0.0667,2.54E-02
731.4,2459.8,-0.0667,2.77E-02
731.8,2462.1,-0.0667,2.97E-02
732.2,2464.5,-0.0667,2.62E-02
732.6,2466.9,-0.0681,2.84E-02
733,2469.2,-0.068,2.82E-02
733.4,2471.6,-0.068,2.96E-02
733.8,2474,-0.068,2.86E-02
734.2,2476.3,-0.0681,3.11E-02
734.6,2478.7,-0.0694,2.99E-02
735,2481,-0.0693,2.91E-02
735.4,2483.4,-0.0679,2.73E-02
735.8,2485.8,-0.067,2.77E-02
736.2,2488.1,-0.0664,3.09E-02
736.6,2490.5,-0.0653,3.19E-02
737,2492.9,-0.0657,3.16E-02
737.4,2495.2,-0.0666,2.96E-02
737.8,2497.6,-0.0666,3.33E-02
738.2,2500,-0.0666,3.43E-02
738.6,2502.3,-0.0667,3.29E-02
739,2504.7,-0.0679,3.06E-02
739.4,2507.1,-0.0679,3.06E-02
739.8,2509.4,-0.0679,3.14E-02
740.2,2511.8,-0.0679,3.16E-02
740.6,2514.1,-0.068,3.02E-02
741,2516.5,-0.0666,3.16E-02
741.4,2518.9,-0.0666,3.37E-02
741.8,2521.2,-0.067,3.33E-02
742.2,2523.6,-0.0679,3.31E-02
742.6,2525.9,-0.0693,3.37E-02
743,2528.3,-0.0693,3.54E-02
743.4,2530.7,-0.0692,3.50E-02
743.8,2533,-0.0692,3.65E-02
744.2,2535.4,-0.0692,3.53E-02
744.6,2537.8,-0.0692,3.58E-02
745,2540.2,-0.0692,3.54E-02
745.4,2542.5,-0.0692,3.44E-02
745.8,2544.9,-0.0692,3.43E-02
746.2,2547.3,-0.0683,3.72E-02
746.6,2549.7,-0.0682,3.46E-02
747,2552,-0.0679,3.50E-02
747.4,2554.4,-0.0682,3.42E-02
747.8,2556.8,-0.0683,3.82E-02
748.2,2559.1,-0.0683,3.68E-02
748.6,2561.5,-0.0683,3.60E-02
749,2563.9,-0.0683,3.63E-02
749.4,2566.2,-0.0683,3.55E-02
749.8,2568.6,-0.0689,3.57E-02
750.2,2570.9,-0.068,3.89E-02
750.6,2573.3,-0.0669,3.77E-02
751,2575.7,-0.0675,3.56E-02
751.4,2578.1,-0.0683,3.65E-02
751.8,2580.5,-0.0683,3.54E-02
752.2,2582.9,-0.0691,3.67E-02
752.6,2585.2,-0.0695,3.72E-02
753,2587.6,-0.0696,3.62E-02
753.4,2590,-0.0696,3.78E-02
753.8,2592.4,-0.0688,3.77E-02
754.2,2594.7,-0.0686,3.86E-02
754.6,2597.1,-0.0693,4.00E-02
755,2599.5,-0.0683,3.77E-02
755.4,2601.8,-0.0683,3.84E-02
755.8,2604.2,-0.0683,3.64E-02
756.2,2606.6,-0.0683,3.80E-02
756.6,2609,-0.0696,3.82E-02
757,2611.3,-0.0696,3.72E-02
757.4,2613.7,-0.0696,4.11E-02
757.8,2616.1,-0.0683,3.86E-02
758.2,2618.4,-0.0682,3.75E-02
758.6,2620.8,-0.0669,4.24E-02
759,2623.2,-0.0696,3.95E-02
759.4,2625.6,-0.0696,3.76E-02
759.8,2627.9,-0.0696,4.11E-02
760.2,2630.3,-0.0683,3.73E-02
760.6,2632.7,-0.0683,4.13E-02
761,2635.1,-0.0682,4.23E-02
761.4,2637.4,-0.0678,4.06E-02
761.8,2639.8,-0.0673,4.12E-02
762.2,2642.2,-0.0673,4.11E-02
762.6,2644.6,-0.0673,4.32E-02
763,2646.9,-0.0673,4.06E-02
763.4,2649.3,-0.0673,4.28E-02
763.8,2651.7,-0.0669,4.35E-02
764.2,2654,-0.0669,3.86E-02
764.6,2656.4,-0.0669,4.36E-02
765,2658.8,-0.0669,4.33E-02
765.4,2661.2,-0.0669,4.49E-02
765.8,2663.5,-0.0683,4.55E-02
766.2,2665.9,-0.0683,4.30E-02
766.6,2668.3,-0.0683,4.47E-02
767,2670.6,-0.0683,4.23E-02
767.4,2673,-0.0683,4.37E-02
767.8,2675.3,-0.0669,4.46E-02
768.2,2677.7,-0.0669,4.51E-02
768.6,2680.1,-0.0669,4.33E-02
769,2682.5,-0.0658,4.46E-02
769.4,2684.8,-0.0656,4.82E-02
769.8,2687.2,-0.0669,4.54E-02
770.2,2689.6,-0.0669,4.84E-02
770.6,2692,-0.0669,4.34E-02
771,2694.4,-0.0669,4.56E-02
771.4,2696.7,-0.0669,4.63E-02
771.8,2699.1,-0.0669,4.56E-02
772.2,2701.5,-0.0669,4.51E-02
772.6,2703.9,-0.0658,4.51E-02
773,2706.3,-0.0656,4.30E-02
773.4,2708.7,-0.0656,4.55E-02
773.8,2711.1,-0.0656,4.66E-02
774.2,2713.5,-0.0656,4.66E-02
774.6,2715.9,-0.0656,4.70E-02
775,2718.3,-0.0659,4.83E-02
775.4,2720.7,-0.067,4.85E-02
775.8,2723.1,-0.0683,4.59E-02
776.2,2725.5,-0.0683,4.63E-02
776.6,2727.8,-0.0676,4.78E-02
777,2730.2,-0.0676,4.62E-02
777.4,2732.6,-0.0676,4.80E-02
777.8,2735,-0.0676,4.80E-02
778.2,2737.3,-0.0676,4.80E-02
778.6,2739.7,-0.0676,4.97E-02
779,2742.1,-0.0663,5.24E-02
779.4,2744.4,-0.0663,5.04E-02
779.8,2746.8,-0.0676,5.20E-02
780.2,2749.2,-0.0689,5.18E-02
780.6,2751.6,-0.0689,5.25E-02
781,2754,-0.0679,5.19E-02
781.4,2756.4,-0.0676,4.98E-02
781.8,2758.8,-0.0676,5.03E-02
782.2,2761.2,-0.0676,5.06E-02
782.6,2763.6,-0.0676,5.26E-02
783,2765.9,-0.0663,5.47E-02
783.4,2768.3,-0.0663,5.04E-02
783.8,2770.7,-0.0663,5.32E-02
784.2,2773.1,-0.0663,5.21E-02
784.6,2775.5,-0.0663,5.32E-02
785,2777.9,-0.0663,5.53E-02
785.4,2780.2,-0.0663,5.50E-02
785.8,2782.6,-0.0663,5.51E-02
786.2,2785,-0.0667,5.45E-02
786.6,2787.4,-0.0673,5.63E-02
787,2789.7,-0.0673,5.49E-02
787.4,2792.1,-0.0671,5.70E-02
787.8,2794.5,-0.0669,6.02E-02
788.2,2796.9,-0.0673,6.01E-02
788.6,2799.2,-0.0673,5.84E-02
789,2801.6,-0.0673,5.71E-02
789.4,2804,-0.0673,5.68E-02
789.8,2806.4,-0.0673,6.04E-02
790.2,2808.7,-0.0673,5.90E-02
790.6,2811.1,-0.0673,6.13E-02
791,2813.5,-0.0673,6.05E-02
791.4,2815.9,-0.0673,5.93E-02
791.8,2818.3,-0.0669,6.02E-02
792.2,2820.6,-0.0663,6.08E-02
792.6,2823,-0.0663,6.17E-02
793,2825.4,-0.0663,6.24E-02
793.4,2827.8,-0.0663,6.36E-02
793.8,2830.1,-0.0663,6.07E-02
794.2,2832.5,-0.0663,6.37E-02
794.6,2834.9,-0.0663,6.40E-02
795,2837.3,-0.0663,6.50E-02
795.4,2839.7,-0.0663,6.27E-02
795.8,2842.1,-0.0663,6.68E-02
796.2,2844.5,-0.0668,6.39E-02
796.6,2846.8,-0.0669,6.29E-02
797,2849.2,-0.0669,6.59E-02
797.4,2851.6,-0.0669,6.65E-02
797.8,2854,-0.0683,6.53E-02
798.2,2856.4,-0.0682,6.64E-02
798.6,2858.7,-0.0679,6.55E-02
799,2861.1,-0.0666,6.90E-02
799.4,2863.5,-0.0656,6.65E-02
799.8,2865.9,-0.067,6.62E-02
800.2,2868.3,-0.0669,6.65E-02
800.6,2870.7,-0.0672,6.36E-02
801,2873,-0.0683,6.66E-02
801.4,2875.4,-0.0683,6.70E-02
801.8,2877.8,-0.0683,6.79E-02
802.2,2880.2,-0.0683,6.74E-02
802.6,2882.6,-0.0673,6.80E-02
803,2885,-0.0669,6.61E-02
803.4,2887.4,-0.0669,6.89E-02
803.8,2889.8,-0.067,7.24E-02
804.2,2892.2,-0.0683,6.75E-02
804.6,2894.6,-0.0683,6.86E-02
805,2897,-0.0683,7.02E-02
805.4,2899.3,-0.0683,7.43E-02
805.8,2901.7,-0.0683,7.06E-02
806.2,2904.1,-0.0685,7.19E-02
806.6,2906.5,-0.0683,6.92E-02
807,2908.9,-0.0683,7.10E-02
807.4,2911.3,-0.0669,7.12E-02
807.8,2913.7,-0.0656,7.26E-02
808.2,2916.1,-0.0656,7.36E-02
808.6,2918.5,-0.0656,7.36E-02
809,2920.8,-0.0663,7.35E-02
809.4,2923.2,-0.0663,7.05E-02
809.8,2925.6,-0.0663,6.88E-02
810.2,2928,-0.0663,7.15E-02
810.6,2930.4,-0.0663,6.91E-02
811,2932.8,-0.0663,7.16E-02
811.4,2935.2,-0.0663,7.21E-02
811.8,2937.6,-0.0669,7.09E-02
812.2,2939.9,-0.0669,7.47E-02
812.6,2942.3,-0.0669,7.09E-02
813,2944.7,-0.0679,6.95E-02
813.4,2947.1,-0.0679,7.28E-02
813.8,2949.4,-0.0679,7.54E-02
814.2,2951.8,-0.0679,7.26E-02
814.6,2954.2,-0.0679,7.11E-02
815,2956.6,-0.068,7.56E-02
815.4,2959,-0.0669,7.57E-02
815.8,2961.4,-0.0669,7.63E-02
816.2,2963.8,-0.0669,7.37E-02
816.6,2966.2,-0.0669,7.59E-02
817,2968.6,-0.0666,7.27E-02
817.4,2971,-0.0666,7.37E-02
817.8,2973.4,-0.0667,7.37E-02
818.2,2975.8,-0.0679,7.43E-02
818.6,2978.2,-0.0679,7.41E-02
819,2980.6,-0.0671,7.48E-02
819.4,2983,-0.0669,7.65E-02
819.8,2985.4,-0.0669,7.80E-02
820.2,2987.8,-0.0669,7.58E-02
820.6,2990.2,-0.0669,7.71E-02
821,2992.6,-0.0669,7.52E-02
821.4,2995,-0.0669,7.62E-02
821.8,2997.4,-0.0669,7.76E-02
822.1,2999.2,-0.0669,7.31E-02