File: PMMA/Calibration_Data/FSRI/FSRI_STA_N2_Sapphire_20K_1.csv
Temp,time,DSC,Heat Capacity,Heating Rate,Sensitivity
[K],[s],[uV/mg],[J/g/K],[K/s],[mW/uV]
321.9,0,1.71E-03,0.8233,0.0049,2.361
322.3,30.9,1.57E-02,0.824,0.0392,2.059
322.7,38.1,2.83E-02,0.8248,0.0682,1.988
323.1,43.2,4.08E-02,0.8255,0.0872,1.764
323.5,47.4,5.19E-02,0.8263,0.1031,1.642
323.9,51,6.20E-02,0.827,0.1176,1.568
324.3,54.3,7.19E-02,0.8278,0.1294,1.49
324.7,57.3,8.12E-02,0.8285,0.1409,1.438
325.1,60,9.00E-02,0.8292,0.1517,1.398
325.5,62.5,9.84E-02,0.83,0.1608,1.356
325.9,65,0.10663,0.8307,0.1706,1.329
326.3,67.3,0.11409,0.8314,0.1766,1.287
326.7,69.5,0.12124,0.8322,0.1847,1.268
327.1,71.6,0.12792,0.8329,0.1897,1.235
327.5,73.7,0.1349,0.8336,0.1981,1.224
327.9,75.7,0.14135,0.8343,0.205,1.21
328.3,77.6,0.14735,0.8351,0.212,1.202
328.7,79.4,0.15288,0.8358,0.2186,1.195
329.1,81.3,0.15805,0.8365,0.2219,1.175
329.5,83,0.16412,0.8372,0.2249,1.147
329.9,84.8,0.16886,0.8379,0.2278,1.131
330.3,86.5,0.1741,0.8387,0.2316,1.116
330.7,88.2,0.17927,0.8394,0.2371,1.11
331.1,89.9,0.18378,0.8401,0.2419,1.106
331.5,91.5,0.18802,0.8408,0.2531,1.132
331.9,93.1,0.1923,0.8415,0.2497,1.093
332.3,94.7,0.19635,0.8422,0.2523,1.082
332.7,96.3,0.2008,0.8429,0.2558,1.074
333.1,97.8,0.20385,0.8436,0.2521,1.043
333.5,99.4,0.20774,0.8443,0.2631,1.069
333.9,100.9,0.21139,0.845,0.2641,1.056
334.3,102.4,0.21505,0.8457,0.2693,1.059
334.7,103.9,0.21833,0.8464,0.271,1.051
335.1,105.4,0.22175,0.8471,0.2728,1.042
335.5,106.8,0.22465,0.8478,0.2753,1.039
335.9,108.3,0.22775,0.8485,0.2778,1.035
336.3,109.7,0.23098,0.8492,0.2787,1.025
336.7,111.1,0.23379,0.8499,0.2801,1.018
337.1,112.6,0.23623,0.8506,0.2808,1.011
337.5,114,0.2394,0.8513,0.2811,0.999
337.9,115.4,0.24133,0.852,0.2849,1.006
338.3,116.8,0.24414,0.8527,0.2874,1.004
338.7,118.2,0.24597,0.8534,0.2896,1.005
339.1,119.6,0.24831,0.854,0.2899,0.997
339.5,120.9,0.25078,0.8547,0.2911,0.992
339.9,122.3,0.2531,0.8554,0.2921,0.987
340.3,123.7,0.25507,0.8561,0.2932,0.984
340.7,125,0.25653,0.8568,0.2937,0.981
341.1,126.4,0.25937,0.8575,0.2947,0.974
341.5,127.7,0.26116,0.8581,0.2987,0.981
341.9,129.1,0.26311,0.8588,0.2982,0.973
342.3,130.4,0.26438,0.8595,0.299,0.972
342.7,131.8,0.26624,0.8601,0.2995,0.968
343.1,133.1,0.26791,0.8608,0.3003,0.965
343.5,134.4,0.26937,0.8615,0.2987,0.955
343.9,135.8,0.27102,0.8622,0.3008,0.957
344.3,137.1,0.27292,0.8628,0.3011,0.952
344.7,138.4,0.27431,0.8635,0.3022,0.951
345.1,139.7,0.27543,0.8641,0.3058,0.959
345.5,141,0.27675,0.8648,0.3058,0.956
345.9,142.4,0.27836,0.8655,0.3047,0.947
346.3,143.7,0.27965,0.8661,0.3081,0.954
346.7,145,0.28069,0.8668,0.3127,0.966
347.1,146.2,0.2818,0.8674,0.3081,0.948
347.5,147.5,0.28284,0.8681,0.3101,0.952
347.9,148.8,0.28439,0.8688,0.3072,0.938
348.3,150.1,0.28566,0.8694,0.3064,0.932
348.7,151.4,0.2866,0.8701,0.303,0.92
349.1,152.8,0.28741,0.8707,0.3072,0.931
349.5,154.1,0.28885,0.8714,0.3061,0.923
349.9,155.3,0.28997,0.872,0.3121,0.939
350.3,156.6,0.29107,0.8727,0.3118,0.935
350.7,157.9,0.29173,0.8733,0.3115,0.933
351.1,159.2,0.29243,0.8739,0.3107,0.928
351.5,160.5,0.2934,0.8746,0.3124,0.931
351.9,161.8,0.29452,0.8752,0.313,0.93
352.3,163,0.29593,0.8759,0.3121,0.924
352.7,164.3,0.29654,0.8765,0.3139,0.928
353.1,165.6,0.2976,0.8771,0.3142,0.926
353.5,166.9,0.2983,0.8778,0.3139,0.924
353.9,168.1,0.29894,0.8784,0.3148,0.925
354.3,169.4,0.29956,0.879,0.316,0.927
354.7,170.7,0.30062,0.8797,0.3142,0.919
355.1,172,0.30089,0.8803,0.3154,0.923
355.5,173.2,0.30231,0.8809,0.3124,0.91
355.9,174.5,0.30252,0.8816,0.3151,0.918
356.3,175.8,0.30331,0.8822,0.3166,0.921
356.7,177,0.30393,0.8828,0.3175,0.922
357.1,178.3,0.30469,0.8834,0.3172,0.92
357.5,179.6,0.30544,0.8841,0.3193,0.924
357.9,180.8,0.30592,0.8847,0.3178,0.919
358.3,182.1,0.30699,0.8853,0.3193,0.921
358.7,183.3,0.30737,0.8859,0.319,0.919
359.1,184.6,0.30799,0.8865,0.319,0.918
359.5,185.8,0.30867,0.8872,0.3208,0.922
359.9,187.1,0.30888,0.8878,0.3202,0.92
360.3,188.3,0.30992,0.8884,0.3208,0.92
360.7,189.6,0.31017,0.889,0.3199,0.917
361.1,190.8,0.3103,0.8896,0.3202,0.918
361.5,192.1,0.31125,0.8902,0.3208,0.918
361.9,193.3,0.31251,0.8908,0.3218,0.917
362.3,194.6,0.31321,0.8914,0.3227,0.918
362.7,195.8,0.3136,0.892,0.3205,0.912
363.1,197,0.31419,0.8926,0.3227,0.917
363.5,198.3,0.31473,0.8932,0.3233,0.918
363.9,199.5,0.31524,0.8938,0.3205,0.909
364.3,200.8,0.31581,0.8944,0.3227,0.914
364.7,202,0.31647,0.895,0.3236,0.915
365.1,203.2,0.31712,0.8956,0.3246,0.917
365.5,204.5,0.31755,0.8962,0.3236,0.913
365.9,205.7,0.31818,0.8968,0.3262,0.919
366.3,206.9,0.31872,0.8974,0.3249,0.915
366.7,208.2,0.31946,0.898,0.3255,0.915
367.1,209.4,0.31993,0.8986,0.3243,0.911
367.5,210.6,0.32059,0.8992,0.3246,0.91
367.9,211.8,0.32095,0.8998,0.3278,0.919
368.3,213.1,0.32171,0.9004,0.3268,0.915
368.7,214.3,0.32243,0.901,0.3262,0.911
369.1,215.5,0.32265,0.9016,0.3268,0.913
369.5,216.7,0.32387,0.9022,0.3281,0.914
369.9,218,0.32358,0.9027,0.3246,0.905
370.3,219.2,0.3246,0.9033,0.3258,0.907
370.7,220.4,0.32536,0.9039,0.3265,0.907
371.1,221.6,0.32583,0.9045,0.3284,0.912
371.5,222.9,0.32602,0.9051,0.3291,0.913
371.9,224.1,0.32663,0.9056,0.3294,0.913
372.3,225.3,0.32697,0.9062,0.3271,0.907
372.7,226.5,0.32763,0.9068,0.3297,0.913
373.1,227.7,0.32801,0.9074,0.3297,0.912
373.5,228.9,0.32903,0.9079,0.3274,0.904
373.9,230.2,0.32951,0.9085,0.3294,0.908
374.3,231.4,0.32982,0.9091,0.33,0.91
374.7,232.6,0.331,0.9097,0.3287,0.903
375.1,233.8,0.33139,0.9102,0.3307,0.908
375.5,235,0.33214,0.9108,0.3287,0.901
375.9,236.2,0.33262,0.9114,0.3304,0.905
376.3,237.4,0.33262,0.9119,0.3317,0.909
376.7,238.6,0.33315,0.9125,0.332,0.909
377.1,239.8,0.33417,0.913,0.3317,0.906
377.5,241,0.33467,0.9136,0.3313,0.905
377.9,242.3,0.33528,0.9142,0.331,0.903
378.3,243.5,0.33574,0.9147,0.332,0.905
378.7,244.7,0.33595,0.9153,0.3294,0.897
379.1,245.9,0.33715,0.9158,0.3333,0.905
379.5,247.1,0.3372,0.9164,0.333,0.905
379.9,248.3,0.33746,0.917,0.3323,0.903
380.3,249.5,0.33892,0.9175,0.333,0.901
380.7,250.7,0.33919,0.9181,0.33,0.893
381.1,251.9,0.33981,0.9186,0.3323,0.898
381.5,253.1,0.34031,0.9192,0.3323,0.898
381.9,254.3,0.34043,0.9197,0.332,0.897
382.3,255.5,0.34127,0.9203,0.3337,0.9
382.7,256.7,0.34142,0.9208,0.333,0.898
383.1,257.9,0.3423,0.9214,0.3343,0.9
383.5,259.1,0.34264,0.9219,0.3347,0.9
383.9,260.3,0.3435,0.9224,0.332,0.892
384.3,261.5,0.34403,0.923,0.3347,0.898
384.7,262.7,0.34451,0.9235,0.3333,0.894
385.1,263.9,0.34483,0.9241,0.334,0.895
385.5,265.1,0.34482,0.9246,0.3333,0.894
385.9,266.3,0.34599,0.9251,0.3353,0.897
386.3,267.5,0.34651,0.9257,0.3367,0.899
386.7,268.7,0.34687,0.9262,0.332,0.887
387.1,269.9,0.34717,0.9268,0.3333,0.89
387.5,271.1,0.34801,0.9273,0.3343,0.891
387.9,272.3,0.34873,0.9278,0.336,0.894
388.3,273.4,0.34898,0.9284,0.3367,0.896
388.7,274.6,0.34959,0.9289,0.334,0.887
389.1,275.8,0.35007,0.9294,0.336,0.892
389.5,277,0.35058,0.9299,0.3388,0.899
389.9,278.2,0.35067,0.9305,0.3388,0.899
390.3,279.4,0.35175,0.931,0.3364,0.89
390.7,280.6,0.35212,0.9315,0.3381,0.894
391.1,281.8,0.35233,0.932,0.3377,0.893
391.5,282.9,0.35295,0.9326,0.3374,0.891
391.9,284.1,0.35335,0.9331,0.3384,0.894
392.3,285.3,0.35375,0.9336,0.336,0.887
392.7,286.5,0.35475,0.9341,0.3381,0.89
393.1,287.7,0.35492,0.9347,0.3391,0.893
393.5,288.9,0.35569,0.9352,0.3384,0.89
393.9,290.1,0.35583,0.9357,0.3412,0.897
394.3,291.2,0.35669,0.9362,0.3353,0.88
394.7,292.4,0.35689,0.9367,0.3412,0.895
395.1,293.6,0.3574,0.9372,0.3405,0.893
395.5,294.8,0.35765,0.9377,0.3384,0.887
395.9,295.9,0.35811,0.9383,0.3415,0.895
396.3,297.1,0.35847,0.9388,0.3377,0.884
396.7,298.3,0.3589,0.9393,0.3412,0.893
397.1,299.5,0.35973,0.9398,0.3391,0.886
397.5,300.7,0.35958,0.9403,0.3422,0.895
397.9,301.8,0.36001,0.9408,0.3412,0.892
398.3,303,0.36061,0.9413,0.3419,0.892
398.7,304.2,0.361,0.9418,0.3422,0.893
399.1,305.3,0.3611,0.9423,0.3412,0.89
399.5,306.5,0.36167,0.9428,0.3408,0.888
399.9,307.7,0.36175,0.9433,0.3394,0.885
400.3,308.9,0.36174,0.9438,0.3436,0.897
400.7,310,0.36254,0.9443,0.3401,0.886
401.1,311.2,0.36309,0.9448,0.3433,0.893
401.5,312.4,0.36338,0.9453,0.3447,0.897
401.9,313.5,0.36364,0.9458,0.3444,0.896
402.3,314.7,0.36421,0.9463,0.3433,0.892
402.7,315.9,0.3645,0.9468,0.3444,0.894
403.1,317,0.36498,0.9473,0.3426,0.889
403.5,318.2,0.36539,0.9478,0.3426,0.889
403.9,319.4,0.36578,0.9483,0.3408,0.884
404.3,320.5,0.36601,0.9488,0.3436,0.891
404.7,321.7,0.36607,0.9493,0.3419,0.887
405.1,322.9,0.36714,0.9497,0.344,0.89
405.5,324,0.36751,0.9502,0.3461,0.895
405.9,325.2,0.3675,0.9507,0.3461,0.895
406.3,326.3,0.36813,0.9512,0.3458,0.893
406.7,327.5,0.36818,0.9517,0.3444,0.89
407.1,328.6,0.36889,0.9522,0.3454,0.892
407.5,329.8,0.36933,0.9527,0.3451,0.89
407.9,331,0.36978,0.9531,0.3469,0.894
408.3,332.1,0.37023,0.9536,0.3454,0.89
408.7,333.3,0.37048,0.9541,0.3465,0.892
409.1,334.4,0.37079,0.9546,0.3476,0.895
409.5,335.6,0.37153,0.9551,0.3465,0.891
409.9,336.8,0.37182,0.9555,0.3469,0.891
410.3,337.9,0.37207,0.956,0.3458,0.888
410.7,339.1,0.37263,0.9565,0.3469,0.89
411.1,340.2,0.37235,0.957,0.3483,0.895
411.5,341.4,0.37306,0.9574,0.3458,0.887
411.9,342.5,0.37314,0.9579,0.3483,0.894
412.3,343.7,0.37392,0.9584,0.3465,0.888
412.7,344.8,0.37386,0.9588,0.3465,0.889
413.1,346,0.37452,0.9593,0.3476,0.89
413.5,347.1,0.37484,0.9598,0.3461,0.886
413.9,348.3,0.37528,0.9602,0.3465,0.887
414.3,349.4,0.37555,0.9607,0.3465,0.886
414.7,350.6,0.37572,0.9612,0.3494,0.894
415.1,351.7,0.37651,0.9616,0.3479,0.889
415.5,352.9,0.37641,0.9621,0.3461,0.885
415.9,354,0.37714,0.9626,0.3498,0.893
416.3,355.2,0.37726,0.963,0.3494,0.892
416.7,356.3,0.37758,0.9635,0.3483,0.889
417.1,357.5,0.3779,0.964,0.3458,0.882
417.5,358.6,0.37833,0.9644,0.3479,0.887
417.9,359.8,0.37845,0.9649,0.3505,0.894
418.3,360.9,0.37891,0.9653,0.3472,0.885
418.7,362.1,0.37928,0.9658,0.3501,0.892
419.1,363.2,0.37937,0.9662,0.3498,0.891
419.5,364.3,0.37956,0.9667,0.3542,0.902
419.9,365.5,0.38041,0.9671,0.3505,0.891
420.3,366.6,0.38037,0.9676,0.349,0.888
420.7,367.8,0.3811,0.9681,0.3512,0.892
421.1,368.9,0.3813,0.9685,0.3509,0.891
421.5,370,0.38129,0.969,0.3487,0.886
421.9,371.2,0.3818,0.9694,0.3479,0.883
422.3,372.3,0.38202,0.9699,0.3505,0.89
422.7,373.5,0.38242,0.9703,0.3498,0.887
423.1,374.6,0.38262,0.9707,0.3494,0.886
423.5,375.8,0.38314,0.9712,0.3509,0.889
423.9,376.9,0.38339,0.9716,0.3505,0.888
424.3,378,0.38365,0.9721,0.3512,0.89
424.7,379.2,0.38385,0.9725,0.3516,0.891
425.1,380.3,0.38409,0.973,0.3498,0.886
425.5,381.5,0.38425,0.9734,0.3505,0.888
425.9,382.6,0.38436,0.9738,0.3505,0.888
426.3,383.7,0.38519,0.9743,0.3498,0.885
426.7,384.9,0.38519,0.9747,0.3501,0.886
427.1,386,0.38545,0.9752,0.3505,0.887
427.5,387.2,0.38569,0.9756,0.352,0.89
427.9,388.3,0.38586,0.976,0.3531,0.893
428.3,389.4,0.3865,0.9765,0.3524,0.89
428.7,390.6,0.38644,0.9769,0.3524,0.891
429.1,391.7,0.38705,0.9773,0.352,0.889
429.5,392.8,0.38707,0.9778,0.3516,0.888
429.9,394,0.38778,0.9782,0.3527,0.89
430.3,395.1,0.38796,0.9786,0.3483,0.879
430.7,396.3,0.38799,0.9791,0.3498,0.883
431.1,397.4,0.3883,0.9795,0.3516,0.887
431.5,398.5,0.38868,0.9799,0.3509,0.885
431.9,399.7,0.38933,0.9803,0.3512,0.884
432.3,400.8,0.38949,0.9808,0.3535,0.89
432.7,401.9,0.38989,0.9812,0.3535,0.89
433.1,403.1,0.39015,0.9816,0.3527,0.887
433.5,404.2,0.39041,0.982,0.3527,0.887
433.9,405.4,0.39055,0.9825,0.3535,0.889
434.3,406.5,0.39107,0.9829,0.3539,0.889
434.7,407.6,0.39086,0.9833,0.3524,0.886
435.1,408.8,0.39113,0.9837,0.3539,0.89
435.5,409.9,0.39147,0.9842,0.3512,0.883
435.9,411,0.39212,0.9846,0.3527,0.886
436.3,412.2,0.39164,0.985,0.352,0.885
436.7,413.3,0.39271,0.9854,0.3524,0.884
437.1,414.4,0.39284,0.9858,0.3512,0.881
437.5,415.6,0.39345,0.9862,0.352,0.882
437.9,416.7,0.39337,0.9867,0.3516,0.882
438.3,417.8,0.39339,0.9871,0.3509,0.88
438.7,419,0.39427,0.9875,0.3546,0.888
439.1,420.1,0.39447,0.9879,0.3524,0.882
439.5,421.2,0.39452,0.9883,0.3539,0.886
439.9,422.4,0.39471,0.9887,0.3535,0.885
440.3,423.5,0.39514,0.9891,0.3531,0.884
440.7,424.6,0.39505,0.9895,0.3531,0.884
441.1,425.8,0.3958,0.9899,0.3512,0.879
441.5,426.9,0.39595,0.9904,0.3509,0.878
441.9,428,0.39595,0.9908,0.3546,0.887
442.3,429.2,0.39614,0.9912,0.3524,0.882
442.7,430.3,0.39659,0.9916,0.3535,0.884
443.1,431.4,0.39679,0.992,0.3554,0.888
443.5,432.6,0.39651,0.9924,0.3542,0.887
443.9,433.7,0.39739,0.9928,0.3546,0.886
444.3,434.8,0.39731,0.9932,0.3509,0.877
444.7,436,0.39747,0.9936,0.3527,0.882
445.1,437.1,0.39792,0.994,0.3516,0.878
445.5,438.2,0.39836,0.9944,0.3524,0.88
445.9,439.4,0.39856,0.9948,0.3546,0.885
446.3,440.5,0.39886,0.9952,0.3535,0.882
446.7,441.6,0.39872,0.9956,0.3531,0.882
447.1,442.8,0.3995,0.996,0.3527,0.879
447.5,443.9,0.39904,0.9964,0.3539,0.884
447.9,445,0.39951,0.9968,0.3531,0.881
448.3,446.2,0.39954,0.9972,0.3539,0.883
448.7,447.3,0.4003,0.9976,0.3546,0.884
449.1,448.4,0.39997,0.998,0.3531,0.881
449.5,449.5,0.39992,0.9983,0.3535,0.882
449.9,450.7,0.40049,0.9987,0.358,0.893
450.3,451.8,0.40054,0.9991,0.3557,0.887
450.7,452.9,0.40074,0.9995,0.3539,0.883
451.1,454.1,0.40068,0.9999,0.3531,0.881
451.5,455.2,0.40082,1.0003,0.3542,0.884
451.9,456.3,0.40129,1.0007,0.3546,0.884
452.3,457.4,0.40126,1.0011,0.3516,0.877
452.7,458.6,0.40153,1.0015,0.3535,0.882
453.1,459.7,0.4018,1.0018,0.3539,0.882
453.5,460.8,0.40178,1.0022,0.3561,0.888
453.9,462,0.40194,1.0026,0.3557,0.887
454.3,463.1,0.40227,1.003,0.3554,0.886
454.7,464.2,0.40238,1.0034,0.3539,0.882
455.1,465.3,0.40233,1.0038,0.3577,0.892
455.5,466.5,0.40267,1.0041,0.3561,0.888
455.9,467.6,0.40301,1.0045,0.3569,0.89
456.3,468.7,0.40297,1.0049,0.3546,0.884
456.7,469.8,0.40343,1.0053,0.3539,0.882
457.1,471,0.40346,1.0057,0.3557,0.887
457.5,472.1,0.40357,1.006,0.355,0.885
457.9,473.2,0.40341,1.0064,0.3546,0.885
458.3,474.3,0.40408,1.0068,0.3527,0.879
458.7,475.5,0.4038,1.0072,0.355,0.885
459.1,476.6,0.40391,1.0075,0.3569,0.89
459.5,477.7,0.40431,1.0079,0.3557,0.887
459.9,478.8,0.40392,1.0083,0.355,0.886
460.3,480,0.40412,1.0087,0.3577,0.893
460.7,481.1,0.40468,1.009,0.3569,0.89
461.1,482.2,0.40429,1.0094,0.3577,0.893
461.5,483.3,0.40419,1.0098,0.3561,0.89
461.9,484.4,0.40485,1.0101,0.3569,0.89
462.3,485.6,0.40538,1.0105,0.3569,0.89
462.7,486.7,0.40522,1.0109,0.3561,0.888
463.1,487.8,0.40481,1.0112,0.3573,0.892
463.5,488.9,0.4054,1.0116,0.3557,0.888
463.9,490.1,0.40516,1.012,0.3565,0.89
464.3,491.2,0.40604,1.0123,0.36,0.897
464.7,492.3,0.40579,1.0127,0.3577,0.893
465.1,493.4,0.40593,1.0131,0.3565,0.89
465.5,494.5,0.40642,1.0134,0.3569,0.89
465.9,495.7,0.40637,1.0138,0.3542,0.884
466.3,496.8,0.40627,1.0142,0.355,0.886
466.7,497.9,0.40643,1.0145,0.3505,0.875
467.1,499.1,0.40643,1.0149,0.3554,0.887
467.5,500.2,0.40673,1.0152,0.3565,0.89
467.9,501.3,0.40686,1.0156,0.3565,0.89
468.3,502.4,0.40698,1.016,0.358,0.894
468.7,503.5,0.40751,1.0163,0.3546,0.884
469.1,504.7,0.40756,1.0167,0.3569,0.89
469.5,505.8,0.40762,1.017,0.3573,0.891
469.9,506.9,0.40734,1.0174,0.3557,0.889
470.3,508,0.40781,1.0177,0.3546,0.885
470.7,509.2,0.40808,1.0181,0.3565,0.889
471.1,510.3,0.40774,1.0185,0.3569,0.891
471.5,511.4,0.40788,1.0188,0.3573,0.892
471.9,512.5,0.40873,1.0192,0.3573,0.891
472.3,513.6,0.40837,1.0195,0.3565,0.89
472.7,514.8,0.40826,1.0199,0.3577,0.893
473.1,515.9,0.40831,1.0202,0.3569,0.892
473.5,517,0.40855,1.0206,0.3573,0.892
473.9,518.1,0.40886,1.0209,0.3569,0.891
474.3,519.2,0.40904,1.0213,0.3573,0.892
474.7,520.4,0.40892,1.0216,0.3573,0.893
475.1,521.5,0.40888,1.022,0.3557,0.889
475.5,522.6,0.40949,1.0223,0.3569,0.891
475.9,523.7,0.40931,1.0227,0.3554,0.888
476.3,524.9,0.40968,1.023,0.3565,0.89
476.7,526,0.40992,1.0233,0.3561,0.889
477.1,527.1,0.41008,1.0237,0.3565,0.89
477.5,528.2,0.41018,1.024,0.3565,0.89
477.9,529.3,0.4102,1.0244,0.3561,0.889
478.3,530.5,0.41015,1.0247,0.3569,0.892
478.7,531.6,0.41041,1.0251,0.3577,0.893
479.1,532.7,0.41011,1.0254,0.3584,0.896
479.5,533.8,0.41074,1.0257,0.3557,0.888
479.9,534.9,0.41071,1.0261,0.3573,0.893
480.3,536.1,0.41128,1.0264,0.358,0.894
480.7,537.2,0.41105,1.0268,0.3573,0.892
481.1,538.3,0.4114,1.0271,0.3557,0.888
481.5,539.4,0.41135,1.0274,0.3539,0.884
481.9,540.5,0.41214,1.0278,0.3573,0.891
482.3,541.7,0.41191,1.0281,0.3584,0.895
482.7,542.8,0.41142,1.0284,0.3565,0.891
483.1,543.9,0.41171,1.0288,0.358,0.895
483.5,545,0.41218,1.0291,0.3584,0.895
483.9,546.1,0.41243,1.0294,0.3588,0.896
484.3,547.3,0.41254,1.0298,0.3577,0.893
484.7,548.4,0.41225,1.0301,0.3565,0.891
485.1,549.5,0.41271,1.0304,0.3584,0.895
485.5,550.6,0.41263,1.0308,0.3627,0.906
485.9,551.7,0.41276,1.0311,0.3619,0.904
486.3,552.8,0.41321,1.0314,0.3592,0.897
486.7,553.9,0.41263,1.0318,0.358,0.895
487.1,555.1,0.41339,1.0321,0.3569,0.891
487.5,556.2,0.41302,1.0324,0.3573,0.893
487.9,557.3,0.41298,1.0327,0.3539,0.885
488.3,558.4,0.41371,1.0331,0.3546,0.885
488.7,559.6,0.41357,1.0334,0.3554,0.888
489.1,560.7,0.41353,1.0337,0.3573,0.893
489.5,561.8,0.41401,1.034,0.3588,0.896
489.9,562.9,0.41404,1.0344,0.3569,0.892
490.3,564,0.41399,1.0347,0.355,0.887
490.7,565.2,0.41433,1.035,0.3569,0.892
491.1,566.3,0.41465,1.0353,0.3588,0.896
491.5,567.4,0.41426,1.0357,0.358,0.895
491.9,568.5,0.4151,1.036,0.3577,0.893
492.3,569.6,0.41496,1.0363,0.3588,0.896
492.7,570.7,0.41532,1.0366,0.3584,0.895
493.1,571.9,0.41547,1.0369,0.3592,0.896
493.5,573,0.41542,1.0373,0.3592,0.897
493.9,574.1,0.41536,1.0376,0.3565,0.891
494.3,575.2,0.41544,1.0379,0.36,0.899
494.7,576.3,0.41534,1.0382,0.3596,0.899
495.1,577.4,0.41616,1.0385,0.3573,0.892
495.5,578.6,0.41589,1.0389,0.3561,0.89
495.9,579.7,0.41594,1.0392,0.3569,0.892
496.3,580.8,0.41627,1.0395,0.3596,0.898
496.7,581.9,0.41676,1.0398,0.355,0.886
497.1,583,0.41695,1.0401,0.3565,0.889
497.5,584.2,0.41662,1.0404,0.3588,0.896
497.9,585.3,0.41679,1.0407,0.3596,0.898
498.3,586.4,0.41687,1.041,0.3596,0.898
498.7,587.5,0.41709,1.0414,0.358,0.894
499.1,588.6,0.41717,1.0417,0.3596,0.898
499.5,589.7,0.41741,1.042,0.36,0.899
499.9,590.8,0.41715,1.0423,0.3588,0.897
500.3,592,0.41759,1.0426,0.3596,0.898
500.7,593.1,0.41726,1.0429,0.3573,0.893
501.1,594.2,0.41739,1.0432,0.3569,0.892
501.5,595.3,0.41762,1.0435,0.3569,0.892
501.9,596.4,0.41752,1.0438,0.3584,0.896
502.3,597.5,0.41788,1.0441,0.3588,0.897
502.7,598.7,0.41754,1.0444,0.3577,0.895
503.1,599.8,0.41764,1.0448,0.3584,0.897
503.5,600.9,0.41748,1.0451,0.358,0.896
503.9,602,0.41806,1.0454,0.3577,0.894
504.3,603.1,0.41812,1.0457,0.3584,0.896
504.7,604.2,0.41837,1.046,0.358,0.895
505.1,605.4,0.4182,1.0463,0.358,0.896
505.5,606.5,0.41807,1.0466,0.3573,0.894
505.9,607.6,0.41824,1.0469,0.3588,0.898
506.3,608.7,0.41811,1.0472,0.3611,0.904
506.7,609.8,0.41808,1.0475,0.3584,0.898
507.1,610.9,0.41875,1.0478,0.3584,0.897
507.5,612.1,0.41865,1.0481,0.3577,0.895
507.9,613.2,0.41883,1.0484,0.3623,0.907
508.3,614.3,0.41889,1.0487,0.3577,0.895
508.7,615.4,0.41865,1.049,0.3577,0.896
509.1,616.5,0.41871,1.0493,0.3573,0.895
509.5,617.6,0.41848,1.0496,0.3588,0.9
509.9,618.7,0.41906,1.0499,0.3588,0.899
510.3,619.9,0.41911,1.0502,0.3539,0.887
510.7,621,0.41884,1.0505,0.3584,0.899
511.1,622.1,0.4191,1.0508,0.3584,0.899
511.5,623.2,0.41947,1.0511,0.3611,0.905
511.9,624.3,0.41896,1.0513,0.358,0.898
512.3,625.4,0.41907,1.0516,0.3573,0.897
512.7,626.6,0.4192,1.0519,0.36,0.903
513.1,627.7,0.4192,1.0522,0.36,0.904
513.5,628.8,0.41929,1.0525,0.3584,0.9
513.9,629.9,0.41902,1.0528,0.3577,0.899
514.3,631,0.41946,1.0531,0.3608,0.906
514.7,632.1,0.41959,1.0534,0.36,0.904
515.1,633.2,0.41916,1.0537,0.3596,0.904
515.5,634.4,0.41948,1.054,0.3584,0.901
515.9,635.5,0.41978,1.0543,0.358,0.899
516.3,636.6,0.41962,1.0545,0.3569,0.897
516.7,637.7,0.41956,1.0548,0.3584,0.901
517.1,638.8,0.41959,1.0551,0.3588,0.902
517.5,639.9,0.41933,1.0554,0.3554,0.894
517.9,641.1,0.41938,1.0557,0.3569,0.898
518.3,642.2,0.42003,1.056,0.3588,0.902
518.7,643.3,0.41962,1.0563,0.3588,0.903
519.1,644.4,0.41935,1.0566,0.3584,0.903
519.5,645.5,0.41982,1.0568,0.358,0.901
519.9,646.6,0.4199,1.0571,0.36,0.906
520.3,647.8,0.41979,1.0574,0.3596,0.906
520.7,648.9,0.41958,1.0577,0.3584,0.904
521.1,650,0.41986,1.058,0.3592,0.905
521.5,651.1,0.41997,1.0583,0.3577,0.901
521.9,652.2,0.41929,1.0585,0.3577,0.903
522.3,653.3,0.41973,1.0588,0.3573,0.901
522.7,654.5,0.41943,1.0591,0.3554,0.897
523.1,655.6,0.41954,1.0594,0.358,0.904
523.5,656.7,0.41953,1.0597,0.3596,0.908
523.9,657.8,0.41936,1.0599,0.358,0.905
524.3,658.9,0.41935,1.0602,0.3604,0.911
524.7,660,0.42003,1.0605,0.3584,0.905
525.1,661.1,0.41959,1.0608,0.3608,0.912
525.5,662.3,0.41942,1.061,0.3577,0.905
525.9,663.4,0.42005,1.0613,0.3565,0.901
526.3,664.5,0.41977,1.0616,0.3596,0.909
526.7,665.6,0.41972,1.0619,0.3569,0.903
527.1,666.7,0.41972,1.0621,0.3592,0.909
527.5,667.8,0.41918,1.0624,0.358,0.907
527.9,669,0.4196,1.0627,0.358,0.907
528.3,670.1,0.41967,1.063,0.3584,0.908
528.7,671.2,0.41991,1.0632,0.3577,0.906
529.1,672.3,0.41981,1.0635,0.3584,0.908
529.5,673.4,0.41947,1.0638,0.358,0.908
529.9,674.5,0.41991,1.0641,0.3592,0.91
530.3,675.7,0.41987,1.0643,0.3592,0.911
530.7,676.8,0.41976,1.0646,0.3588,0.91
531.1,677.9,0.41984,1.0649,0.3596,0.912
531.5,679,0.41981,1.0651,0.3588,0.91
531.9,680.1,0.41966,1.0654,0.3569,0.906
532.3,681.2,0.4195,1.0657,0.3573,0.908
532.7,682.4,0.41984,1.066,0.3573,0.907
533.1,683.5,0.41949,1.0662,0.3584,0.911
533.5,684.6,0.41969,1.0665,0.3577,0.909
533.9,685.7,0.41922,1.0668,0.3588,0.913
534.3,686.8,0.41927,1.067,0.3608,0.918
534.7,687.9,0.41989,1.0673,0.3577,0.909
535.1,689,0.41984,1.0676,0.3596,0.914
535.5,690.2,0.41968,1.0678,0.3592,0.914
535.9,691.3,0.41945,1.0681,0.3588,0.914
536.3,692.4,0.41958,1.0684,0.358,0.912
536.7,693.5,0.41931,1.0686,0.3573,0.911
537.1,694.6,0.41971,1.0689,0.3604,0.918
537.5,695.7,0.41948,1.0691,0.3592,0.915
537.9,696.9,0.41931,1.0694,0.3565,0.909
538.3,698,0.41976,1.0697,0.3588,0.914
538.7,699.1,0.41986,1.0699,0.358,0.912
539.1,700.2,0.4198,1.0702,0.36,0.918
539.5,701.3,0.41941,1.0705,0.3573,0.912
539.9,702.4,0.41969,1.0707,0.3569,0.91
540.3,703.6,0.4194,1.071,0.3604,0.92
540.7,704.7,0.41947,1.0712,0.3592,0.917
541.1,705.8,0.41942,1.0715,0.3584,0.916
541.5,706.9,0.4198,1.0718,0.3584,0.915
541.9,708,0.41925,1.072,0.358,0.916
542.3,709.1,0.4198,1.0723,0.36,0.919
542.7,710.2,0.41965,1.0725,0.3596,0.919
543.1,711.4,0.41961,1.0728,0.3588,0.917
543.5,712.5,0.41979,1.0731,0.3588,0.917
543.9,713.6,0.41962,1.0733,0.3596,0.92
544.3,714.7,0.41958,1.0736,0.36,0.921
544.7,715.8,0.41954,1.0738,0.3596,0.92
545.1,716.9,0.41931,1.0741,0.3569,0.914
545.5,718,0.41943,1.0743,0.3584,0.918
545.9,719.2,0.41938,1.0746,0.3592,0.92
546.3,720.3,0.41935,1.0748,0.358,0.918
546.7,721.4,0.41968,1.0751,0.3588,0.919
547.1,722.5,0.41964,1.0753,0.3561,0.913
547.5,723.6,0.41972,1.0756,0.3588,0.92
547.9,724.7,0.41916,1.0759,0.3596,0.923
548.3,725.9,0.41953,1.0761,0.3565,0.914
548.7,727,0.41965,1.0764,0.3584,0.919
549.1,728.1,0.41928,1.0766,0.3569,0.916
549.5,729.2,0.41899,1.0769,0.3596,0.924
549.9,730.3,0.41891,1.0771,0.3577,0.92
550.3,731.4,0.41932,1.0774,0.3565,0.916
550.7,732.6,0.41918,1.0776,0.3596,0.924
551.1,733.7,0.41966,1.0779,0.3577,0.919
551.5,734.8,0.41899,1.0781,0.3573,0.919
551.9,735.9,0.41984,1.0784,0.358,0.92
552.3,737,0.41922,1.0786,0.3596,0.925
552.7,738.2,0.41942,1.0789,0.3573,0.919
553.1,739.3,0.41943,1.0791,0.3569,0.918
553.5,740.4,0.41884,1.0793,0.3573,0.921
553.9,741.5,0.41921,1.0796,0.3592,0.925
554.3,742.6,0.41933,1.0798,0.3573,0.92
554.7,743.7,0.4187,1.0801,0.3577,0.923
555.1,744.9,0.41874,1.0803,0.3573,0.922
555.5,746,0.41874,1.0806,0.3592,0.927
555.9,747.1,0.41894,1.0808,0.3584,0.925
556.3,748.2,0.41899,1.0811,0.3569,0.921
556.7,749.3,0.41872,1.0813,0.3577,0.924
557.1,750.4,0.41862,1.0815,0.3554,0.918
557.5,751.6,0.41829,1.0818,0.3569,0.923
557.9,752.7,0.41887,1.082,0.3565,0.921
558.3,753.8,0.41865,1.0823,0.3554,0.919
558.7,754.9,0.41832,1.0825,0.358,0.927
559.1,756.1,0.41822,1.0828,0.3577,0.926
559.5,757.2,0.41814,1.083,0.358,0.927
559.9,758.3,0.41848,1.0832,0.36,0.932
560.3,759.4,0.41807,1.0835,0.3608,0.935
560.7,760.5,0.41826,1.0837,0.3573,0.926
561.1,761.6,0.41772,1.084,0.3592,0.932
561.5,762.7,0.41822,1.0842,0.358,0.928
561.9,763.9,0.41784,1.0844,0.358,0.929
562.3,765,0.41794,1.0847,0.3546,0.92
562.7,766.1,0.41839,1.0849,0.355,0.921
563.1,767.2,0.41768,1.0852,0.3577,0.929
563.5,768.4,0.41782,1.0854,0.3565,0.926
563.9,769.5,0.41747,1.0856,0.3561,0.926
564.3,770.6,0.41793,1.0859,0.3573,0.928
564.7,771.7,0.41763,1.0861,0.358,0.931
565.1,772.8,0.4175,1.0863,0.3573,0.93
565.5,774,0.41761,1.0866,0.3569,0.929
565.9,775.1,0.41748,1.0868,0.3557,0.926
566.3,776.2,0.41722,1.087,0.3561,0.928
566.7,777.3,0.41751,1.0873,0.3565,0.928
567.1,778.4,0.41723,1.0875,0.3569,0.93
567.5,779.6,0.41767,1.0877,0.358,0.932
567.9,780.7,0.4174,1.088,0.3592,0.936
568.3,781.8,0.41713,1.0882,0.3588,0.936
568.7,782.9,0.41691,1.0884,0.3584,0.936
569.1,784,0.41678,1.0887,0.3561,0.93
569.5,785.2,0.41712,1.0889,0.3565,0.931
569.9,786.3,0.41707,1.0891,0.3542,0.925
570.3,787.4,0.41699,1.0894,0.3557,0.929
570.7,788.5,0.41684,1.0896,0.3561,0.931
571.1,789.7,0.41647,1.0898,0.3554,0.93
571.5,790.8,0.41669,1.0901,0.3569,0.934
571.9,791.9,0.41684,1.0903,0.3569,0.933
572.3,793,0.41661,1.0905,0.358,0.937
572.7,794.1,0.41693,1.0908,0.3569,0.934
573.1,795.3,0.41664,1.091,0.3561,0.933
573.5,796.4,0.41635,1.0912,0.358,0.938
573.9,797.5,0.41658,1.0914,0.3561,0.933
574.3,798.6,0.41639,1.0917,0.3546,0.93
574.7,799.7,0.41646,1.0919,0.3577,0.938
575.1,800.9,0.41631,1.0921,0.3557,0.933
575.5,802,0.41593,1.0923,0.3577,0.939
575.9,803.1,0.41609,1.0926,0.3554,0.933
576.3,804.2,0.4157,1.0928,0.3584,0.942
576.7,805.3,0.41558,1.093,0.358,0.942
577.1,806.5,0.41572,1.0932,0.358,0.942
577.5,807.6,0.41576,1.0935,0.3573,0.94
577.9,808.7,0.41564,1.0937,0.3554,0.935
578.3,809.8,0.41558,1.0939,0.3565,0.938
578.7,810.9,0.41572,1.0941,0.3569,0.939
579.1,812.1,0.41547,1.0944,0.3561,0.938
579.5,813.2,0.41562,1.0946,0.3561,0.938
579.9,814.3,0.41555,1.0948,0.3565,0.939
580.3,815.4,0.41559,1.095,0.3573,0.941
580.7,816.5,0.41537,1.0953,0.3588,0.946
581.1,817.7,0.41529,1.0955,0.3561,0.939
581.5,818.8,0.41509,1.0957,0.3584,0.946
581.9,819.9,0.41491,1.0959,0.3557,0.94
582.3,821,0.41512,1.0961,0.3565,0.941
582.7,822.2,0.41481,1.0964,0.3577,0.945
583.1,823.3,0.41492,1.0966,0.3546,0.937
583.5,824.4,0.41483,1.0968,0.3565,0.943
583.9,825.5,0.41492,1.097,0.355,0.939
584.3,826.7,0.41488,1.0972,0.3569,0.944
584.7,827.8,0.41447,1.0975,0.3569,0.945
585.1,828.9,0.41453,1.0977,0.3554,0.941
585.5,830,0.41444,1.0979,0.3561,0.943
585.9,831.1,0.41462,1.0981,0.3554,0.941
586.3,832.3,0.41456,1.0983,0.3569,0.946
586.7,833.4,0.41453,1.0986,0.355,0.941
587.1,834.5,0.41431,1.0988,0.355,0.941
587.5,835.6,0.41417,1.099,0.3577,0.949
587.9,836.8,0.41374,1.0992,0.3554,0.944
588.3,837.9,0.41318,1.0994,0.3569,0.95
588.7,839,0.41344,1.0996,0.3557,0.946
589.1,840.1,0.41342,1.0999,0.3561,0.947
589.5,841.3,0.41365,1.1001,0.3561,0.947
589.9,842.4,0.41323,1.1003,0.3535,0.941
590.3,843.5,0.41337,1.1005,0.3577,0.952
590.7,844.6,0.41362,1.1007,0.3554,0.946
591.1,845.8,0.41292,1.1009,0.3561,0.949
591.5,846.9,0.4131,1.1011,0.3561,0.949
591.9,848,0.41329,1.1014,0.3557,0.948
592.3,849.1,0.41314,1.1016,0.3577,0.954
592.7,850.2,0.4132,1.1018,0.3565,0.951
593.1,851.4,0.41302,1.102,0.3565,0.951
593.5,852.5,0.41265,1.1022,0.3565,0.952
593.9,853.6,0.41252,1.1024,0.3554,0.95
594.3,854.7,0.41273,1.1026,0.3557,0.95
594.7,855.9,0.4123,1.1028,0.3546,0.949
595.1,857,0.41228,1.103,0.3546,0.949
595.5,858.1,0.41201,1.1033,0.3554,0.952
595.9,859.2,0.41242,1.1035,0.3557,0.952
596.3,860.4,0.41176,1.1037,0.3557,0.954
596.7,861.5,0.41191,1.1039,0.3554,0.952
597.1,862.6,0.41172,1.1041,0.3561,0.955
597.5,863.7,0.41168,1.1043,0.3557,0.954
597.9,864.9,0.41167,1.1045,0.3557,0.954
598.3,866,0.41124,1.1047,0.3546,0.953
598.7,867.1,0.41166,1.1049,0.3539,0.95
599.1,868.3,0.41141,1.1051,0.3557,0.956
599.5,869.4,0.41079,1.1053,0.3554,0.956
599.9,870.5,0.41123,1.1056,0.3546,0.953
600.3,871.6,0.41119,1.1058,0.3557,0.957
600.7,872.7,0.41092,1.106,0.3569,0.961
601.1,873.9,0.4105,1.1062,0.3561,0.96
601.5,875,0.41058,1.1064,0.3531,0.952
601.9,876.1,0.41082,1.1066,0.355,0.956
602.3,877.3,0.41041,1.1068,0.3539,0.954
602.7,878.4,0.41087,1.107,0.3539,0.953
603.1,879.5,0.41011,1.1072,0.3535,0.954
603.5,880.7,0.40982,1.1074,0.3542,0.957
603.9,881.8,0.40985,1.1076,0.3554,0.96
604.3,882.9,0.40963,1.1078,0.3542,0.958
604.7,884,0.40961,1.108,0.355,0.96
605.1,885.2,0.40934,1.1082,0.3542,0.959
605.5,886.3,0.40872,1.1084,0.3539,0.96
605.9,887.4,0.40926,1.1086,0.3542,0.96
606.3,888.5,0.40907,1.1088,0.3554,0.963
606.7,889.7,0.40928,1.109,0.3539,0.959
607.1,890.8,0.40901,1.1092,0.3542,0.961
607.5,891.9,0.40911,1.1094,0.355,0.963
607.9,893.1,0.40923,1.1096,0.3542,0.961
608.3,894.2,0.40886,1.1098,0.3542,0.962
608.7,895.3,0.4088,1.11,0.3531,0.959
609.1,896.5,0.40895,1.1102,0.3539,0.961
609.5,897.6,0.40841,1.1104,0.3554,0.966
609.9,898.7,0.40857,1.1106,0.3542,0.963
610.3,899.8,0.40859,1.1108,0.355,0.965
610.7,901,0.40834,1.111,0.3539,0.963
611.1,902.1,0.40834,1.1112,0.355,0.966
611.5,903.2,0.40856,1.1114,0.3546,0.965
611.9,904.4,0.40798,1.1116,0.3527,0.961
612.3,905.5,0.40817,1.1118,0.3557,0.969
612.7,906.6,0.40766,1.112,0.3542,0.966
613.1,907.7,0.40781,1.1122,0.3546,0.967
613.5,908.9,0.40803,1.1124,0.3535,0.964
613.9,910,0.40754,1.1126,0.3546,0.968
614.3,911.1,0.40729,1.1128,0.3546,0.969
614.7,912.3,0.40738,1.113,0.3535,0.966
615.1,913.4,0.40726,1.1132,0.3535,0.966
615.5,914.5,0.40716,1.1134,0.3542,0.969
615.9,915.6,0.40687,1.1136,0.3531,0.966
616.3,916.8,0.40692,1.1138,0.3527,0.965
616.7,917.9,0.40707,1.114,0.3539,0.968
617.1,919,0.40654,1.1142,0.3539,0.97
617.5,920.2,0.40649,1.1144,0.3535,0.969
617.9,921.3,0.40637,1.1146,0.3535,0.97
618.3,922.4,0.40629,1.1148,0.355,0.974
618.7,923.6,0.40581,1.115,0.355,0.975
619.1,924.7,0.40602,1.1152,0.3557,0.977
619.5,925.8,0.40585,1.1154,0.3531,0.97
619.9,926.9,0.40562,1.1156,0.3546,0.975
620.3,928.1,0.40562,1.1157,0.3542,0.974
620.7,929.2,0.40574,1.1159,0.3542,0.974
621.1,930.3,0.40595,1.1161,0.3527,0.97
621.5,931.5,0.4056,1.1163,0.3516,0.968
621.9,932.6,0.40543,1.1165,0.3554,0.979
622.3,933.7,0.40503,1.1167,0.3527,0.973
622.7,934.9,0.40502,1.1169,0.3527,0.973
623.1,936,0.40478,1.1171,0.3512,0.969
623.5,937.1,0.40471,1.1173,0.3531,0.975
623.9,938.3,0.40503,1.1175,0.355,0.979
624.3,939.4,0.40449,1.1177,0.3501,0.967
624.7,940.5,0.40475,1.1178,0.3535,0.976
625.1,941.7,0.40373,1.118,0.3531,0.978
625.5,942.8,0.40418,1.1182,0.352,0.974
625.9,943.9,0.40397,1.1184,0.3539,0.98
626.3,945.1,0.40397,1.1186,0.3512,0.973
626.7,946.2,0.40359,1.1188,0.3539,0.981
627.1,947.3,0.4032,1.119,0.3535,0.981
627.5,948.5,0.403,1.1192,0.3535,0.982
627.9,949.6,0.40319,1.1194,0.3527,0.979
628.3,950.7,0.4032,1.1196,0.3546,0.985
628.7,951.9,0.40306,1.1197,0.3531,0.981
629.1,953,0.4029,1.1199,0.3516,0.977
629.5,954.1,0.40322,1.1201,0.3527,0.98
629.9,955.3,0.40278,1.1203,0.3539,0.984
630.3,956.4,0.40266,1.1205,0.3527,0.982
630.7,957.5,0.40244,1.1207,0.3535,0.984
631.1,958.7,0.40259,1.1209,0.3516,0.979
631.5,959.8,0.40234,1.121,0.355,0.989
631.9,960.9,0.40229,1.1212,0.3539,0.986
632.3,962.1,0.40198,1.1214,0.3527,0.984
632.7,963.2,0.40212,1.1216,0.3539,0.987
633.1,964.3,0.40204,1.1218,0.3527,0.984
633.5,965.5,0.40205,1.122,0.3546,0.99
633.9,966.6,0.40121,1.1222,0.352,0.984
634.3,967.7,0.40154,1.1223,0.3516,0.983
634.7,968.9,0.40163,1.1225,0.355,0.992
635.1,970,0.40166,1.1227,0.3509,0.981
635.5,971.1,0.40109,1.1229,0.3531,0.989
635.9,972.3,0.401,1.1231,0.3524,0.987
636.3,973.4,0.40104,1.1233,0.3524,0.987
636.7,974.5,0.40119,1.1234,0.3554,0.995
637.1,975.7,0.40078,1.1236,0.3524,0.988
637.5,976.8,0.40077,1.1238,0.3546,0.994
637.9,977.9,0.40113,1.124,0.3531,0.989
638.3,979.1,0.40071,1.1242,0.3531,0.991
638.7,980.2,0.40086,1.1244,0.3531,0.99
639.1,981.3,0.40092,1.1245,0.3505,0.983
639.5,982.5,0.40032,1.1247,0.3527,0.991
639.9,983.6,0.4005,1.1249,0.3509,0.986
640.3,984.7,0.39996,1.1251,0.352,0.99
640.7,985.9,0.39999,1.1253,0.3509,0.987
641.1,987,0.39981,1.1254,0.352,0.991
641.5,988.2,0.40014,1.1256,0.3531,0.993
641.9,989.3,0.39962,1.1258,0.3509,0.988
642.3,990.4,0.39962,1.126,0.3535,0.996
642.7,991.6,0.39974,1.1262,0.3505,0.987
643.1,992.7,0.39929,1.1263,0.3527,0.995
643.5,993.8,0.39939,1.1265,0.3524,0.994
643.9,995,0.39935,1.1267,0.3524,0.994
644.3,996.1,0.39927,1.1269,0.3524,0.994
644.7,997.2,0.39932,1.1271,0.3527,0.996
645.1,998.4,0.39924,1.1272,0.3539,0.999
645.5,999.5,0.39852,1.1274,0.3524,0.997
645.9,1000.6,0.3989,1.1276,0.3535,0.999
646.3,1001.8,0.39857,1.1278,0.352,0.996
646.7,1002.9,0.3989,1.1279,0.3527,0.997
647.1,1004,0.39845,1.1281,0.3527,0.999
647.5,1005.2,0.39818,1.1283,0.3505,0.993
647.9,1006.3,0.39833,1.1285,0.3512,0.995
648.3,1007.5,0.3983,1.1286,0.3509,0.994
648.7,1008.6,0.39803,1.1288,0.3512,0.996
649.1,1009.7,0.39791,1.129,0.3516,0.998
649.5,1010.9,0.39772,1.1292,0.3509,0.996
649.9,1012,0.39809,1.1293,0.3505,0.994
650.3,1013.1,0.39758,1.1295,0.3524,1.001
650.7,1014.3,0.39756,1.1297,0.3512,0.998
651.1,1015.4,0.39728,1.1299,0.3516,1
651.5,1016.6,0.39731,1.13,0.3512,0.999
651.9,1017.7,0.39739,1.1302,0.3505,0.997
652.3,1018.8,0.3974,1.1304,0.3509,0.998
652.7,1020,0.39676,1.1306,0.3498,0.997
653.1,1021.1,0.39672,1.1307,0.3524,1.004
653.5,1022.3,0.3968,1.1309,0.3512,1.001
653.9,1023.4,0.39655,1.1311,0.3498,0.998
654.3,1024.5,0.39648,1.1313,0.3512,1.002
654.7,1025.7,0.39637,1.1314,0.3505,1.001
655.1,1026.8,0.3964,1.1316,0.3527,1.007
655.5,1028,0.39627,1.1318,0.3505,1.001
655.9,1029.1,0.39588,1.132,0.352,1.006
656.3,1030.2,0.3961,1.1321,0.3512,1.004
656.7,1031.4,0.3956,1.1323,0.3512,1.005
657.1,1032.5,0.39542,1.1325,0.352,1.008
657.5,1033.6,0.39579,1.1326,0.3542,1.014
657.9,1034.8,0.39537,1.1328,0.3509,1.005
658.3,1035.9,0.39508,1.133,0.3516,1.008
658.7,1037.1,0.39455,1.1332,0.3509,1.008
659.1,1038.2,0.39497,1.1333,0.3498,1.004
659.5,1039.3,0.39468,1.1335,0.3494,1.003
659.9,1040.5,0.39473,1.1337,0.3498,1.005
660.3,1041.6,0.39418,1.1338,0.3505,1.008
660.7,1042.8,0.39464,1.134,0.3498,1.005
661.1,1043.9,0.39464,1.1342,0.3501,1.006
661.5,1045.1,0.39422,1.1343,0.3498,1.006
661.9,1046.2,0.39434,1.1345,0.3512,1.011
662.3,1047.3,0.39381,1.1347,0.3501,1.009
662.7,1048.5,0.39385,1.1348,0.3494,1.007
663.1,1049.6,0.39347,1.135,0.3501,1.01
663.5,1050.8,0.39339,1.1352,0.3501,1.01
663.9,1051.9,0.39289,1.1354,0.3483,1.007
664.3,1053.1,0.39317,1.1355,0.3483,1.006
664.7,1054.2,0.39275,1.1357,0.3512,1.016
665.1,1055.4,0.39256,1.1359,0.3505,1.014
665.5,1056.5,0.39272,1.136,0.3505,1.014
665.9,1057.6,0.39255,1.1362,0.3498,1.012
666.3,1058.8,0.39231,1.1364,0.3512,1.017
666.7,1059.9,0.392,1.1365,0.352,1.021
667.1,1061.1,0.39196,1.1367,0.3494,1.013
667.5,1062.2,0.3917,1.1369,0.3494,1.014
667.9,1063.4,0.39167,1.137,0.349,1.013
668.3,1064.5,0.39151,1.1372,0.3498,1.016
668.7,1065.6,0.39132,1.1374,0.3505,1.019
669.1,1066.8,0.39075,1.1375,0.3487,1.015
669.5,1067.9,0.39116,1.1377,0.3494,1.016
669.9,1069.1,0.39062,1.1378,0.3498,1.019
670.3,1070.2,0.39079,1.138,0.3509,1.022
670.7,1071.4,0.39079,1.1382,0.3483,1.014
671.1,1072.5,0.39058,1.1383,0.3494,1.018
671.5,1073.7,0.39037,1.1385,0.3498,1.02
671.9,1074.8,0.38995,1.1387,0.3487,1.018
672.3,1075.9,0.38966,1.1388,0.3487,1.019
672.7,1077.1,0.39001,1.139,0.3487,1.018
673.1,1078.2,0.38937,1.1392,0.3487,1.02
673.5,1079.4,0.38956,1.1393,0.3476,1.017
673.9,1080.5,0.3895,1.1395,0.3498,1.023
674.3,1081.7,0.38941,1.1397,0.3483,1.019
674.7,1082.8,0.38907,1.1398,0.3498,1.025
675.1,1084,0.38916,1.14,0.3509,1.028
675.5,1085.1,0.3888,1.1401,0.3509,1.029
675.9,1086.3,0.38833,1.1403,0.349,1.025
676.3,1087.4,0.38843,1.1405,0.3501,1.028
676.7,1088.6,0.38818,1.1406,0.3494,1.027
677.1,1089.7,0.38817,1.1408,0.3494,1.027
677.5,1090.9,0.38818,1.1409,0.3476,1.022
677.9,1092,0.38778,1.1411,0.3479,1.024
678.3,1093.2,0.3877,1.1413,0.3476,1.023
678.7,1094.3,0.3874,1.1414,0.3476,1.024
679.1,1095.5,0.38751,1.1416,0.3476,1.024
679.5,1096.6,0.38731,1.1418,0.3469,1.023
679.9,1097.8,0.387,1.1419,0.3472,1.025
680.3,1098.9,0.38719,1.1421,0.349,1.03
680.7,1100,0.38685,1.1422,0.3509,1.036
681.1,1101.2,0.38707,1.1424,0.3509,1.036
681.5,1102.3,0.38627,1.1426,0.3487,1.031
681.9,1103.5,0.38678,1.1427,0.3472,1.026
682.3,1104.6,0.38614,1.1429,0.3476,1.029
682.7,1105.8,0.3861,1.143,0.3451,1.022
683.1,1106.9,0.38611,1.1432,0.3451,1.022
683.5,1108.1,0.38601,1.1433,0.3444,1.02
683.9,1109.3,0.38582,1.1435,0.3483,1.032
684.3,1110.4,0.3859,1.1437,0.3479,1.031
684.7,1111.6,0.38535,1.1438,0.3479,1.033
685.1,1112.7,0.3858,1.144,0.3479,1.032
685.5,1113.9,0.38507,1.1441,0.3494,1.038
685.9,1115,0.38509,1.1443,0.3476,1.033
686.3,1116.2,0.38485,1.1445,0.3479,1.035
686.7,1117.3,0.3847,1.1446,0.3483,1.036
687.1,1118.5,0.38427,1.1448,0.3479,1.037
687.5,1119.6,0.38418,1.1449,0.3479,1.037
687.9,1120.8,0.38394,1.1451,0.3476,1.037
688.3,1121.9,0.38436,1.1452,0.3472,1.035
688.7,1123.1,0.38405,1.1454,0.3461,1.032
689.1,1124.2,0.38413,1.1455,0.3472,1.035
689.5,1125.4,0.38391,1.1457,0.3487,1.041
689.9,1126.5,0.38348,1.1459,0.3469,1.036
690.3,1127.7,0.38342,1.146,0.3476,1.039
690.7,1128.8,0.38353,1.1462,0.3469,1.037
691.1,1130,0.38313,1.1463,0.3472,1.039
691.5,1131.1,0.38318,1.1465,0.3487,1.043
691.9,1132.3,0.38294,1.1466,0.3458,1.035
692.3,1133.4,0.38306,1.1468,0.3465,1.037
692.7,1134.6,0.38292,1.1469,0.3465,1.038
693.1,1135.7,0.38259,1.1471,0.3465,1.039
693.5,1136.9,0.38287,1.1473,0.3476,1.042
693.9,1138,0.38246,1.1474,0.3476,1.043
694.3,1139.2,0.3823,1.1476,0.3498,1.05
694.7,1140.3,0.38198,1.1477,0.349,1.049
695.1,1141.5,0.38211,1.1479,0.3458,1.039
695.5,1142.6,0.38177,1.148,0.3469,1.043
695.9,1143.8,0.38175,1.1482,0.3476,1.045
696.3,1144.9,0.38169,1.1483,0.344,1.035
696.7,1146.1,0.38178,1.1485,0.3465,1.042
697.1,1147.3,0.3817,1.1486,0.3469,1.044
697.5,1148.4,0.38132,1.1488,0.3479,1.048
697.9,1149.6,0.38099,1.1489,0.3472,1.047
698.3,1150.7,0.38097,1.1491,0.3479,1.049
698.7,1151.9,0.38069,1.1492,0.3472,1.048
699.1,1153,0.38096,1.1494,0.3469,1.047
699.5,1154.2,0.38075,1.1495,0.3469,1.047
699.9,1155.3,0.38051,1.1497,0.3454,1.044
700.3,1156.5,0.38055,1.1498,0.3461,1.046
700.7,1157.6,0.38013,1.15,0.3447,1.043
701.1,1158.8,0.38022,1.1501,0.3476,1.051
701.5,1159.9,0.38015,1.1503,0.3469,1.05
701.9,1161.1,0.37963,1.1505,0.3458,1.048
702.3,1162.2,0.38007,1.1506,0.3454,1.046
702.7,1163.4,0.37935,1.1508,0.3472,1.053
703.1,1164.6,0.37953,1.1509,0.3444,1.044
703.5,1165.7,0.37941,1.1511,0.3472,1.053
703.9,1166.9,0.37943,1.1512,0.3454,1.048
704.3,1168,0.37884,1.1514,0.3479,1.057
704.7,1169.2,0.37921,1.1515,0.3454,1.049
705.1,1170.3,0.37885,1.1516,0.3472,1.056
705.5,1171.5,0.3787,1.1518,0.3476,1.057
705.9,1172.6,0.37852,1.1519,0.3454,1.051
706.3,1173.8,0.37841,1.1521,0.3469,1.056
706.7,1175,0.37774,1.1522,0.3454,1.054
707.1,1176.1,0.37834,1.1524,0.3487,1.062
707.5,1177.3,0.37754,1.1525,0.3461,1.057
707.9,1178.4,0.37776,1.1527,0.3454,1.054
708.3,1179.6,0.37814,1.1528,0.3454,1.053
708.7,1180.7,0.37772,1.153,0.3469,1.059
709.1,1181.9,0.37756,1.1531,0.3465,1.058
709.5,1183,0.37757,1.1533,0.3458,1.056
709.9,1184.2,0.37695,1.1534,0.3472,1.062
710.3,1185.3,0.37691,1.1536,0.3479,1.065
710.7,1186.5,0.3767,1.1537,0.3483,1.067
711.1,1187.7,0.37689,1.1539,0.3447,1.055
711.5,1188.8,0.37671,1.154,0.3465,1.061
711.9,1190,0.37656,1.1542,0.3451,1.058
712.3,1191.1,0.37625,1.1543,0.3454,1.06
712.7,1192.3,0.3768,1.1545,0.3461,1.061
713.1,1193.4,0.37633,1.1546,0.3458,1.061
713.5,1194.6,0.37609,1.1547,0.3454,1.061
713.9,1195.8,0.37604,1.1549,0.3461,1.063
714.3,1196.9,0.37641,1.155,0.3461,1.062
714.7,1198.1,0.37612,1.1552,0.3458,1.062
715.1,1199.2,0.37598,1.1553,0.3472,1.067
715.5,1200.4,0.37586,1.1555,0.3469,1.066
715.9,1201.5,0.37582,1.1556,0.3465,1.065
716.3,1202.7,0.37554,1.1558,0.3458,1.064
716.7,1203.8,0.37574,1.1559,0.3461,1.065
717.1,1205,0.37567,1.1561,0.3465,1.066
717.5,1206.1,0.37549,1.1562,0.3469,1.068
717.9,1207.3,0.37529,1.1563,0.3465,1.068
718.3,1208.5,0.3753,1.1565,0.3469,1.069
718.7,1209.6,0.37509,1.1566,0.3465,1.068
719.1,1210.8,0.37492,1.1568,0.3451,1.065
719.5,1211.9,0.37463,1.1569,0.3433,1.06
719.9,1213.1,0.37473,1.1571,0.3461,1.069
720.3,1214.2,0.37451,1.1572,0.3469,1.072
720.7,1215.4,0.37444,1.1573,0.3444,1.064
721.1,1216.6,0.3748,1.1575,0.3454,1.067
721.5,1217.7,0.37441,1.1576,0.3458,1.069
721.9,1218.9,0.37426,1.1578,0.3447,1.066
722.3,1220,0.37439,1.1579,0.3451,1.067
722.7,1221.2,0.37407,1.1581,0.3415,1.057
723.1,1222.3,0.37421,1.1582,0.3469,1.074
723.5,1223.5,0.3743,1.1583,0.3461,1.071
723.9,1224.7,0.37369,1.1585,0.3465,1.074
724.3,1225.8,0.3736,1.1586,0.3458,1.072
724.7,1227,0.37329,1.1588,0.3454,1.072
725.1,1228.1,0.37327,1.1589,0.3451,1.071
725.5,1229.3,0.37329,1.1591,0.3454,1.073
725.9,1230.4,0.37324,1.1592,0.3447,1.071
726.3,1231.6,0.37303,1.1593,0.3444,1.07
726.7,1232.8,0.37296,1.1595,0.3469,1.078
727.1,1233.9,0.37285,1.1596,0.3465,1.078
727.5,1235.1,0.37266,1.1598,0.3458,1.076
727.9,1236.2,0.37296,1.1599,0.3454,1.074
728.3,1237.4,0.37259,1.16,0.3444,1.072
728.7,1238.5,0.37229,1.1602,0.3451,1.075
729.1,1239.7,0.37235,1.1603,0.3436,1.071
729.5,1240.9,0.3722,1.1605,0.3454,1.077
729.9,1242,0.3719,1.1606,0.3465,1.081
730.3,1243.2,0.37187,1.1607,0.3444,1.075
730.7,1244.3,0.37143,1.1609,0.3454,1.08
731.1,1245.5,0.37162,1.161,0.3461,1.081
731.5,1246.7,0.37144,1.1612,0.3451,1.079
731.9,1247.8,0.37143,1.1613,0.3458,1.081
732.3,1249,0.37099,1.1614,0.3447,1.079
732.7,1250.1,0.37069,1.1616,0.3454,1.082
733.1,1251.3,0.37033,1.1617,0.3465,1.087
733.5,1252.5,0.36994,1.1618,0.3458,1.086
733.9,1253.6,0.37008,1.162,0.3444,1.081
734.3,1254.8,0.3698,1.1621,0.3433,1.079
734.7,1255.9,0.37002,1.1623,0.3444,1.082
735.1,1257.1,0.36985,1.1624,0.3422,1.076
735.5,1258.3,0.36928,1.1625,0.3444,1.084
735.9,1259.4,0.36948,1.1627,0.3444,1.084
736.3,1260.6,0.36937,1.1628,0.3444,1.084
736.7,1261.7,0.36865,1.163,0.3447,1.087
737.1,1262.9,0.36824,1.1631,0.3451,1.09
737.5,1264.1,0.36853,1.1632,0.3451,1.089
737.9,1265.2,0.36784,1.1634,0.3447,1.09
738.3,1266.4,0.36778,1.1635,0.344,1.088
738.7,1267.6,0.36786,1.1636,0.3433,1.086
739.1,1268.7,0.36773,1.1638,0.3444,1.09
739.5,1269.9,0.36725,1.1639,0.3426,1.086
739.9,1271.1,0.36735,1.164,0.3461,1.097
740.3,1272.2,0.36718,1.1642,0.3433,1.088
740.7,1273.4,0.3668,1.1643,0.3422,1.086
741.1,1274.5,0.36631,1.1645,0.3433,1.091
741.5,1275.7,0.36631,1.1646,0.3429,1.09
741.9,1276.9,0.36613,1.1647,0.3426,1.09
742.3,1278.1,0.36583,1.1649,0.3433,1.093
742.7,1279.2,0.3657,1.165,0.3433,1.094
743.1,1280.4,0.36618,1.1651,0.3436,1.093
743.5,1281.5,0.36557,1.1653,0.3433,1.094
743.9,1282.7,0.36515,1.1654,0.3426,1.093
744.3,1283.9,0.36498,1.1655,0.3433,1.096
744.7,1285,0.36489,1.1657,0.3436,1.098
745.1,1286.2,0.36485,1.1658,0.3426,1.095
745.5,1287.4,0.36458,1.1659,0.3444,1.101
745.9,1288.5,0.36457,1.1661,0.3444,1.101
746.3,1289.7,0.36455,1.1662,0.3447,1.103
746.7,1290.9,0.36434,1.1663,0.3436,1.1
747.1,1292,0.3645,1.1665,0.3436,1.1
747.5,1293.2,0.36386,1.1666,0.3426,1.098
747.9,1294.4,0.36363,1.1667,0.3426,1.099
748.3,1295.5,0.36405,1.1669,0.3454,1.107
748.7,1296.7,0.36355,1.167,0.3436,1.103
749.1,1297.9,0.36379,1.1671,0.3422,1.098
749.5,1299,0.36355,1.1673,0.344,1.104
749.9,1300.2,0.36336,1.1674,0.3426,1.101
750.3,1301.3,0.36341,1.1675,0.3433,1.103
750.7,1302.5,0.36294,1.1677,0.3422,1.101
751.1,1303.7,0.36314,1.1678,0.3419,1.099
751.5,1304.9,0.3628,1.1679,0.3429,1.104
751.9,1306,0.36295,1.1681,0.3408,1.097
752.3,1307.2,0.36258,1.1682,0.3433,1.106
752.7,1308.3,0.36216,1.1683,0.3444,1.111
753.1,1309.5,0.36174,1.1685,0.3426,1.107
753.5,1310.7,0.36215,1.1686,0.3422,1.104
753.9,1311.8,0.36194,1.1687,0.3433,1.108
754.3,1313,0.36218,1.1689,0.3426,1.106
754.7,1314.2,0.36159,1.169,0.3426,1.108
755.1,1315.3,0.36182,1.1691,0.3408,1.101
755.5,1316.5,0.36147,1.1692,0.3412,1.104
755.9,1317.7,0.36133,1.1694,0.344,1.113
756.3,1318.9,0.36122,1.1695,0.3415,1.106
756.7,1320,0.36093,1.1696,0.3415,1.107
757.1,1321.2,0.36073,1.1698,0.3412,1.106
757.5,1322.4,0.36062,1.1699,0.3433,1.114
757.9,1323.5,0.36027,1.17,0.344,1.117
758.3,1324.7,0.36023,1.1702,0.3429,1.114
758.7,1325.9,0.36026,1.1703,0.3422,1.112
759.1,1327,0.35923,1.1704,0.3436,1.12
759.5,1328.2,0.36022,1.1705,0.3451,1.121
759.9,1329.4,0.35977,1.1707,0.3426,1.115
760.3,1330.5,0.3595,1.1708,0.3408,1.11
760.7,1331.7,0.35975,1.1709,0.3426,1.115
761.1,1332.9,0.35918,1.1711,0.3412,1.112
761.5,1334,0.3595,1.1712,0.3415,1.113
761.9,1335.2,0.35868,1.1713,0.3454,1.128
762.3,1336.4,0.35863,1.1715,0.3461,1.131
762.7,1337.5,0.35879,1.1716,0.3415,1.115
763.1,1338.7,0.35884,1.1717,0.3433,1.121
763.5,1339.9,0.35838,1.1718,0.3436,1.124
763.9,1341,0.35832,1.172,0.3412,1.116
764.3,1342.2,0.35802,1.1721,0.3381,1.107
764.7,1343.4,0.35806,1.1722,0.3384,1.108
765.1,1344.6,0.3577,1.1723,0.3436,1.126
765.5,1345.7,0.35783,1.1725,0.3419,1.12
765.9,1346.9,0.35714,1.1726,0.3405,1.118
766.3,1348.1,0.35704,1.1727,0.3408,1.119
766.7,1349.2,0.35753,1.1729,0.3426,1.124
767.1,1350.4,0.35714,1.173,0.3412,1.121
767.5,1351.6,0.35693,1.1731,0.3394,1.116
767.9,1352.8,0.35673,1.1732,0.3401,1.119
768.3,1353.9,0.35615,1.1734,0.3419,1.126
768.7,1355.1,0.35643,1.1735,0.3408,1.122
769.1,1356.3,0.3562,1.1736,0.3419,1.126
769.5,1357.4,0.35599,1.1737,0.3419,1.127
769.9,1358.6,0.35618,1.1739,0.3401,1.121
770.3,1359.8,0.35573,1.174,0.3451,1.139
770.7,1360.9,0.35548,1.1741,0.3429,1.133
771.1,1362.1,0.35543,1.1742,0.3419,1.129
771.5,1363.3,0.35563,1.1744,0.3419,1.129
771.9,1364.5,0.3555,1.1745,0.3415,1.128
772.3,1365.6,0.35554,1.1746,0.3419,1.129
772.7,1366.8,0.35546,1.1748,0.3412,1.128
773.1,1368,0.35531,1.1749,0.3412,1.128
773.5,1369.1,0.35499,1.175,0.3408,1.128
773.9,1370.3,0.35456,1.1751,0.3391,1.124
774.3,1371.5,0.35446,1.1753,0.3412,1.131
774.7,1372.7,0.35448,1.1754,0.3415,1.132
775.1,1373.8,0.35451,1.1755,0.3412,1.131
775.5,1375,0.35424,1.1756,0.3426,1.137
775.9,1376.2,0.35409,1.1757,0.3405,1.131
776.3,1377.3,0.35391,1.1759,0.3426,1.138
776.7,1378.5,0.35402,1.176,0.3433,1.14
777.1,1379.7,0.35367,1.1761,0.3426,1.139
777.5,1380.9,0.354,1.1762,0.3401,1.13
777.9,1382,0.35377,1.1764,0.3408,1.133
778.3,1383.2,0.35387,1.1765,0.3429,1.14
778.7,1384.4,0.35355,1.1766,0.3408,1.134
779.1,1385.5,0.35345,1.1767,0.3405,1.134
779.5,1386.7,0.3535,1.1769,0.3401,1.132
779.9,1387.9,0.35299,1.177,0.344,1.147
780.3,1389,0.35311,1.1771,0.3405,1.135
780.7,1390.2,0.35276,1.1772,0.3401,1.135
781.1,1391.4,0.35249,1.1774,0.3419,1.142
781.5,1392.6,0.35199,1.1775,0.3422,1.145
781.9,1393.7,0.35219,1.1776,0.3394,1.135
782.3,1394.9,0.35193,1.1777,0.3374,1.129
782.7,1396.1,0.35196,1.1778,0.3436,1.15
783.1,1397.3,0.35168,1.178,0.3422,1.146
783.5,1398.4,0.35161,1.1781,0.3391,1.136
783.9,1399.6,0.35129,1.1782,0.3405,1.142
784.3,1400.8,0.35147,1.1783,0.3401,1.14
784.7,1402,0.35139,1.1785,0.3384,1.135
785.1,1403.1,0.35107,1.1786,0.3405,1.143
785.5,1404.3,0.35081,1.1787,0.3412,1.146
785.9,1405.5,0.35105,1.1788,0.3412,1.146
786.3,1406.7,0.35041,1.1789,0.3419,1.15
786.7,1407.8,0.35081,1.1791,0.3426,1.151
787.1,1409,0.35031,1.1792,0.3419,1.151
787.5,1410.2,0.35011,1.1793,0.3405,1.147
787.9,1411.3,0.35041,1.1794,0.3405,1.146
788.3,1412.5,0.34991,1.1795,0.3408,1.149
788.7,1413.7,0.34981,1.1797,0.3408,1.149
789.1,1414.9,0.3494,1.1798,0.3408,1.151
789.5,1416,0.34932,1.1799,0.3405,1.15
789.9,1417.2,0.34907,1.18,0.3401,1.15
790.3,1418.4,0.34908,1.1801,0.3422,1.157
790.7,1419.6,0.34914,1.1803,0.3419,1.156
791.1,1420.7,0.34921,1.1804,0.3408,1.152
791.5,1421.9,0.3489,1.1805,0.3429,1.16
791.9,1423.1,0.34847,1.1806,0.3429,1.162
792.3,1424.2,0.34877,1.1807,0.3415,1.156
792.7,1425.4,0.34839,1.1809,0.3422,1.16
793.1,1426.6,0.34796,1.181,0.3401,1.154
793.5,1427.7,0.34817,1.1811,0.3381,1.147
793.9,1428.9,0.34814,1.1812,0.3412,1.158
794.3,1430.1,0.3477,1.1813,0.3388,1.151
794.7,1431.3,0.34815,1.1815,0.3415,1.159
795.1,1432.4,0.34753,1.1816,0.3388,1.152
795.5,1433.6,0.34743,1.1817,0.3398,1.156
795.9,1434.8,0.34749,1.1818,0.3394,1.154
796.3,1436,0.34726,1.1819,0.3408,1.16
796.7,1437.2,0.3472,1.1821,0.3384,1.152
797.1,1438.3,0.3472,1.1822,0.3405,1.159
797.5,1439.5,0.34696,1.1823,0.3394,1.157
797.9,1440.7,0.3466,1.1824,0.3412,1.164
798.3,1441.9,0.34672,1.1825,0.3398,1.159
798.7,1443,0.34634,1.1826,0.3388,1.157
799.1,1444.2,0.34678,1.1828,0.3408,1.162
799.5,1445.4,0.34622,1.1829,0.3401,1.162
799.9,1446.6,0.34558,1.183,0.3412,1.168
800.3,1447.7,0.34598,1.1831,0.3401,1.163
800.7,1448.9,0.34553,1.1832,0.3412,1.168
801.1,1450.1,0.34498,1.1833,0.3401,1.167
801.5,1451.3,0.34483,1.1835,0.3408,1.17
801.9,1452.4,0.34484,1.1836,0.3391,1.164
802.3,1453.6,0.34459,1.1837,0.3391,1.165
802.7,1454.8,0.34463,1.1838,0.3401,1.168
803.1,1456,0.34442,1.1839,0.3394,1.167
803.5,1457.1,0.34428,1.1841,0.3401,1.17
803.9,1458.3,0.34415,1.1842,0.3388,1.166
804.3,1459.5,0.34404,1.1843,0.3381,1.164
804.7,1460.7,0.34392,1.1844,0.3388,1.167
805.1,1461.9,0.34391,1.1845,0.3401,1.172
805.5,1463,0.34339,1.1846,0.3405,1.175
805.9,1464.2,0.34317,1.1847,0.3398,1.173
806.3,1465.4,0.34281,1.1849,0.3408,1.178
806.7,1466.6,0.34266,1.185,0.3401,1.176
807.1,1467.7,0.34295,1.1851,0.3422,1.183
807.5,1468.9,0.34271,1.1852,0.3391,1.173
807.9,1470.1,0.34261,1.1853,0.336,1.163
808.3,1471.3,0.34223,1.1854,0.3388,1.173
808.7,1472.5,0.3422,1.1856,0.3391,1.175
809.1,1473.6,0.34205,1.1857,0.3384,1.173
809.5,1474.8,0.34232,1.1858,0.3384,1.172
809.9,1476,0.34124,1.1859,0.3401,1.182
810.3,1477.2,0.34121,1.186,0.3394,1.18
810.7,1478.4,0.34108,1.1861,0.3401,1.183
811.1,1479.5,0.34124,1.1862,0.3391,1.179
811.5,1480.7,0.34083,1.1864,0.3388,1.179
811.9,1481.9,0.34102,1.1865,0.3391,1.18
812.3,1483.1,0.34054,1.1866,0.3388,1.18
812.7,1484.3,0.34033,1.1867,0.3391,1.182
813.1,1485.4,0.34009,1.1868,0.3377,1.179
813.5,1486.6,0.3403,1.1869,0.3391,1.183
813.9,1487.8,0.33989,1.187,0.3391,1.184
814.3,1489,0.3397,1.1872,0.3394,1.186
814.7,1490.2,0.33971,1.1873,0.3415,1.194
815.1,1491.3,0.33985,1.1874,0.3388,1.184
815.5,1492.5,0.33938,1.1875,0.3381,1.183
815.9,1493.7,0.33942,1.1876,0.3388,1.185
816.3,1494.9,0.33942,1.1877,0.3391,1.187
816.7,1496,0.33922,1.1878,0.3398,1.19
817.1,1497.2,0.33897,1.1879,0.3391,1.188
817.5,1498.4,0.33865,1.1881,0.3398,1.192
817.8,1499.3,0.33834,1.1881,0.332,1.166