File: PMMA/Calibration_Data/FSRI/FSRI_STA_N2_3K_1.csv
Temp,time,TGA,DSC
[K],[s],[mg],[mW/mg]
323.4,0.0,3.9820,5.67E-03
323.8,54.2,3.9805,2.81E-02
324.2,71.4,3.9799,4.04E-02
324.6,84.9,3.9802,5.07E-02
325.0,96.7,3.9818,5.95E-02
325.4,107.6,3.9820,6.44E-02
325.8,117.8,3.9820,6.58E-02
326.2,127.7,3.9818,7.16E-02
326.6,137.2,3.9832,7.25E-02
327.0,146.7,3.9825,7.27E-02
327.4,156.0,3.9832,7.80E-02
327.8,165.2,3.9819,7.51E-02
328.2,174.3,3.9832,7.78E-02
328.6,183.3,3.9812,7.56E-02
329.0,192.3,3.9812,7.68E-02
329.4,201.2,3.9812,7.75E-02
329.8,210.0,3.9825,7.78E-02
330.2,218.7,3.9812,7.85E-02
330.6,227.3,3.9812,7.82E-02
331.0,236.0,3.9819,8.06E-02
331.4,244.6,3.9812,8.02E-02
331.8,253.2,3.9823,8.37E-02
332.2,261.8,3.9812,8.21E-02
332.6,270.3,3.9812,8.40E-02
333.0,278.7,3.9812,8.25E-02
333.4,287.1,3.9812,8.49E-02
333.8,295.5,3.9812,8.54E-02
334.2,303.7,3.9819,8.70E-02
334.6,312.0,3.9812,8.73E-02
335.0,320.3,3.9825,8.52E-02
335.4,328.6,3.9818,8.42E-02
335.8,336.8,3.9812,8.78E-02
336.2,345.2,3.9812,8.63E-02
336.6,353.5,3.9815,8.59E-02
337.0,361.7,3.9815,8.77E-02
337.4,369.9,3.9815,8.80E-02
337.8,378.1,3.9815,8.90E-02
338.2,386.3,3.9825,8.92E-02
338.6,394.5,3.9806,8.98E-02
339.0,402.7,3.9819,8.90E-02
339.4,410.9,3.9809,9.01E-02
339.8,419.1,3.9822,8.75E-02
340.2,427.3,3.9822,8.92E-02
340.6,435.5,3.9832,8.84E-02
341.0,443.7,3.9824,8.68E-02
341.4,451.9,3.9816,8.71E-02
341.8,460.0,3.9819,9.14E-02
342.2,468.1,3.9806,9.20E-02
342.6,476.2,3.9815,8.84E-02
343.0,484.2,3.9816,9.15E-02
343.4,492.3,3.9815,9.37E-02
343.8,500.4,3.9802,9.40E-02
344.2,508.4,3.9809,9.53E-02
344.6,516.5,3.9815,9.76E-02
345.0,524.5,3.9816,9.61E-02
345.4,532.6,3.9812,9.60E-02
345.8,540.6,3.9812,9.41E-02
346.2,548.6,3.9806,9.39E-02
346.6,556.7,3.9799,9.35E-02
347.0,564.8,3.9799,9.42E-02
347.4,572.8,3.9812,9.49E-02
347.8,580.9,3.9812,9.47E-02
348.2,589.0,3.9799,9.41E-02
348.6,597.1,3.9798,9.57E-02
349.0,605.1,3.9799,9.40E-02
349.4,613.2,3.9799,9.28E-02
349.8,621.2,3.9798,9.25E-02
350.2,629.3,3.9799,9.20E-02
350.6,637.4,3.9799,9.23E-02
351.0,645.4,3.9786,9.28E-02
351.4,653.4,3.9786,9.12E-02
351.8,661.4,3.9793,9.08E-02
352.2,669.5,3.9796,9.02E-02
352.6,677.5,3.9802,9.23E-02
353.0,685.6,3.9788,9.13E-02
353.4,693.7,3.9788,9.41E-02
353.8,701.7,3.9799,9.44E-02
354.2,709.8,3.9792,9.36E-02
354.6,717.8,3.9786,9.31E-02
355.0,725.9,3.9789,9.21E-02
355.4,734.0,3.9782,9.23E-02
355.8,742.1,3.9782,9.26E-02
356.2,750.3,3.9782,9.16E-02
356.6,758.4,3.9784,9.27E-02
357.0,766.6,3.9776,9.26E-02
357.4,774.7,3.9776,9.01E-02
357.8,782.8,3.9787,8.98E-02
358.2,790.8,3.9776,9.26E-02
358.6,798.8,3.9777,9.35E-02
359.0,806.8,3.9763,9.50E-02
359.4,814.7,3.9789,9.36E-02
359.8,822.7,3.9776,9.46E-02
360.2,830.6,3.9776,9.79E-02
360.6,838.6,3.9763,9.58E-02
361.0,846.5,3.9776,9.74E-02
361.4,854.5,3.9779,9.59E-02
361.8,862.5,3.9766,9.60E-02
362.2,870.6,3.9776,9.49E-02
362.6,878.7,3.9763,9.44E-02
363.0,886.8,3.9758,9.49E-02
363.4,894.9,3.9756,9.52E-02
363.8,902.8,3.9762,9.48E-02
364.2,910.8,3.9776,9.60E-02
364.6,918.8,3.9763,9.45E-02
365.0,926.8,3.9763,9.33E-02
365.4,934.9,3.9763,9.42E-02
365.8,942.9,3.9776,9.48E-02
366.2,950.9,3.9776,9.51E-02
366.6,958.9,3.9759,9.21E-02
367.0,966.9,3.9759,9.56E-02
367.4,974.9,3.9773,9.65E-02
367.8,982.9,3.9760,9.79E-02
368.2,990.8,3.9759,9.80E-02
368.6,998.7,3.9766,9.79E-02
369.0,1006.7,3.9766,0.10033
369.4,1014.7,3.9756,9.78E-02
369.8,1022.6,3.9757,9.77E-02
370.2,1030.6,3.9747,9.67E-02
370.6,1038.6,3.9764,9.76E-02
371.0,1046.6,3.9769,9.77E-02
371.4,1054.5,3.9769,9.74E-02
371.8,1062.5,3.9752,0.10014
372.2,1070.4,3.9760,9.82E-02
372.6,1078.3,3.9759,0.1001
373.0,1086.2,3.9759,9.86E-02
373.4,1094.1,3.9759,0.10059
373.8,1102.0,3.9759,0.10198
374.2,1109.9,3.9760,9.97E-02
374.6,1117.8,3.9759,9.83E-02
375.0,1125.7,3.9759,0.10093
375.4,1133.7,3.9769,9.98E-02
375.8,1141.6,3.9754,9.82E-02
376.2,1149.6,3.9759,0.10033
376.6,1157.5,3.9763,0.10015
377.0,1165.5,3.9750,0.10098
377.4,1173.4,3.9743,9.88E-02
377.8,1181.4,3.9756,9.90E-02
378.2,1189.4,3.9756,9.78E-02
378.6,1197.4,3.9753,9.81E-02
379.0,1205.4,3.9740,9.95E-02
379.4,1213.4,3.9745,0.10176
379.8,1221.4,3.9753,0.10163
380.2,1229.3,3.9753,0.10473
380.6,1237.1,3.9746,0.10147
381.0,1245.0,3.9740,0.10062
381.4,1252.9,3.9727,0.10536
381.8,1260.8,3.9726,0.1046
382.2,1268.7,3.9727,0.10564
382.6,1276.6,3.9733,0.10654
383.0,1284.4,3.9749,0.1059
383.4,1292.3,3.9750,0.10755
383.8,1300.2,3.9746,0.10647
384.2,1308.1,3.9746,0.10675
384.6,1316.0,3.9743,0.10713
385.0,1323.9,3.9730,0.10807
385.4,1331.8,3.9743,0.10528
385.8,1339.7,3.9724,0.10717
386.2,1347.7,3.9736,0.10629
386.6,1355.6,3.9724,0.10843
387.0,1363.6,3.9738,0.10759
387.4,1371.5,3.9735,0.10845
387.8,1379.4,3.9720,0.10787
388.2,1387.4,3.9730,0.1089
388.6,1395.3,3.9731,0.10656
389.0,1403.3,3.9715,0.10885
389.4,1411.2,3.9723,0.11047
389.8,1419.1,3.9730,0.10763
390.2,1427.0,3.9717,0.10865
390.6,1435.0,3.9720,0.11022
391.0,1442.9,3.9730,0.11186
391.4,1450.8,3.9717,0.11311
391.8,1458.7,3.9717,0.11473
392.2,1466.7,3.9717,0.11413
392.6,1474.6,3.9717,0.11341
393.0,1482.6,3.9717,0.11445
393.4,1490.5,3.9709,0.1154
393.8,1498.5,3.9715,0.1145
394.2,1506.5,3.9717,0.11132
394.6,1514.6,3.9717,0.11424
395.0,1522.6,3.9717,0.1163
395.4,1530.6,3.9700,0.11643
395.8,1538.6,3.9700,0.11881
396.2,1546.6,3.9700,0.11974
396.6,1554.5,3.9700,0.11883
397.0,1562.5,3.9687,0.11932
397.4,1570.5,3.9700,0.11864
397.8,1578.4,3.9691,0.11859
398.2,1586.4,3.9713,0.12053
398.6,1594.3,3.9697,0.12289
399.0,1602.2,3.9694,0.1249
399.4,1610.1,3.9694,0.12551
399.8,1617.9,3.9681,0.12622
400.2,1625.8,3.9680,0.12754
400.6,1633.6,3.9705,0.12787
401.0,1641.5,3.9684,0.12897
401.4,1649.3,3.9681,0.12963
401.8,1657.1,3.9680,0.12825
402.2,1665.0,3.9671,0.12887
402.6,1672.9,3.9674,0.12872
403.0,1680.7,3.9665,0.12599
403.4,1688.5,3.9674,0.12855
403.8,1696.4,3.9677,0.12915
404.2,1704.2,3.9669,0.12949
404.6,1712.1,3.9661,0.12932
405.0,1720.0,3.9661,0.13052
405.4,1727.9,3.9651,0.12834
405.8,1735.9,3.9674,0.13085
406.2,1743.8,3.9664,0.13241
406.6,1751.6,3.9648,0.13218
407.0,1759.5,3.9661,0.13397
407.4,1767.4,3.9661,0.13082
407.8,1775.3,3.9661,0.13241
408.2,1783.2,3.9661,0.1307
408.6,1791.1,3.9660,0.12991
409.0,1798.9,3.9654,0.1299
409.4,1806.9,3.9649,0.12988
409.8,1814.8,3.9651,0.1324
410.2,1822.7,3.9648,0.13041
410.6,1830.6,3.9638,0.12841
411.0,1838.5,3.9652,0.13001
411.4,1846.4,3.9647,0.12963
411.8,1854.3,3.9624,0.12807
412.2,1862.2,3.9633,0.12845
412.6,1870.0,3.9631,0.13048
413.0,1877.9,3.9631,0.13052
413.4,1885.8,3.9631,0.13345
413.8,1893.7,3.9629,0.13183
414.2,1901.5,3.9617,0.13174
414.6,1909.4,3.9614,0.13048
415.0,1917.3,3.9619,0.13038
415.4,1925.2,3.9608,0.12957
415.8,1933.1,3.9608,0.12849
416.2,1940.9,3.9595,0.13053
416.6,1948.8,3.9608,0.13172
417.0,1956.7,3.9595,0.1334
417.4,1964.6,3.9598,0.13289
417.8,1972.5,3.9585,0.13205
418.2,1980.3,3.9584,0.1336
418.6,1988.2,3.9598,0.13233
419.0,1996.0,3.9572,0.13387
419.4,2003.9,3.9572,0.13417
419.8,2011.7,3.9562,0.13573
420.2,2019.5,3.9562,0.1357
420.6,2027.4,3.9567,0.13592
421.0,2035.2,3.9565,0.1347
421.4,2043.0,3.9552,0.13727
421.8,2050.9,3.9536,0.13842
422.2,2058.7,3.9551,0.13765
422.6,2066.5,3.9552,0.1382
423.0,2074.3,3.9545,0.13784
423.4,2082.2,3.9550,0.13828
423.8,2090.0,3.9532,0.13648
424.2,2097.9,3.9532,0.1365
424.6,2105.7,3.9532,0.13889
425.0,2113.6,3.9532,0.13793
425.4,2121.4,3.9519,0.13992
425.8,2129.2,3.9518,0.14245
426.2,2137.0,3.9526,0.14233
426.6,2144.8,3.9512,0.14463
427.0,2152.7,3.9506,0.14315
427.4,2160.5,3.9506,0.14238
427.8,2168.3,3.9506,0.14172
428.2,2176.1,3.9506,0.14077
428.6,2184.0,3.9493,0.1417
429.0,2191.8,3.9485,0.14139
429.4,2199.7,3.9481,0.14198
429.8,2207.6,3.9481,0.14319
430.2,2215.5,3.9471,0.14456
430.6,2223.3,3.9468,0.14689
431.0,2231.2,3.9468,0.14254
431.4,2239.0,3.9455,0.14495
431.8,2246.9,3.9451,0.14226
432.2,2254.7,3.9461,0.14381
432.6,2262.6,3.9438,0.14537
433.0,2270.4,3.9437,0.14676
433.4,2278.2,3.9424,0.14678
433.8,2286.1,3.9438,0.14773
434.2,2293.9,3.9412,0.14784
434.6,2301.8,3.9425,0.14948
435.0,2309.6,3.9399,0.14938
435.4,2317.4,3.9399,0.15088
435.8,2325.3,3.9399,0.15017
436.2,2333.2,3.9399,0.1489
436.6,2341.0,3.9389,0.15098
437.0,2348.8,3.9393,0.15046
437.4,2356.7,3.9366,0.14987
437.8,2364.5,3.9375,0.15027
438.2,2372.4,3.9372,0.15173
438.6,2380.3,3.9353,0.15251
439.0,2388.1,3.9360,0.1518
439.4,2396.0,3.9346,0.15096
439.8,2403.9,3.9341,0.15573
440.2,2411.7,3.9334,0.1526
440.6,2419.6,3.9350,0.15802
441.0,2427.4,3.9332,0.15664
441.4,2435.2,3.9308,0.15775
441.8,2443.0,3.9320,0.15864
442.2,2450.9,3.9294,0.15728
442.6,2458.7,3.9280,0.16098
443.0,2466.5,3.9295,0.16012
443.4,2474.3,3.9267,0.15943
443.8,2482.1,3.9277,0.16043
444.2,2489.9,3.9277,0.16055
444.6,2497.7,3.9254,0.15918
445.0,2505.5,3.9241,0.16046
445.4,2513.3,3.9228,0.16194
445.8,2521.1,3.9229,0.16034
446.2,2529.0,3.9214,0.15922
446.6,2536.8,3.9212,0.15868
447.0,2544.6,3.9214,0.16022
447.4,2552.4,3.9188,0.1605
447.8,2560.2,3.9178,0.16009
448.2,2567.9,3.9165,0.16059
448.6,2575.7,3.9175,0.16111
449.0,2583.5,3.9162,0.1602
449.4,2591.3,3.9148,0.15903
449.8,2599.2,3.9136,0.15979
450.2,2607.0,3.9122,0.15974
450.6,2614.9,3.9109,0.16025
451.0,2622.7,3.9102,0.15853
451.4,2630.5,3.9089,0.15958
451.8,2638.3,3.9076,0.15899
452.2,2646.1,3.9063,0.15924
452.6,2654.0,3.9063,0.15577
453.0,2661.8,3.9050,0.15723
453.4,2669.7,3.9037,0.15753
453.8,2677.5,3.9030,0.15724
454.2,2685.4,3.9017,0.15783
454.6,2693.2,3.9018,0.15659
455.0,2701.1,3.9004,0.15583
455.4,2709.0,3.9004,0.15525
455.8,2716.9,3.8991,0.15485
456.2,2724.9,3.8981,0.15141
456.6,2732.8,3.8964,0.15133
457.0,2740.7,3.8964,0.15129
457.4,2748.6,3.8964,0.14918
457.8,2756.4,3.8951,0.14959
458.2,2764.3,3.8930,0.14978
458.6,2772.1,3.8931,0.15133
459.0,2779.9,3.8912,0.15098
459.4,2787.8,3.8925,0.15079
459.8,2795.6,3.8911,0.15246
460.2,2803.4,3.8898,0.15343
460.6,2811.2,3.8898,0.15539
461.0,2819.0,3.8885,0.15417
461.4,2826.7,3.8885,0.1543
461.8,2834.5,3.8872,0.15252
462.2,2842.3,3.8873,0.15464
462.6,2850.2,3.8846,0.15425
463.0,2858.0,3.8859,0.15493
463.4,2865.8,3.8839,0.15259
463.8,2873.6,3.8847,0.15246
464.2,2881.4,3.8834,0.15575
464.6,2889.2,3.8833,0.1541
465.0,2897.0,3.8819,0.15464
465.4,2904.8,3.8810,0.15486
465.8,2912.7,3.8806,0.15555
466.2,2920.5,3.8793,0.1546
466.6,2928.3,3.8803,0.15442
467.0,2936.2,3.8790,0.15435
467.4,2944.0,3.8784,0.15118
467.8,2951.9,3.8787,0.15193
468.2,2959.8,3.8760,0.15163
468.6,2967.7,3.8765,0.15181
469.0,2975.6,3.8770,0.15185
469.4,2983.5,3.8744,0.15082
469.8,2991.5,3.8756,0.15158
470.2,2999.4,3.8730,0.14814
470.6,3007.3,3.8731,0.14869
471.0,3015.2,3.8741,0.14797
471.4,3023.1,3.8727,0.14743
471.8,3030.9,3.8721,0.14828
472.2,3038.8,3.8722,0.15172
472.6,3046.6,3.8717,0.14911
473.0,3054.4,3.8707,0.14877
473.4,3062.1,3.8695,0.15267
473.8,3069.9,3.8688,0.14918
474.2,3077.6,3.8701,0.14949
474.6,3085.2,3.8701,0.15252
475.0,3092.9,3.8701,0.15081
475.4,3100.6,3.8699,0.15083
475.8,3108.3,3.8687,0.15026
476.2,3116.1,3.8684,0.15094
476.6,3123.8,3.8685,0.1481
477.0,3131.5,3.8667,0.1491
477.4,3139.2,3.8675,0.14757
477.8,3146.9,3.8665,0.14718
478.2,3154.6,3.8666,0.14819
478.6,3162.3,3.8658,0.14831
479.0,3170.0,3.8671,0.14969
479.4,3177.7,3.8681,0.14857
479.8,3185.3,3.8669,0.14836
480.2,3193.0,3.8642,0.14728
480.6,3200.6,3.8655,0.14728
481.0,3208.3,3.8642,0.14695
481.4,3216.0,3.8648,0.14693
481.8,3223.7,3.8632,0.14554
482.2,3231.4,3.8632,0.14447
482.6,3239.2,3.8632,0.14564
483.0,3246.9,3.8632,0.14337
483.4,3254.7,3.8632,0.14453
483.8,3262.5,3.8646,0.14087
484.2,3270.3,3.8632,0.13971
484.6,3278.1,3.8625,0.14224
485.0,3286.0,3.8625,0.14068
485.4,3293.9,3.8625,0.14242
485.8,3301.7,3.8625,0.13872
486.2,3309.6,3.8619,0.14055
486.6,3317.4,3.8619,0.14133
487.0,3325.3,3.8619,0.13993
487.4,3333.1,3.8619,0.13919
487.8,3340.9,3.8609,0.13924
488.2,3348.8,3.8609,0.13963
488.6,3356.7,3.8609,0.13981
489.0,3364.5,3.8599,0.14036
489.4,3372.4,3.8599,0.13998
489.8,3380.2,3.8599,0.14134
490.2,3388.0,3.8599,0.14106
490.6,3395.8,3.8606,0.13868
491.0,3403.6,3.8592,0.14133
491.4,3411.3,3.8593,0.14188
491.8,3419.1,3.8582,0.13947
492.2,3426.9,3.8582,0.13786
492.6,3434.7,3.8586,0.13861
493.0,3442.5,3.8586,0.13857
493.4,3450.3,3.8586,0.14096
493.8,3458.2,3.8596,0.14349
494.2,3466.0,3.8582,0.14358
494.6,3473.8,3.8582,0.14414
495.0,3481.6,3.8582,0.1449
495.4,3489.4,3.8583,0.14378
495.8,3497.1,3.8573,0.14379
496.2,3504.9,3.8582,0.14533
496.6,3512.8,3.8573,0.14388
497.0,3520.6,3.8587,0.14158
497.4,3528.4,3.8572,0.14151
497.8,3536.3,3.8582,0.14308
498.2,3544.1,3.8582,0.14499
498.6,3551.9,3.8569,0.14362
499.0,3559.8,3.8569,0.14282
499.4,3567.6,3.8556,0.14405
499.8,3575.3,3.8569,0.14468
500.2,3583.2,3.8579,0.14548
500.6,3591.0,3.8579,0.14412
501.0,3598.7,3.8556,0.14436
501.4,3606.5,3.8556,0.1463
501.8,3614.3,3.8556,0.1476
502.2,3622.1,3.8556,0.14618
502.6,3629.9,3.8556,0.14765
503.0,3637.7,3.8556,0.14682
503.4,3645.4,3.8557,0.14703
503.8,3653.2,3.8543,0.14601
504.2,3661.0,3.8550,0.14656
504.6,3668.8,3.8536,0.14575
505.0,3676.5,3.8546,0.1476
505.4,3684.3,3.8543,0.14763
505.8,3692.1,3.8533,0.14898
506.2,3699.8,3.8533,0.15066
506.6,3707.6,3.8542,0.15131
507.0,3715.3,3.8550,0.15235
507.4,3723.1,3.8539,0.14974
507.8,3730.8,3.8528,0.15005
508.2,3738.6,3.8536,0.15203
508.6,3746.3,3.8530,0.15058
509.0,3754.2,3.8542,0.15212
509.4,3762.0,3.8523,0.14889
509.8,3769.8,3.8513,0.14906
510.2,3777.7,3.8513,0.14849
510.6,3785.6,3.8513,0.14654
511.0,3793.5,3.8513,0.14927
511.4,3801.3,3.8491,0.14935
511.8,3809.2,3.8499,0.14976
512.2,3817.1,3.8510,0.15038
512.6,3824.9,3.8498,0.15338
513.0,3832.7,3.8497,0.15314
513.4,3840.6,3.8477,0.15432
513.8,3848.4,3.8484,0.15147
514.2,3856.2,3.8477,0.15397
514.6,3864.0,3.8464,0.15452
515.0,3871.8,3.8477,0.1559
515.4,3879.6,3.8467,0.15436
515.8,3887.4,3.8470,0.15594
516.2,3895.2,3.8458,0.15788
516.6,3903.0,3.8448,0.15755
517.0,3910.7,3.8454,0.1594
517.4,3918.5,3.8450,0.15758
517.8,3926.3,3.8451,0.15924
518.2,3934.1,3.8444,0.15913
518.6,3941.9,3.8428,0.15997
519.0,3949.7,3.8428,0.1604
519.4,3957.4,3.8428,0.15892
519.8,3965.2,3.8415,0.15925
520.2,3972.9,3.8415,0.16013
520.6,3980.7,3.8405,0.16222
521.0,3988.4,3.8401,0.16212
521.4,3996.3,3.8398,0.16185
521.8,4004.1,3.8388,0.16164
522.2,4011.9,3.8382,0.16253
522.6,4019.7,3.8366,0.16027
523.0,4027.5,3.8362,0.16216
523.4,4035.3,3.8372,0.16233
523.8,4043.1,3.8345,0.16462
524.2,4050.9,3.8349,0.16064
524.6,4058.6,3.8347,0.16333
525.0,4066.5,3.8342,0.16635
525.4,4074.2,3.8342,0.16302
525.8,4082.1,3.8319,0.16412
526.2,4089.9,3.8319,0.16696
526.6,4097.7,3.8306,0.16945
527.0,4105.5,3.8292,0.17105
527.4,4113.3,3.8304,0.1739
527.8,4121.0,3.8293,0.1752
528.2,4128.8,3.8293,0.17982
528.6,4136.6,3.8276,0.17612
529.0,4144.3,3.8270,0.17962
529.4,4152.1,3.8257,0.18004
529.8,4159.8,3.8245,0.18062
530.2,4167.6,3.8244,0.18231
530.6,4175.4,3.8230,0.18215
531.0,4183.2,3.8220,0.1848
531.4,4190.9,3.8217,0.18592
531.8,4198.7,3.8204,0.18636
532.2,4206.5,3.8204,0.18329
532.6,4214.4,3.8192,0.18557
533.0,4222.2,3.8188,0.18479
533.4,4230.1,3.8174,0.18331
533.8,4237.9,3.8159,0.18542
534.2,4245.7,3.8148,0.18651
534.6,4253.5,3.8148,0.18977
535.0,4261.3,3.8135,0.19128
535.4,4269.1,3.8131,0.19144
535.8,4276.9,3.8108,0.19142
536.2,4284.6,3.8098,0.19393
536.6,4292.4,3.8086,0.19303
537.0,4300.1,3.8085,0.19298
537.4,4307.9,3.8063,0.19341
537.8,4315.6,3.8063,0.19347
538.2,4323.4,3.8063,0.19844
538.6,4331.1,3.8048,0.19699
539.0,4338.9,3.8023,0.19625
539.4,4346.6,3.8016,0.19771
539.8,4354.5,3.8003,0.19651
540.2,4362.3,3.8003,0.19726
540.6,4370.1,3.7970,0.19286
541.0,4377.9,3.7958,0.19324
541.4,4385.7,3.7957,0.19442
541.8,4393.5,3.7944,0.1966
542.2,4401.2,3.7931,0.2003
542.6,4409.0,3.7918,0.20023
543.0,4416.8,3.7918,0.20125
543.4,4424.6,3.7897,0.20112
543.8,4432.4,3.7865,0.20099
544.2,4440.3,3.7865,0.20102
544.6,4448.2,3.7852,0.20249
545.0,4456.0,3.7839,0.20386
545.4,4463.9,3.7814,0.20423
545.8,4471.7,3.7811,0.20629
546.2,4479.5,3.7786,0.20725
546.6,4487.3,3.7798,0.20605
547.0,4495.1,3.7760,0.20675
547.4,4502.9,3.7747,0.20752
547.8,4510.7,3.7734,0.20993
548.2,4518.5,3.7714,0.20992
548.6,4526.2,3.7707,0.20846
549.0,4534.0,3.7687,0.21142
549.4,4541.9,3.7668,0.20912
549.8,4549.7,3.7655,0.21105
550.2,4557.5,3.7627,0.20893
550.6,4565.3,3.7619,0.20991
551.0,4573.1,3.7588,0.21
551.4,4580.9,3.7588,0.20909
551.8,4588.6,3.7554,0.21274
552.2,4596.4,3.7550,0.21506
552.6,4604.2,3.7541,0.21493
553.0,4612.0,3.7503,0.21688
553.4,4619.7,3.7496,0.21657
553.8,4627.5,3.7474,0.21828
554.2,4635.3,3.7459,0.22023
554.6,4643.0,3.7431,0.22006
555.0,4650.8,3.7421,0.21756
555.4,4658.6,3.7394,0.22048
555.8,4666.4,3.7381,0.222
556.2,4674.2,3.7359,0.21749
556.6,4682.0,3.7345,0.21765
557.0,4689.9,3.7332,0.21692
557.4,4697.7,3.7301,0.21667
557.8,4705.6,3.7286,0.21601
558.2,4713.4,3.7273,0.21743
558.6,4721.2,3.7247,0.21619
559.0,4729.1,3.7233,0.2164
559.4,4736.9,3.7207,0.21685
559.8,4744.7,3.7183,0.22032
560.2,4752.6,3.7166,0.21759
560.6,4760.4,3.7151,0.21959
561.0,4768.2,3.7140,0.22327
561.4,4776.0,3.7114,0.21992
561.8,4783.8,3.7100,0.2201
562.2,4791.6,3.7061,0.22386
562.6,4799.5,3.7049,0.2227
563.0,4807.3,3.7028,0.22599
563.4,4815.1,3.6996,0.22367
563.8,4822.9,3.6969,0.22294
564.2,4830.8,3.6942,0.22296
564.6,4838.6,3.6929,0.22322
565.0,4846.4,3.6911,0.2272
565.4,4854.2,3.6891,0.22637
565.8,4862.0,3.6860,0.2232
566.2,4869.8,3.6846,0.22669
566.6,4877.6,3.6810,0.22614
567.0,4885.4,3.6776,0.22398
567.4,4893.3,3.6765,0.22559
567.8,4901.1,3.6729,0.22714
568.2,4908.9,3.6705,0.22742
568.6,4916.7,3.6677,0.22874
569.0,4924.5,3.6645,0.23246
569.4,4932.3,3.6634,0.23237
569.8,4940.1,3.6602,0.23373
570.2,4947.9,3.6577,0.23486
570.6,4955.7,3.6543,0.23753
571.0,4963.4,3.6517,0.24054
571.4,4971.2,3.6481,0.2427
571.8,4979.0,3.6456,0.24553
572.2,4986.8,3.6428,0.24827
572.6,4994.7,3.6393,0.24949
573.0,5002.5,3.6359,0.25038
573.4,5010.3,3.6321,0.25144
573.8,5018.2,3.6296,0.25506
574.2,5026.1,3.6256,0.25441
574.6,5033.9,3.6217,0.25585
575.0,5041.8,3.6187,0.2601
575.4,5049.6,3.6139,0.26061
575.8,5057.5,3.6114,0.26172
576.2,5065.3,3.6065,0.26685
576.6,5073.1,3.6032,0.26589
577.0,5080.8,3.5988,0.26643
577.4,5088.6,3.5938,0.27158
577.8,5096.3,3.5918,0.27472
578.2,5104.1,3.5866,0.27955
578.6,5111.9,3.5816,0.28035
579.0,5119.7,3.5790,0.28215
579.4,5127.5,3.5749,0.28974
579.8,5135.4,3.5682,0.29249
580.2,5143.2,3.5641,0.29264
580.6,5151.0,3.5598,0.29482
581.0,5158.9,3.5546,0.29879
581.4,5166.7,3.5499,0.29969
581.8,5174.6,3.5465,0.30608
582.2,5182.6,3.5394,0.30718
582.6,5190.5,3.5338,0.31107
583.0,5198.4,3.5293,0.31402
583.4,5206.3,3.5240,0.31881
583.8,5214.2,3.5172,0.32243
584.2,5222.0,3.5126,0.32556
584.6,5229.8,3.5068,0.32847
585.0,5237.6,3.5001,0.3344
585.4,5245.4,3.4941,0.3397
585.8,5253.1,3.4883,0.34299
586.2,5260.9,3.4826,0.34734
586.6,5268.6,3.4752,0.35161
587.0,5276.4,3.4692,0.35773
587.4,5284.2,3.4626,0.36212
587.8,5292.0,3.4549,0.36724
588.2,5299.9,3.4481,0.37024
588.6,5307.7,3.4404,0.37484
589.0,5315.5,3.4326,0.38347
589.4,5323.3,3.4248,0.38533
589.8,5331.2,3.4161,0.39068
590.2,5339.0,3.4084,0.39792
590.6,5346.9,3.4004,0.40087
591.0,5354.8,3.3920,0.40779
591.4,5362.8,3.3829,0.41083
591.8,5370.7,3.3733,0.41796
592.2,5378.6,3.3637,0.42316
592.6,5386.5,3.3555,0.43439
593.0,5394.4,3.3453,0.43536
593.4,5402.3,3.3339,0.44336
593.8,5410.2,3.3247,0.45228
594.2,5418.0,3.3141,0.45694
594.6,5425.9,3.3028,0.46319
595.0,5433.7,3.2929,0.47235
595.4,5441.6,3.2796,0.47925
595.8,5449.4,3.2703,0.48479
596.2,5457.2,3.2582,0.49616
596.6,5465.0,3.2446,0.50184
597.0,5472.8,3.2331,0.5098
597.4,5480.6,3.2213,0.52178
597.8,5488.4,3.2082,0.52977
598.2,5496.2,3.1952,0.53676
598.6,5504.0,3.1815,0.5478
599.0,5511.9,3.1666,0.55252
599.4,5519.7,3.1524,0.56378
599.8,5527.5,3.1385,0.57528
600.2,5535.3,3.1232,0.58207
600.6,5543.2,3.1085,0.59245
601.0,5551.0,3.0938,0.6006
601.4,5558.8,3.0780,0.60793
601.8,5566.7,3.0619,0.61853
602.2,5574.5,3.0453,0.62811
602.6,5582.3,3.0270,0.63814
603.0,5590.2,3.0111,0.64711
603.4,5598.1,2.9933,0.65673
603.8,5606.0,2.9753,0.66555
604.2,5613.9,2.9565,0.67426
604.6,5621.8,2.9377,0.68295
605.0,5629.7,2.9184,0.69311
605.4,5637.6,2.8983,0.70346
605.8,5645.5,2.8766,0.71094
606.2,5653.4,2.8578,0.72197
606.6,5661.3,2.8359,0.73057
607.0,5669.2,2.8165,0.74271
607.4,5677.1,2.7935,0.75264
607.8,5685.0,2.7715,0.76096
608.2,5692.8,2.7499,0.77142
608.6,5700.7,2.7293,0.77888
609.0,5708.6,2.7067,0.79053
609.4,5716.5,2.6812,0.79772
609.8,5724.4,2.6588,0.80623
610.2,5732.2,2.6344,0.81376
610.6,5740.2,2.6122,0.82295
611.0,5748.0,2.5861,0.82831
611.4,5756.0,2.5621,0.83695
611.8,5763.8,2.5372,0.84736
612.2,5771.7,2.5122,0.8506
612.6,5779.5,2.4866,0.8591
613.0,5787.4,2.4596,0.8653
613.4,5795.3,2.4332,0.87198
613.8,5803.3,2.4069,0.8784
614.2,5811.2,2.3792,0.88252
614.6,5819.1,2.3528,0.88945
615.0,5827.0,2.3259,0.89833
615.4,5834.9,2.2978,0.90123
615.8,5842.7,2.2713,0.90701
616.2,5850.6,2.2430,0.91079
616.6,5858.5,2.2150,0.91239
617.0,5866.4,2.1867,0.91773
617.4,5874.3,2.1580,0.9217
617.8,5882.2,2.1306,0.92319
618.2,5890.0,2.1014,0.92014
618.6,5897.9,2.0702,0.92479
619.0,5905.8,2.0426,0.92437
619.4,5913.7,2.0139,0.92532
619.8,5921.6,1.9822,0.92361
620.2,5929.5,1.9556,0.92243
620.6,5937.4,1.9272,0.9193
621.0,5945.3,1.8983,0.9216
621.4,5953.1,1.8677,0.91598
621.8,5960.9,1.8400,0.9163
622.2,5968.8,1.8098,0.91761
622.6,5976.6,1.7814,0.91302
623.0,5984.5,1.7522,0.91136
623.4,5992.3,1.7244,0.90954
623.8,6000.2,1.6944,0.90751
624.2,6008.1,1.6666,0.89949
624.6,6015.9,1.6374,0.89173
625.0,6023.8,1.6097,0.89039
625.4,6031.7,1.5804,0.88588
625.8,6039.5,1.5506,0.87713
626.2,6047.4,1.5236,0.8718
626.6,6055.3,1.4967,0.8644
627.0,6063.2,1.4676,0.8581
627.4,6071.0,1.4400,0.85436
627.8,6078.9,1.4118,0.84563
628.2,6086.7,1.3858,0.83971
628.6,6094.5,1.3592,0.83556
629.0,6102.3,1.3323,0.83298
629.4,6110.1,1.3044,0.82704
629.8,6117.8,1.2767,0.82182
630.2,6125.6,1.2497,0.81419
630.6,6133.4,1.2216,0.80673
631.0,6141.2,1.1963,0.80074
631.4,6149.0,1.1705,0.79203
631.8,6156.9,1.1436,0.78604
632.2,6164.7,1.1185,0.77734
632.6,6172.5,1.0915,0.76932
633.0,6180.3,1.0668,0.76302
633.4,6188.2,1.0439,0.75434
633.8,6196.0,1.0171,0.74288
634.2,6203.9,0.9931,0.73545
634.6,6211.7,0.9705,0.72633
635.0,6219.6,0.9442,0.71575
635.4,6227.5,0.9220,0.70595
635.8,6235.3,0.8983,0.6948
636.2,6243.2,0.8761,0.68254
636.6,6251.0,0.8526,0.67434
637.0,6258.9,0.8309,0.66345
637.4,6266.8,0.8086,0.65466
637.8,6274.6,0.7865,0.63966
638.2,6282.5,0.7664,0.63075
638.6,6290.4,0.7447,0.62038
639.0,6298.2,0.7239,0.60827
639.4,6306.1,0.7051,0.60141
639.8,6314.0,0.6846,0.58783
640.2,6321.9,0.6654,0.5751
640.6,6329.8,0.6449,0.56428
641.0,6337.7,0.6276,0.55202
641.4,6345.6,0.6095,0.5402
641.8,6353.5,0.5919,0.52713
642.2,6361.4,0.5731,0.51815
642.6,6369.3,0.5564,0.50712
643.0,6377.2,0.5404,0.49418
643.4,6385.0,0.5242,0.48417
643.8,6392.8,0.5076,0.47414
644.2,6400.6,0.4937,0.46354
644.6,6408.5,0.4777,0.45051
645.0,6416.3,0.4623,0.44032
645.4,6424.1,0.4492,0.42885
645.8,6431.9,0.4360,0.41961
646.2,6439.7,0.4202,0.41391
646.6,6447.5,0.4077,0.40299
647.0,6455.3,0.3935,0.39576
647.4,6463.2,0.3805,0.3877
647.8,6471.0,0.3675,0.37741
648.2,6478.9,0.3572,0.36625
648.6,6486.7,0.3455,0.35755
649.0,6494.5,0.3333,0.34689
649.4,6502.4,0.3223,0.34065
649.8,6510.2,0.3105,0.32739
650.2,6518.1,0.3001,0.32131
650.6,6525.9,0.2893,0.31096
651.0,6533.8,0.2816,0.30119
651.4,6541.7,0.2712,0.29317
651.8,6549.6,0.2607,0.28528
652.2,6557.5,0.2525,0.27703
652.6,6565.4,0.2429,0.26939
653.0,6573.3,0.2350,0.26256
653.4,6581.3,0.2256,0.25458
653.8,6589.2,0.2177,0.24699
654.2,6597.2,0.2101,0.23868
654.6,6605.1,0.2019,0.23049
655.0,6613.0,0.1948,0.22775
655.4,6620.9,0.1895,0.22037
655.8,6628.7,0.1804,0.21305
656.2,6636.6,0.1738,0.20622
656.6,6644.5,0.1669,0.20094
657.0,6652.4,0.1605,0.19272
657.4,6660.2,0.1549,0.18866
657.8,6668.1,0.1502,0.18377
658.2,6675.9,0.1445,0.17974
658.6,6683.7,0.1386,0.17076
659.0,6691.5,0.1339,0.16773
659.4,6699.3,0.1286,0.16301
659.8,6707.1,0.1237,0.15814
660.2,6714.9,0.1196,0.15153
660.6,6722.7,0.1149,0.14712
661.0,6730.6,0.1111,0.14059
661.4,6738.5,0.1067,0.13507
661.8,6746.4,0.0997,0.13155
662.2,6754.4,0.0978,0.12541
662.6,6762.3,0.0942,0.12252
663.0,6770.3,0.0906,0.12146
663.4,6778.2,0.0869,0.11392
663.8,6786.1,0.0835,0.1123
664.2,6794.0,0.0796,0.10958
664.6,6801.9,0.0767,0.10739
665.0,6809.8,0.0744,0.10157
665.4,6817.7,0.0703,0.10281
665.8,6825.5,0.0692,9.85E-02
666.2,6833.5,0.0664,9.49E-02
666.6,6841.4,0.0636,9.33E-02
667.0,6849.3,0.0612,8.90E-02
667.4,6857.1,0.0586,8.80E-02
667.8,6865.0,0.0571,8.50E-02
668.2,6872.9,0.0544,8.61E-02
668.6,6880.8,0.0533,8.34E-02
669.0,6888.6,0.0517,8.20E-02
669.4,6896.6,0.0492,8.23E-02
669.8,6904.4,0.0479,7.74E-02
670.2,6912.3,0.0466,7.89E-02
670.6,6920.2,0.0439,7.80E-02
671.0,6928.1,0.0433,7.71E-02
671.4,6936.0,0.0419,7.80E-02
671.8,6943.9,0.0380,7.70E-02
672.2,6951.8,0.0386,7.81E-02
672.6,6959.8,0.0366,7.62E-02
673.0,6967.7,0.0354,7.50E-02
673.4,6975.6,0.0340,7.46E-02
673.8,6983.5,0.0313,7.41E-02
674.2,6991.4,0.0314,7.27E-02
674.6,6999.3,0.0301,7.66E-02
675.0,7007.2,0.0281,7.43E-02
675.4,7015.1,0.0268,7.41E-02
675.8,7023.0,0.0268,7.58E-02
676.2,7030.9,0.0255,7.47E-02
676.6,7038.8,0.0242,7.61E-02
677.0,7046.6,0.0235,7.63E-02
677.4,7054.5,0.0229,7.29E-02
677.8,7062.4,0.0228,7.29E-02
678.2,7070.2,0.0213,7.05E-02
678.6,7078.1,0.0202,7.08E-02
679.0,7085.9,0.0189,7.03E-02
679.4,7093.8,0.0196,6.48E-02
679.8,7101.6,0.0197,6.37E-02
680.2,7109.5,0.0169,6.30E-02
680.6,7117.3,0.0182,6.03E-02
681.0,7125.2,0.0169,5.90E-02
681.4,7133.1,0.0169,5.81E-02
681.8,7141.0,0.0159,5.58E-02
682.2,7149.0,0.0156,5.16E-02
682.6,7156.9,0.0156,4.67E-02
683.0,7164.8,0.0166,4.55E-02
683.4,7172.8,0.0147,4.08E-02
683.8,7180.7,0.0148,4.09E-02
684.2,7188.6,0.0140,3.51E-02
684.6,7196.6,0.0126,2.98E-02
685.0,7204.6,0.0142,2.95E-02
685.4,7212.5,0.0140,2.67E-02
685.8,7220.4,0.0113,2.25E-02
686.2,7228.3,0.0120,2.27E-02
686.6,7236.2,0.0133,1.58E-02
687.0,7244.1,0.0120,1.21E-02
687.4,7252.1,0.0120,6.95E-03
687.8,7260.1,0.0120,4.33E-03
688.2,7268.1,0.0127,-6.83E-04
688.6,7276.1,0.0127,-8.67E-03
689.0,7284.1,0.0127,-9.59E-03
689.4,7292.0,0.0100,-1.30E-02
689.8,7300.0,0.0127,-1.36E-02
690.2,7307.9,0.0114,-1.98E-02
690.6,7315.9,0.0113,-2.03E-02
691.0,7323.8,0.0113,-2.36E-02
691.4,7331.8,0.0113,-2.12E-02
691.8,7339.7,0.0113,-1.96E-02
692.2,7347.6,0.0127,-1.72E-02
692.6,7355.5,0.0113,-1.47E-02
693.0,7363.4,0.0111,-8.32E-03
693.4,7371.3,0.0116,-5.22E-03
693.8,7379.3,0.0107,-5.50E-03
694.2,7387.2,0.0117,-1.09E-03
694.6,7395.2,0.0117,7.84E-04
695.0,7403.2,0.0116,2.76E-03
695.4,7411.2,0.0099,4.78E-03
695.8,7419.2,0.0110,4.00E-03
696.2,7427.2,0.0110,4.13E-03
696.6,7435.2,0.0110,4.82E-03
697.0,7443.1,0.0126,6.17E-03
697.4,7451.0,0.0113,8.54E-03
697.8,7459.0,0.0120,6.08E-03
698.2,7466.9,0.0123,8.90E-03
698.6,7474.8,0.0123,7.94E-03
699.0,7482.7,0.0110,8.00E-03
699.4,7490.7,0.0110,1.07E-02
699.8,7498.5,0.0117,1.06E-02
700.2,7506.4,0.0114,1.33E-02
700.6,7514.3,0.0100,1.37E-02
701.0,7522.2,0.0106,1.06E-02
701.4,7530.1,0.0107,1.27E-02
701.8,7537.9,0.0110,1.32E-02
702.2,7545.8,0.0117,1.24E-02
702.6,7553.6,0.0103,1.60E-02
703.0,7561.5,0.0100,1.20E-02
703.4,7569.5,0.0103,1.48E-02
703.8,7577.4,0.0107,1.15E-02
704.2,7585.4,0.0106,1.21E-02
704.6,7593.4,0.0107,9.83E-03
705.0,7601.3,0.0107,9.53E-03
705.4,7609.2,0.0107,7.72E-03
705.8,7617.2,0.0103,9.11E-03
706.2,7625.2,0.0090,1.02E-02
706.6,7633.2,0.0112,9.33E-03
707.0,7641.3,0.0100,9.78E-03
707.4,7649.3,0.0087,9.17E-03
707.8,7657.4,0.0100,1.09E-02
708.2,7665.3,0.0100,1.22E-02
708.6,7673.2,0.0093,1.27E-02
709.0,7681.1,0.0094,1.13E-02
709.4,7689.0,0.0094,1.35E-02
709.8,7696.9,0.0107,1.13E-02
710.2,7704.8,0.0094,1.14E-02
710.6,7712.7,0.0107,1.20E-02
711.0,7720.6,0.0100,1.38E-02
711.4,7728.6,0.0094,1.08E-02
711.8,7736.6,0.0094,1.27E-02
712.2,7744.5,0.0094,1.15E-02
712.6,7752.5,0.0094,1.13E-02
713.0,7760.4,0.0095,1.13E-02
713.4,7768.4,0.0100,1.10E-02
713.8,7776.3,0.0100,1.36E-02
714.2,7784.2,0.0090,1.22E-02
714.6,7792.1,0.0090,1.08E-02
715.0,7800.1,0.0090,1.36E-02
715.4,7808.1,0.0110,1.53E-02
715.8,7816.0,0.0097,1.16E-02
716.2,7824.0,0.0097,1.50E-02
716.6,7831.9,0.0097,1.22E-02
717.0,7839.8,0.0097,1.24E-02
717.4,7847.7,0.0107,1.45E-02
717.8,7855.7,0.0101,1.38E-02
718.2,7863.6,0.0097,1.16E-02
718.6,7871.6,0.0107,1.03E-02
719.0,7879.6,0.0107,1.02E-02
719.4,7887.6,0.0107,1.14E-02
719.8,7895.5,0.0107,1.16E-02
720.2,7903.5,0.0107,1.11E-02
720.6,7911.5,0.0094,1.33E-02
721.0,7919.4,0.0094,1.30E-02
721.4,7927.3,0.0094,9.17E-03
721.8,7935.2,0.0094,1.18E-02
722.2,7943.1,0.0103,9.45E-03
722.6,7951.0,0.0104,1.30E-02
723.0,7958.9,0.0104,1.21E-02
723.4,7966.9,0.0104,1.40E-02
723.8,7974.8,0.0090,1.64E-02
724.2,7982.8,0.0103,1.20E-02
724.6,7990.8,0.0097,1.32E-02
725.0,7998.9,0.0083,1.40E-02
725.4,8006.9,0.0091,1.29E-02
725.8,8015.0,0.0104,1.18E-02
726.2,8023.0,0.0090,1.42E-02
726.6,8031.0,0.0103,1.14E-02
727.0,8039.0,0.0090,9.52E-03
727.4,8047.0,0.0097,1.02E-02
727.8,8054.9,0.0097,1.14E-02
728.2,8062.9,0.0084,1.28E-02
728.6,8070.8,0.0084,1.14E-02
729.0,8078.7,0.0080,1.45E-02
729.4,8086.6,0.0084,1.43E-02
729.8,8094.5,0.0089,1.59E-02
730.2,8102.4,0.0081,1.61E-02
730.6,8110.3,0.0082,1.75E-02
731.0,8118.2,0.0080,1.43E-02
731.4,8126.0,0.0081,1.37E-02
731.8,8133.9,0.0077,1.70E-02
732.2,8141.8,0.0078,1.63E-02
732.6,8149.7,0.0098,1.80E-02
733.0,8157.7,0.0084,1.51E-02
733.4,8165.6,0.0098,1.62E-02
733.8,8173.6,0.0071,1.80E-02
734.2,8181.6,0.0069,1.61E-02
734.6,8189.6,0.0074,1.59E-02
735.0,8197.7,0.0087,1.69E-02
735.4,8205.7,0.0083,1.70E-02
735.8,8213.7,0.0087,1.68E-02
736.2,8221.7,0.0087,1.62E-02
736.6,8229.8,0.0090,1.48E-02
737.0,8237.8,0.0087,1.63E-02
737.4,8245.8,0.0087,1.76E-02
737.8,8253.8,0.0087,1.85E-02
738.2,8261.8,0.0087,1.64E-02
738.6,8269.8,0.0100,1.60E-02
739.0,8277.8,0.0080,1.53E-02
739.4,8285.8,0.0093,1.98E-02
739.8,8293.7,0.0083,1.61E-02
740.2,8301.8,0.0092,1.77E-02
740.6,8309.8,0.0086,1.86E-02
741.0,8317.8,0.0083,1.82E-02
741.4,8325.9,0.0090,1.63E-02
741.8,8333.9,0.0090,1.74E-02
742.2,8341.9,0.0090,1.61E-02
742.6,8349.9,0.0090,2.12E-02
743.0,8357.9,0.0090,2.15E-02
743.4,8365.9,0.0090,1.97E-02
743.8,8373.8,0.0077,2.05E-02
744.2,8381.8,0.0090,2.05E-02
744.6,8389.7,0.0090,1.93E-02
745.0,8397.6,0.0091,2.20E-02
745.4,8405.5,0.0077,2.12E-02
745.8,8413.4,0.0090,2.29E-02
746.2,8421.3,0.0090,1.93E-02
746.6,8429.2,0.0083,2.05E-02
747.0,8437.1,0.0090,2.04E-02
747.4,8445.0,0.0090,2.38E-02
747.8,8452.9,0.0091,2.23E-02
748.2,8460.9,0.0077,2.18E-02
748.6,8468.9,0.0084,2.40E-02
749.0,8476.9,0.0084,2.17E-02
749.4,8484.8,0.0084,2.19E-02
749.8,8492.8,0.0084,2.33E-02
750.2,8500.8,0.0084,2.34E-02
750.6,8508.8,0.0077,2.28E-02
751.0,8516.8,0.0077,2.29E-02
751.4,8524.8,0.0077,2.36E-02
751.8,8532.8,0.0088,2.26E-02
752.2,8540.8,0.0087,2.29E-02
752.6,8548.7,0.0077,2.33E-02
753.0,8556.7,0.0084,2.09E-02
753.4,8564.7,0.0084,2.25E-02
753.8,8572.7,0.0071,2.18E-02
754.2,8580.6,0.0068,2.36E-02
754.6,8588.6,0.0078,2.25E-02
755.0,8596.6,0.0071,2.11E-02
755.4,8604.6,0.0057,2.31E-02
755.8,8612.5,0.0057,2.25E-02
756.2,8620.4,0.0084,2.21E-02
756.6,8628.3,0.0075,2.26E-02
757.0,8636.2,0.0071,2.15E-02
757.4,8644.2,0.0057,2.35E-02
757.8,8652.2,0.0071,2.38E-02
758.2,8660.2,0.0071,1.94E-02
758.6,8668.2,0.0081,2.09E-02
759.0,8676.3,0.0066,2.39E-02
759.4,8684.2,0.0080,2.34E-02
759.8,8692.2,0.0068,2.20E-02
760.2,8700.2,0.0074,2.53E-02
760.6,8708.1,0.0074,2.29E-02
761.0,8716.1,0.0074,2.44E-02
761.4,8724.0,0.0074,2.13E-02
761.8,8732.0,0.0061,2.34E-02
762.2,8740.0,0.0074,2.47E-02
762.6,8747.9,0.0061,2.54E-02
763.0,8755.9,0.0061,2.44E-02
763.4,8763.9,0.0074,2.50E-02
763.8,8771.9,0.0075,2.49E-02
764.2,8779.8,0.0067,2.61E-02
764.6,8787.8,0.0067,2.40E-02
765.0,8795.8,0.0074,2.73E-02
765.4,8803.8,0.0061,2.71E-02
765.8,8811.8,0.0066,2.49E-02
766.2,8819.9,0.0073,2.85E-02
766.6,8827.9,0.0074,2.67E-02
767.0,8836.0,0.0074,2.61E-02
767.4,8844.0,0.0061,2.37E-02
767.8,8852.0,0.0067,2.60E-02
768.2,8860.1,0.0067,2.64E-02
768.6,8868.1,0.0057,2.51E-02
769.0,8876.0,0.0071,2.64E-02
769.4,8884.0,0.0057,3.03E-02
769.8,8891.9,0.0061,2.90E-02
770.2,8899.9,0.0061,2.73E-02
770.6,8907.8,0.0061,2.58E-02
771.0,8915.7,0.0061,2.46E-02
771.4,8923.7,0.0061,2.57E-02
771.8,8931.7,0.0061,2.54E-02
772.2,8939.7,0.0061,2.40E-02
772.6,8947.7,0.0071,2.47E-02
773.0,8955.7,0.0064,2.46E-02
773.4,8963.8,0.0057,2.32E-02
773.8,8971.9,0.0048,2.34E-02
774.2,8979.9,0.0067,2.26E-02
774.6,8988.0,0.0061,2.22E-02
775.0,8996.1,0.0061,2.31E-02
775.4,9004.1,0.0061,2.34E-02
775.8,9012.1,0.0061,2.05E-02
776.2,9020.1,0.0061,2.29E-02
776.6,9028.1,0.0061,2.30E-02
777.0,9036.1,0.0061,2.23E-02
777.4,9044.0,0.0061,2.38E-02
777.8,9051.9,0.0061,2.26E-02
778.2,9059.9,0.0061,2.22E-02
778.6,9067.8,0.0067,2.49E-02
779.0,9075.7,0.0061,2.30E-02
779.4,9083.6,0.0061,2.52E-02
779.8,9091.5,0.0054,2.46E-02
780.2,9099.4,0.0055,2.36E-02
780.6,9107.4,0.0067,2.67E-02
781.0,9115.3,0.0057,2.62E-02
781.4,9123.3,0.0057,2.37E-02
781.8,9131.3,0.0057,2.75E-02
782.2,9139.3,0.0054,2.56E-02
782.6,9147.3,0.0054,2.66E-02
783.0,9155.2,0.0058,2.47E-02
783.4,9163.3,0.0045,2.85E-02
783.8,9171.3,0.0051,2.72E-02
784.2,9179.4,0.0057,2.63E-02
784.6,9187.4,0.0059,2.82E-02
785.0,9195.5,0.0057,2.78E-02
785.4,9203.5,0.0041,2.76E-02
785.8,9211.5,0.0054,2.80E-02
786.2,9219.6,0.0054,2.90E-02
786.6,9227.6,0.0041,3.01E-02
787.0,9235.7,0.0051,3.01E-02
787.4,9243.7,0.0051,3.01E-02
787.8,9251.8,0.0051,2.94E-02
788.2,9259.8,0.0054,2.74E-02
788.6,9267.8,0.0054,3.02E-02
789.0,9275.8,0.0054,2.80E-02
789.4,9283.8,0.0054,2.89E-02
789.8,9291.8,0.0064,2.72E-02
790.2,9299.7,0.0064,2.79E-02
790.6,9307.6,0.0051,2.86E-02
791.0,9315.6,0.0061,2.83E-02
791.4,9323.5,0.0043,2.84E-02
791.8,9331.4,0.0051,2.95E-02
792.2,9339.4,0.0039,3.06E-02
792.6,9347.4,0.0057,2.91E-02
793.0,9355.4,0.0051,3.07E-02
793.4,9363.4,0.0058,3.00E-02
793.8,9371.5,0.0057,2.92E-02
794.2,9379.5,0.0058,3.07E-02
794.6,9387.5,0.0055,2.81E-02
795.0,9395.6,0.0043,2.97E-02
795.4,9403.6,0.0057,3.01E-02
795.8,9411.6,0.0043,2.91E-02
796.2,9419.6,0.0048,3.02E-02
796.6,9427.7,0.0048,2.95E-02
797.0,9435.7,0.0048,2.99E-02
797.4,9443.7,0.0048,3.12E-02
797.8,9451.8,0.0048,3.00E-02
798.2,9459.8,0.0048,3.22E-02
798.6,9467.8,0.0046,3.03E-02
799.0,9475.9,0.0051,3.07E-02
799.4,9483.9,0.0051,3.04E-02
799.8,9492.0,0.0051,3.33E-02
800.2,9500.0,0.0051,3.23E-02
800.6,9508.1,0.0051,3.19E-02
801.0,9516.1,0.0041,3.38E-02
801.4,9524.0,0.0041,3.33E-02
801.8,9532.0,0.0048,3.28E-02
802.2,9540.0,0.0061,3.16E-02
802.6,9548.0,0.0038,3.05E-02
803.0,9555.9,0.0041,3.05E-02
803.4,9563.9,0.0064,3.33E-02
803.8,9571.9,0.0051,3.44E-02
804.2,9580.0,0.0051,3.62E-02
804.6,9588.0,0.0051,3.27E-02
805.0,9595.9,0.0051,3.53E-02
805.4,9603.9,0.0051,3.52E-02
805.8,9611.9,0.0051,3.37E-02
806.2,9619.9,0.0051,3.20E-02
806.6,9627.9,0.0051,3.36E-02
807.0,9635.9,0.0054,3.66E-02
807.4,9643.9,0.0050,3.63E-02
807.8,9652.0,0.0051,3.35E-02
808.2,9660.0,0.0051,3.63E-02
808.6,9668.0,0.0051,3.58E-02
809.0,9676.1,0.0047,3.61E-02
809.4,9684.1,0.0048,3.38E-02
809.8,9692.1,0.0047,3.45E-02
810.2,9700.1,0.0072,3.41E-02
810.6,9708.2,0.0054,3.55E-02
811.0,9716.2,0.0054,3.52E-02
811.4,9724.3,0.0068,3.58E-02
811.8,9732.4,0.0057,3.60E-02
812.2,9740.4,0.0052,3.65E-02
812.6,9748.5,0.0054,3.53E-02
813.0,9756.5,0.0054,3.64E-02
813.4,9764.5,0.0045,3.59E-02
813.8,9772.6,0.0044,3.92E-02
814.2,9780.6,0.0058,3.71E-02
814.6,9788.7,0.0061,4.02E-02
815.0,9796.7,0.0062,4.06E-02
815.4,9804.8,0.0052,4.04E-02
815.8,9812.8,0.0051,4.13E-02
816.2,9820.8,0.0051,3.84E-02
816.6,9828.8,0.0051,4.22E-02
817.0,9836.8,0.0056,4.13E-02
817.4,9844.8,0.0058,3.91E-02
817.8,9852.9,0.0044,4.15E-02
818.2,9860.9,0.0058,4.29E-02
818.6,9868.9,0.0044,4.05E-02
819.0,9876.9,0.0038,3.88E-02
819.4,9885.0,0.0038,3.93E-02
819.8,9893.0,0.0024,4.16E-02
820.2,9901.0,0.0025,4.05E-02
820.6,9908.9,0.0032,4.03E-02
821.0,9916.9,0.0025,4.01E-02
821.4,9924.9,0.0024,4.20E-02
821.8,9932.8,0.0034,4.35E-02
822.2,9940.7,0.0034,4.57E-02
822.6,9948.7,0.0030,4.32E-02
823.0,9956.7,0.0041,4.10E-02
823.4,9964.7,0.0031,4.21E-02
823.8,9972.7,0.0031,4.24E-02
824.2,9980.7,0.0031,4.35E-02
824.6,9988.7,0.0031,4.38E-02
825.0,9996.8,0.0031,4.28E-02
825.1,9998.8,0.0031,4.33E-02