File: PMMA/Calibration_Data/FSRI/FSRI_STA_N2_30K_2.csv
Temp,time,TGA,DSC
[K],[s],[mg],[mW/mg]
322.1,0.0,4.0669,-4.80E-03
322.5,27.7,4.0646,1.68E-02
322.9,33.8,4.0640,3.92E-02
323.3,38.1,4.0633,6.10E-02
323.7,41.6,4.0635,8.35E-02
324.1,44.6,4.0633,9.92E-02
324.5,47.3,4.0631,0.11872
324.9,49.7,4.0640,0.13604
325.3,51.9,4.0623,0.15336
325.7,54.0,4.0623,0.16866
326.1,55.9,4.0633,0.1845
326.5,57.8,4.0623,0.20154
326.9,59.6,4.0617,0.21575
327.3,61.2,4.0627,0.22809
327.7,62.8,4.0640,0.2411
328.1,64.4,4.0645,0.25528
328.5,65.9,4.0642,0.26828
328.9,67.3,4.0636,0.2798
329.3,68.8,4.0633,0.29145
329.7,70.1,4.0624,0.30329
330.1,71.5,4.0616,0.31594
330.5,72.8,4.0624,0.32657
330.9,74.1,4.0627,0.33687
331.3,75.4,4.0628,0.34682
331.7,76.6,4.0628,0.35848
332.1,77.8,4.0628,0.36707
332.5,79.0,4.0629,0.3761
332.9,80.2,4.0627,0.38752
333.3,81.3,4.0627,0.39707
333.7,82.5,4.0620,0.40293
334.1,83.6,4.0620,0.41233
334.5,84.7,4.0624,0.42014
334.9,85.8,4.0629,0.42771
335.3,86.9,4.0634,0.43643
335.7,88.0,4.0632,0.44409
336.1,89.1,4.0627,0.451
336.5,90.1,4.0621,0.45951
336.9,91.1,4.0620,0.46779
337.3,92.2,4.0619,0.47341
337.7,93.2,4.0614,0.47999
338.1,94.2,4.0607,0.48842
338.5,95.2,4.0610,0.49528
338.9,96.3,4.0618,0.50069
339.3,97.3,4.0627,0.50796
339.7,98.3,4.0625,0.51519
340.1,99.2,4.0612,0.51973
340.5,100.2,4.0612,0.52636
340.9,101.2,4.0618,0.53302
341.3,102.1,4.0618,0.53852
341.7,103.1,4.0626,0.5423
342.1,104.0,4.0628,0.55062
342.5,105.0,4.0625,0.55737
342.9,105.9,4.0629,0.56033
343.3,106.9,4.0620,0.56812
343.7,107.8,4.0619,0.57185
344.1,108.7,4.0627,0.57681
344.5,109.7,4.0625,0.58327
344.9,110.6,4.0623,0.58662
345.3,111.5,4.0624,0.59204
345.7,112.4,4.0620,0.59737
346.1,113.3,4.0624,0.60319
346.5,114.3,4.0629,0.60689
346.9,115.2,4.0632,0.61337
347.3,116.1,4.0635,0.61818
347.7,117.0,4.0633,0.62178
348.1,117.9,4.0636,0.6262
348.5,118.8,4.0630,0.63155
348.9,119.7,4.0637,0.63558
349.3,120.6,4.0640,0.6399
349.7,121.4,4.0635,0.64518
350.1,122.3,4.0640,0.65014
350.5,123.2,4.0632,0.65332
350.9,124.1,4.0635,0.65808
351.3,125.0,4.0622,0.66175
351.7,125.8,4.0618,0.66701
352.1,126.7,4.0616,0.66962
352.5,127.6,4.0623,0.67568
352.9,128.4,4.0626,0.67966
353.3,129.3,4.0628,0.68296
353.7,130.2,4.0629,0.68921
354.1,131.0,4.0643,0.69173
354.5,131.9,4.0638,0.69728
354.9,132.8,4.0644,0.70038
355.3,133.6,4.0641,0.70497
355.7,134.5,4.0639,0.70774
356.1,135.3,4.0644,0.70933
356.5,136.2,4.0640,0.71305
356.9,137.0,4.0633,0.71718
357.3,137.9,4.0643,0.71925
357.7,138.7,4.0642,0.72208
358.1,139.6,4.0630,0.72573
358.5,140.5,4.0641,0.72755
358.9,141.3,4.0643,0.72949
359.3,142.1,4.0630,0.72825
359.7,143.0,4.0639,0.7314
360.1,143.8,4.0641,0.73322
360.5,144.7,4.0629,0.73197
360.9,145.5,4.0629,0.73274
361.3,146.3,4.0629,0.73328
361.7,147.2,4.0622,0.73301
362.1,148.0,4.0628,0.73471
362.5,148.8,4.0629,0.73385
362.9,149.7,4.0629,0.73466
363.3,150.5,4.0631,0.73409
363.7,151.3,4.0641,0.73318
364.1,152.2,4.0629,0.73113
364.5,153.0,4.0629,0.73424
364.9,153.8,4.0636,0.73259
365.3,154.6,4.0631,0.73338
365.7,155.5,4.0628,0.73296
366.1,156.3,4.0625,0.73613
366.5,157.1,4.0614,0.73437
366.9,157.9,4.0614,0.73523
367.3,158.8,4.0608,0.73416
367.7,159.6,4.0598,0.73619
368.1,160.4,4.0611,0.73605
368.5,161.2,4.0605,0.73683
368.9,162.0,4.0598,0.73737
369.3,162.9,4.0603,0.73784
369.7,163.7,4.0607,0.73747
370.1,164.5,4.0599,0.7404
370.5,165.3,4.0599,0.74118
370.9,166.1,4.0608,0.74314
371.3,167.0,4.0613,0.74314
371.7,167.8,4.0613,0.74437
372.1,168.6,4.0613,0.74577
372.5,169.4,4.0622,0.74853
372.9,170.2,4.0625,0.74839
373.3,171.0,4.0612,0.75057
373.7,171.8,4.0613,0.75312
374.1,172.7,4.0613,0.75469
374.5,173.5,4.0613,0.75384
374.9,174.3,4.0613,0.75641
375.3,175.1,4.0615,0.75899
375.7,175.9,4.0627,0.76006
376.1,176.7,4.0622,0.76041
376.5,177.5,4.0618,0.76291
376.9,178.3,4.0625,0.76737
377.3,179.1,4.0625,0.76969
377.7,180.0,4.0625,0.76982
378.1,180.8,4.0625,0.772
378.5,181.6,4.0624,0.77369
378.9,182.4,4.0612,0.77272
379.3,183.2,4.0621,0.77629
379.7,184.0,4.0625,0.77991
380.1,184.8,4.0625,0.78123
380.5,185.6,4.0625,0.78148
380.9,186.4,4.0618,0.78261
381.3,187.2,4.0611,0.78699
381.7,188.1,4.0611,0.7882
382.1,188.9,4.0612,0.78994
382.5,189.7,4.0612,0.79123
382.9,190.5,4.0616,0.79378
383.3,191.3,4.0611,0.79763
383.7,192.1,4.0612,0.79781
384.1,192.9,4.0612,0.8009
384.5,193.7,4.0612,0.80442
384.9,194.5,4.0612,0.8059
385.3,195.3,4.0606,0.80627
385.7,196.1,4.0601,0.80903
386.1,196.9,4.0609,0.8093
386.5,197.7,4.0608,0.81278
386.9,198.5,4.0608,0.81522
387.3,199.3,4.0608,0.82007
387.7,200.2,4.0608,0.82228
388.1,201.0,4.0612,0.82292
388.5,201.8,4.0600,0.82687
388.9,202.6,4.0598,0.83108
389.3,203.4,4.0598,0.83446
389.7,204.2,4.0598,0.8358
390.1,205.0,4.0598,0.8378
390.5,205.8,4.0598,0.8428
390.9,206.6,4.0599,0.84535
391.3,207.4,4.0592,0.84878
391.7,208.2,4.0585,0.85096
392.1,209.0,4.0588,0.85591
392.5,209.8,4.0598,0.85904
392.9,210.6,4.0598,0.86092
393.3,211.4,4.0586,0.86537
393.7,212.2,4.0585,0.8692
394.1,213.0,4.0585,0.87339
394.5,213.8,4.0585,0.8766
394.9,214.6,4.0585,0.87948
395.3,215.4,4.0585,0.88496
395.7,216.2,4.0588,0.88922
396.1,217.0,4.0598,0.89512
396.5,217.8,4.0598,0.90101
396.9,218.6,4.0598,0.90422
397.3,219.4,4.0598,0.90636
397.7,220.2,4.0598,0.91109
398.1,221.0,4.0598,0.917
398.5,221.7,4.0599,0.92235
398.9,222.5,4.0593,0.92434
399.3,223.3,4.0585,0.92991
399.7,224.1,4.0585,0.93288
400.1,224.9,4.0585,0.9389
400.5,225.7,4.0585,0.94157
400.9,226.5,4.0585,0.94681
401.3,227.3,4.0585,0.95187
401.7,228.1,4.0585,0.955
402.1,228.9,4.0586,0.95765
402.5,229.7,4.0584,0.96234
402.9,230.5,4.0596,0.96798
403.3,231.3,4.0598,0.97164
403.7,232.0,4.0598,0.97662
404.1,232.8,4.0598,0.97931
404.5,233.6,4.0598,0.98281
404.9,234.4,4.0598,0.98666
405.3,235.2,4.0598,0.98982
405.7,236.0,4.0598,0.99497
406.1,236.8,4.0598,0.99665
406.5,237.6,4.0598,0.99992
406.9,238.3,4.0598,1.00359
407.3,239.1,4.0598,1.00792
407.7,239.9,4.0598,1.00951
408.1,240.7,4.0598,1.01028
408.5,241.5,4.0598,1.01419
408.9,242.2,4.0598,1.01785
409.3,243.0,4.0598,1.02118
409.7,243.8,4.0598,1.02469
410.1,244.6,4.0598,1.02577
410.5,245.4,4.0596,1.02869
410.9,246.2,4.0584,1.0324
411.3,246.9,4.0585,1.03495
411.7,247.7,4.0585,1.03678
412.1,248.5,4.0585,1.03872
412.5,249.3,4.0585,1.04215
412.9,250.0,4.0585,1.04614
413.3,250.8,4.0585,1.04559
413.7,251.6,4.0584,1.04824
414.1,252.4,4.0579,1.04925
414.5,253.2,4.0582,1.04967
414.9,253.9,4.0582,1.05212
415.3,254.7,4.0582,1.05577
415.7,255.5,4.0582,1.05906
416.1,256.3,4.0582,1.05792
416.5,257.0,4.0582,1.05979
416.9,257.8,4.0582,1.0647
417.3,258.6,4.0582,1.06471
417.7,259.3,4.0582,1.06626
418.1,260.1,4.0582,1.06786
418.5,260.9,4.0582,1.07137
418.9,261.7,4.0574,1.0725
419.3,262.4,4.0569,1.07236
419.7,263.2,4.0562,1.07495
420.1,264.0,4.0556,1.07875
420.5,264.8,4.0556,1.07816
420.9,265.5,4.0556,1.08264
421.3,266.3,4.0556,1.08348
421.7,267.1,4.0556,1.08554
422.1,267.8,4.0556,1.0877
422.5,268.6,4.0556,1.08777
422.9,269.4,4.0556,1.09043
423.3,270.1,4.0548,1.09056
423.7,270.9,4.0529,1.09191
424.1,271.7,4.0529,1.09463
424.5,272.4,4.0529,1.09738
424.9,273.2,4.0529,1.09896
425.3,274.0,4.0529,1.1006
425.7,274.8,4.0529,1.10305
426.1,275.5,4.0529,1.10294
426.5,276.3,4.0530,1.10373
426.9,277.1,4.0527,1.10765
427.3,277.8,4.0526,1.10784
427.7,278.6,4.0526,1.11189
428.1,279.4,4.0526,1.11318
428.5,280.1,4.0526,1.1168
428.9,280.9,4.0526,1.11627
429.3,281.6,4.0526,1.11786
429.7,282.4,4.0527,1.12036
430.1,283.2,4.0520,1.12189
430.5,283.9,4.0516,1.12256
430.9,284.7,4.0516,1.12665
431.3,285.5,4.0517,1.12715
431.7,286.2,4.0509,1.12868
432.1,287.0,4.0510,1.12989
432.5,287.8,4.0510,1.13396
432.9,288.5,4.0507,1.13479
433.3,289.3,4.0503,1.13833
433.7,290.1,4.0513,1.13931
434.1,290.8,4.0516,1.14174
434.5,291.6,4.0513,1.1427
434.9,292.3,4.0502,1.14531
435.3,293.1,4.0503,1.14578
435.7,293.8,4.0503,1.14892
436.1,294.6,4.0503,1.15051
436.5,295.4,4.0503,1.15332
436.9,296.1,4.0503,1.15567
437.3,296.9,4.0501,1.15727
437.7,297.7,4.0489,1.16135
438.1,298.4,4.0481,1.16133
438.5,299.2,4.0476,1.1644
438.9,299.9,4.0477,1.16526
439.3,300.7,4.0477,1.16824
439.7,301.4,4.0469,1.17135
440.1,302.2,4.0463,1.17542
440.5,303.0,4.0464,1.17756
440.9,303.7,4.0452,1.18153
441.3,304.5,4.0450,1.18338
441.7,305.2,4.0450,1.18667
442.1,306.0,4.0450,1.18946
442.5,306.7,4.0450,1.19165
442.9,307.5,4.0450,1.19317
443.3,308.2,4.0450,1.1967
443.7,309.0,4.0450,1.19955
444.1,309.8,4.0450,1.2035
444.5,310.5,4.0450,1.20556
444.9,311.3,4.0451,1.2099
445.3,312.0,4.0440,1.21226
445.7,312.8,4.0437,1.21813
446.1,313.5,4.0437,1.21998
446.5,314.3,4.0437,1.22202
446.9,315.0,4.0433,1.22662
447.3,315.8,4.0423,1.23141
447.7,316.5,4.0424,1.23597
448.1,317.3,4.0424,1.2393
448.5,318.1,4.0424,1.24319
448.9,318.8,4.0424,1.24593
449.3,319.6,4.0425,1.24959
449.7,320.3,4.0419,1.25436
450.1,321.1,4.0411,1.25801
450.5,321.8,4.0411,1.26468
450.9,322.6,4.0411,1.26557
451.3,323.3,4.0411,1.26962
451.7,324.1,4.0415,1.277
452.1,324.8,4.0418,1.27869
452.5,325.6,4.0410,1.28173
452.9,326.3,4.0411,1.28583
453.3,327.1,4.0403,1.29239
453.7,327.8,4.0396,1.29665
454.1,328.6,4.0394,1.29921
454.5,329.3,4.0383,1.30403
454.9,330.1,4.0383,1.30732
455.3,330.8,4.0374,1.3142
455.7,331.5,4.0356,1.31867
456.1,332.3,4.0355,1.32421
456.5,333.0,4.0355,1.32459
456.9,333.8,4.0354,1.33029
457.3,334.5,4.0344,1.3361
457.7,335.3,4.0342,1.34084
458.1,336.0,4.0338,1.34646
458.5,336.8,4.0325,1.34986
458.9,337.5,4.0326,1.35538
459.3,338.2,4.0315,1.35951
459.7,339.0,4.0302,1.36658
460.1,339.7,4.0293,1.36764
460.5,340.5,4.0280,1.37203
460.9,341.2,4.0277,1.37541
461.3,342.0,4.0263,1.38128
461.7,342.7,4.0257,1.38525
462.1,343.4,4.0245,1.3887
462.5,344.2,4.0239,1.39359
462.9,344.9,4.0230,1.39634
463.3,345.7,4.0229,1.40025
463.7,346.4,4.0221,1.40282
464.1,347.1,4.0216,1.40692
464.5,347.9,4.0218,1.4111
464.9,348.6,4.0205,1.41495
465.3,349.4,4.0202,1.41787
465.7,350.1,4.0197,1.4213
466.1,350.8,4.0187,1.4228
466.5,351.6,4.0187,1.42735
466.9,352.3,4.0177,1.43049
467.3,353.1,4.0170,1.43453
467.7,353.8,4.0158,1.43556
468.1,354.5,4.0155,1.44009
468.5,355.3,4.0131,1.44026
468.9,356.0,4.0126,1.44361
469.3,356.8,4.0113,1.44384
469.7,357.5,4.0109,1.44707
470.1,358.2,4.0095,1.45011
470.5,359.0,4.0085,1.45202
470.9,359.7,4.0072,1.45373
471.3,360.4,4.0061,1.45693
471.7,361.2,4.0052,1.45741
472.1,361.9,4.0042,1.45573
472.5,362.7,4.0035,1.45688
472.9,363.4,4.0027,1.45985
473.3,364.1,4.0017,1.45991
473.7,364.9,4.0012,1.46055
474.1,365.6,4.0003,1.46198
474.5,366.3,4.0006,1.46134
474.9,367.1,3.9996,1.46172
475.3,367.8,3.9983,1.46304
475.7,368.5,3.9976,1.46048
476.1,369.3,3.9964,1.46345
476.5,370.0,3.9960,1.46172
476.9,370.8,3.9953,1.46122
477.3,371.5,3.9944,1.46022
477.7,372.2,3.9939,1.4594
478.1,373.0,3.9927,1.46003
478.5,373.7,3.9910,1.45805
478.9,374.4,3.9892,1.45735
479.3,375.2,3.9890,1.45695
479.7,375.9,3.9876,1.45701
480.1,376.6,3.9873,1.45401
480.5,377.4,3.9860,1.45274
480.9,378.1,3.9858,1.45274
481.3,378.8,3.9844,1.45233
481.7,379.6,3.9841,1.45022
482.1,380.3,3.9826,1.4479
482.5,381.0,3.9824,1.44792
482.9,381.8,3.9813,1.4464
483.3,382.5,3.9806,1.44493
483.7,383.2,3.9805,1.44353
484.1,384.0,3.9794,1.4443
484.5,384.7,3.9794,1.44291
484.9,385.4,3.9790,1.44203
485.3,386.2,3.9777,1.44144
485.7,386.9,3.9774,1.4406
486.1,387.6,3.9757,1.4392
486.5,388.4,3.9755,1.43829
486.9,389.1,3.9742,1.43781
487.3,389.8,3.9735,1.43996
487.7,390.6,3.9722,1.43895
488.1,391.3,3.9721,1.43898
488.5,392.0,3.9706,1.43673
488.9,392.7,3.9700,1.43985
489.3,393.5,3.9686,1.44009
489.7,394.2,3.9681,1.44083
490.1,394.9,3.9658,1.44032
490.5,395.7,3.9658,1.44238
490.9,396.4,3.9654,1.44282
491.3,397.1,3.9643,1.44135
491.7,397.9,3.9642,1.44465
492.1,398.6,3.9632,1.44523
492.5,399.3,3.9626,1.448
492.9,400.1,3.9612,1.44856
493.3,400.8,3.9609,1.44917
493.7,401.5,3.9600,1.45081
494.1,402.2,3.9593,1.45566
494.5,403.0,3.9590,1.45546
494.9,403.7,3.9577,1.45728
495.3,404.4,3.9572,1.46047
495.7,405.2,3.9559,1.46273
496.1,405.9,3.9559,1.46411
496.5,406.6,3.9552,1.46589
496.9,407.4,3.9554,1.46864
497.3,408.1,3.9553,1.46998
497.7,408.8,3.9541,1.47383
498.1,409.5,3.9538,1.47469
498.5,410.3,3.9525,1.47494
498.9,411.0,3.9523,1.47725
499.3,411.7,3.9514,1.48122
499.7,412.5,3.9509,1.48154
500.1,413.2,3.9500,1.48397
500.5,413.9,3.9490,1.48314
500.9,414.6,3.9485,1.48542
501.3,415.4,3.9470,1.48806
501.7,416.1,3.9466,1.4886
502.1,416.8,3.9456,1.48911
502.5,417.6,3.9450,1.48992
502.9,418.3,3.9439,1.49064
503.3,419.0,3.9431,1.49471
503.7,419.7,3.9424,1.4956
504.1,420.5,3.9414,1.49416
504.5,421.2,3.9406,1.49692
504.9,421.9,3.9400,1.49524
505.3,422.7,3.9389,1.49416
505.7,423.4,3.9387,1.49422
506.1,424.1,3.9372,1.49543
506.5,424.9,3.9360,1.49453
506.9,425.6,3.9347,1.49322
507.3,426.3,3.9340,1.49221
507.7,427.0,3.9327,1.48955
508.1,427.8,3.9322,1.48888
508.5,428.5,3.9306,1.48672
508.9,429.2,3.9309,1.48441
509.3,430.0,3.9302,1.48338
509.7,430.7,3.9294,1.48011
510.1,431.4,3.9294,1.47733
510.5,432.1,3.9293,1.47574
510.9,432.9,3.9282,1.47412
511.3,433.6,3.9280,1.46948
511.7,434.3,3.9278,1.4652
512.1,435.0,3.9265,1.46083
512.5,435.8,3.9266,1.45644
512.9,436.5,3.9256,1.45489
513.3,437.2,3.9250,1.45114
513.7,437.9,3.9248,1.44677
514.1,438.7,3.9234,1.44134
514.5,439.4,3.9243,1.43923
514.9,440.1,3.9243,1.43482
515.3,440.9,3.9233,1.43004
515.7,441.6,3.9233,1.42427
516.1,442.3,3.9221,1.42175
516.5,443.0,3.9219,1.41754
516.9,443.8,3.9215,1.41431
517.3,444.5,3.9206,1.41217
517.7,445.2,3.9205,1.40674
518.1,446.0,3.9206,1.40432
518.5,446.7,3.9201,1.40286
518.9,447.4,3.9193,1.39988
519.3,448.1,3.9192,1.39336
519.7,448.9,3.9192,1.39306
520.1,449.6,3.9190,1.38971
520.5,450.3,3.9179,1.38699
520.9,451.0,3.9180,1.38404
521.3,451.8,3.9170,1.38093
521.7,452.5,3.9166,1.38003
522.1,453.2,3.9166,1.37725
522.5,453.9,3.9166,1.37678
522.9,454.7,3.9167,1.37533
523.3,455.4,3.9156,1.37253
523.7,456.1,3.9153,1.36923
524.1,456.8,3.9153,1.37061
524.5,457.6,3.9153,1.36914
524.9,458.3,3.9153,1.36742
525.3,459.0,3.9153,1.3697
525.7,459.7,3.9153,1.36617
526.1,460.5,3.9153,1.36532
526.5,461.2,3.9153,1.36368
526.9,461.9,3.9153,1.3635
527.3,462.6,3.9153,1.36289
527.7,463.4,3.9153,1.36245
528.1,464.1,3.9153,1.35956
528.5,464.8,3.9149,1.36011
528.9,465.5,3.9140,1.35912
529.3,466.3,3.9140,1.35814
529.7,467.0,3.9140,1.36011
530.1,467.7,3.9140,1.35995
530.5,468.4,3.9140,1.35807
530.9,469.2,3.9140,1.35939
531.3,469.9,3.9140,1.35747
531.7,470.6,3.9140,1.35831
532.1,471.4,3.9140,1.35852
532.5,472.1,3.9140,1.35969
532.9,472.8,3.9140,1.36017
533.3,473.5,3.9140,1.36189
533.7,474.3,3.9139,1.36085
534.1,475.0,3.9142,1.36313
534.5,475.7,3.9143,1.36262
534.9,476.4,3.9139,1.36189
535.3,477.2,3.9140,1.3627
535.7,477.9,3.9140,1.36418
536.1,478.6,3.9139,1.36384
536.5,479.3,3.9140,1.36507
536.9,480.1,3.9132,1.36396
537.3,480.8,3.9126,1.36541
537.7,481.5,3.9127,1.36761
538.1,482.2,3.9125,1.36927
538.5,483.0,3.9112,1.37164
538.9,483.7,3.9111,1.36992
539.3,484.4,3.9109,1.37268
539.7,485.1,3.9100,1.37452
540.1,485.9,3.9098,1.37558
540.5,486.6,3.9098,1.37574
540.9,487.3,3.9098,1.37698
541.3,488.0,3.9098,1.37799
541.7,488.8,3.9098,1.38156
542.1,489.5,3.9096,1.38119
542.5,490.2,3.9085,1.38132
542.9,490.9,3.9085,1.38381
543.3,491.7,3.9083,1.38412
543.7,492.4,3.9073,1.38481
544.1,493.1,3.9070,1.38692
544.5,493.8,3.9071,1.38796
544.9,494.6,3.9069,1.38956
545.3,495.3,3.9060,1.39248
545.7,496.0,3.9057,1.39276
546.1,496.7,3.9057,1.39433
546.5,497.5,3.9057,1.39966
546.9,498.2,3.9057,1.39887
547.3,498.9,3.9046,1.40062
547.7,499.6,3.9032,1.40322
548.1,500.4,3.9031,1.40533
548.5,501.1,3.9031,1.40667
548.9,501.8,3.9028,1.41081
549.3,502.5,3.9018,1.41109
549.7,503.3,3.9018,1.41376
550.1,504.0,3.9015,1.41389
550.5,504.7,3.9002,1.41628
550.9,505.4,3.9003,1.41634
551.3,506.1,3.9002,1.41907
551.7,506.9,3.9003,1.41928
552.1,507.6,3.8993,1.42146
552.5,508.3,3.8989,1.42512
552.9,509.1,3.8989,1.4282
553.3,509.8,3.8989,1.42995
553.7,510.5,3.8989,1.43302
554.1,511.3,3.8989,1.43513
554.5,512.0,3.8977,1.4365
554.9,512.7,3.8975,1.43974
555.3,513.4,3.8974,1.4449
555.7,514.2,3.8960,1.44584
556.1,514.9,3.8960,1.44557
556.5,515.6,3.8957,1.45199
556.9,516.3,3.8946,1.45417
557.3,517.1,3.8945,1.45532
557.7,517.8,3.8944,1.45858
558.1,518.5,3.8944,1.46133
558.5,519.3,3.8939,1.46373
558.9,520.0,3.8928,1.46515
559.3,520.7,3.8929,1.469
559.7,521.4,3.8918,1.47171
560.1,522.1,3.8913,1.4764
560.5,522.9,3.8905,1.47815
560.9,523.6,3.8897,1.48209
561.3,524.3,3.8896,1.48365
561.7,525.0,3.8882,1.4868
562.1,525.8,3.8884,1.49153
562.5,526.5,3.8879,1.4935
562.9,527.2,3.8869,1.4987
563.3,527.9,3.8869,1.50342
563.7,528.7,3.8855,1.50703
564.1,529.4,3.8848,1.50974
564.5,530.1,3.8838,1.51456
564.9,530.8,3.8831,1.519
565.3,531.6,3.8824,1.52491
565.7,532.3,3.8813,1.53056
566.1,533.0,3.8807,1.53476
566.5,533.8,3.8789,1.53912
566.9,534.5,3.8786,1.54676
567.3,535.2,3.8772,1.55007
567.7,535.9,3.8773,1.55541
568.1,536.7,3.8759,1.56131
568.5,537.4,3.8744,1.56788
568.9,538.1,3.8733,1.57587
569.3,538.8,3.8725,1.57904
569.7,539.6,3.8711,1.58474
570.1,540.3,3.8701,1.59136
570.5,541.0,3.8690,1.59373
570.9,541.7,3.8683,1.60413
571.3,542.5,3.8678,1.60742
571.7,543.2,3.8684,1.61482
572.1,543.9,3.8671,1.62083
572.5,544.7,3.8669,1.62316
572.9,545.4,3.8652,1.63022
573.3,546.1,3.8646,1.63436
573.7,546.8,3.8630,1.64078
574.1,547.6,3.8616,1.64629
574.5,548.3,3.8607,1.65004
574.9,549.0,3.8592,1.65534
575.3,549.8,3.8590,1.66051
575.7,550.5,3.8576,1.66652
576.1,551.2,3.8564,1.67218
576.5,551.9,3.8555,1.67948
576.9,552.7,3.8536,1.68539
577.3,553.4,3.8525,1.6868
577.7,554.1,3.8511,1.6902
578.1,554.9,3.8504,1.69602
578.5,555.6,3.8489,1.70165
578.9,556.3,3.8480,1.70739
579.3,557.0,3.8468,1.71338
579.7,557.8,3.8454,1.71623
580.1,558.5,3.8440,1.72427
580.5,559.2,3.8425,1.72573
580.9,560.0,3.8412,1.73207
581.3,560.7,3.8397,1.73828
581.7,561.4,3.8382,1.7406
582.1,562.1,3.8371,1.74377
582.5,562.9,3.8357,1.74703
582.9,563.6,3.8344,1.75252
583.3,564.3,3.8328,1.75627
583.7,565.1,3.8311,1.76085
584.1,565.8,3.8294,1.76499
584.5,566.5,3.8280,1.76803
584.9,567.3,3.8264,1.7761
585.3,568.0,3.8251,1.7777
585.7,568.7,3.8232,1.77987
586.1,569.5,3.8215,1.78764
586.5,570.2,3.8191,1.78976
586.9,570.9,3.8180,1.79623
587.3,571.6,3.8160,1.79868
587.7,572.4,3.8147,1.80152
588.1,573.1,3.8128,1.8062
588.5,573.8,3.8116,1.81137
588.9,574.6,3.8097,1.814
589.3,575.3,3.8083,1.82024
589.7,576.0,3.8060,1.82174
590.1,576.7,3.8048,1.82392
590.5,577.5,3.8027,1.83144
590.9,578.2,3.8012,1.83515
591.3,578.9,3.7986,1.83784
591.7,579.7,3.7973,1.84092
592.1,580.4,3.7951,1.84653
592.5,581.1,3.7933,1.85283
592.9,581.9,3.7909,1.85529
593.3,582.6,3.7897,1.85985
593.7,583.3,3.7876,1.86354
594.1,584.1,3.7858,1.86876
594.5,584.8,3.7832,1.8723
594.9,585.5,3.7815,1.87882
595.3,586.3,3.7793,1.8831
595.7,587.0,3.7774,1.88797
596.1,587.7,3.7753,1.89483
596.5,588.5,3.7736,1.8996
596.9,589.2,3.7719,1.90661
597.3,589.9,3.7698,1.91227
597.7,590.6,3.7677,1.91989
598.1,591.4,3.7655,1.92575
598.5,592.1,3.7634,1.93393
598.9,592.8,3.7599,1.94049
599.3,593.6,3.7579,1.95148
599.7,594.3,3.7553,1.95654
600.1,595.0,3.7534,1.96546
600.5,595.8,3.7505,1.97716
600.9,596.5,3.7484,1.98408
601.3,597.2,3.7454,1.99672
601.7,598.0,3.7437,2.00641
602.1,598.7,3.7408,2.01567
602.5,599.4,3.7386,2.02911
602.9,600.2,3.7349,2.04055
603.3,600.9,3.7327,2.0522
603.7,601.6,3.7292,2.06335
604.1,602.4,3.7268,2.07833
604.5,603.1,3.7241,2.09095
604.9,603.8,3.7208,2.10458
605.3,604.5,3.7168,2.11884
605.7,605.3,3.7133,2.13551
606.1,606.0,3.7097,2.15258
606.5,606.8,3.7056,2.1666
606.9,607.5,3.7029,2.18311
607.3,608.2,3.6997,2.20204
607.7,609.0,3.6961,2.21966
608.1,609.7,3.6934,2.23798
608.5,610.4,3.6908,2.2559
608.9,611.2,3.6866,2.27284
609.3,611.9,3.6825,2.29422
609.7,612.6,3.6794,2.31758
610.1,613.4,3.6755,2.33666
610.5,614.1,3.6710,2.36124
610.9,614.8,3.6672,2.38029
611.3,615.6,3.6629,2.40507
611.7,616.3,3.6579,2.43022
612.1,617.0,3.6543,2.454
612.5,617.8,3.6502,2.47702
612.9,618.5,3.6446,2.50367
613.3,619.2,3.6405,2.53106
613.7,620.0,3.6359,2.55949
614.1,620.7,3.6302,2.58794
614.5,621.5,3.6251,2.61654
614.9,622.2,3.6202,2.64484
615.3,622.9,3.6142,2.67576
615.7,623.7,3.6081,2.70652
616.1,624.4,3.6033,2.73785
616.5,625.1,3.5976,2.77125
616.9,625.9,3.5900,2.8048
617.3,626.6,3.5845,2.83857
617.7,627.3,3.5786,2.87355
618.1,628.1,3.5711,2.90982
618.5,628.8,3.5650,2.94588
618.9,629.6,3.5582,2.98485
619.3,630.3,3.5492,3.0248
619.7,631.0,3.5421,3.06329
620.1,631.8,3.5358,3.10568
620.5,632.5,3.5281,3.14587
620.9,633.3,3.5196,3.18614
621.3,634.0,3.5127,3.2311
621.7,634.7,3.5044,3.27471
622.1,635.5,3.4948,3.32233
622.5,636.2,3.4881,3.36614
622.9,636.9,3.4802,3.41252
623.3,637.7,3.4704,3.46242
623.7,638.4,3.4625,3.51013
624.1,639.2,3.4540,3.56109
624.5,639.9,3.4434,3.6131
624.9,640.6,3.4338,3.66659
625.3,641.4,3.4248,3.71686
625.7,642.1,3.4143,3.77345
626.1,642.9,3.4036,3.82875
626.5,643.6,3.3948,3.8837
626.9,644.4,3.3842,3.94019
627.3,645.1,3.3722,3.998
627.7,645.9,3.3637,4.05807
628.1,646.6,3.3538,4.11517
628.5,647.4,3.3404,4.17379
628.9,648.1,3.3300,4.23642
629.3,648.8,3.3183,4.29494
629.7,649.6,3.3038,4.36172
630.1,650.3,3.2920,4.42395
630.5,651.1,3.2800,4.48835
630.9,651.8,3.2656,4.55317
631.3,652.6,3.2521,4.6152
631.7,653.3,3.2401,4.6802
632.1,654.1,3.2254,4.74552
632.5,654.8,3.2097,4.81748
632.9,655.6,3.1965,4.88412
633.3,656.3,3.1817,4.95367
633.7,657.1,3.1648,5.02057
634.1,657.8,3.1521,5.09162
634.5,658.5,3.1370,5.15993
634.9,659.3,3.1183,5.23114
635.3,660.0,3.1041,5.30207
635.7,660.8,3.0886,5.37456
636.1,661.5,3.0695,5.44596
636.5,662.3,3.0535,5.51765
636.9,663.0,3.0375,5.58984
637.3,663.8,3.0182,5.66734
637.7,664.6,3.0002,5.7393
638.1,665.3,2.9847,5.81348
638.5,666.1,2.9657,5.88608
638.9,666.8,2.9459,5.96089
639.3,667.6,2.9297,6.03505
639.7,668.3,2.9102,6.10786
640.1,669.1,2.8873,6.18283
640.5,669.8,2.8706,6.25501
640.9,670.6,2.8508,6.32925
641.3,671.3,2.8265,6.40004
641.7,672.1,2.8075,6.47406
642.1,672.8,2.7873,6.54548
642.5,673.6,2.7628,6.61811
642.9,674.3,2.7430,6.68943
643.3,675.1,2.7228,6.76002
643.7,675.8,2.6982,6.82998
644.1,676.6,2.6756,6.89597
644.5,677.4,2.6552,6.96187
644.9,678.1,2.6307,7.02469
645.3,678.9,2.6053,7.08763
645.7,679.6,2.5851,7.14615
646.1,680.4,2.5612,7.20396
646.5,681.1,2.5334,7.25931
646.9,681.9,2.5128,7.3144
647.3,682.6,2.4882,7.36655
647.7,683.4,2.4591,7.4147
648.1,684.1,2.4379,7.4585
648.5,684.9,2.4137,7.50131
648.9,685.7,2.3841,7.54681
649.3,686.4,2.3611,7.59352
649.7,687.2,2.3365,7.64146
650.1,687.9,2.3069,7.67811
650.5,688.7,2.2820,7.71329
650.9,689.4,2.2579,7.74687
651.3,690.2,2.2290,7.77746
651.7,691.0,2.2015,7.81825
652.1,691.7,2.1779,7.86118
652.5,692.5,2.1498,7.89774
652.9,693.2,2.1199,7.92279
653.3,694.0,2.0968,7.95585
653.7,694.7,2.0692,7.98568
654.1,695.5,2.0379,8.01062
654.5,696.2,2.0153,8.03163
654.9,697.0,1.9886,8.05497
655.3,697.7,1.9563,8.06916
655.7,698.5,1.9327,8.07931
656.1,699.3,1.9057,8.07947
656.5,700.0,1.8732,8.06832
656.9,700.8,1.8480,8.06107
657.3,701.5,1.8221,8.05587
657.7,702.3,1.7909,8.04955
658.1,703.0,1.7639,8.05328
658.5,703.8,1.7390,8.04477
658.9,704.5,1.7092,8.02526
659.3,705.3,1.6796,8.02353
659.7,706.0,1.6556,8.00197
660.1,706.8,1.6270,7.97353
660.5,707.5,1.5953,8.02646
660.9,708.3,1.5723,8.04548
661.3,709.1,1.5449,7.99448
661.7,709.8,1.5127,7.95685
662.1,710.6,1.4898,7.99013
662.5,711.3,1.4634,7.96638
662.9,712.1,1.4318,7.92044
663.3,712.8,1.4076,7.85935
663.7,713.6,1.3820,7.81216
664.1,714.3,1.3513,7.75786
664.5,715.1,1.3252,7.69729
664.9,715.8,1.3009,7.66836
665.3,716.6,1.2723,7.65015
665.7,717.3,1.2441,7.60376
666.1,718.1,1.2215,7.59558
666.5,718.8,1.1946,7.56604
666.9,719.6,1.1652,7.50367
667.3,720.3,1.1435,7.45131
667.7,721.0,1.1179,7.42123
668.1,721.8,1.0879,7.37319
668.5,722.5,1.0664,7.32093
668.9,723.3,1.0415,7.25709
669.3,724.0,1.0119,7.19904
669.7,724.8,0.9895,7.14487
670.1,725.5,0.9662,7.08542
670.5,726.3,0.9389,7.01256
670.9,727.0,0.9151,6.94429
671.3,727.8,0.8936,6.87056
671.7,728.5,0.8680,6.7885
672.1,729.3,0.8422,6.70576
672.5,730.0,0.8222,6.62224
672.9,730.7,0.7987,6.5339
673.3,731.5,0.7725,6.44929
673.7,732.2,0.7537,6.3516
674.1,733.0,0.7322,6.25894
674.5,733.7,0.7073,6.16023
674.9,734.4,0.6884,6.05475
675.3,735.2,0.6689,5.95273
675.7,735.9,0.6461,5.84641
676.1,736.7,0.6267,5.73763
676.5,737.4,0.6078,5.62795
676.9,738.1,0.5853,5.51714
677.3,738.9,0.5637,5.40335
677.7,739.6,0.5470,5.29631
678.1,740.4,0.5279,5.18522
678.5,741.1,0.5075,5.072
678.9,741.8,0.4931,4.95708
679.3,742.6,0.4763,4.84264
679.7,743.3,0.4567,4.7328
680.1,744.0,0.4425,4.62295
680.5,744.8,0.4272,4.50876
680.9,745.5,0.4092,4.39423
681.3,746.3,0.3942,4.28638
681.7,747.0,0.3807,4.18706
682.1,747.7,0.3654,4.07917
682.5,748.5,0.3504,3.97235
682.9,749.2,0.3391,3.86303
683.3,749.9,0.3259,3.75812
683.7,750.7,0.3112,3.66058
684.1,751.4,0.3011,3.56171
684.5,752.1,0.2894,3.46226
684.9,752.9,0.2755,3.36594
685.3,753.6,0.2651,3.26843
685.7,754.3,0.2544,3.17044
686.1,755.1,0.2420,3.08259
686.5,755.8,0.2317,2.99011
686.9,756.5,0.2228,2.90042
687.3,757.3,0.2127,2.80919
687.7,758.0,0.2021,2.72247
688.1,758.7,0.1942,2.63412
688.5,759.5,0.1850,2.54981
688.9,760.2,0.1747,2.46603
689.3,760.9,0.1678,2.38456
689.7,761.7,0.1599,2.30167
690.1,762.4,0.1509,2.2238
690.5,763.1,0.1439,2.14624
690.9,763.9,0.1370,2.06982
691.3,764.6,0.1291,1.99447
691.7,765.3,0.1217,1.92255
692.1,766.1,0.1155,1.84965
692.5,766.8,0.1084,1.77912
692.9,767.5,0.1011,1.71239
693.3,768.3,0.0962,1.64785
693.7,769.0,0.0905,1.58204
694.1,769.7,0.0841,1.521
694.5,770.5,0.0797,1.45644
694.9,771.2,0.0748,1.39996
695.3,771.9,0.0692,1.34208
695.7,772.7,0.0647,1.28561
696.1,773.4,0.0605,1.23447
696.5,774.2,0.0555,1.1785
696.9,774.9,0.0510,1.12908
697.3,775.6,0.0476,1.07945
697.7,776.4,0.0440,1.02946
698.1,777.1,0.0406,0.98487
698.5,777.8,0.0383,0.93752
698.9,778.6,0.0356,0.89907
699.3,779.3,0.0317,0.85643
699.7,780.1,0.0286,0.81733
700.1,780.8,0.0252,0.77822
700.5,781.5,0.0211,0.74148
700.9,782.3,0.0181,0.70753
701.3,783.0,0.0155,0.67151
701.7,783.7,0.0123,0.63761
702.1,784.5,0.0097,0.60585
702.5,785.2,0.0085,0.57344
702.9,786.0,0.0062,0.54637
703.3,786.7,0.0043,0.51714
703.7,787.4,0.0019,0.49129
704.1,788.2,0.0002,0.46612
704.5,788.9,-0.0019,0.43902
704.9,789.7,-0.0034,0.41552
705.3,790.4,-0.0050,0.3913
705.7,791.2,-0.0064,0.37147
706.1,791.9,-0.0073,0.35001
706.5,792.6,-0.0094,0.33015
706.9,793.4,-0.0102,0.30875
707.3,794.1,-0.0117,0.29151
707.7,794.9,-0.0137,0.27167
708.1,795.6,-0.0152,0.25649
708.5,796.4,-0.0170,0.2391
708.9,797.1,-0.0179,0.22358
709.3,797.8,-0.0189,0.21004
709.7,798.6,-0.0206,0.1936
710.1,799.3,-0.0208,0.18132
710.5,800.1,-0.0223,0.16856
710.9,800.8,-0.0224,0.15389
711.3,801.6,-0.0235,0.14092
711.7,802.3,-0.0240,0.13064
712.1,803.1,-0.0250,0.11882
712.5,803.8,-0.0257,0.10919
712.9,804.6,-0.0270,9.93E-02
713.3,805.3,-0.0276,8.90E-02
713.7,806.1,-0.0280,8.07E-02
714.1,806.8,-0.0290,7.03E-02
714.5,807.6,-0.0290,6.16E-02
714.9,808.3,-0.0291,5.24E-02
715.3,809.0,-0.0301,4.61E-02
715.7,809.8,-0.0306,3.90E-02
716.1,810.5,-0.0308,3.16E-02
716.5,811.3,-0.0322,2.38E-02
716.9,812.0,-0.0320,1.97E-02
717.3,812.8,-0.0331,1.32E-02
717.7,813.5,-0.0349,8.04E-03
718.1,814.3,-0.0349,1.27E-03
718.5,815.0,-0.0352,-2.91E-03
718.9,815.8,-0.0361,-8.65E-03
719.3,816.5,-0.0363,-1.40E-02
719.7,817.3,-0.0363,-2.03E-02
720.1,818.0,-0.0366,-2.20E-02
720.5,818.8,-0.0376,-2.46E-02
720.9,819.6,-0.0376,-2.89E-02
721.3,820.3,-0.0377,-3.18E-02
721.7,821.1,-0.0383,-3.32E-02
722.1,821.8,-0.0382,-3.88E-02
722.5,822.6,-0.0383,-4.12E-02
722.9,823.3,-0.0383,-4.32E-02
723.3,824.1,-0.0383,-4.81E-02
723.7,824.8,-0.0382,-5.20E-02
724.1,825.6,-0.0389,-5.22E-02
724.5,826.3,-0.0396,-5.37E-02
724.9,827.1,-0.0396,-5.75E-02
725.3,827.8,-0.0396,-5.84E-02
725.7,828.6,-0.0396,-6.10E-02
726.1,829.3,-0.0388,-5.90E-02
726.5,830.1,-0.0390,-6.45E-02
726.9,830.8,-0.0396,-6.13E-02
727.3,831.6,-0.0396,-6.09E-02
727.7,832.3,-0.0396,-6.18E-02
728.1,833.1,-0.0396,-6.21E-02
728.5,833.8,-0.0396,-5.84E-02
728.9,834.6,-0.0396,-5.57E-02
729.3,835.4,-0.0396,-5.51E-02
729.7,836.1,-0.0396,-5.36E-02
730.1,836.9,-0.0396,-5.05E-02
730.5,837.6,-0.0396,-4.87E-02
730.9,838.4,-0.0396,-4.82E-02
731.3,839.1,-0.0406,-4.89E-02
731.7,839.9,-0.0401,-5.14E-02
732.1,840.6,-0.0396,-4.91E-02
732.5,841.4,-0.0396,-5.21E-02
732.9,842.2,-0.0396,-5.31E-02
733.3,842.9,-0.0396,-5.66E-02
733.7,843.7,-0.0396,-5.97E-02
734.1,844.4,-0.0402,-5.99E-02
734.5,845.2,-0.0406,-6.44E-02
734.9,845.9,-0.0405,-6.84E-02
735.3,846.7,-0.0409,-7.12E-02
735.7,847.5,-0.0408,-7.34E-02
736.1,848.2,-0.0413,-7.73E-02
736.5,849.0,-0.0422,-8.26E-02
736.9,849.7,-0.0433,-8.42E-02
737.3,850.5,-0.0435,-8.86E-02
737.7,851.3,-0.0435,-9.22E-02
738.1,852.0,-0.0435,-9.82E-02
738.5,852.8,-0.0435,-0.10147
738.9,853.5,-0.0435,-0.10575
739.3,854.3,-0.0435,-0.10512
739.7,855.1,-0.0435,-0.1108
740.1,855.8,-0.0435,-0.11581
740.5,856.6,-0.0435,-0.11644
740.9,857.3,-0.0435,-0.11892
741.3,858.1,-0.0435,-0.12068
741.7,858.9,-0.0435,-0.12121
742.1,859.6,-0.0435,-0.12433
742.5,860.4,-0.0435,-0.125
742.9,861.2,-0.0435,-0.1253
743.3,861.9,-0.0436,-0.12672
743.7,862.7,-0.0430,-0.12867
744.1,863.4,-0.0422,-0.12924
744.5,864.2,-0.0422,-0.12929
744.9,865.0,-0.0422,-0.1301
745.3,865.7,-0.0422,-0.12622
745.7,866.5,-0.0422,-0.12653
746.1,867.3,-0.0422,-0.12715
746.5,868.0,-0.0422,-0.12773
746.9,868.8,-0.0422,-0.12666
747.3,869.6,-0.0424,-0.12865
747.7,870.3,-0.0434,-0.12717
748.1,871.1,-0.0435,-0.12756
748.5,871.8,-0.0435,-0.12606
748.9,872.6,-0.0435,-0.12509
749.3,873.4,-0.0435,-0.12437
749.7,874.1,-0.0435,-0.12419
750.1,874.9,-0.0435,-0.12457
750.5,875.7,-0.0435,-0.12267
750.9,876.4,-0.0435,-0.12117
751.3,877.2,-0.0435,-0.12412
751.7,877.9,-0.0435,-0.12084
752.1,878.7,-0.0435,-0.12123
752.5,879.5,-0.0435,-0.11673
752.9,880.2,-0.0435,-0.11835
753.3,881.0,-0.0435,-0.11698
753.7,881.8,-0.0435,-0.11454
754.1,882.5,-0.0435,-0.11126
754.5,883.3,-0.0436,-0.11349
754.9,884.1,-0.0447,-0.1109
755.3,884.8,-0.0443,-0.10857
755.7,885.6,-0.0448,-0.10879
756.1,886.4,-0.0455,-0.1086
756.5,887.1,-0.0455,-0.10678
756.9,887.9,-0.0455,-0.10684
757.3,888.7,-0.0455,-0.10581
757.7,889.4,-0.0455,-0.10147
758.1,890.2,-0.0455,-0.10368
758.5,891.0,-0.0455,-0.10192
758.9,891.7,-0.0455,-9.77E-02
759.3,892.5,-0.0455,-9.77E-02
759.7,893.3,-0.0455,-9.67E-02
760.1,894.0,-0.0455,-9.67E-02
760.5,894.8,-0.0455,-9.47E-02
760.9,895.6,-0.0455,-9.40E-02
761.3,896.3,-0.0455,-9.31E-02
761.7,897.1,-0.0455,-9.41E-02
762.1,897.9,-0.0455,-9.11E-02
762.5,898.6,-0.0455,-8.83E-02
762.9,899.4,-0.0455,-8.97E-02
763.3,900.1,-0.0455,-8.96E-02
763.7,900.9,-0.0455,-8.86E-02
764.1,901.7,-0.0455,-8.78E-02
764.5,902.4,-0.0455,-8.73E-02
764.9,903.2,-0.0467,-8.60E-02
765.3,904.0,-0.0468,-8.44E-02
765.7,904.7,-0.0468,-8.56E-02
766.1,905.5,-0.0468,-8.33E-02
766.5,906.3,-0.0468,-8.40E-02
766.9,907.0,-0.0468,-8.25E-02
767.3,907.8,-0.0468,-8.25E-02
767.7,908.6,-0.0459,-8.22E-02
768.1,909.3,-0.0455,-8.30E-02
768.5,910.1,-0.0455,-8.11E-02
768.9,910.9,-0.0455,-8.11E-02
769.3,911.6,-0.0453,-7.95E-02
769.7,912.4,-0.0443,-7.86E-02
770.1,913.2,-0.0442,-8.09E-02
770.5,914.0,-0.0442,-7.89E-02
770.9,914.7,-0.0442,-8.08E-02
771.3,915.5,-0.0442,-7.98E-02
771.7,916.3,-0.0442,-7.60E-02
772.1,917.0,-0.0442,-7.52E-02
772.5,917.8,-0.0442,-7.60E-02
772.9,918.6,-0.0439,-7.68E-02
773.3,919.3,-0.0439,-7.41E-02
773.7,920.1,-0.0438,-7.46E-02
774.1,920.9,-0.0439,-7.32E-02
774.5,921.6,-0.0439,-7.02E-02
774.9,922.4,-0.0439,-7.14E-02
775.3,923.2,-0.0438,-7.19E-02
775.7,924.0,-0.0439,-6.80E-02
776.1,924.7,-0.0430,-6.80E-02
776.5,925.5,-0.0425,-6.58E-02
776.9,926.3,-0.0425,-6.57E-02
777.3,927.0,-0.0425,-6.22E-02
777.7,927.8,-0.0426,-6.57E-02
778.1,928.6,-0.0419,-6.26E-02
778.5,929.3,-0.0412,-5.98E-02
778.9,930.1,-0.0412,-6.05E-02
779.3,930.9,-0.0412,-5.93E-02
779.7,931.6,-0.0412,-5.77E-02
780.1,932.4,-0.0412,-5.62E-02
780.5,933.2,-0.0409,-5.73E-02
780.9,934.0,-0.0409,-5.61E-02
781.3,934.7,-0.0409,-5.48E-02
781.7,935.5,-0.0409,-5.29E-02
782.1,936.3,-0.0409,-5.06E-02
782.5,937.0,-0.0409,-5.27E-02
782.9,937.8,-0.0409,-4.94E-02
783.3,938.6,-0.0409,-4.88E-02
783.7,939.3,-0.0412,-4.71E-02
784.1,940.1,-0.0422,-4.75E-02
784.5,940.9,-0.0422,-4.63E-02
784.9,941.7,-0.0422,-4.33E-02
785.3,942.4,-0.0422,-4.23E-02
785.7,943.2,-0.0422,-4.09E-02
786.1,944.0,-0.0422,-4.12E-02
786.5,944.7,-0.0422,-4.08E-02
786.9,945.5,-0.0422,-4.14E-02
787.3,946.3,-0.0422,-3.90E-02
787.7,947.1,-0.0422,-4.00E-02
788.1,947.8,-0.0422,-4.08E-02
788.5,948.6,-0.0422,-3.77E-02
788.9,949.4,-0.0422,-3.83E-02
789.3,950.2,-0.0432,-3.61E-02
789.7,950.9,-0.0435,-3.64E-02
790.1,951.7,-0.0435,-3.57E-02
790.5,952.5,-0.0435,-3.30E-02
790.9,953.2,-0.0435,-3.41E-02
791.3,954.0,-0.0435,-3.34E-02
791.7,954.8,-0.0435,-3.12E-02
792.1,955.6,-0.0434,-3.10E-02
792.5,956.3,-0.0444,-3.16E-02
792.9,957.1,-0.0445,-3.04E-02
793.3,957.9,-0.0445,-3.08E-02
793.7,958.6,-0.0445,-3.12E-02
794.1,959.4,-0.0445,-2.82E-02
794.5,960.2,-0.0445,-2.88E-02
794.9,961.0,-0.0445,-3.12E-02
795.3,961.7,-0.0445,-3.00E-02
795.7,962.5,-0.0445,-2.71E-02
796.1,963.3,-0.0445,-2.70E-02
796.5,964.1,-0.0445,-2.74E-02
796.9,964.8,-0.0445,-2.62E-02
797.3,965.6,-0.0445,-2.62E-02
797.7,966.4,-0.0445,-2.54E-02
798.1,967.1,-0.0448,-2.07E-02
798.5,967.9,-0.0448,-2.41E-02
798.9,968.7,-0.0448,-2.41E-02
799.3,969.5,-0.0448,-2.72E-02
799.7,970.2,-0.0448,-2.44E-02
800.1,971.0,-0.0448,-2.33E-02
800.5,971.8,-0.0449,-2.26E-02
800.9,972.6,-0.0461,-2.47E-02
801.3,973.3,-0.0461,-2.37E-02
801.7,974.1,-0.0462,-2.24E-02
802.1,974.9,-0.0462,-2.07E-02
802.5,975.6,-0.0457,-1.84E-02
802.9,976.4,-0.0447,-1.92E-02
803.3,977.2,-0.0448,-1.97E-02
803.7,978.0,-0.0448,-2.16E-02
804.1,978.7,-0.0448,-1.81E-02
804.5,979.5,-0.0448,-1.82E-02
804.9,980.3,-0.0448,-1.64E-02
805.3,981.1,-0.0448,-1.62E-02
805.7,981.8,-0.0445,-1.74E-02
806.1,982.6,-0.0435,-1.69E-02
806.5,983.4,-0.0435,-1.55E-02
806.9,984.2,-0.0435,-1.54E-02
807.3,984.9,-0.0435,-1.37E-02
807.7,985.7,-0.0434,-1.44E-02
808.1,986.5,-0.0446,-1.42E-02
808.5,987.3,-0.0449,-1.32E-02
808.9,988.0,-0.0459,-1.27E-02
809.3,988.8,-0.0461,-1.37E-02
809.7,989.6,-0.0462,-1.40E-02
810.1,990.4,-0.0461,-1.20E-02
810.5,991.1,-0.0461,-1.26E-02
810.9,991.9,-0.0461,-1.15E-02
811.3,992.7,-0.0461,-1.01E-02
811.7,993.5,-0.0461,-1.12E-02
812.1,994.2,-0.0461,-9.90E-03
812.5,995.0,-0.0462,-9.70E-03
812.9,995.8,-0.0460,-1.02E-02
813.3,996.6,-0.0449,-8.67E-03
813.7,997.4,-0.0449,-9.60E-03
814.1,998.1,-0.0448,-8.63E-03
814.5,999.0,-0.0448,-8.57E-03
273.2,-600.6,0.0000,
273.2,-600.6,0.0000,
273.2,-600.6,0.0000,
273.2,-600.6,0.0000,
273.2,-600.6,0.0000,
273.2,-600.6,0.0000,
273.2,-600.6,0.0000,
273.2,-600.6,0.0000,
273.2,-600.6,0.0000,
273.2,-600.6,0.0000,
273.2,-600.6,0.0000,
273.2,-600.6,0.0000,
273.2,-600.6,0.0000,
273.2,-600.6,0.0000,
273.2,-600.6,0.0000,
273.2,-600.6,0.0000,
273.2,-600.6,0.0000,