File: PMMA/Calibration_Data/FSRI/FSRI_STA_N2_10K_2.csv
Temp,time,TGA,DSC
[K],[s],[mg],[mW/mg]
323,0,3.9537,8.92E-04
323.4,37.5,3.9537,2.53E-02
323.8,47.2,3.9519,4.31E-02
324.2,54.2,3.9512,5.88E-02
324.6,60.1,3.953,7.38E-02
325,65.2,3.9518,8.46E-02
325.4,69.8,3.9508,9.62E-02
325.8,74.1,3.9517,0.10243
326.2,78.1,3.9533,0.11446
326.6,81.9,3.9526,0.12198
327,85.6,3.9526,0.13042
327.4,89.2,3.9516,0.13701
327.8,92.6,3.9514,0.14414
328.2,95.9,3.9528,0.15036
328.6,99.1,3.9541,0.15648
329,102.2,3.9524,0.15916
329.4,105.3,3.9527,0.16514
329.8,108.4,3.9533,0.16961
330.2,111.4,3.9535,0.17355
330.6,114.4,3.9529,0.17813
331,117.3,3.9537,0.18311
331.4,120.2,3.9541,0.18297
331.8,123,3.9532,0.18724
332.2,125.9,3.9512,0.18922
332.6,128.7,3.951,0.1922
333,131.5,3.9508,0.19357
333.4,134.2,3.9508,0.19742
333.8,137,3.9508,0.20097
334.2,139.7,3.9511,0.20114
334.6,142.4,3.951,0.20421
335,145.1,3.9505,0.20725
335.4,147.8,3.9511,0.20628
335.8,150.5,3.9511,0.21074
336.2,153.1,3.9511,0.21076
336.6,155.8,3.9511,0.21139
337,158.5,3.9514,0.21433
337.4,161.1,3.9507,0.21648
337.8,163.8,3.951,0.21658
338.2,166.5,3.9498,0.21685
338.6,169.1,3.9489,0.22053
339,171.7,3.9497,0.22196
339.4,174.4,3.951,0.22116
339.8,176.9,3.9497,0.22095
340.2,179.6,3.9511,0.2244
340.6,182.1,3.951,0.22616
341,184.7,3.9524,0.22697
341.4,187.3,3.9516,0.22755
341.8,189.9,3.951,0.22771
342.2,192.5,3.951,0.2289
342.6,195.1,3.951,0.22987
343,197.7,3.9511,0.23071
343.4,200.2,3.9517,0.23242
343.8,202.8,3.951,0.23588
344.2,205.3,3.951,0.23674
344.6,207.9,3.951,0.23598
345,210.4,3.951,0.23601
345.4,213,3.9501,0.23848
345.8,215.5,3.951,0.23999
346.2,218.1,3.951,0.24267
346.6,220.6,3.9502,0.24175
347,223.1,3.9499,0.2435
347.4,225.6,3.9498,0.24447
347.8,228.2,3.9509,0.2433
348.2,230.7,3.9498,0.24388
348.6,233.2,3.9507,0.24612
349,235.7,3.9503,0.24762
349.4,238.3,3.9495,0.24622
349.8,240.8,3.9495,0.2478
350.2,243.3,3.9482,0.24783
350.6,245.8,3.9495,0.24912
351,248.3,3.9495,0.25199
351.4,250.7,3.9495,0.25333
351.8,253.2,3.9495,0.25262
352.2,255.7,3.9495,0.25253
352.6,258.2,3.9482,0.25204
353,260.7,3.9489,0.25466
353.4,263.2,3.9495,0.25458
353.8,265.6,3.9481,0.25526
354.2,268.1,3.9482,0.25549
354.6,270.6,3.9482,0.25461
355,273,3.9482,0.25425
355.4,275.5,3.9482,0.2542
355.8,278,3.9491,0.25302
356.2,280.4,3.9495,0.25513
356.6,282.9,3.9481,0.25486
357,285.3,3.9482,0.25358
357.4,287.8,3.9483,0.25393
357.8,290.2,3.9495,0.25257
358.2,292.7,3.9482,0.2515
358.6,295.1,3.9482,0.2525
359,297.5,3.9482,0.25329
359.4,300,3.9482,0.25228
359.8,302.4,3.9482,0.24993
360.2,304.8,3.9469,0.25164
360.6,307.2,3.9482,0.2532
361,309.6,3.9482,0.2525
361.4,312.1,3.9482,0.25124
361.8,314.5,3.9495,0.2501
362.2,316.9,3.9488,0.2526
362.6,319.3,3.9482,0.25104
363,321.7,3.9482,0.25204
363.4,324.1,3.9482,0.25212
363.8,326.5,3.9483,0.25436
364.2,328.9,3.9482,0.25335
364.6,331.3,3.9482,0.25564
365,333.7,3.9482,0.25417
365.4,336.1,3.9495,0.25346
365.8,338.5,3.9482,0.25298
366.2,340.9,3.9482,0.25551
366.6,343.3,3.9482,0.25364
367,345.7,3.9482,0.25345
367.4,348.1,3.9469,0.25377
367.8,350.5,3.9473,0.25759
368.2,352.9,3.9479,0.25854
368.6,355.3,3.9479,0.25738
369,357.6,3.9466,0.25818
369.4,360,3.9469,0.25971
369.8,362.4,3.9469,0.26059
370.2,364.8,3.9482,0.2574
370.6,367.2,3.9482,0.25879
371,369.6,3.9469,0.25849
371.4,372,3.9469,0.26285
371.8,374.4,3.9469,0.25874
372.2,376.8,3.9462,0.26039
372.6,379.1,3.9469,0.26158
373,381.5,3.9469,0.26373
373.4,383.9,3.9459,0.2642
373.8,386.2,3.9459,0.26471
374.2,388.6,3.9459,0.2638
374.6,391,3.9456,0.2669
375,393.3,3.946,0.26404
375.4,395.7,3.9456,0.26654
375.8,398.1,3.9455,0.2657
376.2,400.5,3.9468,0.26828
376.6,402.8,3.9459,0.26841
377,405.2,3.9456,0.26934
377.4,407.5,3.9456,0.27048
377.8,409.9,3.9456,0.2728
378.2,412.3,3.9442,0.273
378.6,414.6,3.9442,0.27315
379,417,3.9442,0.27523
379.4,419.3,3.9455,0.27425
379.8,421.7,3.945,0.27624
380.2,424.1,3.9444,0.27926
380.6,426.4,3.9456,0.27738
381,428.8,3.9452,0.27964
381.4,431.1,3.9442,0.27795
381.8,433.5,3.945,0.28063
382.2,435.8,3.9456,0.27961
382.6,438.2,3.9456,0.28168
383,440.5,3.9443,0.27985
383.4,442.9,3.9456,0.28015
383.8,445.2,3.9456,0.28336
384.2,447.6,3.9446,0.28486
384.6,450,3.9442,0.28582
385,452.3,3.9455,0.28816
385.4,454.7,3.9455,0.28762
385.8,457,3.9455,0.28814
386.2,459.4,3.9456,0.28969
386.6,461.7,3.9443,0.29264
387,464.1,3.9442,0.29259
387.4,466.4,3.9442,0.29321
387.8,468.8,3.9442,0.29289
388.2,471.1,3.9456,0.29449
388.6,473.5,3.9456,0.29727
389,475.8,3.9442,0.2985
389.4,478.1,3.9442,0.29937
389.8,480.5,3.9442,0.29803
390.2,482.8,3.9442,0.29936
390.6,485.2,3.9442,0.30399
391,487.6,3.9442,0.3043
391.4,489.9,3.944,0.30748
391.8,492.3,3.9429,0.3067
392.2,494.6,3.9431,0.31081
392.6,496.9,3.9437,0.31256
393,499.3,3.9429,0.31333
393.4,501.6,3.9429,0.31666
393.8,503.9,3.9429,0.31752
394.2,506.3,3.9429,0.31889
394.6,508.6,3.943,0.32038
395,511,3.9442,0.32443
395.4,513.3,3.9442,0.32483
395.8,515.7,3.9442,0.32632
396.2,518,3.9442,0.32684
396.6,520.3,3.9429,0.3298
397,522.7,3.9429,0.33261
397.4,525,3.9429,0.33427
397.8,527.3,3.943,0.3358
398.2,529.7,3.9429,0.33676
398.6,532,3.9429,0.33689
399,534.3,3.9429,0.33959
399.4,536.7,3.9429,0.3381
399.8,539,3.9429,0.34252
400.2,541.4,3.9421,0.34394
400.6,543.7,3.9416,0.34548
401,546,3.9429,0.34618
401.4,548.4,3.9429,0.3473
401.8,550.7,3.9429,0.34766
402.2,553,3.9414,0.34941
402.6,555.4,3.9406,0.34952
403,557.7,3.9406,0.35112
403.4,560,3.9406,0.35323
403.8,562.4,3.9406,0.35261
404.2,564.7,3.9406,0.35275
404.6,567,3.9416,0.35315
405,569.3,3.9416,0.35573
405.4,571.7,3.9414,0.35795
405.8,574,3.9406,0.35809
406.2,576.3,3.9406,0.35874
406.6,578.7,3.9406,0.35782
407,581,3.942,0.35823
407.4,583.3,3.942,0.35982
407.8,585.6,3.9409,0.35779
408.2,588,3.9394,0.35823
408.6,590.3,3.939,0.3616
409,592.6,3.9391,0.36002
409.4,594.9,3.9403,0.36008
409.8,597.3,3.9401,0.36311
410.2,599.6,3.939,0.36366
410.6,601.9,3.939,0.36276
411,604.2,3.939,0.36234
411.4,606.5,3.939,0.36254
411.8,608.8,3.9388,0.36294
412.2,611.1,3.9383,0.3627
412.6,613.5,3.9383,0.36418
413,615.8,3.937,0.36381
413.4,618.1,3.937,0.36486
413.8,620.4,3.937,0.36574
414.2,622.7,3.937,0.36371
414.6,625.1,3.937,0.36456
415,627.4,3.937,0.36483
415.4,629.7,3.937,0.36751
415.8,632,3.937,0.36614
416.2,634.3,3.9358,0.36773
416.6,636.6,3.937,0.36683
417,638.9,3.937,0.3664
417.4,641.2,3.937,0.36887
417.8,643.5,3.937,0.3685
418.2,645.9,3.9361,0.37094
418.6,648.2,3.936,0.37013
419,650.5,3.936,0.37001
419.4,652.8,3.936,0.37046
419.8,655.1,3.9357,0.37239
420.2,657.4,3.9354,0.37205
420.6,659.7,3.9354,0.37291
421,662,3.9354,0.37654
421.4,664.3,3.9354,0.37496
421.8,666.6,3.9354,0.37728
422.2,668.9,3.9354,0.37624
422.6,671.3,3.9344,0.37465
423,673.6,3.934,0.37586
423.4,675.9,3.934,0.37488
423.8,678.2,3.934,0.37847
424.2,680.5,3.9327,0.37644
424.6,682.8,3.9327,0.37909
425,685.1,3.9327,0.37927
425.4,687.4,3.9327,0.37842
425.8,689.7,3.9327,0.383
426.2,692.1,3.932,0.38092
426.6,694.4,3.9317,0.38215
427,696.7,3.9317,0.38354
427.4,699,3.9317,0.38059
427.8,701.3,3.9317,0.38428
428.2,703.6,3.9317,0.38532
428.6,705.9,3.9317,0.38217
429,708.2,3.9314,0.38509
429.4,710.5,3.9304,0.38474
429.8,712.9,3.9304,0.38676
430.2,715.2,3.9295,0.38715
430.6,717.5,3.9291,0.38979
431,719.8,3.9291,0.38945
431.4,722.1,3.9292,0.38877
431.8,724.4,3.9292,0.39057
432.2,726.7,3.9291,0.39116
432.6,729,3.9287,0.39337
433,731.3,3.9278,0.39294
433.4,733.6,3.9278,0.39337
433.8,736,3.9278,0.39403
434.2,738.3,3.9278,0.39686
434.6,740.6,3.9278,0.39759
435,742.9,3.9278,0.39975
435.4,745.2,3.9278,0.39923
435.8,747.5,3.9278,0.40121
436.2,749.8,3.9275,0.4039
436.6,752.1,3.9275,0.40412
437,754.4,3.9256,0.40693
437.4,756.7,3.9252,0.40783
437.8,759,3.9252,0.41044
438.2,761.3,3.9252,0.41144
438.6,763.6,3.924,0.41202
439,766,3.9238,0.41437
439.4,768.3,3.9226,0.41465
439.8,770.6,3.9225,0.41762
440.2,772.9,3.9212,0.41825
440.6,775.2,3.9209,0.42149
441,777.5,3.9199,0.42213
441.4,779.8,3.9199,0.42434
441.8,782.1,3.9199,0.42433
442.2,784.4,3.9207,0.42658
442.6,786.7,3.9209,0.4279
443,789,3.9196,0.43044
443.4,791.3,3.9196,0.43091
443.8,793.6,3.9196,0.43303
444.2,795.9,3.918,0.43466
444.6,798.2,3.9169,0.4382
445,800.5,3.9169,0.43812
445.4,802.8,3.9159,0.44043
445.8,805.1,3.9156,0.44201
446.2,807.4,3.9156,0.44212
446.6,809.7,3.9157,0.44416
447,812,3.9143,0.44398
447.4,814.3,3.9143,0.44639
447.8,816.7,3.9132,0.44888
448.2,819,3.913,0.44713
448.6,821.3,3.9118,0.45184
449,823.6,3.9117,0.45096
449.4,825.9,3.9117,0.45307
449.8,828.2,3.9103,0.45485
450.2,830.5,3.91,0.45564
450.6,832.8,3.91,0.4596
451,835.1,3.9082,0.45867
451.4,837.4,3.9077,0.46209
451.8,839.7,3.9068,0.46025
452.2,842,3.9058,0.46448
452.6,844.3,3.9051,0.46584
453,846.6,3.9038,0.46623
453.4,848.9,3.9038,0.46799
453.8,851.2,3.9025,0.46639
454.2,853.5,3.9024,0.46673
454.6,855.8,3.9012,0.46857
455,858.1,3.8998,0.47062
455.4,860.4,3.8998,0.47059
455.8,862.7,3.8982,0.47158
456.2,865,3.8975,0.47166
456.6,867.3,3.8966,0.47385
457,869.6,3.8955,0.47093
457.4,871.9,3.8946,0.47281
457.8,874.2,3.8935,0.47172
458.2,876.5,3.8933,0.47565
458.6,878.8,3.8918,0.47423
459,881.1,3.8911,0.47442
459.4,883.4,3.8912,0.47496
459.8,885.7,3.8904,0.47074
460.2,888,3.8885,0.47113
460.6,890.3,3.8872,0.47166
461,892.6,3.8865,0.47094
461.4,894.9,3.8852,0.47164
461.8,897.2,3.8845,0.47306
462.2,899.5,3.8839,0.47184
462.6,901.8,3.8825,0.47021
463,904.1,3.8812,0.4699
463.4,906.4,3.881,0.46903
463.8,908.7,3.8798,0.46823
464.2,911.1,3.8785,0.46697
464.6,913.4,3.8779,0.46565
465,915.7,3.8765,0.46399
465.4,918,3.8755,0.46454
465.8,920.3,3.8752,0.45914
466.2,922.6,3.8738,0.46251
466.6,924.9,3.872,0.45984
467,927.2,3.8712,0.45964
467.4,929.5,3.8698,0.45902
467.8,931.8,3.8699,0.45663
468.2,934.1,3.8686,0.45561
468.6,936.4,3.8685,0.45458
469,938.7,3.8672,0.45467
469.4,941,3.867,0.45373
469.8,943.3,3.8659,0.4563
470.2,945.6,3.8659,0.45728
470.6,947.9,3.8646,0.45673
471,950.2,3.8638,0.45452
471.4,952.5,3.8635,0.45208
471.8,954.8,3.8633,0.4524
472.2,957.1,3.862,0.45262
472.6,959.4,3.8607,0.45049
473,961.7,3.8594,0.4514
473.4,964,3.8594,0.4508
473.8,966.3,3.8579,0.45259
474.2,968.6,3.8567,0.4503
474.6,970.9,3.8561,0.45155
475,973.2,3.8551,0.4542
475.4,975.5,3.8551,0.45367
475.8,977.8,3.8547,0.4531
476.2,980.1,3.8534,0.45285
476.6,982.4,3.8528,0.45337
477,984.7,3.8521,0.45333
477.4,987,3.8521,0.45311
477.8,989.3,3.8505,0.45471
478.2,991.6,3.8502,0.45823
478.6,993.9,3.8488,0.45988
479,996.2,3.8488,0.46004
479.4,998.5,3.8475,0.45999
479.8,1000.7,3.8475,0.45866
480.2,1003,3.8464,0.45888
480.6,1005.3,3.8462,0.46124
481,1007.6,3.8463,0.46142
481.4,1009.9,3.8441,0.46285
481.8,1012.2,3.8422,0.4621
482.2,1014.5,3.8423,0.46379
482.6,1016.8,3.8396,0.46502
483,1019.1,3.8385,0.46416
483.4,1021.4,3.8383,0.46517
483.8,1023.7,3.8369,0.46508
484.2,1026,3.837,0.46709
484.6,1028.3,3.8373,0.46645
485,1030.6,3.836,0.46527
485.4,1032.9,3.836,0.46284
485.8,1035.2,3.8347,0.46532
486.2,1037.5,3.8347,0.46548
486.6,1039.8,3.8333,0.4651
487,1042.1,3.8334,0.46141
487.4,1044.4,3.8335,0.46224
487.8,1046.7,3.8327,0.46065
488.2,1049,3.8325,0.45789
488.6,1051.3,3.8314,0.45648
489,1053.6,3.8314,0.45645
489.4,1055.8,3.8314,0.45592
489.8,1058.1,3.8305,0.45534
490.2,1060.4,3.8301,0.45251
490.6,1062.7,3.83,0.45025
491,1065,3.8287,0.44944
491.4,1067.3,3.8285,0.44754
491.8,1069.6,3.8274,0.44641
492.2,1071.9,3.8272,0.44631
492.6,1074.2,3.8261,0.44481
493,1076.5,3.8261,0.44167
493.4,1078.8,3.8245,0.44093
493.8,1081.1,3.8235,0.43941
494.2,1083.4,3.8236,0.43793
494.6,1085.6,3.8222,0.43847
495,1087.9,3.8235,0.43594
495.4,1090.2,3.8235,0.43411
495.8,1092.5,3.8235,0.43313
496.2,1094.8,3.8222,0.43179
496.6,1097.1,3.8221,0.43166
497,1099.4,3.8208,0.43152
497.4,1101.7,3.8209,0.42845
497.8,1104,3.8195,0.42681
498.2,1106.3,3.8195,0.42771
498.6,1108.5,3.8195,0.42637
499,1110.8,3.8198,0.42775
499.4,1113.1,3.8208,0.42836
499.8,1115.4,3.8208,0.42623
500.2,1117.7,3.8208,0.4242
500.6,1120,3.8208,0.42588
501,1122.3,3.8208,0.42616
501.4,1124.6,3.8199,0.42396
501.8,1126.9,3.8195,0.42214
502.2,1129.2,3.8195,0.42451
502.6,1131.5,3.8195,0.42354
503,1133.7,3.8195,0.42259
503.4,1136,3.8195,0.42474
503.8,1138.3,3.8195,0.42471
504.2,1140.6,3.8195,0.42542
504.6,1142.9,3.8186,0.4218
505,1145.2,3.8185,0.42207
505.4,1147.5,3.8182,0.4234
505.8,1149.8,3.8182,0.42321
506.2,1152.1,3.8182,0.42449
506.6,1154.4,3.8173,0.42381
507,1156.6,3.8169,0.42452
507.4,1158.9,3.8172,0.42399
507.8,1161.2,3.8172,0.42478
508.2,1163.5,3.8172,0.42529
508.6,1165.8,3.8172,0.42343
509,1168.1,3.8172,0.42333
509.4,1170.4,3.8174,0.42246
509.8,1172.7,3.8186,0.42115
510.2,1175,3.8176,0.42455
510.6,1177.3,3.8172,0.42443
511,1179.6,3.8172,0.42474
511.4,1181.9,3.816,0.42382
511.8,1184.2,3.8159,0.42539
512.2,1186.5,3.8159,0.42516
512.6,1188.8,3.8159,0.42447
513,1191.1,3.8159,0.42655
513.4,1193.4,3.8159,0.42777
513.8,1195.7,3.816,0.42706
514.2,1198,3.8146,0.42658
514.6,1200.3,3.8136,0.42811
515,1202.6,3.8133,0.42864
515.4,1204.9,3.8133,0.42751
515.8,1207.2,3.8127,0.4297
516.2,1209.5,3.8126,0.42905
516.6,1211.8,3.8126,0.43108
517,1214.1,3.8126,0.43124
517.4,1216.4,3.8126,0.43164
517.8,1218.7,3.8122,0.4315
518.2,1221,3.812,0.43187
518.6,1223.3,3.8124,0.43119
519,1225.6,3.8133,0.43008
519.4,1227.9,3.8133,0.43477
519.8,1230.2,3.812,0.43303
520.2,1232.4,3.812,0.43334
520.6,1234.7,3.812,0.4328
521,1237,3.812,0.43533
521.4,1239.3,3.8107,0.4355
521.8,1241.6,3.8107,0.43581
522.2,1243.9,3.8107,0.43905
522.6,1246.2,3.8096,0.43773
523,1248.5,3.8093,0.43928
523.4,1250.8,3.8093,0.44037
523.8,1253.1,3.8093,0.44127
524.2,1255.4,3.8093,0.44235
524.6,1257.7,3.8093,0.4429
525,1260,3.8093,0.4431
525.4,1262.3,3.8093,0.44208
525.8,1264.6,3.8093,0.44315
526.2,1266.9,3.8078,0.44394
526.6,1269.2,3.8069,0.44525
527,1271.5,3.8067,0.44725
527.4,1273.8,3.8054,0.44864
527.8,1276,3.8054,0.45381
528.2,1278.3,3.8054,0.4548
528.6,1280.6,3.8066,0.45717
529,1282.9,3.8067,0.45962
529.4,1285.2,3.8067,0.46005
529.8,1287.5,3.8067,0.46164
530.2,1289.8,3.8067,0.46413
530.6,1292.1,3.8057,0.46383
531,1294.4,3.8054,0.46866
531.4,1296.6,3.8054,0.46781
531.8,1298.9,3.804,0.46871
532.2,1301.2,3.8041,0.47007
532.6,1303.5,3.8041,0.47097
533,1305.8,3.8041,0.47295
533.4,1308.1,3.8041,0.47532
533.8,1310.4,3.8035,0.47273
534.2,1312.7,3.8027,0.47802
534.6,1314.9,3.8027,0.47837
535,1317.2,3.8026,0.48113
535.4,1319.5,3.8027,0.48014
535.8,1321.8,3.8027,0.48102
536.2,1324.1,3.8027,0.48389
536.6,1326.4,3.8015,0.48281
537,1328.7,3.8001,0.48639
537.4,1331,3.8001,0.48738
537.8,1333.3,3.7988,0.48658
538.2,1335.6,3.7988,0.48747
538.6,1337.8,3.7984,0.48957
539,1340.1,3.7975,0.49113
539.4,1342.4,3.7975,0.49064
539.8,1344.7,3.7975,0.49264
540.2,1347,3.7948,0.49388
540.6,1349.3,3.7948,0.49257
541,1351.6,3.7947,0.49516
541.4,1353.9,3.7935,0.49777
541.8,1356.2,3.7935,0.49665
542.2,1358.5,3.7935,0.49685
542.6,1360.8,3.7922,0.50043
543,1363.1,3.7922,0.50025
543.4,1365.3,3.7922,0.50208
543.8,1367.6,3.7909,0.50304
544.2,1369.9,3.7908,0.50324
544.6,1372.2,3.7906,0.50556
545,1374.5,3.7897,0.50609
545.4,1376.8,3.7893,0.50468
545.8,1379.1,3.7884,0.50668
546.2,1381.4,3.7866,0.50799
546.6,1383.7,3.7866,0.50901
547,1386,3.7853,0.50981
547.4,1388.3,3.7853,0.51284
547.8,1390.6,3.7839,0.51452
548.2,1392.9,3.784,0.51512
548.6,1395.2,3.7826,0.5166
549,1397.5,3.7826,0.51523
549.4,1399.8,3.7814,0.51727
549.8,1402.1,3.7795,0.52009
550.2,1404.4,3.7787,0.52137
550.6,1406.7,3.7774,0.52272
551,1409,3.7759,0.52375
551.4,1411.3,3.7758,0.52691
551.8,1413.6,3.7747,0.52857
552.2,1416,3.7743,0.53005
552.6,1418.3,3.773,0.53007
553,1420.6,3.7727,0.53613
553.4,1422.9,3.7717,0.53544
553.8,1425.2,3.7704,0.53578
554.2,1427.5,3.769,0.53599
554.6,1429.8,3.7681,0.53822
555,1432.1,3.767,0.54101
555.4,1434.4,3.7651,0.5416
555.8,1436.7,3.7638,0.54356
556.2,1439,3.7636,0.54519
556.6,1441.3,3.7636,0.54716
557,1443.6,3.7624,0.54724
557.4,1445.9,3.7622,0.54916
557.8,1448.2,3.7611,0.55155
558.2,1450.5,3.7597,0.55391
558.6,1452.8,3.7584,0.55632
559,1455.1,3.7568,0.55781
559.4,1457.4,3.7555,0.55974
559.8,1459.7,3.7542,0.56083
560.2,1462,3.7528,0.56654
560.6,1464.4,3.7501,0.5644
561,1466.7,3.7489,0.56655
561.4,1469,3.7473,0.56929
561.8,1471.3,3.7461,0.56978
562.2,1473.6,3.7446,0.57371
562.6,1475.9,3.7438,0.57622
563,1478.2,3.7427,0.57656
563.4,1480.5,3.7404,0.57917
563.8,1482.8,3.7388,0.57863
564.2,1485.1,3.7388,0.58332
564.6,1487.4,3.7373,0.58253
565,1489.7,3.7354,0.58406
565.4,1492,3.7334,0.58608
565.8,1494.3,3.7319,0.5866
566.2,1496.5,3.7296,0.59072
566.6,1498.8,3.7283,0.5917
567,1501.1,3.7268,0.59284
567.4,1503.5,3.7253,0.59383
567.8,1505.8,3.724,0.59402
568.2,1508.1,3.7225,0.59662
568.6,1510.4,3.7202,0.59594
569,1512.7,3.7179,0.59708
569.4,1515,3.7164,0.59905
569.8,1517.3,3.7154,0.60126
570.2,1519.6,3.7139,0.60409
570.6,1521.9,3.7125,0.60368
571,1524.2,3.7111,0.60582
571.4,1526.5,3.71,0.60374
571.8,1528.8,3.7085,0.60641
572.2,1531.1,3.7071,0.60919
572.6,1533.4,3.7051,0.6073
573,1535.7,3.7018,0.61065
573.4,1538,3.6998,0.61158
573.8,1540.3,3.698,0.61397
574.2,1542.6,3.6967,0.61401
574.6,1544.9,3.6952,0.61413
575,1547.3,3.6935,0.61365
575.4,1549.6,3.6909,0.61376
575.8,1551.9,3.6889,0.61501
576.2,1554.2,3.6871,0.61673
576.6,1556.5,3.6839,0.61377
577,1558.8,3.6822,0.61214
577.4,1561.1,3.6815,0.61183
577.8,1563.4,3.6804,0.61069
578.2,1565.7,3.6787,0.60977
578.6,1568,3.675,0.60866
579,1570.3,3.6731,0.6123
579.4,1572.6,3.6701,0.60918
579.8,1574.9,3.668,0.60947
580.2,1577.2,3.6658,0.60949
580.6,1579.5,3.6623,0.61061
581,1581.8,3.6604,0.61345
581.4,1584.1,3.6585,0.61661
581.8,1586.4,3.6572,0.6189
582.2,1588.7,3.6539,0.62205
582.6,1591,3.6524,0.62515
583,1593.3,3.6509,0.62876
583.4,1595.6,3.6476,0.63342
583.8,1597.9,3.645,0.63768
584.2,1600.2,3.6414,0.64192
584.6,1602.5,3.639,0.64756
585,1604.8,3.6376,0.6514
585.4,1607.1,3.636,0.65752
585.8,1609.4,3.6333,0.66451
586.2,1611.7,3.6313,0.66935
586.6,1614.1,3.6285,0.67553
587,1616.4,3.6263,0.68019
587.4,1618.7,3.6234,0.68591
587.8,1621.1,3.6196,0.69553
588.2,1623.4,3.6146,0.69805
588.6,1625.7,3.6115,0.70733
589,1628.1,3.6086,0.71328
589.4,1630.4,3.6043,0.71997
589.8,1632.7,3.601,0.72683
590.2,1635,3.5971,0.73506
590.6,1637.3,3.5944,0.74112
591,1639.6,3.5908,0.75002
591.4,1641.9,3.5877,0.75489
591.8,1644.2,3.5838,0.76448
592.2,1646.5,3.5797,0.77121
592.6,1648.8,3.5765,0.77789
593,1651.2,3.5731,0.78818
593.4,1653.5,3.5701,0.79669
593.8,1655.8,3.5657,0.80716
594.2,1658.1,3.561,0.81482
594.6,1660.5,3.556,0.82394
595,1662.8,3.5519,0.83382
595.4,1665.1,3.5475,0.84465
595.8,1667.4,3.544,0.85416
596.2,1669.8,3.5386,0.86498
596.6,1672.1,3.5334,0.87717
597,1674.4,3.528,0.88698
597.4,1676.7,3.5214,0.89765
597.8,1679,3.5175,0.90626
598.2,1681.4,3.5129,0.91985
598.6,1683.7,3.5066,0.93556
599,1686,3.5016,0.94272
599.4,1688.3,3.4969,0.95863
599.8,1690.7,3.4913,0.97067
600.2,1693,3.484,0.98515
600.6,1695.3,3.4767,0.99998
601,1697.6,3.4707,1.01484
601.4,1700,3.4645,1.02985
601.8,1702.3,3.4593,1.04012
602.2,1704.6,3.4517,1.0585
602.6,1706.9,3.4457,1.07419
603,1709.2,3.4379,1.08927
603.4,1711.6,3.4307,1.10339
603.8,1713.9,3.4227,1.11909
604.2,1716.2,3.4147,1.13853
604.6,1718.5,3.4071,1.1529
605,1720.9,3.3985,1.17167
605.4,1723.2,3.3897,1.19198
605.8,1725.5,3.3806,1.20965
606.2,1727.8,3.3719,1.22942
606.6,1730.2,3.3637,1.24914
607,1732.5,3.3542,1.26702
607.4,1734.8,3.3441,1.28576
607.8,1737.1,3.3343,1.30766
608.2,1739.5,3.3248,1.33113
608.6,1741.8,3.3136,1.34932
609,1744.1,3.3024,1.37191
609.4,1746.5,3.2917,1.39363
609.8,1748.8,3.2812,1.416
610.2,1751.1,3.2699,1.44004
610.6,1753.4,3.2583,1.46182
611,1755.7,3.2479,1.48516
611.4,1758,3.2354,1.50967
611.8,1760.4,3.2236,1.53228
612.2,1762.7,3.2116,1.55661
612.6,1765,3.1987,1.58215
613,1767.4,3.1854,1.60879
613.4,1769.7,3.1711,1.63382
613.8,1772.1,3.1571,1.66091
614.2,1774.4,3.1429,1.68742
614.6,1776.8,3.1283,1.71401
615,1779.1,3.1146,1.74161
615.4,1781.5,3.1001,1.76956
615.8,1783.8,3.0836,1.79596
616.2,1786.2,3.0672,1.82518
616.6,1788.5,3.052,1.85469
617,1790.8,3.0367,1.8807
617.4,1793.2,3.0198,1.91036
617.8,1795.5,3.0021,1.93575
618.2,1797.9,2.9844,1.96533
618.6,1800.2,2.9671,1.99326
619,1802.5,2.9493,2.0239
619.4,1804.9,2.931,2.05359
619.8,1807.2,2.9119,2.08121
620.2,1809.6,2.8925,2.1083
620.6,1812,2.8731,2.13604
621,1814.3,2.8529,2.16805
621.4,1816.7,2.8325,2.19707
621.8,1819,2.8124,2.22531
622.2,1821.3,2.792,2.25425
622.6,1823.7,2.771,2.2828
623,1826,2.7498,2.30921
623.4,1828.4,2.7282,2.33894
623.8,1830.7,2.7074,2.36544
624.2,1833.1,2.6847,2.39604
624.6,1835.4,2.6618,2.42133
625,1837.8,2.6391,2.44579
625.4,1840.1,2.6157,2.4757
625.8,1842.5,2.5929,2.49977
626.2,1844.8,2.5693,2.5267
626.6,1847.2,2.5451,2.55005
627,1849.5,2.5198,2.57488
627.4,1851.8,2.4953,2.59798
627.8,1854.2,2.4722,2.62084
628.2,1856.5,2.4466,2.64529
628.6,1858.9,2.4203,2.6703
629,1861.2,2.3949,2.68571
629.4,1863.6,2.3678,2.70922
629.8,1865.9,2.3413,2.72569
630.2,1868.3,2.3135,2.74778
630.6,1870.6,2.2877,2.76266
631,1873,2.2612,2.77985
631.4,1875.3,2.234,2.797
631.8,1877.7,2.2056,2.80988
632.2,1880,2.178,2.82191
632.6,1882.4,2.1504,2.83577
633,1884.7,2.1225,2.84777
633.4,1887.1,2.0949,2.85852
633.8,1889.4,2.067,2.86994
634.2,1891.8,2.0377,2.87763
634.6,1894.1,2.0084,2.88139
635,1896.4,1.9798,2.88467
635.4,1898.8,1.9516,2.88588
635.8,1901.1,1.9222,2.88627
636.2,1903.4,1.8936,2.88265
636.6,1905.8,1.8646,2.88074
637,1908.1,1.8369,2.87219
637.4,1910.5,1.8087,2.86869
637.8,1912.8,1.7795,2.86933
638.2,1915.1,1.7508,2.85308
638.6,1917.4,1.7214,2.83296
639,1919.8,1.6933,2.81698
639.4,1922.1,1.6649,2.80735
639.8,1924.4,1.6345,2.8435
640.2,1926.8,1.6056,2.84878
640.6,1929.1,1.576,2.83269
641,1931.5,1.5476,2.82132
641.4,1933.8,1.5198,2.81543
641.8,1936.1,1.4917,2.80649
642.2,1938.5,1.4629,2.78789
642.6,1940.8,1.4345,2.79058
643,1943.1,1.4063,2.80225
643.4,1945.4,1.3785,2.78004
643.8,1947.8,1.3512,2.7646
644.2,1950.1,1.3231,2.76689
644.6,1952.4,1.2951,2.73822
645,1954.8,1.2678,2.73739
645.4,1957.1,1.2405,2.70623
645.8,1959.4,1.213,2.69401
646.2,1961.7,1.1861,2.66758
646.6,1964,1.1596,2.65658
647,1966.4,1.1326,2.63067
647.4,1968.7,1.1055,2.59821
647.8,1971,1.0786,2.57714
648.2,1973.3,1.0521,2.54388
648.6,1975.7,1.0269,2.51999
649,1978,1.0007,2.48689
649.4,1980.3,0.9761,2.45716
649.8,1982.6,0.9508,2.43156
650.2,1984.9,0.9262,2.39757
650.6,1987.3,0.9022,2.3643
651,1989.6,0.8783,2.3288
651.4,1991.9,0.8549,2.3038
651.8,1994.2,0.8319,2.27321
652.2,1996.5,0.8073,2.24449
652.6,1998.8,0.7828,2.20513
653,2001.1,0.7607,2.17341
653.4,2003.5,0.7386,2.13991
653.8,2005.8,0.7165,2.10408
654.2,2008.1,0.6951,2.06486
654.6,2010.4,0.6744,2.03103
655,2012.7,0.654,1.9955
655.4,2015,0.6326,1.95811
655.8,2017.3,0.6124,1.92096
656.2,2019.6,0.5929,1.89098
656.6,2021.9,0.5744,1.85165
657,2024.3,0.5565,1.8149
657.4,2026.6,0.5369,1.78437
657.8,2028.9,0.5182,1.74795
658.2,2031.2,0.5007,1.7108
658.6,2033.5,0.4831,1.67247
659,2035.8,0.4653,1.64035
659.4,2038.1,0.4481,1.60405
659.8,2040.4,0.4322,1.56891
660.2,2042.8,0.4152,1.5305
660.6,2045.1,0.3997,1.49403
661,2047.4,0.3844,1.45876
661.4,2049.7,0.3683,1.42493
661.8,2052,0.3531,1.38732
662.2,2054.3,0.3392,1.35146
662.6,2056.6,0.3258,1.31085
663,2058.9,0.3114,1.28053
663.4,2061.2,0.2982,1.24529
663.8,2063.6,0.2858,1.21439
664.2,2065.9,0.2739,1.18011
664.6,2068.2,0.2604,1.14933
665,2070.5,0.2483,1.11901
665.4,2072.8,0.2372,1.08463
665.8,2075.1,0.2247,1.05407
666.2,2077.4,0.2142,1.02536
666.6,2079.7,0.2038,1.00103
667,2082.1,0.1936,0.97161
667.4,2084.4,0.1837,0.94296
667.8,2086.6,0.1732,0.91459
668.2,2089,0.1637,0.88713
668.6,2091.3,0.1545,0.86101
669,2093.6,0.1468,0.83366
669.4,2095.9,0.1379,0.80729
669.8,2098.2,0.129,0.78157
670.2,2100.6,0.1208,0.75711
670.6,2102.9,0.1113,0.73219
671,2105.2,0.1043,0.70958
671.4,2107.6,0.0958,0.68836
671.8,2109.9,0.0881,0.66297
672.2,2112.2,0.08,0.63927
672.6,2114.5,0.0733,0.62045
673,2116.9,0.0672,0.59803
673.4,2119.2,0.0593,0.57866
673.8,2121.5,0.0541,0.55618
674.2,2123.8,0.0491,0.53761
674.6,2126.2,0.0434,0.51571
675,2128.5,0.0374,0.49829
675.4,2130.8,0.0327,0.48129
675.8,2133.1,0.0279,0.46156
676.2,2135.5,0.0235,0.44222
676.6,2137.8,0.0188,0.42878
677,2140.1,0.0138,0.4104
677.4,2142.5,0.0091,0.3948
677.8,2144.8,0.0051,0.37933
678.2,2147.1,0.0023,0.36454
678.6,2149.4,-0.0018,0.35014
679,2151.8,-0.0065,0.33737
679.4,2154.1,-0.0097,0.32356
679.8,2156.4,-0.0122,0.30966
680.2,2158.8,-0.0155,0.29611
680.6,2161.1,-0.0193,0.28702
681,2163.4,-0.023,0.27428
681.4,2165.8,-0.0251,0.26281
681.8,2168.1,-0.0286,0.25017
682.2,2170.5,-0.0323,0.24049
682.6,2172.8,-0.0352,0.23309
683,2175.1,-0.0365,0.21939
683.4,2177.5,-0.0388,0.21288
683.8,2179.8,-0.0411,0.20342
684.2,2182.1,-0.0417,0.19665
684.6,2184.5,-0.0449,0.18729
685,2186.8,-0.0451,0.17757
685.4,2189.1,-0.0473,0.17268
685.8,2191.5,-0.0498,0.16513
686.2,2193.8,-0.0513,0.15771
686.6,2196.2,-0.0538,0.15187
687,2198.5,-0.0559,0.14263
687.4,2200.8,-0.0574,0.13965
687.8,2203.2,-0.0592,0.13272
688.2,2205.5,-0.0607,0.12463
688.6,2207.9,-0.0635,0.12099
689,2210.2,-0.0649,0.11554
689.4,2212.5,-0.0664,0.11065
689.8,2214.9,-0.0678,0.10549
690.2,2217.2,-0.0691,0.10268
690.6,2219.6,-0.0697,9.92E-02
691,2221.9,-0.0701,9.49E-02
691.4,2224.3,-0.0714,8.84E-02
691.8,2226.6,-0.0714,8.72E-02
692.2,2229,-0.0727,8.44E-02
692.6,2231.3,-0.074,8.23E-02
693,2233.7,-0.0749,8.00E-02
693.4,2236,-0.0749,7.80E-02
693.8,2238.4,-0.0758,7.77E-02
694.2,2240.7,-0.0772,7.52E-02
694.6,2243,-0.0771,7.50E-02
695,2245.4,-0.0784,7.37E-02
695.4,2247.7,-0.0784,7.33E-02
695.8,2250.1,-0.0795,7.23E-02
696.2,2252.4,-0.0797,7.46E-02
696.6,2254.8,-0.081,7.58E-02
697,2257.1,-0.0819,7.61E-02
697.4,2259.5,-0.0823,7.19E-02
697.8,2261.8,-0.0823,7.49E-02
698.2,2264.2,-0.0833,7.46E-02
698.6,2266.5,-0.0837,7.59E-02
699,2268.9,-0.085,7.64E-02
699.4,2271.2,-0.085,7.54E-02
699.8,2273.6,-0.0849,7.27E-02
700.2,2275.9,-0.0863,7.38E-02
700.6,2278.3,-0.0863,7.19E-02
701,2280.6,-0.085,6.94E-02
701.4,2283,-0.0863,6.74E-02
701.8,2285.3,-0.0863,6.94E-02
702.2,2287.7,-0.0871,6.49E-02
702.6,2290,-0.0876,6.54E-02
703,2292.4,-0.0886,6.35E-02
703.4,2294.7,-0.0886,6.20E-02
703.8,2297.1,-0.0898,5.94E-02
704.2,2299.4,-0.0899,5.87E-02
704.6,2301.8,-0.09,5.57E-02
705,2304.1,-0.0902,5.65E-02
705.4,2306.5,-0.0902,5.09E-02
705.8,2308.8,-0.0902,4.90E-02
706.2,2311.2,-0.0905,4.69E-02
706.6,2313.5,-0.0921,4.73E-02
707,2315.9,-0.0929,4.17E-02
707.4,2318.2,-0.0916,3.83E-02
707.8,2320.6,-0.0915,3.45E-02
708.2,2323,-0.0915,3.05E-02
708.6,2325.3,-0.0915,2.53E-02
709,2327.7,-0.0915,1.92E-02
709.4,2330,-0.0916,1.13E-02
709.8,2332.4,-0.0916,4.30E-03
710.2,2334.7,-0.0902,-2.35E-03
710.6,2337.1,-0.0902,-1.31E-02
711,2339.4,-0.0909,-2.15E-02
711.4,2341.8,-0.0912,-2.83E-02
711.8,2344.1,-0.0912,-3.19E-02
712.2,2346.5,-0.0912,-3.23E-02
712.6,2348.9,-0.091,-3.64E-02
713,2351.2,-0.0909,-3.41E-02
713.4,2353.6,-0.0909,-3.47E-02
713.8,2356,-0.0922,-3.27E-02
714.2,2358.3,-0.0922,-2.91E-02
714.6,2360.7,-0.0922,-2.65E-02
715,2363,-0.0922,-2.02E-02
715.4,2365.4,-0.0922,-1.95E-02
715.8,2367.8,-0.0922,-1.73E-02
716.2,2370.1,-0.0922,-1.28E-02
716.6,2372.5,-0.0933,-1.16E-02
717,2374.9,-0.0935,-1.05E-02
717.4,2377.2,-0.0935,-6.41E-03
717.8,2379.6,-0.0935,-5.97E-03
718.2,2382,-0.0935,-6.44E-03
718.6,2384.3,-0.0929,-3.25E-03
719,2386.7,-0.0929,-3.93E-03
719.4,2389,-0.0922,-4.88E-03
719.8,2391.4,-0.0929,-5.33E-03
720.2,2393.8,-0.0929,-1.48E-03
720.6,2396.1,-0.0929,-8.83E-04
721,2398.5,-0.0932,-1.03E-03
721.4,2400.8,-0.0942,-1.33E-03
721.8,2403.2,-0.0942,1.22E-04
722.2,2405.6,-0.093,1.08E-03
722.6,2407.9,-0.0929,9.23E-04
723,2410.3,-0.0928,-2.70E-03
723.4,2412.7,-0.0915,2.24E-03
723.8,2415,-0.0915,1.04E-03
724.2,2417.4,-0.0915,2.25E-03
724.6,2419.8,-0.0928,3.26E-03
725,2422.1,-0.0929,2.55E-03
725.4,2424.5,-0.0929,3.64E-03
725.8,2426.9,-0.0929,6.24E-03
726.2,2429.2,-0.0929,5.43E-03
726.6,2431.6,-0.0929,2.92E-03
727,2434,-0.0929,5.76E-03
727.4,2436.3,-0.0929,7.36E-03
727.8,2438.7,-0.0928,5.64E-03
728.2,2441,-0.0901,8.90E-03
728.6,2443.4,-0.0902,9.14E-03
729,2445.8,-0.092,1.28E-02
729.4,2448.1,-0.0922,8.24E-03
729.8,2450.5,-0.0922,9.95E-03
730.2,2452.9,-0.0918,9.99E-03
730.6,2455.2,-0.0909,9.77E-03
731,2457.6,-0.0909,1.25E-02
731.4,2460,-0.0909,1.13E-02
731.8,2462.3,-0.0909,1.11E-02
732.2,2464.7,-0.0909,8.93E-03
732.6,2467.1,-0.0909,1.08E-02
733,2469.4,-0.0909,1.15E-02
733.4,2471.8,-0.0914,1.29E-02
733.8,2474.2,-0.0926,1.32E-02
734.2,2476.6,-0.0932,1.21E-02
734.6,2478.9,-0.0932,1.16E-02
735,2481.3,-0.0932,1.31E-02
735.4,2483.7,-0.0932,1.31E-02
735.8,2486,-0.0928,1.29E-02
736.2,2488.4,-0.0929,1.05E-02
736.6,2490.8,-0.0929,1.34E-02
737,2493.1,-0.0929,1.22E-02
737.4,2495.5,-0.0929,1.39E-02
737.8,2497.8,-0.0929,1.03E-02
738.2,2500.2,-0.0929,1.14E-02
738.6,2502.5,-0.0929,1.31E-02
739,2504.9,-0.0926,1.35E-02
739.4,2507.3,-0.0925,1.27E-02
739.8,2509.6,-0.0925,1.15E-02
740.2,2512,-0.0925,1.39E-02
740.6,2514.4,-0.0925,1.26E-02
741,2516.8,-0.0939,1.31E-02
741.4,2519.1,-0.0939,1.21E-02
741.8,2521.5,-0.0938,1.53E-02
742.2,2523.9,-0.0938,1.24E-02
742.6,2526.3,-0.0929,1.42E-02
743,2528.7,-0.0929,1.43E-02
743.4,2531.1,-0.0929,1.27E-02
743.8,2533.4,-0.0935,1.27E-02
744.2,2535.8,-0.0935,1.47E-02
744.6,2538.2,-0.0932,1.82E-02
745,2540.6,-0.0932,1.76E-02
745.4,2542.9,-0.0932,2.00E-02
745.8,2545.3,-0.0932,1.67E-02
746.2,2547.7,-0.0932,1.92E-02
746.6,2550,-0.0932,1.96E-02
747,2552.4,-0.0932,1.67E-02
747.4,2554.8,-0.0932,1.90E-02
747.8,2557.1,-0.0932,1.88E-02
748.2,2559.5,-0.0926,1.96E-02
748.6,2561.9,-0.0925,1.92E-02
749,2564.2,-0.0925,1.94E-02
749.4,2566.6,-0.0926,2.04E-02
749.8,2569,-0.0912,2.04E-02
750.2,2571.3,-0.0912,2.03E-02
750.6,2573.7,-0.0911,2.14E-02
751,2576.1,-0.0911,2.07E-02
751.4,2578.4,-0.0912,2.04E-02
751.8,2580.8,-0.0919,1.94E-02
752.2,2583.2,-0.0925,1.70E-02
752.6,2585.6,-0.0925,2.26E-02
753,2587.9,-0.0925,2.13E-02
753.4,2590.3,-0.0925,2.06E-02
753.8,2592.7,-0.0925,2.13E-02
754.2,2595,-0.0925,2.18E-02
754.6,2597.4,-0.0919,2.11E-02
755,2599.8,-0.0912,2.15E-02
755.4,2602.2,-0.0925,2.19E-02
755.8,2604.5,-0.0925,2.16E-02
756.2,2606.9,-0.0925,2.19E-02
756.6,2609.3,-0.0935,2.26E-02
757,2611.6,-0.0935,2.23E-02
757.4,2614,-0.0935,2.14E-02
757.8,2616.4,-0.0935,2.56E-02
758.2,2618.7,-0.0935,2.42E-02
758.6,2621.1,-0.0935,2.47E-02
759,2623.5,-0.0935,2.38E-02
759.4,2625.8,-0.0935,2.68E-02
759.8,2628.2,-0.0935,2.49E-02
760.2,2630.6,-0.0929,2.74E-02
760.6,2633,-0.0922,2.70E-02
761,2635.3,-0.0922,2.62E-02
761.4,2637.7,-0.093,2.45E-02
761.8,2640.1,-0.0939,2.73E-02
762.2,2642.5,-0.0942,2.86E-02
762.6,2644.8,-0.0942,2.88E-02
763,2647.2,-0.0942,2.96E-02
763.4,2649.6,-0.0942,3.20E-02
763.8,2651.9,-0.0942,2.70E-02
764.2,2654.3,-0.0942,3.04E-02
764.6,2656.7,-0.0942,3.09E-02
765,2659,-0.0942,3.08E-02
765.4,2661.4,-0.0928,3.16E-02
765.8,2663.8,-0.0929,3.08E-02
766.2,2666.2,-0.0929,3.19E-02
766.6,2668.5,-0.0924,2.93E-02
767,2670.9,-0.0915,3.14E-02
767.4,2673.3,-0.0915,3.31E-02
767.8,2675.6,-0.0915,3.08E-02
768.2,2678,-0.0915,3.55E-02
768.6,2680.4,-0.0928,3.51E-02
769,2682.8,-0.0915,3.56E-02
769.4,2685.1,-0.0915,3.35E-02
769.8,2687.5,-0.0927,3.44E-02
770.2,2689.9,-0.0915,3.40E-02
770.6,2692.3,-0.0915,3.34E-02
771,2694.6,-0.0922,3.53E-02
771.4,2697,-0.0922,2.97E-02
771.8,2699.4,-0.0922,3.58E-02
772.2,2701.7,-0.0922,3.74E-02
772.6,2704.1,-0.0922,3.69E-02
773,2706.4,-0.0922,3.79E-02
773.4,2708.8,-0.0922,3.67E-02
773.8,2711.2,-0.0922,3.77E-02
774.2,2713.6,-0.0922,3.69E-02
774.6,2715.9,-0.0922,3.95E-02
775,2718.3,-0.0908,3.67E-02
775.4,2720.7,-0.091,3.79E-02
775.8,2723.1,-0.0922,3.52E-02
776.2,2725.5,-0.0922,3.70E-02
776.6,2727.8,-0.092,3.78E-02
777,2730.2,-0.0909,4.10E-02
777.4,2732.6,-0.0912,3.80E-02
777.8,2735,-0.0919,3.82E-02
778.2,2737.3,-0.0922,4.09E-02
778.6,2739.7,-0.0922,3.80E-02
779,2742.1,-0.0935,3.78E-02
779.4,2744.5,-0.0935,4.07E-02
779.8,2746.8,-0.0922,3.84E-02
780.2,2749.2,-0.0922,4.02E-02
780.6,2751.6,-0.0922,4.04E-02
781,2754,-0.0922,4.03E-02
781.4,2756.3,-0.0922,4.43E-02
781.8,2758.7,-0.0922,4.34E-02
782.2,2761.1,-0.0922,4.12E-02
782.6,2763.5,-0.0922,4.04E-02
783,2765.9,-0.0922,4.21E-02
783.4,2768.3,-0.0922,4.33E-02
783.8,2770.6,-0.0929,4.18E-02
784.2,2773,-0.0929,4.30E-02
784.6,2775.4,-0.0929,4.11E-02
785,2777.8,-0.0922,4.35E-02
785.4,2780.2,-0.0922,4.24E-02
785.8,2782.6,-0.0909,4.04E-02
786.2,2785,-0.0908,4.43E-02
786.6,2787.3,-0.0922,4.22E-02
787,2789.7,-0.0928,4.18E-02
787.4,2792.1,-0.0922,4.28E-02
787.8,2794.5,-0.0918,4.63E-02
788.2,2796.9,-0.0909,4.30E-02
788.6,2799.3,-0.0908,4.33E-02
789,2801.6,-0.0922,4.26E-02
789.4,2804,-0.0922,4.82E-02
789.8,2806.4,-0.0922,4.70E-02
790.2,2808.8,-0.0921,4.80E-02
790.6,2811.2,-0.0935,4.68E-02
791,2813.6,-0.0935,4.52E-02
791.4,2816,-0.0935,4.61E-02
791.8,2818.3,-0.0935,4.73E-02
792.2,2820.7,-0.0935,4.84E-02
792.6,2823.1,-0.0935,5.06E-02
793,2825.5,-0.0935,4.81E-02
793.4,2827.9,-0.0935,4.87E-02
793.8,2830.2,-0.0922,4.87E-02
794.2,2832.6,-0.0922,4.54E-02
794.6,2835,-0.0922,4.95E-02
795,2837.4,-0.0922,4.98E-02
795.4,2839.8,-0.0922,4.93E-02
795.8,2842.2,-0.0922,4.86E-02
796.2,2844.6,-0.0922,4.91E-02
796.6,2846.9,-0.0919,5.10E-02
797,2849.3,-0.0912,4.98E-02
797.4,2851.7,-0.0909,5.14E-02
797.8,2854.1,-0.0909,5.05E-02
798.2,2856.5,-0.0909,5.00E-02
798.6,2858.9,-0.0909,5.08E-02
799,2861.3,-0.0916,5.37E-02
799.4,2863.6,-0.0922,5.42E-02
799.8,2866,-0.0933,5.23E-02
800.2,2868.4,-0.0932,5.45E-02
800.6,2870.8,-0.0932,5.38E-02
801,2873.2,-0.0932,5.27E-02
801.4,2875.6,-0.0932,5.43E-02
801.8,2878,-0.0932,5.42E-02
802.2,2880.4,-0.0932,5.26E-02
802.6,2882.7,-0.0932,5.40E-02
803,2885.1,-0.0925,5.39E-02
803.4,2887.5,-0.0925,5.31E-02
803.8,2889.9,-0.0925,5.34E-02
804.2,2892.3,-0.0925,5.32E-02
804.6,2894.7,-0.0925,5.51E-02
805,2897.1,-0.0925,5.31E-02
805.4,2899.5,-0.0924,5.06E-02
805.8,2901.8,-0.0938,5.29E-02
806.2,2904.2,-0.0938,5.49E-02
806.6,2906.6,-0.0924,5.13E-02
807,2909,-0.0925,5.42E-02
807.4,2911.4,-0.0925,5.31E-02
807.8,2913.8,-0.0926,5.61E-02
808.2,2916.2,-0.0925,5.74E-02
808.6,2918.5,-0.0925,5.76E-02
809,2920.9,-0.0925,5.59E-02
809.4,2923.3,-0.0931,5.72E-02
809.8,2925.7,-0.0938,5.56E-02
810.2,2928.1,-0.0937,5.75E-02
810.6,2930.5,-0.0923,5.73E-02
811,2932.9,-0.0915,5.78E-02
811.4,2935.3,-0.0927,5.65E-02
811.8,2937.7,-0.0929,5.90E-02
812.2,2940.1,-0.0929,5.82E-02
812.6,2942.5,-0.0933,5.59E-02
813,2944.9,-0.0942,5.81E-02
813.4,2947.3,-0.0942,5.98E-02
813.8,2949.7,-0.0929,5.55E-02
814.2,2952.1,-0.0929,6.04E-02
814.6,2954.4,-0.0929,6.13E-02
815,2956.8,-0.0922,5.91E-02
815.4,2959.2,-0.0909,5.70E-02
815.8,2961.6,-0.0902,6.11E-02
816.2,2964,-0.0916,5.66E-02
816.6,2966.4,-0.0915,5.91E-02
817,2968.8,-0.0915,6.19E-02
817.4,2971.2,-0.0929,5.78E-02
817.8,2973.6,-0.0929,5.81E-02
818.2,2976,-0.0929,5.86E-02
818.6,2978.4,-0.0919,6.12E-02
819,2980.8,-0.0915,6.17E-02
819.4,2983.2,-0.0915,6.17E-02
819.8,2985.6,-0.0915,6.05E-02
820.2,2988,-0.0928,5.95E-02
820.6,2990.3,-0.0929,6.11E-02
821,2992.7,-0.0929,6.15E-02
821.4,2995.1,-0.0929,6.08E-02
821.8,2997.5,-0.0929,6.11E-02
822.1,2999.4,-0.0929,5.95E-02