File: PMMA/Calibration_Data/FSRI/FSRI_STA_N2_10K_1.csv
Temp,time,TGA,DSC
[K],[s],[mg],[mW/mg]
322.8,0.0,3.9785,-3.57E-03
323.2,36.8,3.9789,1.92E-02
323.6,47.2,3.9794,4.04E-02
324.0,54.2,3.9785,5.73E-02
324.4,59.9,3.9798,7.13E-02
324.8,65.0,3.9801,8.66E-02
325.2,69.6,3.9813,9.84E-02
325.6,73.8,3.9792,0.10937
326.0,77.9,3.9797,0.11758
326.4,81.8,3.9793,0.1289
326.8,85.5,3.9793,0.1373
327.2,89.1,3.9800,0.14585
327.6,92.5,3.9804,0.15241
328.0,95.8,3.9801,0.15837
328.4,99.0,3.9788,0.16365
328.8,102.2,3.9804,0.16941
329.2,105.3,3.9800,0.17367
329.6,108.3,3.9785,0.17923
330.0,111.3,3.9781,0.1838
330.4,114.2,3.9782,0.18898
330.8,117.1,3.9782,0.19223
331.2,120.0,3.9771,0.19588
331.6,122.9,3.9785,0.19886
332.0,125.7,3.9795,0.2008
332.4,128.5,3.9803,0.20573
332.8,131.3,3.9803,0.20678
333.2,134.1,3.9803,0.20877
333.6,136.8,3.9804,0.21325
334.0,139.5,3.9815,0.21454
334.4,142.2,3.9804,0.2154
334.8,144.9,3.9792,0.21755
335.2,147.6,3.9790,0.22064
335.6,150.3,3.9791,0.21978
336.0,153.0,3.9790,0.22176
336.4,155.6,3.9776,0.22559
336.8,158.3,3.9770,0.22718
337.2,161.0,3.9777,0.22786
337.6,163.6,3.9776,0.22967
338.0,166.2,3.9790,0.232
338.4,168.9,3.9789,0.23169
338.8,171.5,3.9803,0.23418
339.2,174.1,3.9802,0.23501
339.6,176.7,3.9797,0.23622
340.0,179.3,3.9805,0.23445
340.4,181.9,3.9810,0.23844
340.8,184.5,3.9803,0.23865
341.2,187.1,3.9793,0.23938
341.6,189.7,3.9792,0.24187
342.0,192.3,3.9790,0.24092
342.4,194.9,3.9789,0.24329
342.8,197.4,3.9803,0.24476
343.2,200.0,3.9790,0.2442
343.6,202.5,3.9789,0.24683
344.0,205.1,3.9777,0.24612
344.4,207.7,3.9790,0.24656
344.8,210.2,3.9790,0.24948
345.2,212.8,3.9787,0.24881
345.6,215.3,3.9777,0.25299
346.0,217.8,3.9790,0.25399
346.4,220.4,3.9776,0.25461
346.8,222.9,3.9790,0.25641
347.2,225.4,3.9783,0.25821
347.6,228.0,3.9790,0.2587
348.0,230.5,3.9790,0.2599
348.4,233.0,3.9790,0.26074
348.8,235.5,3.9804,0.26579
349.2,238.0,3.9803,0.2636
349.6,240.5,3.9797,0.26402
350.0,243.0,3.9790,0.26468
350.4,245.5,3.9777,0.26782
350.8,248.0,3.9777,0.2669
351.2,250.5,3.9777,0.26547
351.6,253.0,3.9790,0.26704
352.0,255.4,3.9790,0.26857
352.4,257.9,3.9803,0.27134
352.8,260.4,3.9797,0.27103
353.2,262.9,3.9803,0.27109
353.6,265.4,3.9789,0.26967
354.0,267.9,3.9790,0.2685
354.4,270.4,3.9790,0.27067
354.8,272.8,3.9797,0.2697
355.2,275.3,3.9790,0.26897
355.6,277.7,3.9792,0.26964
356.0,280.2,3.9790,0.27014
356.4,282.6,3.9790,0.2709
356.8,285.1,3.9790,0.26716
357.2,287.5,3.9790,0.26927
357.6,290.0,3.9797,0.26851
358.0,292.4,3.9803,0.26728
358.4,294.9,3.9803,0.26762
358.8,297.3,3.9800,0.26882
359.2,299.7,3.9800,0.26957
359.6,302.2,3.9801,0.26683
360.0,304.6,3.9787,0.26914
360.4,307.0,3.9786,0.26814
360.8,309.4,3.9773,0.26905
361.2,311.9,3.9777,0.26862
361.6,314.3,3.9790,0.27033
362.0,316.7,3.9790,0.26726
362.4,319.1,3.9790,0.26918
362.8,321.5,3.9790,0.2705
363.2,323.9,3.9790,0.26953
363.6,326.3,3.9777,0.2722
364.0,328.7,3.9777,0.27145
364.4,331.1,3.9777,0.27342
364.8,333.5,3.9767,0.27601
365.2,335.9,3.9767,0.27484
365.6,338.3,3.9767,0.27672
366.0,340.7,3.9780,0.27472
366.4,343.1,3.9780,0.27634
366.8,345.5,3.9790,0.27567
367.2,347.9,3.9777,0.27725
367.6,350.2,3.9779,0.2791
368.0,352.6,3.9779,0.2789
368.4,355.0,3.9790,0.27884
368.8,357.4,3.9777,0.28084
369.2,359.8,3.9777,0.28097
369.6,362.2,3.9788,0.28101
370.0,364.6,3.9784,0.28093
370.4,367.0,3.9777,0.28082
370.8,369.3,3.9791,0.28361
371.2,371.7,3.9790,0.28205
371.6,374.1,3.9790,0.28326
372.0,376.4,3.9775,0.28439
372.4,378.8,3.9787,0.2848
372.8,381.2,3.9787,0.28581
373.2,383.6,3.9787,0.28637
373.6,385.9,3.9785,0.28732
374.0,388.3,3.9790,0.28767
374.4,390.7,3.9790,0.28775
374.8,393.0,3.9790,0.29052
375.2,395.4,3.9790,0.29063
375.6,397.8,3.9790,0.29156
376.0,400.1,3.9784,0.29423
376.4,402.5,3.9790,0.29388
376.8,404.8,3.9790,0.29387
377.2,407.2,3.9790,0.29499
377.6,409.5,3.9787,0.29468
378.0,411.9,3.9777,0.29891
378.4,414.2,3.9763,0.29866
378.8,416.6,3.9764,0.29992
379.2,418.9,3.9767,0.30257
379.6,421.3,3.9779,0.30142
380.0,423.6,3.9792,0.30292
380.4,426.0,3.9792,0.30468
380.8,428.3,3.9792,0.3037
381.2,430.7,3.9779,0.30526
381.6,433.0,3.9766,0.30621
382.0,435.4,3.9766,0.3075
382.4,437.7,3.9766,0.30966
382.8,440.1,3.9766,0.31006
383.2,442.4,3.9766,0.31117
383.6,444.8,3.9766,0.31257
384.0,447.1,3.9739,0.31364
384.4,449.4,3.9740,0.31206
384.8,451.8,3.9753,0.31537
385.2,454.1,3.9765,0.31864
385.6,456.5,3.9767,0.3158
386.0,458.8,3.9765,0.31918
386.4,461.2,3.9766,0.32021
386.8,463.5,3.9766,0.32021
387.2,465.9,3.9764,0.31982
387.6,468.2,3.9776,0.32501
388.0,470.6,3.9771,0.32319
388.4,472.9,3.9766,0.32561
388.8,475.2,3.9766,0.32532
389.2,477.6,3.9766,0.32864
389.6,479.9,3.9779,0.32973
390.0,482.3,3.9779,0.33133
390.4,484.6,3.9779,0.33188
390.8,487.0,3.9765,0.33457
391.2,489.3,3.9766,0.33739
391.6,491.7,3.9752,0.3384
392.0,494.0,3.9753,0.33976
392.4,496.3,3.9753,0.34094
392.8,498.7,3.9753,0.34446
393.2,501.0,3.9753,0.34717
393.6,503.4,3.9759,0.34692
394.0,505.7,3.9763,0.34821
394.4,508.1,3.9753,0.351
394.8,510.4,3.9753,0.35265
395.2,512.7,3.9753,0.35472
395.6,515.1,3.9753,0.35811
396.0,517.4,3.9753,0.35939
396.4,519.7,3.9753,0.36057
396.8,522.1,3.9755,0.36293
397.2,524.4,3.9753,0.36347
397.6,526.8,3.9759,0.36807
398.0,529.1,3.9759,0.36841
398.4,531.4,3.9759,0.36922
398.8,533.7,3.9759,0.37075
399.2,536.1,3.9759,0.37335
399.6,538.4,3.9746,0.3748
400.0,540.7,3.9753,0.37639
400.4,543.1,3.9753,0.37749
400.8,545.4,3.9753,0.37714
401.2,547.7,3.9746,0.37695
401.6,550.1,3.9746,0.37818
402.0,552.4,3.9746,0.38188
402.4,554.7,3.9747,0.38284
402.8,557.0,3.9739,0.38273
403.2,559.4,3.9745,0.38535
403.6,561.7,3.9746,0.38401
404.0,564.0,3.9746,0.3855
404.4,566.4,3.9743,0.38615
404.8,568.7,3.9730,0.38576
405.2,571.0,3.9730,0.38719
405.6,573.3,3.9730,0.38979
406.0,575.7,3.9732,0.38789
406.4,578.0,3.9736,0.39069
406.8,580.3,3.9735,0.38746
407.2,582.6,3.9726,0.39007
407.6,584.9,3.9726,0.38946
408.0,587.3,3.9726,0.38815
408.4,589.7,3.9723,0.39285
408.8,592.0,3.9724,0.39068
409.2,594.3,3.9710,0.39012
409.6,596.7,3.9710,0.39117
410.0,599.0,3.9710,0.39297
410.4,601.3,3.9710,0.39266
410.8,603.6,3.9713,0.39222
411.2,605.9,3.9713,0.39183
411.6,608.2,3.9713,0.39432
412.0,610.5,3.9726,0.39348
412.4,612.8,3.9714,0.3955
412.8,615.2,3.9713,0.39458
413.2,617.5,3.9713,0.39666
413.6,619.9,3.9713,0.39566
414.0,622.2,3.9713,0.39699
414.4,624.5,3.9713,0.39949
414.8,626.9,3.9723,0.39908
415.2,629.2,3.9723,0.39627
415.6,631.5,3.9723,0.39942
416.0,633.8,3.9716,0.39761
416.4,636.1,3.9710,0.39815
416.8,638.4,3.9710,0.39947
417.2,640.8,3.9701,0.40116
417.6,643.1,3.9697,0.40035
418.0,645.4,3.9697,0.40239
418.4,647.7,3.9696,0.39996
418.8,650.0,3.9684,0.40216
419.2,652.4,3.9698,0.40262
419.6,654.7,3.9708,0.40184
420.0,657.0,3.9711,0.40112
420.4,659.3,3.9699,0.40299
420.8,661.6,3.9698,0.40317
421.2,663.9,3.9698,0.40428
421.6,666.2,3.9694,0.40675
422.0,668.5,3.9685,0.40674
422.4,670.9,3.9685,0.40494
422.8,673.2,3.9685,0.40699
423.2,675.5,3.9685,0.40687
423.6,677.8,3.9685,0.4098
424.0,680.1,3.9671,0.4098
424.4,682.4,3.9671,0.40854
424.8,684.7,3.9671,0.40907
425.2,687.0,3.9685,0.41236
425.6,689.3,3.9685,0.41205
426.0,691.6,3.9672,0.41379
426.4,694.0,3.9671,0.41444
426.8,696.3,3.9671,0.41418
427.2,698.6,3.9671,0.41526
427.6,700.9,3.9672,0.41838
428.0,703.2,3.9685,0.41761
428.4,705.5,3.9671,0.41933
428.8,707.8,3.9665,0.4209
429.2,710.1,3.9658,0.42046
429.6,712.4,3.9658,0.42179
430.0,714.7,3.9658,0.42035
430.4,717.0,3.9658,0.4228
430.8,719.3,3.9658,0.42448
431.2,721.6,3.9642,0.42488
431.6,723.9,3.9638,0.42665
432.0,726.2,3.9630,0.42613
432.4,728.6,3.9630,0.42738
432.8,730.9,3.9630,0.42739
433.2,733.2,3.9617,0.43
433.6,735.5,3.9623,0.42796
434.0,737.8,3.9623,0.43067
434.4,740.1,3.9623,0.43108
434.8,742.4,3.9614,0.43123
435.2,744.7,3.9597,0.43278
435.6,747.0,3.9597,0.43467
436.0,749.3,3.9597,0.43536
436.4,751.6,3.9597,0.43516
436.8,753.9,3.9583,0.43886
437.2,756.2,3.9584,0.4388
437.6,758.6,3.9584,0.44211
438.0,760.9,3.9584,0.44311
438.4,763.2,3.9584,0.44433
438.8,765.5,3.9589,0.44475
439.2,767.8,3.9597,0.4445
439.6,770.1,3.9592,0.44672
440.0,772.4,3.9582,0.44946
440.4,774.7,3.9571,0.44816
440.8,777.0,3.9557,0.45306
441.2,779.3,3.9544,0.45499
441.6,781.6,3.9546,0.45654
442.0,783.9,3.9557,0.45522
442.4,786.2,3.9555,0.45908
442.8,788.6,3.9544,0.45993
443.2,790.9,3.9535,0.4607
443.6,793.2,3.9534,0.46214
444.0,795.5,3.9535,0.46334
444.4,797.8,3.9521,0.46607
444.8,800.1,3.9521,0.46641
445.2,802.4,3.9508,0.46725
445.6,804.7,3.9508,0.47129
446.0,807.0,3.9508,0.47144
446.4,809.3,3.9495,0.47231
446.8,811.6,3.9495,0.4744
447.2,813.9,3.9492,0.47656
447.6,816.2,3.9504,0.47845
448.0,818.5,3.9495,0.48024
448.4,820.8,3.9482,0.48326
448.8,823.1,3.9478,0.48414
449.2,825.4,3.9451,0.48531
449.6,827.7,3.9452,0.48617
450.0,830.0,3.9452,0.48798
450.4,832.3,3.9444,0.48746
450.8,834.6,3.9439,0.49014
451.2,836.9,3.9426,0.49034
451.6,839.2,3.9412,0.49182
452.0,841.5,3.9423,0.49269
452.4,843.8,3.9413,0.49509
452.8,846.1,3.9413,0.49603
453.2,848.4,3.9400,0.49735
453.6,850.8,3.9400,0.49798
454.0,853.1,3.9386,0.49813
454.4,855.4,3.9397,0.49892
454.8,857.7,3.9396,0.50142
455.2,860.0,3.9383,0.50067
455.6,862.3,3.9370,0.50353
456.0,864.6,3.9357,0.50343
456.4,866.9,3.9357,0.50478
456.8,869.2,3.9342,0.50576
457.2,871.5,3.9333,0.50702
457.6,873.8,3.9324,0.51051
458.0,876.1,3.9317,0.5097
458.4,878.4,3.9317,0.5098
458.8,880.7,3.9317,0.5114
459.2,882.9,3.9304,0.51261
459.6,885.2,3.9294,0.51065
460.0,887.5,3.9281,0.51127
460.4,889.8,3.9265,0.51313
460.8,892.1,3.9252,0.51205
461.2,894.4,3.9250,0.5124
461.6,896.7,3.9238,0.51286
462.0,899.0,3.9225,0.51376
462.4,901.3,3.9225,0.51197
462.8,903.6,3.9212,0.5116
463.2,905.9,3.9204,0.50874
463.6,908.2,3.9199,0.50792
464.0,910.5,3.9186,0.50889
464.4,912.8,3.9186,0.50808
464.8,915.1,3.9175,0.50587
465.2,917.4,3.9172,0.50538
465.6,919.7,3.9173,0.5067
466.0,922.0,3.9150,0.50571
466.4,924.3,3.9149,0.50364
466.8,926.6,3.9147,0.50348
467.2,928.9,3.9132,0.50031
467.6,931.2,3.9105,0.50043
468.0,933.5,3.9105,0.49951
468.4,935.8,3.9093,0.49716
468.8,938.1,3.9093,0.4991
469.2,940.4,3.9091,0.49828
469.6,942.7,3.9079,0.49864
470.0,945.0,3.9073,0.49641
470.4,947.3,3.9066,0.49537
470.8,949.6,3.9067,0.49666
471.2,951.9,3.9053,0.49741
471.6,954.2,3.9039,0.49691
472.0,956.4,3.9039,0.49534
472.4,958.7,3.9027,0.4958
472.8,961.0,3.9015,0.4943
473.2,963.3,3.9013,0.49543
473.6,965.6,3.9012,0.49511
474.0,967.9,3.9000,0.49768
474.4,970.2,3.9000,0.49654
474.8,972.5,3.8987,0.49565
475.2,974.8,3.8973,0.49938
475.6,977.1,3.8965,0.49707
476.0,979.4,3.8961,0.49988
476.4,981.7,3.8954,0.50051
476.8,984.0,3.8941,0.49969
477.2,986.3,3.8933,0.50079
477.6,988.6,3.8924,0.50318
478.0,990.9,3.8915,0.5035
478.4,993.2,3.8906,0.50315
478.8,995.5,3.8902,0.50343
479.2,997.7,3.8901,0.5045
479.6,1000.0,3.8897,0.50575
480.0,1002.3,3.8888,0.50412
480.4,1004.6,3.8882,0.50712
480.8,1006.9,3.8869,0.50936
481.2,1009.2,3.8868,0.50953
481.6,1011.5,3.8846,0.51231
482.0,1013.8,3.8845,0.51053
482.4,1016.1,3.8832,0.51129
482.8,1018.4,3.8828,0.51368
483.2,1020.7,3.8816,0.51374
483.6,1023.0,3.8816,0.51297
484.0,1025.3,3.8803,0.51381
484.4,1027.6,3.8790,0.51545
484.8,1029.9,3.8793,0.51366
485.2,1032.2,3.8790,0.51351
485.6,1034.5,3.8763,0.51439
486.0,1036.8,3.8763,0.51419
486.4,1039.1,3.8737,0.51394
486.8,1041.4,3.8723,0.51557
487.2,1043.7,3.8724,0.51264
487.6,1046.0,3.8724,0.51104
488.0,1048.3,3.8724,0.51545
488.4,1050.6,3.8710,0.51587
488.8,1052.8,3.8714,0.51258
489.2,1055.1,3.8701,0.50961
489.6,1057.4,3.8701,0.51066
490.0,1059.7,3.8688,0.50907
490.4,1062.0,3.8688,0.50641
490.8,1064.3,3.8674,0.50566
491.2,1066.6,3.8671,0.50494
491.6,1068.9,3.8662,0.50345
492.0,1071.2,3.8651,0.50263
492.4,1073.5,3.8651,0.49941
492.8,1075.7,3.8651,0.49981
493.2,1078.0,3.8651,0.49547
493.6,1080.3,3.8666,0.49363
494.0,1082.6,3.8658,0.48988
494.4,1084.9,3.8653,0.49135
494.8,1087.2,3.8641,0.48887
495.2,1089.5,3.8638,0.4855
495.6,1091.8,3.8638,0.4854
496.0,1094.1,3.8625,0.48389
496.4,1096.3,3.8625,0.48205
496.8,1098.6,3.8625,0.48065
497.2,1100.9,3.8612,0.47949
497.6,1103.2,3.8602,0.47958
498.0,1105.5,3.8599,0.47702
498.4,1107.8,3.8590,0.4759
498.8,1110.0,3.8586,0.4758
499.2,1112.3,3.8586,0.47301
499.6,1114.6,3.8586,0.47505
500.0,1116.9,3.8586,0.47322
500.4,1119.2,3.8597,0.47169
500.8,1121.5,3.8591,0.47119
501.2,1123.7,3.8582,0.47246
501.6,1126.0,3.8582,0.47163
502.0,1128.3,3.8582,0.47039
502.4,1130.6,3.8582,0.46948
502.8,1132.9,3.8582,0.46901
503.2,1135.2,3.8582,0.46993
503.6,1137.5,3.8559,0.47007
504.0,1139.7,3.8559,0.46727
504.4,1142.0,3.8559,0.46602
504.8,1144.3,3.8559,0.46926
505.2,1146.6,3.8559,0.46603
505.6,1148.9,3.8556,0.46988
506.0,1151.2,3.8556,0.46903
506.4,1153.5,3.8556,0.46861
506.8,1155.8,3.8556,0.46794
507.2,1158.1,3.8555,0.46741
507.6,1160.4,3.8546,0.46794
508.0,1162.7,3.8546,0.46735
508.4,1165.0,3.8545,0.46818
508.8,1167.3,3.8559,0.46788
509.2,1169.6,3.8559,0.46679
509.6,1171.9,3.8560,0.46705
510.0,1174.1,3.8559,0.47041
510.4,1176.4,3.8559,0.46913
510.8,1178.7,3.8559,0.47139
511.2,1181.0,3.8553,0.46955
511.6,1183.3,3.8546,0.4708
512.0,1185.6,3.8546,0.46925
512.4,1187.9,3.8543,0.47282
512.8,1190.2,3.8531,0.47329
513.2,1192.5,3.8530,0.47368
513.6,1194.8,3.8530,0.47133
514.0,1197.1,3.8530,0.47473
514.4,1199.3,3.8529,0.47508
514.8,1201.6,3.8520,0.47448
515.2,1203.9,3.8520,0.4745
515.6,1206.2,3.8520,0.47738
516.0,1208.5,3.8518,0.47614
516.4,1210.8,3.8507,0.4776
516.8,1213.1,3.8507,0.4804
517.2,1215.4,3.8507,0.47966
517.6,1217.7,3.8507,0.48148
518.0,1220.0,3.8498,0.48187
518.4,1222.2,3.8494,0.48545
518.8,1224.5,3.8494,0.48567
519.2,1226.8,3.8494,0.48496
519.6,1229.1,3.8494,0.48914
520.0,1231.4,3.8494,0.48845
520.4,1233.7,3.8494,0.48786
520.8,1236.0,3.8494,0.4913
521.2,1238.3,3.8494,0.49329
521.6,1240.6,3.8494,0.49193
522.0,1242.9,3.8494,0.48996
522.4,1245.2,3.8494,0.49247
522.8,1247.4,3.8487,0.49241
523.2,1249.7,3.8481,0.4931
523.6,1252.0,3.8480,0.49197
524.0,1254.3,3.8480,0.49486
524.4,1256.6,3.8486,0.49583
524.8,1258.9,3.8490,0.49682
525.2,1261.2,3.8487,0.4968
525.6,1263.5,3.8477,0.4992
526.0,1265.8,3.8463,0.49982
526.4,1268.1,3.8464,0.50109
526.8,1270.4,3.8451,0.50178
527.2,1272.6,3.8451,0.50121
527.6,1274.9,3.8451,0.50168
528.0,1277.2,3.8451,0.5051
528.4,1279.5,3.8430,0.50666
528.8,1281.8,3.8431,0.50608
529.2,1284.1,3.8432,0.50872
529.6,1286.4,3.8438,0.51101
530.0,1288.7,3.8437,0.50802
530.4,1291.0,3.8433,0.51146
530.8,1293.2,3.8431,0.51069
531.2,1295.5,3.8431,0.51074
531.6,1297.8,3.8431,0.51098
532.0,1300.1,3.8418,0.51312
532.4,1302.4,3.8418,0.51396
532.8,1304.7,3.8418,0.51475
533.2,1307.0,3.8418,0.5173
533.6,1309.3,3.8418,0.52035
534.0,1311.6,3.8418,0.51751
534.4,1313.9,3.8418,0.5193
534.8,1316.2,3.8417,0.51887
535.2,1318.5,3.8404,0.52369
535.6,1320.8,3.8404,0.52254
536.0,1323.1,3.8391,0.52598
536.4,1325.4,3.8391,0.52492
536.8,1327.7,3.8391,0.52806
537.2,1329.9,3.8378,0.5289
537.6,1332.2,3.8362,0.5334
538.0,1334.5,3.8351,0.53442
538.4,1336.8,3.8351,0.53657
538.8,1339.1,3.8338,0.53469
539.2,1341.4,3.8338,0.53654
539.6,1343.7,3.8339,0.54058
540.0,1346.0,3.8337,0.54119
540.4,1348.3,3.8337,0.54279
540.8,1350.6,3.8324,0.54274
541.2,1352.9,3.8311,0.54722
541.6,1355.2,3.8311,0.5471
542.0,1357.5,3.8312,0.55254
542.4,1359.8,3.8285,0.55124
542.8,1362.1,3.8299,0.55276
543.2,1364.4,3.8298,0.55499
543.6,1366.7,3.8298,0.55743
544.0,1369.0,3.8285,0.5578
544.4,1371.3,3.8285,0.55859
544.8,1373.6,3.8285,0.56208
545.2,1375.9,3.8284,0.56439
545.6,1378.2,3.8259,0.56607
546.0,1380.5,3.8250,0.56825
546.4,1382.8,3.8246,0.56867
546.8,1385.1,3.8235,0.5728
547.2,1387.4,3.8218,0.57444
547.6,1389.7,3.8204,0.57662
548.0,1392.0,3.8190,0.57755
548.4,1394.3,3.8178,0.57932
548.8,1396.6,3.8176,0.58005
549.2,1398.9,3.8176,0.58395
549.6,1401.2,3.8176,0.58581
550.0,1403.5,3.8172,0.58688
550.4,1405.8,3.8163,0.58836
550.8,1408.1,3.8150,0.59121
551.2,1410.4,3.8139,0.59419
551.6,1412.7,3.8127,0.59523
552.0,1415.0,3.8115,0.59684
552.4,1417.2,3.8110,0.59919
552.8,1419.5,3.8096,0.60362
553.2,1421.8,3.8083,0.606
553.6,1424.1,3.8097,0.60855
554.0,1426.4,3.8076,0.61079
554.4,1428.7,3.8070,0.61228
554.8,1431.0,3.8057,0.61507
555.2,1433.3,3.8052,0.61533
555.6,1435.6,3.8043,0.61813
556.0,1437.9,3.8030,0.61829
556.4,1440.2,3.8017,0.61891
556.8,1442.5,3.8006,0.61981
557.2,1444.8,3.8004,0.62288
557.6,1447.1,3.7990,0.62186
558.0,1449.4,3.7977,0.62387
558.4,1451.7,3.7964,0.62764
558.8,1454.0,3.7953,0.63046
559.2,1456.3,3.7931,0.62803
559.6,1458.6,3.7923,0.63328
560.0,1460.9,3.7908,0.63118
560.4,1463.2,3.7896,0.63544
560.8,1465.5,3.7874,0.63633
561.2,1467.8,3.7858,0.63727
561.6,1470.1,3.7852,0.63785
562.0,1472.4,3.7835,0.64162
562.4,1474.7,3.7812,0.6416
562.8,1477.0,3.7801,0.64481
563.2,1479.3,3.7783,0.64679
563.6,1481.6,3.7767,0.64813
564.0,1483.9,3.7755,0.6487
564.4,1486.2,3.7748,0.6512
564.8,1488.5,3.7736,0.6514
565.2,1490.9,3.7720,0.65563
565.6,1493.2,3.7704,0.65696
566.0,1495.5,3.7698,0.65858
566.4,1497.8,3.7685,0.6614
566.8,1500.1,3.7669,0.66245
567.2,1502.4,3.7654,0.66268
567.6,1504.7,3.7639,0.66828
568.0,1507.0,3.7613,0.66818
568.4,1509.3,3.7604,0.67029
568.8,1511.6,3.7593,0.66927
569.2,1513.9,3.7577,0.67093
569.6,1516.2,3.7557,0.67302
570.0,1518.5,3.7543,0.67331
570.4,1520.8,3.7528,0.67529
570.8,1523.1,3.7502,0.67496
571.2,1525.4,3.7485,0.67846
571.6,1527.7,3.7483,0.67801
572.0,1530.0,3.7466,0.68043
572.4,1532.3,3.7455,0.68197
572.8,1534.6,3.7436,0.68343
573.2,1536.9,3.7414,0.68593
573.6,1539.2,3.7391,0.68728
574.0,1541.5,3.7363,0.68941
574.4,1543.8,3.7340,0.68948
574.8,1546.1,3.7322,0.68974
575.2,1548.5,3.7294,0.69305
575.6,1550.7,3.7278,0.69371
576.0,1553.0,3.7265,0.69394
576.4,1555.3,3.7249,0.6965
576.8,1557.7,3.7219,0.69573
577.2,1560.0,3.7204,0.69567
577.6,1562.3,3.7190,0.69701
578.0,1564.6,3.7156,0.69357
578.4,1566.9,3.7132,0.69066
578.8,1569.2,3.7101,0.68794
579.2,1571.4,3.7085,0.68198
579.6,1573.7,3.7062,0.67962
580.0,1576.0,3.7042,0.67405
580.4,1578.3,3.7023,0.67222
580.8,1580.6,3.6994,0.66949
581.2,1582.9,3.6980,0.6684
581.6,1585.2,3.6970,0.66714
582.0,1587.5,3.6942,0.66797
582.4,1589.8,3.6917,0.67074
582.8,1592.1,3.6887,0.67163
583.2,1594.4,3.6859,0.67462
583.6,1596.7,3.6829,0.67798
584.0,1599.0,3.6791,0.68361
584.4,1601.3,3.6755,0.68987
584.8,1603.6,3.6736,0.69639
585.2,1605.9,3.6710,0.70403
585.6,1608.2,3.6688,0.71122
586.0,1610.5,3.6674,0.71962
586.4,1612.8,3.6653,0.72709
586.8,1615.1,3.6629,0.73464
587.2,1617.4,3.6598,0.74571
587.6,1619.7,3.6573,0.7544
588.0,1622.0,3.6539,0.76212
588.4,1624.2,3.6514,0.77342
588.8,1626.5,3.6488,0.78287
589.2,1628.8,3.6454,0.7926
589.6,1631.1,3.6430,0.80145
590.0,1633.4,3.6394,0.81207
590.4,1635.8,3.6351,0.82345
590.8,1638.1,3.6317,0.8334
591.2,1640.4,3.6272,0.84282
591.6,1642.7,3.6235,0.85547
592.0,1645.0,3.6200,0.86578
592.4,1647.3,3.6159,0.87428
592.8,1649.6,3.6109,0.88613
593.2,1652.0,3.6063,0.89666
593.6,1654.3,3.6027,0.90871
594.0,1656.6,3.5993,0.91857
594.4,1658.9,3.5952,0.92718
594.8,1661.2,3.5907,0.9393
595.2,1663.5,3.5860,0.95078
595.6,1665.9,3.5811,0.96166
596.0,1668.2,3.5756,0.97262
596.4,1670.5,3.5702,0.98099
596.8,1672.8,3.5641,0.99259
597.2,1675.1,3.5590,1.00703
597.6,1677.4,3.5551,1.01762
598.0,1679.8,3.5518,1.02818
598.4,1682.1,3.5460,1.04152
598.8,1684.4,3.5394,1.05399
599.2,1686.7,3.5339,1.06419
599.6,1689.1,3.5267,1.07824
600.0,1691.4,3.5205,1.0937
600.4,1693.7,3.5147,1.10532
600.8,1696.0,3.5087,1.11851
601.2,1698.4,3.5025,1.13416
601.6,1700.7,3.4964,1.14702
602.0,1703.0,3.4889,1.16196
602.4,1705.4,3.4825,1.17775
602.8,1707.7,3.4749,1.19291
603.2,1710.0,3.4657,1.20595
603.6,1712.4,3.4602,1.22232
604.0,1714.7,3.4521,1.23952
604.4,1717.0,3.4444,1.25768
604.8,1719.4,3.4349,1.27448
605.2,1721.7,3.4271,1.29172
605.6,1724.0,3.4177,1.30983
606.0,1726.4,3.4087,1.32743
606.4,1728.7,3.3992,1.34649
606.8,1731.0,3.3908,1.36746
607.2,1733.4,3.3821,1.38526
607.6,1735.7,3.3726,1.40694
608.0,1738.0,3.3630,1.4283
608.4,1740.4,3.3526,1.44701
608.8,1742.7,3.3421,1.46987
609.2,1745.0,3.3310,1.49412
609.6,1747.4,3.3207,1.51295
610.0,1749.7,3.3092,1.53509
610.4,1752.0,3.2991,1.5586
610.8,1754.4,3.2883,1.58042
611.2,1756.7,3.2757,1.60867
611.6,1759.1,3.2634,1.62838
612.0,1761.4,3.2515,1.65433
612.4,1763.7,3.2386,1.67973
612.8,1766.0,3.2251,1.70426
613.2,1768.4,3.2114,1.72839
613.6,1770.7,3.1988,1.7562
614.0,1773.1,3.1854,1.77881
614.4,1775.4,3.1720,1.80736
614.8,1777.8,3.1580,1.83432
615.2,1780.1,3.1435,1.86234
615.6,1782.5,3.1270,1.88888
616.0,1784.8,3.1117,1.91659
616.4,1787.1,3.0962,1.94318
616.8,1789.5,3.0801,1.96924
617.2,1791.8,3.0632,1.99707
617.6,1794.1,3.0469,2.0271
618.0,1796.5,3.0309,2.05547
618.4,1798.8,3.0132,2.08393
618.8,1801.2,2.9954,2.11333
619.2,1803.5,2.9774,2.13952
619.6,1805.9,2.9589,2.1695
620.0,1808.2,2.9409,2.1989
620.4,1810.6,2.9214,2.22694
620.8,1812.9,2.9020,2.25282
621.2,1815.3,2.8827,2.28088
621.6,1817.6,2.8635,2.3104
622.0,1820.0,2.8436,2.33938
622.4,1822.4,2.8242,2.36663
622.8,1824.7,2.8028,2.39723
623.2,1827.1,2.7814,2.42445
623.6,1829.5,2.7604,2.4503
624.0,1831.8,2.7393,2.47886
624.4,1834.2,2.7173,2.50511
624.8,1836.6,2.6947,2.53167
625.2,1838.9,2.6696,2.55784
625.6,1841.2,2.6468,2.5843
626.0,1843.6,2.6249,2.61128
626.4,1845.9,2.6028,2.63656
626.8,1848.3,2.5790,2.65736
627.2,1850.6,2.5545,2.68347
627.6,1853.0,2.5298,2.70656
628.0,1855.3,2.5041,2.72995
628.4,1857.7,2.4799,2.75264
628.8,1860.0,2.4546,2.77432
629.2,1862.4,2.4298,2.79483
629.6,1864.7,2.4050,2.81135
630.0,1867.1,2.3797,2.83233
630.4,1869.4,2.3530,2.84864
630.8,1871.8,2.3254,2.86664
631.2,1874.1,2.2997,2.88051
631.6,1876.5,2.2730,2.89395
632.0,1878.8,2.2451,2.90898
632.4,1881.2,2.2191,2.91987
632.8,1883.5,2.1922,2.92604
633.2,1885.9,2.1656,2.93388
633.6,1888.2,2.1383,2.94508
634.0,1890.6,2.1100,2.94872
634.4,1892.9,2.0819,2.95359
634.8,1895.3,2.0520,2.96016
635.2,1897.6,2.0237,2.963
635.6,1900.0,1.9960,2.96652
636.0,1902.3,1.9677,2.96876
636.4,1904.7,1.9398,2.96661
636.8,1907.0,1.9124,2.95937
637.2,1909.4,1.8846,2.95161
637.6,1911.7,1.8558,2.95074
638.0,1914.1,1.8275,2.93156
638.4,1916.4,1.7991,2.91862
638.8,1918.8,1.7703,2.9154
639.2,1921.1,1.7409,2.91809
639.6,1923.5,1.7127,2.90905
640.0,1925.8,1.6854,2.88938
640.4,1928.1,1.6567,2.8854
640.8,1930.5,1.6286,2.8902
641.2,1932.8,1.6009,2.87679
641.6,1935.1,1.5731,2.85907
642.0,1937.5,1.5464,2.85472
642.4,1939.8,1.5183,2.84162
642.8,1942.1,1.4915,2.82465
643.2,1944.4,1.4665,2.84389
643.6,1946.8,1.4399,2.83654
644.0,1949.1,1.4117,2.79425
644.4,1951.4,1.3856,2.80706
644.8,1953.7,1.3597,2.77022
645.2,1956.0,1.3326,2.73046
645.6,1958.4,1.3061,2.75183
646.0,1960.7,1.2801,2.7084
646.4,1963.1,1.2530,2.7078
646.8,1965.4,1.2277,2.66295
647.2,1967.8,1.1999,2.65536
647.6,1970.1,1.1736,2.60834
648.0,1972.4,1.1491,2.59471
648.4,1974.7,1.1253,2.55376
648.8,1977.0,1.1003,2.52142
649.2,1979.4,1.0746,2.50362
649.6,1981.7,1.0524,2.46762
650.0,1984.0,1.0293,2.45394
650.4,1986.3,1.0052,2.40633
650.8,1988.6,0.9805,2.3898
651.2,1991.0,0.9582,2.34714
651.6,1993.3,0.9351,2.30613
652.0,1995.6,0.9123,2.2935
652.4,1997.9,0.8905,2.25296
652.8,2000.2,0.8678,2.2293
653.2,2002.6,0.8463,2.18674
653.6,2004.9,0.8254,2.15984
654.0,2007.2,0.8039,2.11812
654.4,2009.5,0.7829,2.09188
654.8,2011.8,0.7633,2.04918
655.2,2014.1,0.7450,2.00448
655.6,2016.5,0.7251,1.98079
656.0,2018.8,0.7044,1.94859
656.4,2021.1,0.6855,1.91393
656.8,2023.4,0.6692,1.88412
657.2,2025.7,0.6514,1.847
657.6,2028.1,0.6329,1.81331
658.0,2030.4,0.6151,1.77719
658.4,2032.7,0.5970,1.74313
658.8,2035.0,0.5801,1.70473
659.2,2037.3,0.5640,1.66615
659.6,2039.6,0.5475,1.62712
660.0,2041.9,0.5320,1.59033
660.4,2044.2,0.5179,1.55354
660.8,2046.5,0.5028,1.51626
661.2,2048.8,0.4884,1.4775
661.6,2051.1,0.4748,1.44211
662.0,2053.4,0.4588,1.40906
662.4,2055.7,0.4445,1.37307
662.8,2058.0,0.4301,1.33267
663.2,2060.4,0.4186,1.29895
663.6,2062.7,0.4041,1.27204
664.0,2065.0,0.3917,1.23562
664.4,2067.3,0.3810,1.20717
664.8,2069.6,0.3696,1.17424
665.2,2071.9,0.3576,1.14268
665.6,2074.3,0.3466,1.10825
666.0,2076.6,0.3354,1.07875
666.4,2078.9,0.3244,1.04915
666.8,2081.3,0.3141,1.01821
667.2,2083.6,0.3048,0.98761
667.6,2085.9,0.2950,0.96185
668.0,2088.2,0.2857,0.93579
668.4,2090.6,0.2765,0.90895
668.8,2092.9,0.2678,0.87996
669.2,2095.2,0.2586,0.85535
669.6,2097.5,0.2494,0.83024
670.0,2099.9,0.2416,0.80424
670.4,2102.2,0.2348,0.78148
670.8,2104.5,0.2274,0.75653
671.2,2106.8,0.2206,0.7326
671.6,2109.1,0.2139,0.7101
672.0,2111.5,0.2062,0.68553
672.4,2113.8,0.2009,0.66329
672.8,2116.1,0.1952,0.64119
673.2,2118.4,0.1892,0.62202
673.6,2120.8,0.1833,0.59798
674.0,2123.1,0.1772,0.58186
674.4,2125.4,0.1705,0.55967
674.8,2127.7,0.1650,0.5462
675.2,2130.1,0.1586,0.52222
675.6,2132.4,0.1537,0.50619
676.0,2134.7,0.1491,0.49042
676.4,2137.1,0.1435,0.4708
676.8,2139.4,0.1390,0.45436
677.2,2141.7,0.1353,0.43827
677.6,2144.1,0.1319,0.42326
678.0,2146.4,0.1286,0.40811
678.4,2148.7,0.1268,0.39244
678.8,2151.1,0.1228,0.37884
679.2,2153.4,0.1191,0.36201
679.6,2155.7,0.1151,0.3508
680.0,2158.1,0.1117,0.33698
680.4,2160.4,0.1084,0.32448
680.8,2162.7,0.1064,0.31575
681.2,2165.1,0.1032,0.30489
681.6,2167.4,0.1008,0.29104
682.0,2169.8,0.0985,0.28321
682.4,2172.1,0.0969,0.27438
682.8,2174.4,0.0937,0.26518
683.2,2176.7,0.0905,0.25616
683.6,2179.1,0.0874,0.25056
684.0,2181.4,0.0857,0.24374
684.4,2183.7,0.0832,0.2391
684.8,2186.0,0.0809,0.23362
685.2,2188.4,0.0784,0.23186
685.6,2190.7,0.0770,0.2318
686.0,2193.0,0.0764,0.22667
686.4,2195.4,0.0752,0.2259
686.8,2197.7,0.0728,0.22308
687.2,2200.0,0.0726,0.21782
687.6,2202.3,0.0713,0.21323
688.0,2204.7,0.0696,0.2122
688.4,2207.0,0.0678,0.20896
688.8,2209.3,0.0661,0.20574
689.2,2211.7,0.0653,0.20624
689.6,2214.0,0.0641,0.20375
690.0,2216.4,0.0628,0.20294
690.4,2218.7,0.0612,0.20194
690.8,2221.0,0.0599,0.20018
691.2,2223.4,0.0596,0.19917
691.6,2225.7,0.0586,0.19868
692.0,2228.0,0.0576,0.19788
692.4,2230.4,0.0573,0.19799
692.8,2232.7,0.0560,0.19858
693.2,2235.0,0.0556,0.19837
693.6,2237.4,0.0559,0.19867
694.0,2239.7,0.0558,0.19604
694.4,2242.0,0.0546,0.19646
694.8,2244.4,0.0547,0.19444
695.2,2246.8,0.0519,0.19066
695.6,2249.1,0.0507,0.18518
696.0,2251.4,0.0507,0.18033
696.4,2253.8,0.0500,0.17416
696.8,2256.2,0.0494,0.17064
697.2,2258.5,0.0482,0.16381
697.6,2260.9,0.0494,0.15558
698.0,2263.3,0.0480,0.15185
698.4,2265.6,0.0481,0.14416
698.8,2268.0,0.0481,0.13642
699.2,2270.3,0.0481,0.1346
699.6,2272.7,0.0481,0.12691
700.0,2275.1,0.0476,0.12181
700.4,2277.4,0.0467,0.11669
700.8,2279.8,0.0468,0.10857
701.2,2282.1,0.0454,0.10182
701.6,2284.5,0.0450,9.67E-02
702.0,2286.9,0.0441,9.12E-02
702.4,2289.2,0.0449,8.31E-02
702.8,2291.6,0.0454,7.55E-02
703.2,2294.0,0.0454,6.84E-02
703.6,2296.4,0.0441,6.15E-02
704.0,2298.7,0.0441,5.31E-02
704.4,2301.1,0.0441,4.11E-02
704.8,2303.5,0.0441,2.58E-02
705.2,2305.8,0.0441,1.56E-02
705.6,2308.2,0.0441,4.67E-03
706.0,2310.6,0.0441,-4.61E-03
706.4,2312.9,0.0441,-1.51E-02
706.8,2315.3,0.0428,-2.19E-02
707.2,2317.7,0.0428,-2.81E-02
707.6,2320.0,0.0415,-3.23E-02
708.0,2322.4,0.0415,-3.20E-02
708.4,2324.8,0.0415,-3.28E-02
708.8,2327.2,0.0426,-3.66E-02
709.2,2329.5,0.0442,-3.51E-02
709.6,2331.9,0.0450,-2.75E-02
710.0,2334.3,0.0454,-2.21E-02
710.4,2336.7,0.0454,-1.45E-02
710.8,2339.0,0.0454,-6.80E-03
711.2,2341.4,0.0454,1.16E-04
711.6,2343.8,0.0448,6.41E-03
712.0,2346.1,0.0441,1.16E-02
712.4,2348.5,0.0441,1.54E-02
712.8,2350.9,0.0428,1.72E-02
713.2,2353.3,0.0421,2.18E-02
713.6,2355.6,0.0421,2.31E-02
714.0,2358.0,0.0421,2.84E-02
714.4,2360.4,0.0421,2.97E-02
714.8,2362.7,0.0421,2.79E-02
715.2,2365.1,0.0421,3.19E-02
715.6,2367.5,0.0422,3.27E-02
716.0,2369.8,0.0428,3.15E-02
716.4,2372.2,0.0428,3.52E-02
716.8,2374.6,0.0440,3.62E-02
717.2,2376.9,0.0428,3.63E-02
717.6,2379.3,0.0428,3.37E-02
718.0,2381.7,0.0423,3.56E-02
718.4,2384.1,0.0421,3.61E-02
718.8,2386.4,0.0421,3.74E-02
719.2,2388.8,0.0408,3.87E-02
719.6,2391.2,0.0395,3.75E-02
720.0,2393.6,0.0395,3.87E-02
720.4,2395.9,0.0395,3.98E-02
720.8,2398.3,0.0395,3.95E-02
721.2,2400.6,0.0395,4.09E-02
721.6,2403.0,0.0408,4.06E-02
722.0,2405.4,0.0402,4.37E-02
722.4,2407.7,0.0415,3.85E-02
722.8,2410.1,0.0415,3.94E-02
723.2,2412.5,0.0415,3.93E-02
723.6,2414.9,0.0415,4.25E-02
724.0,2417.2,0.0415,4.01E-02
724.4,2419.6,0.0414,4.20E-02
724.8,2422.0,0.0407,4.24E-02
725.2,2424.3,0.0404,4.17E-02
725.6,2426.7,0.0402,4.13E-02
726.0,2429.0,0.0415,4.14E-02
726.4,2431.4,0.0415,4.26E-02
726.8,2433.7,0.0423,4.42E-02
727.2,2436.1,0.0442,4.19E-02
727.6,2438.5,0.0441,4.28E-02
728.0,2440.8,0.0441,4.24E-02
728.4,2443.2,0.0428,4.46E-02
728.8,2445.5,0.0415,4.31E-02
729.2,2447.9,0.0415,4.62E-02
729.6,2450.3,0.0415,4.27E-02
730.0,2452.6,0.0415,4.44E-02
730.4,2455.0,0.0415,4.78E-02
730.8,2457.4,0.0415,4.61E-02
731.2,2459.8,0.0415,4.73E-02
731.6,2462.1,0.0415,4.71E-02
732.0,2464.5,0.0415,4.79E-02
732.4,2466.8,0.0415,4.93E-02
732.8,2469.2,0.0405,4.66E-02
733.2,2471.6,0.0405,4.96E-02
733.6,2473.9,0.0405,4.64E-02
734.0,2476.3,0.0412,4.69E-02
734.4,2478.7,0.0425,4.64E-02
734.8,2481.0,0.0425,4.66E-02
735.2,2483.4,0.0425,4.61E-02
735.6,2485.8,0.0411,4.66E-02
736.0,2488.2,0.0412,4.96E-02
736.4,2490.5,0.0412,5.01E-02
736.8,2492.9,0.0420,4.59E-02
737.2,2495.3,0.0425,4.50E-02
737.6,2497.6,0.0425,4.85E-02
738.0,2500.0,0.0425,4.93E-02
738.4,2502.3,0.0399,4.97E-02
738.8,2504.7,0.0398,5.12E-02
739.2,2507.1,0.0398,5.10E-02
739.6,2509.4,0.0398,5.25E-02
740.0,2511.8,0.0398,5.18E-02
740.4,2514.2,0.0398,5.28E-02
740.8,2516.5,0.0398,5.17E-02
741.2,2518.9,0.0411,5.06E-02
741.6,2521.2,0.0412,5.32E-02
742.0,2523.6,0.0412,5.05E-02
742.4,2526.0,0.0421,5.63E-02
742.8,2528.4,0.0421,5.17E-02
743.2,2530.7,0.0421,5.31E-02
743.6,2533.1,0.0421,5.15E-02
744.0,2535.5,0.0421,5.56E-02
744.4,2537.8,0.0421,5.18E-02
744.8,2540.2,0.0418,5.41E-02
745.2,2542.5,0.0408,5.35E-02
745.6,2544.9,0.0408,5.41E-02
746.0,2547.2,0.0408,5.82E-02
746.4,2549.6,0.0394,5.57E-02
746.8,2552.0,0.0395,5.55E-02
747.2,2554.4,0.0404,5.89E-02
747.6,2556.7,0.0408,5.72E-02
748.0,2559.1,0.0398,5.70E-02
748.4,2561.5,0.0398,5.65E-02
748.8,2563.8,0.0391,5.61E-02
749.2,2566.2,0.0385,5.75E-02
749.6,2568.6,0.0398,5.63E-02
750.0,2570.9,0.0398,5.60E-02
750.4,2573.3,0.0412,5.85E-02
750.8,2575.6,0.0422,5.79E-02
751.2,2578.0,0.0425,6.23E-02
751.6,2580.4,0.0425,5.85E-02
752.0,2582.7,0.0425,5.90E-02
752.4,2585.1,0.0425,6.12E-02
752.8,2587.5,0.0412,6.12E-02
753.2,2589.9,0.0412,6.19E-02
753.6,2592.2,0.0407,6.20E-02
754.0,2594.6,0.0405,6.16E-02
754.4,2597.0,0.0405,6.41E-02
754.8,2599.3,0.0405,6.56E-02
755.2,2601.7,0.0405,6.42E-02
755.6,2604.0,0.0405,6.59E-02
756.0,2606.4,0.0398,6.50E-02
756.4,2608.8,0.0398,6.55E-02
756.8,2611.1,0.0398,6.45E-02
757.2,2613.5,0.0398,6.50E-02
757.6,2615.9,0.0398,6.52E-02
758.0,2618.2,0.0398,6.60E-02
758.4,2620.6,0.0398,6.71E-02
758.8,2623.0,0.0398,6.48E-02
759.2,2625.3,0.0398,6.69E-02
759.6,2627.6,0.0412,6.64E-02
760.0,2630.0,0.0412,6.65E-02
760.4,2632.4,0.0412,6.76E-02
760.8,2634.7,0.0406,6.62E-02
761.2,2637.1,0.0398,6.38E-02
761.6,2639.5,0.0411,6.77E-02
762.0,2641.8,0.0411,6.81E-02
762.4,2644.2,0.0412,6.70E-02
762.8,2646.6,0.0412,6.71E-02
763.2,2649.0,0.0412,6.65E-02
763.6,2651.3,0.0411,6.91E-02
764.0,2653.7,0.0409,6.71E-02
764.4,2656.1,0.0402,6.68E-02
764.8,2658.5,0.0402,6.92E-02
765.2,2660.9,0.0390,7.00E-02
765.6,2663.2,0.0388,7.03E-02
766.0,2665.6,0.0388,7.14E-02
766.4,2668.0,0.0388,7.18E-02
766.8,2670.4,0.0387,7.11E-02
767.2,2672.8,0.0384,7.28E-02
767.6,2675.2,0.0385,7.30E-02
768.0,2677.5,0.0385,7.46E-02
768.4,2679.9,0.0398,7.43E-02
768.8,2682.3,0.0399,7.29E-02
769.2,2684.7,0.0412,7.21E-02
769.6,2687.0,0.0419,7.26E-02
770.0,2689.4,0.0425,7.33E-02
770.4,2691.8,0.0428,7.34E-02
770.8,2694.1,0.0428,7.46E-02
771.2,2696.5,0.0415,7.40E-02
771.6,2698.9,0.0402,7.68E-02
772.0,2701.2,0.0389,7.48E-02
772.4,2703.6,0.0402,7.47E-02
772.8,2706.0,0.0402,7.75E-02
773.2,2708.4,0.0402,7.56E-02
773.6,2710.8,0.0395,7.75E-02
774.0,2713.2,0.0389,7.75E-02
774.4,2715.6,0.0389,7.73E-02
774.8,2718.0,0.0389,7.77E-02
775.2,2720.3,0.0389,7.93E-02
775.6,2722.7,0.0388,8.14E-02
776.0,2725.1,0.0365,8.00E-02
776.4,2727.5,0.0365,8.21E-02
776.8,2729.9,0.0365,8.01E-02
777.2,2732.3,0.0366,7.84E-02
777.6,2734.6,0.0379,7.86E-02
778.0,2737.0,0.0379,8.13E-02
778.4,2739.4,0.0379,8.00E-02
778.8,2741.8,0.0379,8.14E-02
779.2,2744.2,0.0379,8.13E-02
779.6,2746.6,0.0378,8.02E-02
780.0,2748.9,0.0392,7.99E-02
780.4,2751.3,0.0392,8.26E-02
780.8,2753.7,0.0392,8.10E-02
781.2,2756.1,0.0396,8.18E-02
781.6,2758.5,0.0392,8.11E-02
782.0,2760.8,0.0392,8.22E-02
782.4,2763.2,0.0392,8.57E-02
782.8,2765.6,0.0405,8.53E-02
783.2,2768.0,0.0405,8.56E-02
783.6,2770.4,0.0405,8.60E-02
784.0,2772.7,0.0405,8.52E-02
784.4,2775.1,0.0405,8.56E-02
784.8,2777.5,0.0405,8.39E-02
785.2,2779.9,0.0392,8.37E-02
785.6,2782.3,0.0379,8.64E-02
786.0,2784.7,0.0379,8.80E-02
786.4,2787.1,0.0379,8.52E-02
786.8,2789.5,0.0379,8.61E-02
787.2,2791.9,0.0392,9.17E-02
787.6,2794.2,0.0392,8.95E-02
788.0,2796.6,0.0399,8.79E-02
788.4,2799.0,0.0395,9.14E-02
788.8,2801.4,0.0395,9.07E-02
789.2,2803.8,0.0385,9.12E-02
789.6,2806.2,0.0382,8.96E-02
790.0,2808.5,0.0382,9.18E-02
790.4,2810.9,0.0395,9.39E-02
790.8,2813.3,0.0395,9.31E-02
791.2,2815.7,0.0395,9.23E-02
791.6,2818.0,0.0395,9.15E-02
792.0,2820.4,0.0395,9.84E-02
792.4,2822.8,0.0395,9.37E-02
792.8,2825.2,0.0395,9.62E-02
793.2,2827.5,0.0395,9.63E-02
793.6,2829.9,0.0392,9.70E-02
794.0,2832.3,0.0382,9.54E-02
794.4,2834.7,0.0384,9.61E-02
794.8,2837.0,0.0395,9.85E-02
795.2,2839.4,0.0395,9.84E-02
795.6,2841.8,0.0390,9.95E-02
796.0,2844.1,0.0395,0.10142
796.4,2846.5,0.0394,9.87E-02
796.8,2848.9,0.0395,9.96E-02
797.2,2851.3,0.0395,0.1031
797.6,2853.7,0.0382,0.10371
798.0,2856.1,0.0382,0.10197
798.4,2858.5,0.0383,0.10398
798.8,2860.9,0.0395,0.10474
799.2,2863.2,0.0408,0.10337
799.6,2865.6,0.0408,0.10473
800.0,2868.0,0.0395,0.10353
800.4,2870.4,0.0382,0.10575
800.8,2872.7,0.0382,0.10828
801.2,2875.1,0.0382,0.10821
801.6,2877.5,0.0382,0.10557
802.0,2879.9,0.0382,0.10632
802.4,2882.2,0.0375,0.10752
802.8,2884.6,0.0377,0.10835
803.2,2887.0,0.0385,0.1066
803.6,2889.4,0.0385,0.11082
804.0,2891.8,0.0379,0.10933
804.4,2894.1,0.0379,0.106
804.8,2896.5,0.0391,0.10971
805.2,2898.9,0.0392,0.11022
805.6,2901.3,0.0392,0.10928
806.0,2903.7,0.0392,0.10813
806.4,2906.0,0.0378,0.10732
806.8,2908.4,0.0382,0.10874
807.2,2910.8,0.0385,0.10733
807.6,2913.2,0.0395,0.10924
808.0,2915.6,0.0395,0.11037
808.4,2917.9,0.0395,0.10674
808.8,2920.3,0.0408,0.10971
809.2,2922.7,0.0408,0.10653
809.6,2925.1,0.0410,0.10847
810.0,2927.5,0.0388,0.10929
810.4,2929.8,0.0375,0.1097
810.8,2932.2,0.0379,0.11156
811.2,2934.6,0.0388,0.11251
811.6,2937.0,0.0402,0.11259
812.0,2939.4,0.0402,0.11239
812.4,2941.8,0.0402,0.10791
812.8,2944.2,0.0402,0.11438
813.2,2946.6,0.0402,0.11152
813.6,2949.0,0.0389,0.11109
814.0,2951.4,0.0388,0.1126
814.4,2953.7,0.0379,0.11238
814.8,2956.1,0.0375,0.11086
815.2,2958.5,0.0388,0.11208
815.6,2960.9,0.0389,0.11052
816.0,2963.3,0.0397,0.11279
816.4,2965.7,0.0399,0.11209
816.8,2968.1,0.0385,0.11025
817.2,2970.5,0.0385,0.11305
817.6,2972.9,0.0385,0.11222
818.0,2975.3,0.0385,0.11432
818.4,2977.7,0.0385,0.11262
818.8,2980.1,0.0385,0.10941
819.2,2982.6,0.0398,0.1121
819.6,2985.0,0.0398,0.11348
820.0,2987.4,0.0398,0.11141
820.4,2989.8,0.0385,0.1138
820.8,2992.2,0.0385,0.11443
821.2,2994.6,0.0385,0.11384
821.6,2997.0,0.0375,0.11361
822.0,2999.4,0.0372,0.11372