File: Verification/Results/MaCFP_PMMA_NIST_dynamic_TGA_10K_FDS_results.csv
Time,alpha,Temperature
s,-,K
0.0,0.0,300.15
6.0,0.0,300.624
12.0,0.0,301.627
18.0,0.0,302.628
24.0,0.0,303.621
30.0,0.0,304.614
36.0,0.0,305.614
42.0,0.0,306.614
48.0,0.0,307.612
54.0,0.0,308.613
60.0,0.0,309.611
66.0,0.0,310.613
72.0,0.0,311.612
78.0,0.0,312.619
84.0,0.0,313.625
90.0,0.0,314.624
96.0,0.0,315.622
102.0,0.0,316.624
108.0,0.0,317.623
114.0,0.0,318.623
120.0,0.0,319.622
126.0,1.11022e-16,320.623
132.0,1.11022e-16,321.622
138.0,1.11022e-16,322.62
144.0,1.11022e-16,323.621
150.0,1.11022e-16,324.62
156.0,2.22045e-16,325.621
162.0,2.22045e-16,326.6198
168.0,2.22045e-16,327.62
174.0,3.33067e-16,328.619
180.0,4.44089e-16,329.618
186.0,5.55112e-16,330.619
192.0,6.66134e-16,331.6178
198.0,7.77156e-16,332.619
204.0,9.99201e-16,333.617
210.0,1.22125e-15,334.618
216.0,1.55431e-15,335.617
222.0,1.88738e-15,336.615
228.0,2.33147e-15,337.617
234.0,2.88658e-15,338.615
240.0,3.44169e-15,339.616
246.0,4.32987e-15,340.6151
252.0,5.21805e-15,341.615
258.0,6.43929e-15,342.615
264.0,7.88258e-15,343.613
270.0,9.54792e-15,344.614
276.0,1.16573e-14,345.6131
282.0,1.42109e-14,346.614
288.0,1.73195e-14,347.613
294.0,2.10942e-14,348.613
300.0,2.56462e-14,349.612
306.0,3.09752e-14,350.605
312.0,3.75255e-14,351.597
318.0,4.54081e-14,352.598
324.0,5.4956e-14,353.597
330.0,6.62803e-14,354.598
336.0,8.00471e-14,355.597
342.0,9.63674e-14,356.596
348.0,1.16129e-13,357.597
354.0,1.39555e-13,358.595
360.0,1.67755e-13,359.596
366.0,2.01394e-13,360.595
372.0,2.41474e-13,361.595
378.0,2.89213e-13,362.595
384.0,3.46057e-13,363.593
390.0,4.13891e-13,364.594
396.0,4.94271e-13,365.593
402.0,5.89973e-13,366.594
408.0,7.03215e-13,367.593
414.0,8.37663e-13,368.593
420.0,9.96758e-13,369.593
426.0,1.18483e-12,370.591
432.0,1.40754e-12,371.592
438.0,1.67e-12,372.59
444.0,1.98042e-12,373.591
450.0,2.34568e-12,374.59
456.0,2.77622e-12,375.59
462.0,3.28293e-12,376.5902
468.0,3.87779e-12,377.589
474.0,4.57812e-12,378.589
480.0,5.39846e-12,379.588
486.0,6.3628e-12,380.589
492.0,7.49079e-12,381.588
498.0,8.81262e-12,382.588
504.0,1.03588e-11,383.588
510.0,1.21637e-11,384.586
516.0,1.42762e-11,385.587
522.0,1.67365e-11,386.586
528.0,1.96121e-11,387.587
534.0,2.29569e-11,388.586
540.0,2.68542e-11,389.586
546.0,3.13873e-11,390.585
552.0,3.66502e-11,391.584
558.0,4.27764e-11,392.585
564.0,4.98719e-11,393.583
570.0,5.81204e-11,394.584
576.0,6.76634e-11,395.5834
582.0,7.87255e-11,396.584
588.0,9.15257e-11,397.583
594.0,1.06309e-10,398.582
600.0,1.23428e-10,399.583
606.0,1.43153e-10,400.582
612.0,1.65968e-10,401.583
618.0,1.92229e-10,402.582
624.0,2.22513e-10,403.583
630.0,2.57378e-10,404.5825
636.0,2.97444e-10,405.581
642.0,3.43613e-10,406.582
648.0,3.96551e-10,407.581
654.0,4.57482e-10,408.582
660.0,5.27277e-10,409.5814
666.0,6.07378e-10,410.582
672.0,6.9916e-10,411.582
678.0,8.04135e-10,412.58
684.0,9.24532e-10,413.581
690.0,1.06194e-09,414.58
696.0,1.21936e-09,415.581
702.0,1.39886e-09,416.58
708.0,1.60393e-09,417.581
714.0,1.83783e-09,418.581
720.0,2.10417e-09,419.5793
726.0,2.40826e-09,420.5802
732.0,2.7538e-09,421.579
738.0,3.14791e-09,422.5801
744.0,3.59535e-09,423.579
750.0,4.10429e-09,424.58
756.0,4.68233e-09,425.58
762.0,5.33769e-09,426.578
768.0,6.08279e-09,427.579
774.0,6.92588e-09,428.578
780.0,7.88347e-09,429.579
786.0,8.96612e-09,430.578
792.0,1.01925e-08,431.579
798.0,1.15797e-08,432.579
804.0,1.31461e-08,433.577
810.0,1.49197e-08,434.578
816.0,1.69186e-08,435.577
822.0,1.918e-08,436.578
828.0,2.17266e-08,437.577
834.0,2.45998e-08,438.578
840.0,2.78373e-08,439.578
846.0,3.14787e-08,440.576
852.0,3.55863e-08,441.577
858.0,4.01977e-08,442.576
864.0,4.53948e-08,443.577
870.0,5.12254e-08,444.576
876.0,5.77794e-08,445.577
882.0,6.51367e-08,446.577
888.0,7.33815e-08,447.575
894.0,8.26476e-08,448.576
900.0,9.30127e-08,449.575
906.0,1.04652e-07,450.576
912.0,1.17663e-07,451.576
918.0,1.32235e-07,452.576
924.0,1.48536e-07,453.5756
930.0,1.6674e-07,454.574
936.0,1.87126e-07,455.575
942.0,2.09851e-07,456.574
948.0,2.35281e-07,457.575
954.0,2.63612e-07,458.575
960.0,2.95234e-07,459.5746
966.0,3.30488e-07,460.575
972.0,3.69724e-07,461.5734
978.0,4.13517e-07,462.574
984.0,4.62174e-07,463.573
990.0,5.1644e-07,464.574
996.0,5.76701e-07,465.574
1002.0,6.43743e-07,466.574
1008.0,7.18243e-07,467.574
1014.0,8.00892e-07,468.572
1020.0,8.92844e-07,469.573
1026.0,9.94686e-07,470.572
1032.0,1.10791e-06,471.5732
1038.0,1.23325e-06,472.573
1044.0,1.37226e-06,473.573
1050.0,1.52626e-06,474.573
1056.0,1.69657e-06,475.571
1062.0,1.88548e-06,476.572
1068.0,2.09408e-06,477.571
1074.0,2.32529e-06,478.572
1080.0,2.58047e-06,479.572
1086.0,2.86264e-06,480.572
1092.0,3.1743e-06,481.572
1098.0,3.51798e-06,482.57
1104.0,3.89807e-06,483.5713
1110.0,4.31655e-06,484.57
1116.0,4.77906e-06,485.571
1122.0,5.28805e-06,486.5706
1128.0,5.84927e-06,487.571
1134.0,6.46741e-06,488.571
1140.0,7.14713e-06,489.569
1146.0,7.89674e-06,490.5703
1152.0,8.71979e-06,491.569
1158.0,9.62694e-06,492.57
1164.0,1.06225e-05,493.57
1170.0,1.17172e-05,494.57
1176.0,1.29196e-05,495.57
1182.0,1.42383e-05,496.568
1188.0,1.56887e-05,497.569
1194.0,1.7277e-05,498.568
1200.0,1.90229e-05,499.569
1206.0,2.09507e-05,500.577
1212.0,2.30583e-05,501.582
1218.0,2.53577e-05,502.582
1224.0,2.78745e-05,503.582
1230.0,3.06273e-05,504.58
1236.0,3.3648e-05,505.5817
1242.0,3.6945e-05,506.581
1248.0,4.05572e-05,507.582
1254.0,4.44997e-05,508.581
1260.0,4.8813e-05,509.581
1266.0,5.35222e-05,510.581
1272.0,5.86604e-05,511.579
1278.0,6.42847e-05,512.5807
1284.0,7.04086e-05,513.58
1290.0,7.71017e-05,514.581
1296.0,8.43892e-05,515.5797
1302.0,9.2343e-05,516.58
1308.0,0.000101006,517.58
1314.0,0.000110436,518.578
1320.0,0.000120734,519.58
1326.0,0.00013192,520.579
1332.0,0.000144118,521.58
1338.0,0.000157368,522.579
1344.0,0.000171796,523.579
1350.0,0.000187475,524.579
1356.0,0.000204503,525.577
1362.0,0.000223056,526.579
1368.0,0.000243164,527.5777
1374.0,0.000265041,528.5785
1380.0,0.000288752,529.578
1386.0,0.000314514,530.578
1392.0,0.000342449,531.5775
1398.0,0.00037272,532.576
1404.0,0.00040563,533.578
1410.0,0.000441222,534.577
1416.0,0.000479859,535.577
1422.0,0.000521648,536.577
1428.0,0.000566953,537.577
1434.0,0.000615974,538.576
1440.0,0.000668982,539.575
1446.0,0.000726493,540.577
1452.0,0.000788556,541.576
1458.0,0.000855789,542.576
1464.0,0.000928356,543.575
1470.0,0.00100686,544.576
1476.0,0.00109164,545.575
1482.0,0.00118312,546.574
1488.0,0.00128217,547.575
1494.0,0.00138884,548.574
1500.0,0.00150416,549.575
1506.0,0.00162838,550.574
1512.0,0.0017625,551.575
1518.0,0.00190703,552.574
1524.0,0.00206268,553.573
1530.0,0.00223087,554.574
1536.0,0.00241165,555.573
1542.0,0.00260669,556.574
1548.0,0.00281638,557.573
1554.0,0.00304231,558.573
1560.0,0.00328532,559.573
1566.0,0.0035465,560.572
1572.0,0.00382817,561.573
1578.0,0.00413032,562.572
1584.0,0.00445567,563.573
1590.0,0.00480476,564.572
1596.0,0.00518016,565.572
1602.0,0.00558314,566.572
1608.0,0.00601541,567.57
1614.0,0.00648066,568.572
1620.0,0.00697876,569.571
1626.0,0.00751404,570.571
1632.0,0.00808723,571.57
1638.0,0.00870243,572.5705
1644.0,0.00936147,573.57
1650.0,0.010067,574.569
1656.0,0.0108249,575.5701
1662.0,0.0116346,576.569
1668.0,0.012503,577.57
1674.0,0.013431,578.569
1680.0,0.0144249,579.569
1686.0,0.0154875,580.569
1692.0,0.0166226,581.567
1698.0,0.0178394,582.569
1704.0,0.0191366,583.568
1710.0,0.0205248,584.568
1716.0,0.022005,585.567
1722.0,0.023587,586.568
1728.0,0.0252743,587.567
1734.0,0.0270729,588.566
1740.0,0.0289962,589.567
1746.0,0.0310419,590.566
1752.0,0.0332258,591.567
1758.0,0.035549,592.566
1764.0,0.0380255,593.566
1770.0,0.0406603,594.566
1776.0,0.0434616,595.565
1782.0,0.0464493,596.566
1788.0,0.0496185,597.565
1794.0,0.0529925,598.566
1800.0,0.0565712,599.565
1806.0,0.0603752,600.566
1812.0,0.0644101,601.566
1818.0,0.0686868,602.564
1824.0,0.0732337,603.566
1830.0,0.0780409,604.565
1836.0,0.0831415,605.566
1842.0,0.0885327,606.566
1848.0,0.0942427,607.567
1854.0,0.100277,608.567
1860.0,0.106648,609.566
1866.0,0.113394,610.568
1872.0,0.120497,611.568
1878.0,0.128001,612.569
1884.0,0.135898,613.569
1890.0,0.144222,614.57
1896.0,0.152976,615.571
1902.0,0.162172,616.57
1908.0,0.17186,617.573
1914.0,0.182004,618.573
1920.0,0.19266,619.575
1926.0,0.203805,620.576
1932.0,0.215482,621.578
1938.0,0.227681,622.579
1944.0,0.240409,623.579
1950.0,0.253722,624.583
1956.0,0.267558,625.584
1962.0,0.281981,626.587
1968.0,0.296939,627.588
1974.0,0.31248,628.591
1980.0,0.328567,629.593
1986.0,0.345194,630.595
1992.0,0.362414,631.599
1998.0,0.380123,632.601
2004.0,0.398384,633.605
2010.0,0.417104,634.607
2016.0,0.436322,635.611
2022.0,0.455958,636.614
2028.0,0.475987,637.617
2034.0,0.49644,638.622
2040.0,0.517165,639.625
2046.0,0.538209,640.63
2052.0,0.559429,641.633
2058.0,0.580849,642.637
2064.0,0.602333,643.64
2070.0,0.623839,644.6429
2076.0,0.645368,645.648
2082.0,0.666733,646.651
2088.0,0.687955,647.656
2094.0,0.708858,648.659
2100.0,0.729458,649.663
2106.0,0.74959,650.665
2112.0,0.769215,651.667
2118.0,0.788317,652.6712
2124.0,0.806727,653.673
2130.0,0.824452,654.677
2136.0,0.841348,655.678
2142.0,0.857443,656.681
2148.0,0.872617,657.681
2154.0,0.886867,658.68
2160.0,0.900209,659.683
2166.0,0.912548,660.684
2172.0,0.923917,661.685
2178.0,0.934276,662.684
2184.0,0.943687,663.685
2190.0,0.952129,664.6832
2196.0,0.959655,665.681
2202.0,0.966329,666.683
2208.0,0.972152,667.6825
2214.0,0.977201,668.682
2220.0,0.981524,669.68
2226.0,0.985198,670.68
2232.0,0.988272,671.678
2238.0,0.989854,672.275
2244.0,0.989868,672.28
2250.0,0.989868,672.28
2256.0,0.989868,672.28
2262.0,0.989868,672.28
2268.0,0.989868,672.28
2274.0,0.989868,672.28
2280.0,0.989868,672.28
2286.0,0.989868,672.28
2292.0,0.989868,672.28
2298.0,0.989868,672.28
2304.0,0.989868,672.28
2310.0,0.989868,672.28
2316.0,0.989868,672.28
2322.0,0.989868,672.28
2328.0,0.989868,672.28
2334.0,0.989868,672.28
2340.0,0.989868,672.28
2346.0,0.989868,672.28
2352.0,0.989868,672.28
2358.0,0.989868,672.28
2364.0,0.989868,672.28
2370.0,0.989868,672.28
2376.0,0.989868,672.28
2382.0,0.989868,672.28
2388.0,0.989868,672.28
2394.0,0.989868,672.28
2400.0,0.989868,672.28
2406.0,0.989868,672.28
2412.0,0.989868,672.28
2418.0,0.989868,672.28
2424.0,0.989868,672.28
2430.0,0.989868,672.28
2436.0,0.989868,672.28
2442.0,0.989868,672.28
2448.0,0.989868,672.28
2454.0,0.989868,672.28
2460.0,0.989868,672.28
2466.0,0.989868,672.28
2472.0,0.989868,672.28
2478.0,0.989868,672.28
2484.0,0.989868,672.28
2490.0,0.989868,672.28
2496.0,0.989868,672.28
2502.0,0.989868,672.28
2508.0,0.989868,672.28
2514.0,0.989868,672.28
2520.0,0.989868,672.28
2526.0,0.989868,672.28
2532.0,0.989868,672.28
2538.0,0.989868,672.28
2544.0,0.989868,672.28
2550.0,0.989868,672.28
2556.0,0.989868,672.28
2562.0,0.989868,672.28
2568.0,0.989868,672.28
2574.0,0.989868,672.28
2580.0,0.989868,672.28
2586.0,0.989868,672.28
2592.0,0.989868,672.28
2598.0,0.989868,672.28
2604.0,0.989868,672.28
2610.0,0.989868,672.28
2616.0,0.989868,672.28
2622.0,0.989868,672.28
2628.0,0.989868,672.28
2634.0,0.989868,672.28
2640.0,0.989868,672.28
2646.0,0.989868,672.28
2652.0,0.989868,672.28
2658.0,0.989868,672.28
2664.0,0.989868,672.28
2670.0,0.989868,672.28
2676.0,0.989868,672.28
2682.0,0.989868,672.28
2688.0,0.989868,672.28
2694.0,0.989868,672.28
2700.0,0.989868,672.28
2706.0,0.989868,672.28
2712.0,0.989868,672.28
2718.0,0.989868,672.28
2724.0,0.989868,672.28
2730.0,0.989868,672.28
2736.0,0.989868,672.28
2742.0,0.989868,672.28
2748.0,0.989868,672.28
2754.0,0.989868,672.28
2760.0,0.989868,672.28
2766.0,0.989868,672.28
2772.0,0.989868,672.28
2778.0,0.989868,672.28
2784.0,0.989868,672.28
2790.0,0.989868,672.28
2796.0,0.989868,672.28
2802.0,0.989868,672.28
2808.0,0.989868,672.28
2814.0,0.989868,672.28
2820.0,0.989868,672.28
2826.0,0.989868,672.28
2832.0,0.989868,672.28
2838.0,0.989868,672.28
2844.0,0.989868,672.28
2850.0,0.989868,672.28
2856.0,0.989868,672.28
2862.0,0.989868,672.28
2868.0,0.989868,672.28
2874.0,0.989868,672.28
2880.0,0.989868,672.28
2886.0,0.989868,672.28
2892.0,0.989868,672.28
2898.0,0.989868,672.28
2904.0,0.989868,672.28
2910.0,0.989868,672.28
2916.0,0.989868,672.28
2922.0,0.989868,672.28
2928.0,0.989868,672.28
2934.0,0.989868,672.28
2940.0,0.989868,672.28
2946.0,0.989868,672.28
2952.0,0.989868,672.28
2958.0,0.989868,672.28
2964.0,0.989868,672.28
2970.0,0.989868,672.28
2976.0,0.989868,672.28
2982.0,0.989868,672.28
2988.0,0.989868,672.28
2994.0,0.989868,672.28
3000.0,0.989868,672.28
3006.0,0.989868,672.28
3012.0,0.989868,672.28
3018.0,0.989868,672.28
3024.0,0.989868,672.28
3030.0,0.989868,672.28
3036.0,0.989868,672.28
3042.0,0.989868,672.28
3048.0,0.989868,672.28
3054.0,0.989868,672.28
3060.0,0.989868,672.28
3066.0,0.989868,672.28
3072.0,0.989868,672.28
3078.0,0.989868,672.28
3084.0,0.989868,672.28
3090.0,0.989868,672.28
3096.0,0.989868,672.28
3102.0,0.989868,672.28
3108.0,0.989868,672.28
3114.0,0.989868,672.28
3120.0,0.989868,672.28
3126.0,0.989868,672.28
3132.0,0.989868,672.28
3138.0,0.989868,672.28
3144.0,0.989868,672.28
3150.0,0.989868,672.28
3156.0,0.989868,672.28
3162.0,0.989868,672.28
3168.0,0.989868,672.28
3174.0,0.989868,672.28
3180.0,0.989868,672.28
3186.0,0.989868,672.28
3192.0,0.989868,672.28
3198.0,0.989868,672.28
3204.0,0.989868,672.28
3210.0,0.989868,672.28
3216.0,0.989868,672.28
3222.0,0.989868,672.28
3228.0,0.989868,672.28
3234.0,0.989868,672.28
3240.0,0.989868,672.28
3246.0,0.989868,672.28
3252.0,0.989868,672.28
3258.0,0.989868,672.28
3264.0,0.989868,672.28
3270.0,0.989868,672.28
3276.0,0.989868,672.28
3282.0,0.989868,672.28
3288.0,0.989868,672.28
3294.0,0.989868,672.28
3300.0,0.989868,672.28
3306.0,0.989868,672.28
3312.0,0.989868,672.28
3318.0,0.989868,672.28
3324.0,0.989868,672.28
3330.0,0.989868,672.28
3336.0,0.989868,672.28
3342.0,0.989868,672.28
3348.0,0.989868,672.28
3354.0,0.989868,672.28
3360.0,0.989868,672.28
3366.0,0.989868,672.28
3372.0,0.989868,672.28
3378.0,0.989868,672.28
3384.0,0.989868,672.28
3390.0,0.989868,672.28
3396.0,0.989868,672.28
3402.0,0.989868,672.28
3408.0,0.989868,672.28
3414.0,0.989868,672.28
3420.0,0.989868,672.28
3426.0,0.989868,672.28
3432.0,0.989868,672.28
3438.0,0.989868,672.28
3444.0,0.989868,672.28
3450.0,0.989868,672.28
3456.0,0.989868,672.28
3462.0,0.989868,672.28
3468.0,0.989868,672.28
3474.0,0.989868,672.28
3480.0,0.989868,672.28
3486.0,0.989868,672.28
3492.0,0.989868,672.28
3498.0,0.989868,672.28
3504.0,0.989868,672.28
3510.0,0.989868,672.28
3516.0,0.989868,672.28
3522.0,0.989868,672.28
3528.0,0.989868,672.28
3534.0,0.989868,672.28
3540.0,0.989868,672.28
3546.0,0.989868,672.28
3552.0,0.989868,672.28
3558.0,0.989868,672.28
3564.0,0.989868,672.28
3570.0,0.989868,672.28
3576.0,0.989868,672.28
3582.0,0.989868,672.28
3588.0,0.989868,672.28
3594.0,0.989868,672.28
3600.0,0.989868,672.28
3606.0,0.989868,672.28
3612.0,0.989868,672.28
3618.0,0.989868,672.28
3624.0,0.989868,672.28
3630.0,0.989868,672.28
3636.0,0.989868,672.28
3642.0,0.989868,672.28
3648.0,0.989868,672.28
3654.0,0.989868,672.28
3660.0,0.989868,672.28
3666.0,0.989868,672.28
3672.0,0.989868,672.28
3678.0,0.989868,672.28
3684.0,0.989868,672.28
3690.0,0.989868,672.28
3696.0,0.989868,672.28
3702.0,0.989868,672.28
3708.0,0.989868,672.28
3714.0,0.989868,672.28
3720.0,0.989868,672.28
3726.0,0.989868,672.28
3732.0,0.989868,672.28
3738.0,0.989868,672.28
3744.0,0.989868,672.28
3750.0,0.989868,672.28
3756.0,0.989868,672.28
3762.0,0.989868,672.28
3768.0,0.989868,672.28
3774.0,0.989868,672.28
3780.0,0.989868,672.28
3786.0,0.989868,672.28
3792.0,0.989868,672.28
3798.0,0.989868,672.28
3804.0,0.989868,672.28
3810.0,0.989868,672.28
3816.0,0.989868,672.28
3822.0,0.989868,672.28
3828.0,0.989868,672.28
3834.0,0.989868,672.28
3840.0,0.989868,672.28
3846.0,0.989868,672.28
3852.0,0.989868,672.28
3858.0,0.989868,672.28
3864.0,0.989868,672.28
3870.0,0.989868,672.28
3876.0,0.989868,672.28
3882.0,0.989868,672.28
3888.0,0.989868,672.28
3894.0,0.989868,672.28
3900.0,0.989868,672.28
3906.0,0.989868,672.28
3912.0,0.989868,672.28
3918.0,0.989868,672.28
3924.0,0.989868,672.28
3930.0,0.989868,672.28
3936.0,0.989868,672.28
3942.0,0.989868,672.28
3948.0,0.989868,672.28
3954.0,0.989868,672.28
3960.0,0.989868,672.28
3966.0,0.989868,672.28
3972.0,0.989868,672.28
3978.0,0.989868,672.28
3984.0,0.989868,672.28
3990.0,0.989868,672.28
3996.0,0.989868,672.28
4002.0,0.989868,672.28
4008.0,0.989868,672.28
4014.0,0.989868,672.28
4020.0,0.989868,672.28
4026.0,0.989868,672.28
4032.0,0.989868,672.28
4038.0,0.989868,672.28
4044.0,0.989868,672.28
4050.0,0.989868,672.28
4056.0,0.989868,672.28
4062.0,0.989868,672.28
4068.0,0.989868,672.28
4074.0,0.989868,672.28
4080.0,0.989868,672.28
4086.0,0.989868,672.28
4092.0,0.989868,672.28
4098.0,0.989868,672.28
4104.0,0.989868,672.28
4110.0,0.989868,672.28
4116.0,0.989868,672.28
4122.0,0.989868,672.28
4128.0,0.989868,672.28
4134.0,0.989868,672.28
4140.0,0.989868,672.28
4146.0,0.989868,672.28
4152.0,0.989868,672.28
4158.0,0.989868,672.28
4164.0,0.989868,672.28
4170.0,0.989868,672.28
4176.0,0.989868,672.28
4182.0,0.989868,672.28
4188.0,0.989868,672.28
4194.0,0.989868,672.28
4200.0,0.989868,672.28