File: PMMA/Validation_Results/Aalto-Model_1-PMMA-Gasification/Aalto_I_Gasification_q50_Mass.csv
s,g
t,m
0,25.63948
1.1,25.63948
2,25.63948
3,25.63948
4,25.63948
5.1,25.6395
6.1,25.6394
7.1,25.6394
8.1,25.6393
9.1,25.639
10.1,25.6386
11.1,25.6379
12.1,25.6367
13.1,25.635
14.1,25.6325
15.1,25.6291
16.1,25.6247
17.1,25.6193
18.1,25.6127
19,25.6056
20,25.5977
21,25.58874
22,25.5793
23,25.5696
24,25.5597
25,25.5497
26,25.5393
27,25.5286
28,25.5172
29,25.5049
30,25.4916
31,25.477
32,25.4611
33,25.4435
34,25.4244
35,25.4036
36,25.3811
37,25.357
38,25.3313
39,25.30393
40,25.27509
41,25.2448
42,25.2131
43,25.1802
44,25.1459
45,25.1105
46,25.074
47,25.0364
48,24.99779
49,24.9582
50,24.9177
51,24.8763
52,24.8341
53,24.7911
54,24.7474
55,24.7028
56,24.6576
57,24.6118
58,24.5652
59,24.5181
60,24.4703
61,24.42195
62,24.373
63,24.3236
64,24.2736
65,24.2231
66,24.1722
67,24.12069
68,24.0688
69,24.0164
70,23.96356
71,23.9103
72,23.8566
73,23.8026
74,23.7481
75,23.6932
76.1,23.6351
77.1,23.5767
78.1,23.5207
79.1,23.46428
80.1,23.4075
81.1,23.3504
82.1,23.293
83.1,23.2352
84.1,23.1771
85.1,23.1186
86.1,23.0599
87.1,23.00078
88.1,22.9414
89.1,22.8817
90.1,22.8217
91.1,22.7613
92.1,22.7007
93.1,22.63982
94.1,22.5786
95.1,22.5171
96.1,22.4553
97.1,22.3932
98.1,22.33086
99.1,22.2682
100.1,22.2053
101.1,22.142
102.1,22.0785
103.1,22.0148
104.1,21.9507
105.1,21.8864
106.1,21.8218
107.1,21.75696
108.1,21.6918
109.1,21.62642
110.1,21.5607
111.1,21.4948
112.1,21.4286
113.1,21.3621
114.1,21.2953
115.1,21.2283
116.1,21.161
117.1,21.0934
118.1,21.0256
119.1,20.9575
120.1,20.8891
121.1,20.8205
122.1,20.7516
123.1,20.6824
124.1,20.613
125.1,20.5433
126.1,20.4734
127.1,20.4032
128.1,20.3327
129.1,20.2619
130.1,20.1909
131.1,20.1196
132.1,20.0481
133.1,19.97624
134.1,19.9041
135.1,19.8318
136.1,19.7591
137.1,19.6862
138.1,19.6131
139.1,19.5396
140.1,19.4659
141.1,19.3919
142.1,19.3177
143.1,19.2432
144.1,19.1684
145.1,19.0934
146.1,19.0181
147.1,18.9425
148.1,18.8667
149.1,18.7905
150.1,18.7142
151.1,18.63751
152.1,18.5606
153.1,18.4834
154.1,18.4059
155.1,18.3282
156.1,18.2502
157.1,18.1719
158.1,18.0934
159.1,18.0146
160.1,17.9355
161.1,17.8562
162.1,17.7766
163.1,17.6968
164.1,17.6167
165.1,17.5363
166.1,17.4557
167.1,17.37481
168.1,17.2937
169.1,17.2123
170.1,17.1307
171.1,17.0488
172.1,16.9667
173.1,16.8844
174.1,16.8018
175.1,16.7189
176.1,16.63588
177.1,16.5526
178.1,16.4691
179.1,16.3853
180.1,16.30129
181.1,16.2171
182.1,16.13263
183.1,16.04798
184.1,15.9631
185.1,15.8781
186.1,15.7928
187.1,15.7073
188.1,15.6217
189.1,15.5358
190.1,15.4498
191.1,15.3636
192.1,15.2772
193.1,15.1906
194.1,15.1038
195.1,15.0169
196.1,14.9298
197.1,14.8425
198.1,14.7551
199.1,14.6676
200.1,14.5799
201.1,14.492
202.1,14.404
203.1,14.3158
204.1,14.2275
205.1,14.1391
206.1,14.0505
207.1,13.9618
208.1,13.8729
209.1,13.7839
210.1,13.6948
211.1,13.6055
212.1,13.5161
213.1,13.4266
214.1,13.3369
215.1,13.2471
216.1,13.1571
217.1,13.067
218.1,12.9768
219.1,12.8864
220.1,12.7959
221.1,12.7052
222.1,12.6143
223.1,12.5233
224.1,12.4321
225.1,12.3407
226.1,12.2491
227.1,12.1573
228.1,12.0653
229.1,11.9731
230.1,11.8807
231.1,11.788
232.1,11.6951
233.1,11.602
234.1,11.5086
235.1,11.4149
236.1,11.3209
237.1,11.2267
238.1,11.13222
239.1,11.0374
240.1,10.9424
241.1,10.847
242.1,10.7514
243.1,10.6554
244.1,10.5592
245.1,10.46265
246.1,10.3658
247.1,10.2687
248.1,10.1713
249.1,10.07365
250.1,9.975698
251.1,9.877481
252.1,9.778995
253.1,9.680256
254.1,9.581275
255.1,9.482046
256.1,9.382569
257.1,9.282858
258.1,9.182917
259.1,9.082759
260.1,8.982394
261.1,8.881816
262.1,8.78104
263.1,8.680074
264.1,8.578926
265.1,8.477597
266.1,8.376087
267.1,8.274413
268.1,8.172567
269.1,8.070552
270.1,7.968375
271.1,7.866042
272.1,7.763559
273.1,7.66094
274.1,7.558183
275.1,7.455293
276.1,7.352267
277.1,7.249116
278.1,7.145842
279.1,7.042458
280.1,6.938958
281.1,6.835353
282.1,6.731628
283.1,6.627797
284.1,6.523864
285.1,6.419825
286.1,6.31568
287.1,6.211438
288.1,6.107112
289.1,6.002719
290.1,5.898247
291.1,5.793696
292.1,5.68906
293.1,5.584336
294.1,5.479528
295.1,5.374636
296.1,5.26966
297.1,5.1646
298.1,5.059456
299.1,4.954233
300.1,4.84893
301.1,4.743543
302,4.643354
303,4.543104
304,4.437504
305,4.331848
306,4.226125
307,4.12034
308,4.014497
309,3.908606
310,3.802671
311,3.696696
312,3.59069
313,3.484653
314,3.378603
315,3.272539
316,3.16648
317,3.060426
318,2.954389
319,2.848387
320,2.742447
321,2.636583
322,2.53082
323,2.425185
324,2.319683
325,2.214354
326,2.109245
327,2.004411
328,1.899806
329,1.795542
330,1.691671
331,1.588215
332,1.485335
333,1.382994
334,1.281413
335,1.180557
336,1.080655
337,0.981798
338,0.884063
339,0.787848
340,0.693013
341,0.600287
342,0.509487
343,0.420846
344,0.334944
345,0.253155
346,0.175869
347,0.104574
348,4.36E-02
349,5.75E-03
350,4.42E-06
351,0
352,0
353,0
354,0
355,0
356,0
357,0
358,0
359,0
360,0
361,0
362,0
363,0
364,0
365,0
366,0
367,0
368,0
369,0
370,0
371,0
372,0
373,0
374,0
375,0
376,0
377,0
378,0
379,0
380,0
381,0
382,0
383,0
384,0
385,0
386,0
387,0
388,0
389,0
390,0
391,0
392,0
393,0
394,0
395,0
396,0
397,0
398,0
399,0
400,0
401,0
402,0
403,0
404,0
405,0
406,0
407,0
408,0
409,0
410,0
411,0
412,0
413,0
414,0
415,0
416,0
417,0
418,0
419,0
420,0
421,0
422,0
423,0
424,0
425,0
426,0
427,0
428,0
429,0
430,0
431,0
432,0
433,0
434,0
435,0
436,0
437,0
438,0
439,0
440,0
441,0
442,0
443,0
444,0
445,0
446,0
447,0
448,0
449,0
450,0
451,0
452,0
453,0
454,0
455,0
456,0
457,0
458,0
459,0
460,0
461,0
462,0
463,0
464,0
465,0
466,0
467,0
468,0
469,0
470,0
471,0
472,0
473,0
474,0
475,0
476,0
477,0
478,0
479,0
480,0
481,0
482,0
483,0
484,0
485,0
486,0
487,0
488,0
489,0
490,0
491,0
492,0
493,0
494,0
495,0
496,0
497,0
498,0
499,0
500,0