File: PMMA/Validation_Results/Aalto-Model_1-PMMA-Gasification/Aalto_I_Gasification_q25_Mass.csv
s,g
t,m
0,25.63948
1.1,25.63948
2,25.63948
3,25.63948
4,25.63948
5.1,25.63948
6.1,25.63948
7.1,25.63948
8.1,25.63948
9.1,25.6395
10.1,25.6395
11.1,25.6395
12.1,25.6395
13.1,25.6395
14.1,25.6395
15.1,25.6394
16.1,25.6394
17.1,25.6394
18.1,25.6394
19,25.6394
20,25.6393
21,25.6393
22,25.6392
23,25.6391
24,25.639
25,25.6389
26,25.6388
27,25.6386
28,25.6384
29,25.6382
30,25.6379
31,25.63761
32,25.6373
33,25.6369
34,25.6364
35,25.6359
36,25.6354
37,25.6347
38,25.634
39,25.6333
40,25.6324
41,25.6315
42,25.63048
43,25.6294
44,25.6282
45,25.6269
46,25.6255
47,25.624
48,25.6224
49,25.6207
50,25.6189
51,25.617
52,25.615
53,25.6128
54,25.6106
55,25.6083
56,25.6058
57,25.6033
58,25.6007
59,25.598
60,25.5952
61,25.5923
62,25.5893
63,25.5862
64,25.5831
65,25.5799
66,25.5767
67,25.57337
68,25.57
69,25.5666
70,25.5632
71,25.5597
72,25.5562
73,25.5527
74,25.5491
75,25.5456
76.1,25.5418
77.1,25.538
78.1,25.5344
79.1,25.5309
80.1,25.5273
81.1,25.5237
82.1,25.5201
83.1,25.51653
84.1,25.513
85.1,25.5094
86.1,25.5059
87.1,25.5023
88.1,25.4988
89.1,25.4953
90.1,25.4918
91.1,25.4883
92.1,25.4848
93.1,25.4813
94.1,25.4778
95.1,25.4743
96.1,25.4708
97.1,25.4674
98.1,25.4639
99.1,25.4604
100.1,25.4569
101.1,25.4534
102.1,25.44985
103.1,25.4463
104.1,25.4428
105.1,25.4392
106.1,25.4356
107.1,25.43203
108.1,25.4284
109.1,25.4248
110.1,25.42108
111.1,25.41738
112.1,25.4136
113.1,25.4099
114.1,25.40609
115.1,25.4023
116.1,25.3984
117.1,25.3945
118.1,25.3905
119.1,25.3865
120.1,25.3825
121.1,25.3784
122.1,25.37431
123.1,25.3701
124.1,25.3659
125.1,25.3616
126.1,25.3573
127.1,25.3529
128.1,25.3485
129.1,25.344
130.1,25.3394
131.1,25.3348
132.1,25.3301
133.1,25.3253
134.1,25.3205
135.1,25.3156
136.1,25.3106
137.1,25.30561
138.1,25.3005
139.1,25.2953
140.1,25.29
141.1,25.2847
142.1,25.27929
143.1,25.27379
144.1,25.2682
145.1,25.2625
146.1,25.2568
147.1,25.25094
148.1,25.245
149.1,25.239
150.1,25.2329
151.1,25.22668
152.1,25.2204
153.1,25.214
154.1,25.2075
155.1,25.20093
156.1,25.19425
157.1,25.1875
158.1,25.1806
159.1,25.1736
160.1,25.1665
161.1,25.1593
162.1,25.1521
163.1,25.1447
164.1,25.1372
165.1,25.1295
166.1,25.1218
167.1,25.114
168.1,25.1061
169.1,25.09804
170.1,25.0899
171.1,25.0816
172.1,25.0733
173.1,25.0648
174.1,25.0562
175.1,25.0475
176.1,25.0386
177.1,25.0297
178.1,25.0206
179.1,25.0115
180.1,25.0022
181.1,24.9928
182.1,24.9833
183.1,24.9737
184.1,24.9639
185.1,24.9541
186.1,24.9441
187.1,24.934
188.1,24.9238
189.1,24.9134
190.1,24.903
191.1,24.8924
192.1,24.8818
193.1,24.871
194.1,24.86
195.1,24.84901
196.1,24.8379
197.1,24.8266
198.1,24.8152
199.1,24.8037
200.1,24.7921
201.1,24.7803
202.1,24.7685
203.1,24.7565
204.1,24.7444
205.1,24.7322
206.1,24.7199
207.1,24.7075
208.1,24.6949
209.1,24.6822
210.1,24.66945
211.1,24.6565
212.1,24.6435
213.1,24.6304
214.1,24.6172
215.1,24.6038
216.1,24.5903
217.1,24.5767
218.1,24.563
219.1,24.5492
220.1,24.5353
221.1,24.5213
222.1,24.5071
223.1,24.4929
224.1,24.4785
225.1,24.464
226.1,24.4494
227.1,24.4347
228.1,24.4199
229.1,24.405
230.1,24.39
231.1,24.3748
232.1,24.3596
233.1,24.3443
234.1,24.3288
235.1,24.3133
236.1,24.2976
237.1,24.2818
238.1,24.266
239.1,24.25
240.1,24.23395
241.1,24.2178
242.1,24.2015
243.1,24.1851
244.1,24.16868
245.1,24.1521
246.1,24.13545
247.1,24.1187
248.1,24.1018
249.1,24.0849
250.1,24.0678
251.1,24.0507
252.1,24.0335
253.1,24.0161
254.1,23.9987
255.1,23.9812
256.1,23.9636
257.1,23.94593
258.1,23.9282
259.1,23.9103
260.1,23.89234
261.1,23.8743
262.1,23.8562
263.1,23.838
264.1,23.8197
265.1,23.8013
266.1,23.7829
267.1,23.7643
268.1,23.7457
269.1,23.727
270.1,23.7083
271.1,23.6894
272.1,23.6705
273.1,23.6515
274.1,23.6324
275.1,23.6133
276.1,23.594
277.1,23.5747
278.1,23.5554
279.1,23.5359
280.1,23.5164
281.1,23.4969
282.1,23.4772
283.1,23.4575
284.1,23.4377
285.1,23.41789
286.1,23.398
287.1,23.37802
288.1,23.358
289.1,23.3379
290.1,23.3177
291.1,23.29753
292.1,23.2773
293.1,23.2569
294.1,23.2365
295.1,23.2161
296.1,23.1956
297.1,23.175
298.1,23.1544
299.1,23.1338
300.1,23.1131
301.1,23.09229
302,23.0725
303,23.0527
304,23.0318
305,23.0108
306,22.9898
307,22.9687
308,22.9476
309,22.9265
310,22.9053
311,22.8841
312,22.8628
313,22.8415
314,22.8201
315,22.7987
316,22.7772
317,22.7557
318,22.7342
319,22.7126
320,22.691
321,22.6694
322,22.6477
323,22.626
324,22.60423
325,22.5824
326,22.5606
327,22.5387
328,22.5168
329,22.4949
330,22.473
331,22.451
332,22.4289
333,22.4069
334,22.3848
335,22.3627
336,22.3405
337,22.3183
338,22.2961
339,22.2739
340,22.25159
341,22.2293
342,22.207
343,22.1846
344,22.1622
345,22.1398
346,22.1173
347,22.0949
348,22.0724
349,22.0498
350,22.0273
351,22.0047
352,21.9821
353,21.9595
354,21.9368
355,21.9141
356,21.8914
357,21.8687
358,21.8459
359,21.8231
360,21.8003
361,21.7774
362,21.7546
363,21.7317
364,21.7087
365,21.6858
366,21.6628
367,21.6398
368,21.6167
369,21.5937
370,21.5706
371,21.5475
372,21.5243
373,21.5011
374,21.4779
375,21.4547
376,21.4314
377,21.4081
378,21.3848
379,21.3615
380,21.3381
381,21.3147
382,21.2912
383,21.26775
384,21.2442
385,21.2207
386,21.1971
387,21.1735
388,21.1499
389,21.1262
390,21.10253
391,21.0788
392,21.055
393,21.0312
394,21.0074
395,20.9835
396,20.9596
397,20.9356
398,20.9117
399,20.8876
400,20.86357
401,20.8395
402,20.8153
403,20.7912
404,20.767
405,20.7427
406,20.7184
407,20.6941
408,20.6697
409,20.6453
410,20.6209
411,20.5964
412,20.5718
413,20.5473
414,20.5227
415,20.498
416,20.47331
417,20.4486
418,20.4238
419,20.399
420,20.3741
421,20.3492
422,20.3243
423,20.2993
424,20.2742
425,20.2491
426,20.224
427,20.1989
428,20.1737
429,20.1484
430,20.1231
431,20.0978
432,20.0724
433,20.047
434,20.0215
435,19.996
436,19.9704
437,19.9448
438,19.9192
439,19.8935
440,19.8678
441,19.842
442,19.8162
443,19.7904
444,19.76448
445,19.7385
446,19.7126
447,19.6866
448,19.6605
449,19.6344
450,19.6083
451,19.5821
452,19.5559
453,19.5296
454,19.5033
455,19.477
456,19.4506
457,19.4242
458,19.3977
459,19.3712
460,19.3447
461,19.3181
462,19.2915
463,19.26486
464,19.2382
465,19.2115
466,19.1847
467,19.1579
468,19.13107
469,19.1042
470,19.0773
471,19.0504
472,19.0234
473,18.9964
474,18.9694
475,18.9423
476,18.9152
477,18.8881
478,18.8609
479,18.8337
480,18.8065
481,18.7792
482,18.7519
483,18.7246
484,18.6972
485,18.6698
486,18.6424
487,18.615
488,18.5875
489,18.56
490,18.5325
491,18.5049
492,18.4773
493,18.4497
494,18.42209
495,18.3944
496,18.3667
497,18.339
498,18.3113
499,18.2835
500,18.2557
501,18.2278
502,18.2
503,18.1721
504,18.1442
505,18.1163
506,18.0883
507,18.0604
508,18.03237
509,18.0043
510,17.9763
511,17.9482
512,17.9201
513,17.892
514,17.8639
515,17.8357
516,17.8076
517,17.77937
518,17.7512
519,17.7229
520,17.6947
521,17.6664
522,17.6381
523,17.6098
524,17.5814
525,17.5531
526,17.5247
527,17.4963
528,17.4679
529,17.4394
530,17.411
531,17.3825
532,17.354
533,17.3255
534,17.297
535,17.2684
536,17.2399
537,17.2113
538,17.1827
539,17.1541
540,17.12544
541,17.09679
542,17.0681
543,17.0394
544,17.0107
545,16.982
546,16.9533
547,16.9246
548,16.8958
549,16.86702
550,16.8382
551,16.8094
552,16.7806
553,16.75178
554,16.7229
555,16.6941
556,16.6652
557,16.6363
558,16.6074
559,16.5785
560,16.5496
561,16.5206
562,16.4917
563,16.4627
564,16.4337
565,16.4047
566,16.3757
567,16.3467
568,16.3177
569,16.2886
570,16.2596
571,16.23052
572,16.2014
573,16.17235
574,16.1433
575,16.1141
576,16.085
577,16.0559
578,16.0267
579,15.9976
580,15.9684
581,15.9392
582,15.91
583,15.8808
584,15.8516
585,15.82241
586,15.7932
587,15.7639
588,15.7347
589,15.7054
590,15.6761
591,15.6469
592,15.6176
593,15.5883
594,15.559
595,15.5296
596,15.5003
597,15.471
598,15.4416
599,15.4123
600,15.3829
601,15.3535
602,15.3241
603,15.2947
604,15.26534
605,15.2359
606,15.20651
607,15.1771
608,15.1476
609,15.1182
610,15.0887
611,15.0593
612,15.0298
613,15.0003
614,14.9709
615,14.9414
616,14.9119
617,14.8823
618,14.8528
619,14.8233
620,14.7938
621,14.7642
622,14.7347
623,14.7051
624,14.6756
625,14.646
626,14.6164
627,14.5869
628,14.5573
629,14.5277
630,14.4981
631,14.4685
632,14.4388
633,14.4092
634,14.37958
635,14.3499
636,14.3203
637,14.2906
638,14.261
639,14.2313
640,14.2017
641,14.172
642,14.1423
643,14.1126
644,14.0829
645,14.0532
646,14.0235
647,13.9938
648,13.964
649,13.9343
650,13.9046
651,13.87484
652,13.8451
653,13.8153
654,13.7856
655,13.7558
656,13.726
657,13.6963
658,13.6665
659,13.6367
660,13.6069
661,13.5771
662,13.5473
663,13.5175
664,13.4877
665,13.4578
666,13.428
667,13.3982
668,13.3683
669,13.33848
670,13.3086
671,13.2788
672,13.2489
673,13.21904
674,13.1892
675,13.1593
676,13.1294
677,13.0995
678,13.0696
679,13.0397
680,13.0098
681,12.9799
682,12.95
683,12.9201
684,12.8902
685,12.8602
686,12.8303
687,12.8004
688,12.7704
689,12.7405
690,12.7105
691,12.6805
692,12.6506
693,12.6206
694,12.5906
695,12.5607
696,12.5307
697,12.5007
698,12.4707
699,12.4407
700,12.4107
701,12.3807
702,12.3507
703,12.3207
704,12.2907
705,12.2606
706,12.2306
707,12.2006
708,12.1705
709,12.1405
710,12.1105
711,12.0804
712,12.05037
713,12.0203
714,11.9903
715,11.9602
716,11.9301
717,11.9001
718,11.87
719,11.8399
720,11.8098
721,11.7797
722,11.7497
723,11.7196
724,11.6895
725,11.6594
726,11.6293
727,11.5991
728,11.569
729,11.5389
730,11.5088
731,11.4787
732,11.4485
733,11.4184
734,11.3883
735,11.3581
736,11.328
737,11.29786
738,11.2677
739,11.2376
740,11.20741
741,11.1773
742,11.1471
743,11.1169
744,11.08679
745,11.0566
746,11.0265
747,10.9963
748,10.9661
749,10.9359
750,10.90574
751,10.8756
752,10.8454
753,10.8152
754,10.785
755,10.7548
756,10.7246
757,10.6944
758,10.6642
759,10.6339
760,10.6037
761,10.5735
762,10.54329
763,10.5131
764,10.48283
765,10.4526
766,10.4224
767,10.3921
768,10.36186
769,10.3316
770,10.3014
771,10.2711
772,10.2409
773,10.2106
774,10.1803
775,10.15006
776,10.1198
777,10.0895
778,10.0592
779,10.029
780,9.998681
781,9.968396
782,9.938106
783,9.907807
784,9.877508
785,9.847205
786,9.816906
787,9.786607
788,9.756304
789,9.725996
790,9.69568
791,9.665363
792,9.635043
793,9.604717
794,9.574387
795,9.544067
796,9.513741
797,9.483412
798,9.453077
799,9.422739
800,9.3924
801,9.362053
802,9.331705
803,9.301354
804,9.271011
805,9.240663
806,9.210311
807,9.179955
808,9.149594
809,9.119234
810,9.088869
811,9.058499
812,9.028129
813,8.997764
814,8.967399
815,8.93703
816,8.906656
817,8.876277
818,8.845895
819,8.815512
820,8.785125
821,8.754742
822,8.724364
823,8.693981
824,8.663594
825,8.633202
826,8.60281
827,8.572414
828,8.542014
829,8.511613
830,8.481217
831,8.450826
832,8.42043
833,8.390029
834,8.359624
835,8.329219
836,8.29881
837,8.268396
838,8.237983
839,8.207578
840,8.177173
841,8.146764
842,8.116354
843,8.08594
844,8.055522
845,8.025104
846,7.994686
847,7.964263
848,7.933854
849,7.90344
850,7.873022
851,7.842609
852,7.812186
853,7.781763
854,7.751341
855,7.720918
856,7.690496
857,7.660082
858,7.629668
859,7.59925
860,7.568832
861,7.538409
862,7.507987
863,7.477569
864,7.447146
865,7.416728
866,7.386314
867,7.355901
868,7.325487
869,7.295073
870,7.264655
871,7.234237
872,7.203819
873,7.173405
874,7.142996
875,7.112591
876,7.082181
877,7.051776
878,7.021367
879,6.990958
880,6.960549
881,6.930139
882,6.89973
883,6.869329
884,6.838933
885,6.808537
886,6.778137
887,6.747736
888,6.71734
889,6.68694
890,6.656544
891,6.626148
892,6.595765
893,6.565382
894,6.535
895,6.504617
896,6.474238
897,6.443856
898,6.413482
899,6.383103
900,6.352734
901,6.322373
902,6.292017
903,6.261661
904,6.231304
905,6.200948
906,6.170601
907,6.140253
908,6.109906
909,6.079567
910,6.049237
911,6.018912
912,5.988587
913,5.958266
914,5.927945
915,5.897629
916,5.867317
917,5.837004
918,5.806706
919,5.776411
920,5.746126
921,5.71584
922,5.685559
923,5.655282
924,5.62501
925,5.594742
926,5.564479
927,5.534229
928,5.503987
929,5.473746
930,5.443514
931,5.413286
932,5.383062
933,5.352843
934,5.322628
935,5.292422
936,5.262229
937,5.232041
938,5.201861
939,5.171686
940,5.141516
941,5.111354
942,5.081197
943,5.051048
944,5.020909
945,4.990782
946,4.960665
947,4.930556
948,4.900456
949,4.870361
950,4.840274
951,4.810201
952,4.780132
953,4.750072
954,4.720029
955,4.69
956,4.65998
957,4.629964
958,4.599961
959,4.569968
960,4.539987
961,4.510015
962,4.480053
963,4.450112
964,4.420184
965,4.390266
966,4.36036
967,4.330464
968,4.300576
969,4.270706
970,4.240845
971,4.211002
972,4.181171
973,4.151363
974,4.121564
975,4.091783
976,4.06201
977,4.032255
978,4.002513
979,3.972789
980,3.943082
981,3.913394
982,3.883727
983,3.854078
984,3.824442
985,3.794824
986,3.765224
987,3.735641
988,3.706072
989,3.676529
990,3.647004
991,3.617505
992,3.588024
993,3.558561
994,3.52912
995,3.499701
996,3.470304
997,3.440924
998,3.411572
999,3.382245
1000,3.35295
1001,3.323672
1002,3.294421
1003,3.265192
1004,3.23599
1005,3.206809
1006,3.177655
1007,3.148528
1008,3.119432
1009,3.090371
1010,3.061336
1011,3.032333
1012,3.003356
1013,2.97441
1014,2.94549
1015,2.916601
1016,2.887748
1017,2.858926
1018,2.830143
1019,2.801396
1020,2.772689
1021,2.744008
1022,2.715367
1023,2.686761
1024,2.658191
1025,2.62966
1026,2.601165
1027,2.572714
1028,2.544307
1029,2.515945
1030,2.487626
1031,2.459348
1032,2.431113
1033,2.402923
1034,2.374777
1035,2.346676
1036,2.318622
1037,2.290631
1038,2.262693
1039,2.234803
1040,2.206962
1041,2.179175
1042,2.151435
1043,2.123753
1044,2.096125
1045,2.068553
1046,2.041044
1047,2.01361
1048,1.986233
1049,1.958918
1050,1.931665
1051,1.904474
1052,1.877349
1053,1.850291
1054,1.823299
1055,1.796373
1056,1.769535
1057,1.742782
1058,1.716103
1059,1.6895
1060,1.662972
1061,1.636519
1062,1.610142
1063,1.583852
1064,1.557647
1065,1.531526
1066,1.50551
1067,1.479601
1068,1.453789
1069,1.428066
1070,1.402431
1071,1.376893
1072,1.351457
1073,1.326123
1074,1.300885
1075,1.275754
1076,1.250751
1077,1.225899
1078,1.201157
1079,1.176529
1080,1.152017
1081,1.127624
1082,1.103351
1083,1.079201
1084,1.055184
1085,1.031295
1086,1.007539
1087,0.983968
1088,0.960579
1089,0.937331
1090,0.914229
1091,0.891268
1092,0.868458
1093,0.845807
1094,0.823315
1095,0.800986
1096,0.778821
1097,0.756838
1098,0.735053
1099,0.713547
1100,0.692231
1101,0.6711
1102,0.650155
1103,0.629401
1104,0.608845
1105,0.588492
1106,0.568352
1107,0.548433
1108,0.528735
1109,0.509271
1110,0.490041
1111,0.471174
1112,0.452656
1113,0.434377
1114,0.416341
1115,0.398557
1116,0.381034
1117,0.363784
1118,0.346814
1119,0.33013
1120,0.313752
1121,0.297683
1122,0.281928
1123,0.266509
1124,0.251426
1125,0.236692
1126,0.222321
1127,0.208321
1128,0.194705
1129,0.181483
1130,0.168668
1131,0.156273
1132,0.14431
1133,0.132786
1134,0.121721
1135,0.111125
1136,0.101006
1137,9.14E-02
1138,8.23E-02
1139,7.37E-02
1140,6.56E-02
1141,5.80E-02
1142,5.10E-02
1143,4.45E-02
1144,3.86E-02
1145,3.31E-02
1146,2.83E-02
1147,2.39E-02
1148,2.00E-02
1149,1.66E-02
1150,1.37E-02
1151,1.12E-02
1152,9.03E-03
1153,7.23E-03
1154,5.75E-03
1155,4.53E-03
1156,3.55E-03
1157,2.75E-03
1158,2.13E-03
1159,1.63E-03
1160,1.25E-03
1161,9.46E-04
1162,7.12E-04
1163,5.35E-04
1164,4.02E-04
1165,3.01E-04
1166,2.21E-04
1167,1.64E-04
1168,1.24E-04
1169,8.84E-05
1170,6.63E-05
1171,4.86E-05
1172,3.54E-05
1173,2.65E-05
1174,1.77E-05
1175,1.33E-05
1176,8.84E-06
1177,8.84E-06
1178,4.42E-06
1179,4.42E-06
1180,4.42E-06
1181,0
1182,0
1183,0
1184,0
1185,0
1186,0
1187,0
1188,0
1189,0
1190,0
1191,0
1192,0
1193,0
1194,0
1195,0
1196,0
1197,0
1198,0
1199,0
1200,0