File: PMMA/Validation_Results/Aalto-Model_1-PMMA-Gasification/Aalto_I_Gasification_q25_Temp.csv
s,K
t,T_back
0,293.15
1.1,293.15
2,293.15
3,293.15
4,293.15
5.1,293.15
6.1,293.15
7.1,293.15
8.1,293.15
9.1,293.15
10.1,293.15
11.1,293.151
12.1,293.153
13.1,293.155
14.1,293.16
15.1,293.167
16.1,293.178
17.1,293.194
18.1,293.215
19,293.243
20,293.278
21,293.324
22,293.382
23,293.451
24,293.534
25,293.6319
26,293.745
27,293.874
28,294.02
29,294.185
30,294.367
31,294.569
32,294.79
33,295.031
34,295.292
35,295.573
36,295.875
37,296.197
38,296.54
39,296.903
40,297.287
41,297.69
42,298.114
43,298.557
44,299.02
45,299.502
46,300.003
47,300.523
48,301.061
49,301.617
50,302.191
51,302.782
52,303.389
53,304.013
54,304.653
55,305.309
56,305.979
57,306.665
58,307.364
59,308.078
60,308.805
61,309.545
62,310.298
63,311.063
64,311.8403
65,312.629
66,313.428
67,314.238
68,315.059
69,315.889
70,316.729
71,317.578
72,318.436
73,319.302
74,320.176
75,321.058
76.1,321.992
77.1,322.934
78.1,323.838
79.1,324.749
80.1,325.665
81.1,326.587
82.1,327.516
83.1,328.449
84.1,329.387
85.1,330.33
86.1,331.278
87.1,332.23
88.1,333.185
89.1,334.145
90.1,335.108
91.1,336.075
92.1,337.044
93.1,338.017
94.1,338.992
95.1,339.97
96.1,340.951
97.1,341.933
98.1,342.917
99.1,343.904
100.1,344.892
101.1,345.881
102.1,346.872
103.1,347.864
104.1,348.857
105.1,349.851
106.1,350.846
107.1,351.842
108.1,352.838
109.1,353.835
110.1,354.832
111.1,355.829
112.1,356.827
113.1,357.824
114.1,358.821
115.1,359.818
116.1,360.815
117.1,361.811
118.1,362.807
119.1,363.803
120.1,364.797
121.1,365.791
122.1,366.784
123.1,367.776
124.1,368.768
125.1,369.758
126.1,370.747
127.1,371.735
128.1,372.721
129.1,373.706
130.1,374.69
131.1,375.672
132.1,376.653
133.1,377.6316
134.1,378.609
135.1,379.584
136.1,380.558
137.1,381.53
138.1,382.5
139.1,383.4678
140.1,384.434
141.1,385.397
142.1,386.359
143.1,387.319
144.1,388.276
145.1,389.23
146.1,390.183
147.1,391.133
148.1,392.08
149.1,393.025
150.1,393.968
151.1,394.9076
152.1,395.845
153.1,396.78
154.1,397.711
155.1,398.64
156.1,399.567
157.1,400.49
158.1,401.41
159.1,402.328
160.1,403.243
161.1,404.154
162.1,405.062
163.1,405.968
164.1,406.87
165.1,407.769
166.1,408.665
167.1,409.558
168.1,410.447
169.1,411.3332
170.1,412.216
171.1,413.0954
172.1,413.971
173.1,414.8441
174.1,415.713
175.1,416.579
176.1,417.4409
177.1,418.3
178.1,419.155
179.1,420.006
180.1,420.854
181.1,421.698
182.1,422.539
183.1,423.3755
184.1,424.209
185.1,425.038
186.1,425.864
187.1,426.685
188.1,427.503
189.1,428.317
190.1,429.128
191.1,429.934
192.1,430.737
193.1,431.536
194.1,432.33
195.1,433.1211
196.1,433.908
197.1,434.691
198.1,435.47
199.1,436.245
200.1,437.016
201.1,437.783
202.1,438.546
203.1,439.305
204.1,440.06
205.1,440.811
206.1,441.557
207.1,442.3
208.1,443.038
209.1,443.773
210.1,444.5033
211.1,445.23
212.1,445.952
213.1,446.67
214.1,447.384
215.1,448.094
216.1,448.8
217.1,449.501
218.1,450.199
219.1,450.893
220.1,451.582
221.1,452.268
222.1,452.949
223.1,453.626
224.1,454.299
225.1,454.968
226.1,455.633
227.1,456.294
228.1,456.951
229.1,457.604
230.1,458.253
231.1,458.898
232.1,459.539
233.1,460.176
234.1,460.809
235.1,461.4378
236.1,462.063
237.1,462.684
238.1,463.302
239.1,463.916
240.1,464.525
241.1,465.131
242.1,465.733
243.1,466.331
244.1,466.926
245.1,467.516
246.1,468.104
247.1,468.687
248.1,469.267
249.1,469.844
250.1,470.416
251.1,470.985
252.1,471.55
253.1,472.113
254.1,472.671
255.1,473.227
256.1,473.778
257.1,474.327
258.1,474.872
259.1,475.413
260.1,475.952
261.1,476.487
262.1,477.02
263.1,477.548
264.1,478.075
265.1,478.597
266.1,479.117
267.1,479.634
268.1,480.148
269.1,480.658
270.1,481.167
271.1,481.672
272.1,482.175
273.1,482.674
274.1,483.171
275.1,483.665
276.1,484.157
277.1,484.646
278.1,485.133
279.1,485.617
280.1,486.099
281.1,486.577
282.1,487.055
283.1,487.5286
284.1,488.0014
285.1,488.471
286.1,488.939
287.1,489.404
288.1,489.868
289.1,490.329
290.1,490.789
291.1,491.246
292.1,491.701
293.1,492.155
294.1,492.606
295.1,493.056
296.1,493.5035
297.1,493.95
298.1,494.394
299.1,494.838
300.1,495.278
301.1,495.718
302,496.134
303,496.548
304,496.984
305,497.417
306,497.85
307,498.28
308,498.71
309,499.138
310,499.564
311,499.99
312,500.414
313,500.837
314,501.2587
315,501.68
316,502.099
317,502.517
318,502.935
319,503.351
320,503.767
321,504.181
322,504.594
323,505.007
324,505.418
325,505.829
326,506.238
327,506.647
328,507.055
329,507.461
330,507.868
331,508.273
332,508.678
333,509.082
334,509.485
335,509.888
336,510.2884
337,510.689
338,511.09
339,511.488
340,511.888
341,512.285
342,512.6824
343,513.079
344,513.474
345,513.87
346,514.264
347,514.657
348,515.0506
349,515.442
350,515.834
351,516.225
352,516.614
353,517.004
354,517.3918
355,517.78
356,518.167
357,518.553
358,518.939
359,519.323
360,519.707
361,520.09
362,520.471
363,520.854
364,521.233
365,521.612
366,521.992
367,522.3684
368,522.746
369,523.121
370,523.495
371,523.87
372,524.242
373,524.613
374,524.984
375,525.353
376,525.7212
377,526.089
378,526.454
379,526.819
380,527.182
381,527.544
382,527.905
383,528.264
384,528.622
385,528.98
386,529.334
387,529.688
388,530.042
389,530.391
390,530.741
391,531.09
392,531.435
393,531.781
394,532.124
395,532.465
396,532.806
397,533.144
398,533.48
399,533.816
400,534.149
401,534.48
402,534.81
403,535.138
404,535.463
405,535.788
406,536.11
407,536.43
408,536.749
409,537.066
410,537.38
411,537.693
412,538.005
413,538.312
414,538.62
415,538.925
416,539.228
417,539.529
418,539.828
419,540.125
420,540.42
421,540.713
422,541.005
423,541.293
424,541.58
425,541.866
426,542.149
427,542.429
428,542.709
429,542.986
430,543.261
431,543.534
432,543.806
433,544.075
434,544.342
435,544.6074
436,544.871
437,545.132
438,545.391
439,545.649
440,545.905
441,546.158
442,546.41
443,546.661
444,546.909
445,547.155
446,547.3995
447,547.643
448,547.884
449,548.122
450,548.36
451,548.596
452,548.8305
453,549.062
454,549.293
455,549.522
456,549.75
457,549.975
458,550.198
459,550.421
460,550.642
461,550.862
462,551.0786
463,551.295
464,551.509
465,551.723
466,551.934
467,552.144
468,552.352
469,552.56
470,552.766
471,552.97
472,553.173
473,553.375
474,553.576
475,553.775
476,553.972
477,554.167
478,554.362
479,554.557
480,554.749
481,554.94
482,555.129
483,555.318
484,555.506
485,555.693
486,555.877
487,556.06
488,556.243
489,556.426
490,556.607
491,556.785
492,556.963
493,557.14
494,557.317
495,557.492
496,557.666
497,557.838
498,558.01
499,558.181
500,558.3515
501,558.521
502,558.688
503,558.856
504,559.022
505,559.187
506,559.352
507,559.516
508,559.678
509,559.839
510,560.0001
511,560.161
512,560.321
513,560.4784
514,560.636
515,560.793
516,560.948
517,561.104
518,561.259
519,561.413
520,561.565
521,561.718
522,561.8696
523,562.021
524,562.172
525,562.321
526,562.469
527,562.617
528,562.765
529,562.912
530,563.059
531,563.204
532,563.3485
533,563.493
534,563.637
535,563.781
536,563.923
537,564.065
538,564.207
539,564.347
540,564.488
541,564.629
542,564.769
543,564.907
544,565.045
545,565.183
546,565.32
547,565.457
548,565.594
549,565.731
550,565.865
551,566
552,566.135
553,566.269
554,566.4036
555,566.537
556,566.671
557,566.802
558,566.935
559,567.067
560,567.198
561,567.329
562,567.46
563,567.5905
564,567.72
565,567.849
566,567.979
567,568.107
568,568.236
569,568.364
570,568.493
571,568.62
572,568.747
573,568.874
574,569.001
575,569.127
576,569.253
577,569.38
578,569.505
579,569.631
580,569.755
581,569.8801
582,570.004
583,570.128
584,570.253
585,570.376
586,570.5
587,570.624
588,570.7461
589,570.869
590,570.992
591,571.114
592,571.237
593,571.358
594,571.48
595,571.602
596,571.723
597,571.845
598,571.966
599,572.087
600,572.208
601,572.328
602,572.449
603,572.569
604,572.689
605,572.81
606,572.929
607,573.048
608,573.167
609,573.2865
610,573.406
611,573.526
612,573.645
613,573.764
614,573.882
615,573.999
616,574.117
617,574.2359
618,574.354
619,574.473
620,574.591
621,574.709
622,574.826
623,574.9434
624,575.061
625,575.179
626,575.297
627,575.414
628,575.532
629,575.649
630,575.765
631,575.881
632,575.998
633,576.115
634,576.233
635,576.35
636,576.4671
637,576.583
638,576.699
639,576.815
640,576.931
641,577.048
642,577.165
643,577.282
644,577.398
645,577.515
646,577.63
647,577.745
648,577.862
649,577.978
650,578.095
651,578.211
652,578.327
653,578.4439
654,578.56
655,578.674
656,578.7898
657,578.906
658,579.022
659,579.1381
660,579.2544
661,579.371
662,579.487
663,579.6018
664,579.7171
665,579.833
666,579.949
667,580.065
668,580.182
669,580.298
670,580.415
671,580.53
672,580.645
673,580.7608
674,580.877
675,580.993
676,581.11
677,581.227
678,581.343
679,581.459
680,581.574
681,581.689
682,581.806
683,581.922
684,582.039
685,582.156
686,582.273
687,582.389
688,582.505
689,582.62
690,582.736
691,582.853
692,582.97
693,583.088
694,583.2049
695,583.321
696,583.4379
697,583.553
698,583.67
699,583.7876
700,583.905
701,584.023
702,584.141
703,584.258
704,584.375
705,584.491
706,584.608
707,584.725
708,584.843
709,584.962
710,585.08
711,585.197
712,585.315
713,585.432
714,585.549
715,585.667
716,585.786
717,585.905
718,586.023
719,586.141
720,586.26
721,586.378
722,586.496
723,586.615
724,586.734
725,586.853
726,586.973
727,587.092
728,587.211
729,587.33
730,587.448
731,587.567
732,587.687
733,587.807
734,587.927
735,588.047
736,588.167
737,588.287
738,588.4068
739,588.526
740,588.647
741,588.772
742,588.904
743,589.025
744,589.146
745,589.268
746,589.389
747,589.5097
748,589.632
749,589.754
750,589.883
751,590.014
752,590.137
753,590.26
754,590.382
755,590.504
756,590.627
757,590.751
758,590.8747
759,591.006
760,591.138
761,591.263
762,591.3863
763,591.51
764,591.635
765,591.76
766,591.885
767,592.009
768,592.1463
769,592.277
770,592.402
771,592.528
772,592.6538
773,592.78
774,592.906
775,593.032
776,593.159
777,593.301
778,593.429
779,593.5558
780,593.683
781,593.811
782,593.938
783,594.066
784,594.195
785,594.324
786,594.467
787,594.596
788,594.725
789,594.854
790,594.983
791,595.112
792,595.242
793,595.371
794,595.504
795,595.649
796,595.779
797,595.909
798,596.04
799,596.171
800,596.302
801,596.432
802,596.563
803,596.703
804,596.846
805,596.978
806,597.111
807,597.244
808,597.376
809,597.508
810,597.641
811,597.774
812,597.919
813,598.061
814,598.195
815,598.329
816,598.462
817,598.597
818,598.732
819,598.867
820,599.002
821,599.1541
822,599.294
823,599.429
824,599.565
825,599.702
826,599.839
827,599.976
828,600.113
829,600.251
830,600.409
831,600.546
832,600.6845
833,600.824
834,600.962
835,601.1017
836,601.241
837,601.38
838,601.523
839,601.681
840,601.822
841,601.962
842,602.104
843,602.2455
844,602.3862
845,602.527
846,602.669
847,602.821
848,602.977
849,603.121
850,603.264
851,603.4072
852,603.55
853,603.695
854,603.84
855,603.9843
856,604.143
857,604.299
858,604.444
859,604.59
860,604.737
861,604.884
862,605.031
863,605.178
864,605.325
865,605.494
866,605.645
867,605.794
868,605.944
869,606.093
870,606.244
871,606.393
872,606.542
873,606.695
874,606.8703
875,607.022
876,607.174
877,607.327
878,607.479
879,607.632
880,607.786
881,607.94
882,608.101
883,608.275
884,608.43
885,608.585
886,608.7416
887,608.899
888,609.055
889,609.2122
890,609.37
891,609.5399
892,609.713
893,609.872
894,610.032
895,610.193
896,610.353
897,610.5122
898,610.672
899,610.833
900,611.012
901,611.187
902,611.351
903,611.513
904,611.677
905,611.841
906,612.006
907,612.1707
908,612.336
909,612.525
910,612.699
911,612.867
912,613.036
913,613.204
914,613.373
915,613.54
916,613.708
917,613.878
918,614.082
919,614.254
920,614.4268
921,614.598
922,614.771
923,614.945
924,615.119
925,615.292
926,615.472
927,615.6752
928,615.853
929,616.032
930,616.21
931,616.388
932,616.564
933,616.742
934,616.921
935,617.111
936,617.319
937,617.502
938,617.685
939,617.869
940,618.053
941,618.236
942,618.419
943,618.602
944,618.8024
945,619.016
946,619.206
947,619.395
948,619.582
949,619.771
950,619.961
951,620.151
952,620.341
953,620.551
954,620.767
955,620.964
956,621.1603
957,621.356
958,621.55
959,621.744
960,621.94
961,622.137
962,622.362
963,622.583
964,622.786
965,622.988
966,623.19
967,623.392
968,623.594
969,623.795
970,623.999
971,624.233
972,624.465
973,624.6763
974,624.886
975,625.095
976,625.304
977,625.512
978,625.722
979,625.932
980,626.176
981,626.4184
982,626.638
983,626.855
984,627.071
985,627.288
986,627.504
987,627.723
988,627.942
989,628.197
990,628.451
991,628.68
992,628.905
993,629.13
994,629.354
995,629.58
996,629.807
997,630.034
998,630.293
999,630.566
1000,630.805
1001,631.039
1002,631.272
1003,631.505
1004,631.741
1005,631.978
1006,632.214
1007,632.47
1008,632.771
1009,633.021
1010,633.264
1011,633.506
1012,633.7509
1013,633.996
1014,634.241
1015,634.487
1016,634.736
1017,635.066
1018,635.331
1019,635.585
1020,635.84
1021,636.0942
1022,636.348
1023,636.603
1024,636.862
1025,637.122
1026,637.439
1027,637.745
1028,638.012
1029,638.2748
1030,638.538
1031,638.804
1032,639.073
1033,639.341
1034,639.611
1035,639.897
1036,640.257
1037,640.538
1038,640.813
1039,641.09
1040,641.369
1041,641.647
1042,641.928
1043,642.211
1044,642.494
1045,642.832
1046,643.176
1047,643.463
1048,643.751
1049,644.043
1050,644.334
1051,644.626
1052,644.921
1053,645.217
1054,645.514
1055,645.891
1056,646.223
1057,646.522
1058,646.825
1059,647.128
1060,647.435
1061,647.745
1062,648.054
1063,648.3648
1064,648.679
1065,649.061
1066,649.401
1067,649.715
1068,650.031
1069,650.354
1070,650.679
1071,651.004
1072,651.329
1073,651.661
1074,651.994
1075,652.344
1076,652.713
1077,653.041
1078,653.378
1079,653.7195
1080,654.064
1081,654.411
1082,654.7615
1083,655.113
1084,655.469
1085,655.829
1086,656.176
1087,656.506
1088,656.863
1089,657.231
1090,657.606
1091,657.984
1092,658.363
1093,658.7519
1094,659.14
1095,659.5342
1096,659.935
1097,660.322
1098,660.505
1099,660.883
1100,661.303
1101,661.732
1102,662.1666
1103,662.607
1104,663.054
1105,663.508
1106,663.97
1107,664.44
1108,664.918
1109,665.405
1110,665.525
1111,665.488
1112,666.008
1113,666.558
1114,667.124
1115,667.696
1116,668.28
1117,668.88
1118,669.488
1119,670.115
1120,670.754
1121,671.408
1122,672.081
1123,672.77
1124,673.476
1125,674.201
1126,674.946
1127,675.71
1128,676.497
1129,677.304
1130,678.133
1131,678.986
1132,679.861
1133,680.761
1134,681.685
1135,682.634
1136,683.606
1137,684.604
1138,685.625
1139,686.667
1140,687.729
1141,688.81
1142,689.905
1143,691.01
1144,692.1215
1145,693.231
1146,694.335
1147,695.421
1148,696.4852
1149,697.517
1150,698.509
1151,699.452
1152,700.339
1153,701.166
1154,701.933
1155,702.631
1156,703.263
1157,703.8362
1158,704.346
1159,704.89
1160,705.421
1161,705.843
1162,706.196
1163,706.488
1164,706.923
1165,707.108
1166,707.429
1167,707.6938
1168,707.887
1169,708.068
1170,708.236
1171,708.394
1172,708.541
1173,708.682
1174,708.82
1175,708.95
1176,709.0712
1177,709.193
1178,709.31
1179,709.419
1180,709.529
1181,709.634
1182,709.739
1183,709.84
1184,709.938
1185,710.6513
1186,714.683
1187,713.931
1188,713.656
1189,713.512
1190,713.432
1191,713.3881
1192,713.369
1193,713.3655
1194,713.374
1195,713.392
1196,713.416
1197,713.444
1198,713.476
1199,713.511
1200,713.546