File: PMMA/Validation_Results/DBI/csv_files_calibrated/DBI-cal_Gasification_q50_MLR_R4.csv
Time,MLR
[s],[g/m2/s]
0,0
1,0
2,0
3.01,1.94398E-06
4.01,9.07189E-06
5.01,3.44294E-05
6.01,0.000107836
7.01,0.000293625
8.01,0.000715223
9.01,0.001588951
10.01,0.003266249
11.01,0.006280449
12.01,0.0114033
13.01,0.0196943
14.01,0.0325514
15.01,0.0517507
16.01,0.0792943
17.01,0.118063
18,0.17081
19,0.2408
20,0.330992
21,0.445584
22,0.587554
23,0.759728
24,0.964311
25,1.20264
26,1.47498
27,1.78044
28,2.11694
29,2.48129
30,2.86938
31,3.27645
32,3.69733
33,4.12676
34,4.55963
35,4.99138
36,5.41814
37,5.83675
38,6.24481
39,6.6405
40,7.02253
41,7.38987
42,7.74306
43,8.07854
44.01,8.39839
45.01,8.70306
46.01,8.99585
47.01,9.27537
48.01,9.54435
49.01,9.80401
50.01,10.0542
51.01,10.2945
52.01,10.5251
53.01,10.746
54.01,10.9578
55.01,11.1614
56.01,11.357
57.01,11.5447
58.01,11.725
59.01,11.8984
60.01,12.0658
61.01,12.2283
62.01,12.3869
63.01,12.5418
64.01,12.6925
65.01,12.8386
66.01,12.9799
67.01,13.1167
68.01,13.2492
69.01,13.3774
70.01,13.5006
71.01,13.6194
72.01,13.7368
73,13.8542
74,13.972
75,14.0884
76,14.2024
77,14.3124
78,14.4198
79,14.5253
80,14.6282
81,14.7293
82,14.8293
83,14.9299
84,15.0332
85,15.1379
86,15.2414
87,15.342
88,15.4393
89,15.5334
90,15.6258
91,15.7178
92,15.8092
93,15.9005
94,15.9919
95,16.0829
96,16.1735
97,16.2634
98,16.352
99,16.439
100,16.5244
101,16.6079
102,16.6906
103,16.7733
104,16.8574
105,16.9438
106,17.0319
107,17.1202
108,17.2072
109,17.292
110,17.3745
111,17.4556
112,17.5358
113,17.6162
114,17.6979
115,17.7823
116,17.8694
117,17.9579
118,18.0451
119,18.13
120,18.2143
121,18.2996
122,18.3861
123,18.4731
124,18.5579
125,18.6383
126,18.7156
127,18.7918
128,18.869
129,18.9484
130,19.0298
131,19.1126
132,19.1969
133,19.2836
134,19.3723
135,19.4614
136,19.5491
137,19.6343
138,19.7182
139,19.802
140,19.8859
141,19.97
142,20.0538
143,20.137
144,20.2196
145,20.3023
146,20.3854
147,20.469
148,20.5533
149,20.6384
150,20.7237
151,20.8093
152,20.8949
153,20.98
154,21.0644
155,21.1473
156,21.2292
157,21.3113
158,21.3944
159,21.4787
160.01,21.5651
161.01,21.6527
162.01,21.7417
163.01,21.8302
164.01,21.9175
165.01,22.0029
166.01,22.0852
167.01,22.1645
168.01,22.2418
169.01,22.319
170.01,22.3977
171.01,22.4788
172.01,22.5619
173.01,22.6473
174.01,22.7346
175.01,22.8217
176.01,22.9073
177.01,22.9903
178.01,23.0703
179.01,23.1488
180.01,23.2276
181.01,23.307
182.01,23.3866
183.01,23.4666
184.01,23.5463
185.01,23.6235
186.01,23.6976
187.01,23.7684
188.01,23.8366
189.01,23.9045
190.01,23.9745
191.01,24.0467
192.01,24.121
193.01,24.198
194.01,24.2773
195.01,24.357
196.01,24.4358
197.01,24.513
198.01,24.5885
199.01,24.6623
200.01,24.7353
201.01,24.8071
202.01,24.8765
203.01,24.9432
204.01,25.0076
205.01,25.0695
206.01,25.13
207.01,25.1919
208.01,25.2556
209.01,25.3205
210.01,25.3865
211.01,25.4535
212.01,25.5209
213.01,25.5882
214.01,25.6543
215.01,25.7173
216.01,25.7758
217.01,25.8282
218.01,25.8736
219.01,25.9131
220.01,25.95
221.01,25.9893
222.01,26.0344
223.01,26.0846
224.01,26.1374
225.01,26.1895
226.01,26.2391
227.01,26.2862
228.01,26.3314
229.01,26.3747
230.01,26.4164
231.01,26.4568
232.01,26.496
233.01,26.5342
234.01,26.5707
235.01,26.6038
236.01,26.6324
237.01,26.657
238.01,26.6797
239.01,26.7038
240.01,26.7318
241.01,26.7644
242.01,26.8008
243.01,26.8393
244.01,26.8776
245.01,26.9135
246.01,26.9453
247.01,26.9723
248.01,26.9947
249.01,27.0141
250.01,27.0331
251.01,27.0546
252.01,27.0799
253.01,27.1081
254.01,27.1366
255.01,27.1624
256.01,27.184
257.01,27.2023
258.01,27.2193
259.01,27.2364
260.01,27.254
261.01,27.2717
262.01,27.2893
263.01,27.3075
264.01,27.3276
265.01,27.3494
266.01,27.3713
267.01,27.3917
268.01,27.4097
269.01,27.425
270.01,27.4375
271.01,27.4473
272.01,27.4544
273.01,27.4592
274.01,27.463
275.01,27.4668
276.01,27.4716
277.01,27.4771
278.01,27.483
279.01,27.4888
280.01,27.4943
281.01,27.4991
282.01,27.5033
283.01,27.5069
284.01,27.5102
285.01,27.5129
286.01,27.5148
287.01,27.5155
288.01,27.5144
289.01,27.5112
290.01,27.5059
291.01,27.4984
292.01,27.489
293.01,27.4785
294.01,27.4675
295.01,27.4562
296.01,27.4442
297.01,27.4305
298.01,27.4142
299.01,27.3945
300.01,27.371
301.01,27.344
302.01,27.3138
303.01,27.2809
304.01,27.2449
305.01,27.2051
306.01,27.1602
307.01,27.1089
308.01,27.0516
309.01,26.9894
310.01,26.9233
311.01,26.8544
312.01,26.7825
313.01,26.7075
314.01,26.6295
315.01,26.5479
316.01,26.4607
317.01,26.3654
318.01,26.2591
319.01,26.1384
320.01,26.0019
321.01,25.8512
322.01,25.6886
323.01,25.5154
324.01,25.3314
325.01,25.1331
326.01,24.9175
327.01,24.6838
328.01,24.4316
329.01,24.159
330.01,23.8626
331.01,23.5385
332.01,23.1839
333.01,22.796
334.01,22.3711
335.01,21.9
336.01,21.3681
337.01,20.7556
338.01,20.0369
339.01,19.179
340.01,18.1247
341.01,16.7766
342.01,14.9639
343.01,12.4285
344.01,9.01152
345.01,5.42912
346.01,2.53894
347.01,0.649781
348.01,0
349.01,0
350.01,0
351.01,0
352.01,0
353.01,0
354.01,0
355.01,0
356.01,0
357.01,0
358.01,0
359.01,0
360.01,0
361.01,0
362.01,0
363.01,0
364.01,0
365.01,0
366.01,0
367.01,0
368.01,0
369.01,0
370.01,0
371.01,0
372.01,0
373.01,0
374.01,0
375.01,0
376.01,0
377.01,0
378.01,0
379.01,0
380.01,0
381.01,0
382.01,0
383.01,0
384.01,0
385.01,0
386.01,0
387.01,0
388.01,0
389.01,0
390.01,0
391.01,0
392.01,0
393.01,0
394.01,0
395.01,0
396.01,0
397.01,0
398.01,0
399.01,0
400.01,0
401.01,0
402.01,0
403.01,0
404.01,0
405.01,0
406.01,0
407.01,0
408.01,0
409.01,0
410.01,0
411.01,0
412.01,0
413.01,0
414.01,0
415.01,0
416.01,0
417.01,0
418.01,0
419.01,0
420.01,0
421.01,0
422.01,0
423.01,0
424.01,0
425.01,0
426.01,0
427.01,0
428.01,0
429.01,0
430.01,0
431.01,0
432.01,0
433.01,0
434.01,0
435.01,0
436.01,0
437.01,0
438.01,0
439.01,0
440.01,0
441.01,0
442.01,0
443.01,0
444.01,0
445.01,0
446.01,0
447.01,0
448.01,0
449.01,0
450.01,0
451.01,0
452.01,0
453.01,0
454.01,0
455.01,0
456.01,0
457.01,0
458.01,0
459.01,0
460.01,0
461.01,0
462.01,0
463.01,0
464.01,0
465.01,0
466.01,0
467.01,0
468.01,0
469.01,0
470.01,0
471.01,0
472.01,0
473.01,0
474.01,0
475.01,0
476.01,0
477.01,0
478.01,0
479.01,0
480.01,0
481.01,0
482.01,0
483.01,0
484.01,0
485.01,0
486.01,0
487.01,0
488.01,0
489.01,0
490.01,0
491.01,0
492.01,0
493.01,0
494.01,0
495.01,0
496.01,0
497.01,0
498.01,0
499.01,0
500,0