File: PMMA/Validation_Results/DBI/csv_files_calibrated/DBI-cal_Gasification_q25_MLR_R1.csv
Time,MLR
[s],[g/m2/s]
0,0
1,0
2,0
3.01,0
4.01,0
5.01,0
6.01,0
7.01,0
8.01,6.49612E-07
9.01,6.49612E-07
10.01,1.29922E-06
11.01,2.59845E-06
12.01,3.24806E-06
13.01,5.84651E-06
14.01,9.09457E-06
15.01,1.36419E-05
16.01,2.08397E-05
17.01,3.06083E-05
18,4.36331E-05
19,6.05653E-05
20,8.25007E-05
21,0.000111733
22,0.000148761
23,0.000195533
24,0.000254648
25,0.000326755
26,0.000415752
27,0.000524887
28,0.000654809
29,0.000811365
30,0.000996505
31,0.001214774
32,0.001472021
33,0.001770842
34,0.002117735
35,0.002516597
36,0.002975223
37,0.003498161
38,0.004093205
39,0.004766853
40,0.00552495
41,0.006376592
42,0.007333326
43,0.008394089
44.01,0.009573434
45.01,0.01087849
46.01,0.012327
47.01,0.0139147
48.01,0.01565565
49.01,0.0175603
50.01,0.0196384
51.01,0.0218991
52.01,0.0243533
53.01,0.0270128
54.01,0.0298893
55.01,0.0329951
56.01,0.0363393
57.01,0.0399375
58.01,0.043802
59.01,0.0479472
60.01,0.0523873
61.01,0.0571288
62.01,0.0621802
63.01,0.0675499
64.01,0.0732477
65.01,0.0792864
66.01,0.0856773
67.01,0.0924326
68.01,0.0995654
69.01,0.107084
70.01,0.115001
71.01,0.123286
72.01,0.132034
73,0.141212
74,0.150835
75,0.160862
76,0.171399
77,0.182412
78,0.193895
79,0.205852
80,0.218292
81,0.23122
82,0.244648
83,0.25858
84,0.273017
85,0.287959
86,0.30341
87,0.319375
88,0.335855
89,0.352867
90,0.370424
91,0.388533
92,0.407196
93,0.426386
94,0.446081
95,0.46629
96,0.487026
97,0.508308
98,0.530148
99,0.552547
100,0.575487
101,0.598947
102,0.622901
103,0.647312
104,0.672178
105,0.697498
106,0.72327
107,0.749486
108,0.776135
109,0.803222
110,0.830754
111,0.858713
112,0.887077
113,0.915846
114,0.945028
115,0.974603
116,1.00455
117,1.03479
118,1.06523
119,1.09586
120,1.12679
121,1.15819
122,1.19015
123,1.22266
124,1.25554
125,1.28861
126,1.32178
127,1.3551
128,1.38866
129,1.42244
130,1.45637
131,1.49038
132,1.52444
133,1.5586
134,1.59299
135,1.62778
136,1.66301
137,1.69851
138,1.73418
139,1.76992
140,1.80565
141,1.84138
142,1.87709
143,1.91284
144,1.9488
145,1.9851
146,2.02174
147,2.05855
148,2.09531
149,2.13194
150,2.1685
151,2.20504
152,2.2416
153,2.27817
154,2.31471
155,2.35121
156,2.3877
157,2.42422
158,2.46092
159,2.49745
160.01,2.53397
161.01,2.57046
162.01,2.60716
163.01,2.64359
164.01,2.67984
165.01,2.71582
166.01,2.75153
167.01,2.78718
168.01,2.82295
169.01,2.85894
170.01,2.89515
171.01,2.93157
172.01,2.96813
173.01,3.00469
174.01,3.0411
175.01,3.07715
176.01,3.11272
177.01,3.14794
178.01,3.18303
179.01,3.21814
180.01,3.25335
181.01,3.2886
182.01,3.32377
183.01,3.35865
184.01,3.39307
185.01,3.42701
186.01,3.46058
187.01,3.49406
188.01,3.52777
189.01,3.56179
190.01,3.59588
191.01,3.63001
192.01,3.66425
193.01,3.69848
194.01,3.73245
195.01,3.7659
196.01,3.79876
197.01,3.83139
198.01,3.86422
199.01,3.89731
200.01,3.93044
201.01,3.96354
202.01,3.99667
203.01,4.02995
204.01,4.06343
205.01,4.09694
206.01,4.13014
207.01,4.16282
208.01,4.19494
209.01,4.2268
210.01,4.2588
211.01,4.2912
212.01,4.32391
213.01,4.35653
214.01,4.38855
215.01,4.41975
216.01,4.45023
217.01,4.48024
218.01,4.51018
219.01,4.5404
220.01,4.5711
221.01,4.60237
222.01,4.63415
223.01,4.66622
224.01,4.69824
225.01,4.72989
226.01,4.76104
227.01,4.79175
228.01,4.82215
229.01,4.85232
230.01,4.88232
231.01,4.9122
232.01,4.94202
233.01,4.97182
234.01,5.00152
235.01,5.03094
236.01,5.06002
237.01,5.08877
238.01,5.11737
239.01,5.14599
240.01,5.17476
241.01,5.2037
242.01,5.23272
243.01,5.26182
244.01,5.29099
245.01,5.32009
246.01,5.34913
247.01,5.37808
248.01,5.40684
249.01,5.43546
250.01,5.46375
251.01,5.4914
252.01,5.51849
253.01,5.54544
254.01,5.57271
255.01,5.60058
256.01,5.62886
257.01,5.65706
258.01,5.6848
259.01,5.7119
260.01,5.7383
261.01,5.76429
262.01,5.79038
263.01,5.81706
264.01,5.84458
265.01,5.87256
266.01,5.90036
267.01,5.92757
268.01,5.95417
269.01,5.98027
270.01,6.00595
271.01,6.03126
272.01,6.05633
273.01,6.08144
274.01,6.10687
275.01,6.13264
276.01,6.15854
277.01,6.18423
278.01,6.20951
279.01,6.23434
280.01,6.25873
281.01,6.2828
282.01,6.30668
283.01,6.3304
284.01,6.35415
285.01,6.37829
286.01,6.40272
287.01,6.42707
288.01,6.45101
289.01,6.47445
290.01,6.49786
291.01,6.52171
292.01,6.54605
293.01,6.57053
294.01,6.59475
295.01,6.61871
296.01,6.64252
297.01,6.66611
298.01,6.68925
299.01,6.71181
300.01,6.73374
301.01,6.75503
302.01,6.77584
303.01,6.79631
304.01,6.81685
305.01,6.83809
306.01,6.86035
307.01,6.88346
308.01,6.90695
309.01,6.93025
310.01,6.9531
311.01,6.97557
312.01,6.99774
313.01,7.01962
314.01,7.04121
315.01,7.06244
316.01,7.08327
317.01,7.1036
318.01,7.12346
319.01,7.14321
320.01,7.16307
321.01,7.18303
322.01,7.20269
323.01,7.22139
324.01,7.23912
325.01,7.25639
326.01,7.27381
327.01,7.29198
328.01,7.31106
329.01,7.33083
330.01,7.35115
331.01,7.37184
332.01,7.39238
333.01,7.41229
334.01,7.43142
335.01,7.45004
336.01,7.46871
337.01,7.48791
338.01,7.50762
339.01,7.52745
340.01,7.54701
341.01,7.56622
342.01,7.58511
343.01,7.60357
344.01,7.62144
345.01,7.63859
346.01,7.65522
347.01,7.67182
348.01,7.68881
349.01,7.70628
350.01,7.72407
351.01,7.74185
352.01,7.75939
353.01,7.77665
354.01,7.79373
355.01,7.81083
356.01,7.82801
357.01,7.84514
358.01,7.86201
359.01,7.87839
360.01,7.89422
361.01,7.9096
362.01,7.92468
363.01,7.93957
364.01,7.95448
365.01,7.96959
366.01,7.98495
367.01,8.00045
368.01,8.01587
369.01,8.03098
370.01,8.04566
371.01,8.06002
372.01,8.07423
373.01,8.0884
374.01,8.1025
375.01,8.11644
376.01,8.13021
377.01,8.14387
378.01,8.1573
379.01,8.17016
380.01,8.18229
381.01,8.19387
382.01,8.20526
383.01,8.21696
384.01,8.22954
385.01,8.24293
386.01,8.25642
387.01,8.26939
388.01,8.28142
389.01,8.29233
390.01,8.30274
391.01,8.31352
392.01,8.32503
393.01,8.33723
394.01,8.34963
395.01,8.36139
396.01,8.37217
397.01,8.38248
398.01,8.39318
399.01,8.4046
400.01,8.41555
401.01,8.4245
402.01,8.43129
403.01,8.4371
404.01,8.44418
405.01,8.45421
406.01,8.46697
407.01,8.48108
408.01,8.49517
409.01,8.50846
410.01,8.52085
411.01,8.53254
412.01,8.54375
413.01,8.55469
414.01,8.56551
415.01,8.57619
416.01,8.58661
417.01,8.59656
418.01,8.60588
419.01,8.61475
420.01,8.62353
421.01,8.63251
422.01,8.64175
423.01,8.65075
424.01,8.65873
425.01,8.66535
426.01,8.67082
427.01,8.67604
428.01,8.68204
429.01,8.68929
430.01,8.69766
431.01,8.70648
432.01,8.7151
433.01,8.72333
434.01,8.73137
435.01,8.73984
436.01,8.74905
437.01,8.75867
438.01,8.76819
439.01,8.77696
440.01,8.78465
441.01,8.79147
442.01,8.79779
443.01,8.80384
444.01,8.80956
445.01,8.81506
446.01,8.82081
447.01,8.82739
448.01,8.83522
449.01,8.84402
450.01,8.85257
451.01,8.86001
452.01,8.86628
453.01,8.87169
454.01,8.87686
455.01,8.8823
456.01,8.88848
457.01,8.89518
458.01,8.90142
459.01,8.90634
460.01,8.90951
461.01,8.91206
462.01,8.91587
463.01,8.92186
464.01,8.92986
465.01,8.93882
466.01,8.94767
467.01,8.95591
468.01,8.96339
469.01,8.96996
470.01,8.97543
471.01,8.98004
472.01,8.98449
473.01,8.98946
474.01,8.99528
475.01,9.00169
476.01,9.00795
477.01,9.01355
478.01,9.01853
479.01,9.02315
480.01,9.02775
481.01,9.03254
482.01,9.03753
483.01,9.04264
484.01,9.04772
485.01,9.05265
486.01,9.0573
487.01,9.06157
488.01,9.06554
489.01,9.06932
490.01,9.07319
491.01,9.07751
492.01,9.08223
493.01,9.0871
494.01,9.09188
495.01,9.09615
496.01,9.0993
497.01,9.10141
498.01,9.10298
499.01,9.10478
500.01,9.10773
501.01,9.11218
502.01,9.11767
503.01,9.12356
504.01,9.12933
505.01,9.13469
506.01,9.13957
507.01,9.144
508.01,9.14797
509.01,9.1515
510.01,9.15471
511.01,9.15778
512.01,9.16094
513.01,9.16414
514.01,9.16706
515.01,9.16934
516.01,9.17083
517.01,9.1717
518.01,9.17251
519.01,9.17383
520.01,9.17604
521.01,9.17932
522.01,9.18334
523.01,9.18753
524.01,9.19154
525.01,9.19511
526.01,9.1982
527.01,9.20115
528.01,9.20413
529.01,9.20721
530.01,9.21059
531.01,9.21428
532.01,9.21825
533.01,9.2223
534.01,9.22578
535.01,9.22805
536.01,9.22901
537.01,9.22905
538.01,9.22887
539.01,9.22904
540.01,9.22953
541.01,9.23034
542.01,9.23166
543.01,9.23333
544.01,9.23517
545.01,9.23697
546.01,9.23842
547.01,9.23969
548.01,9.24104
549.01,9.24254
550.01,9.24451
551.01,9.24707
552.01,9.25039
553.01,9.2545
554.01,9.25879
555.01,9.26276
556.01,9.26582
557.01,9.26741
558.01,9.26799
559.01,9.2686
560.01,9.27033
561.01,9.27357
562.01,9.27728
563.01,9.28042
564.01,9.28285
565.01,9.28521
566.01,9.28835
567.01,9.29255
568.01,9.29712
569.01,9.30119
570.01,9.30455
571.01,9.30717
572.01,9.30933
573.01,9.31139
574.01,9.31355
575.01,9.31586
576.01,9.31798
577.01,9.31962
578.01,9.32088
579.01,9.3219
580.01,9.32291
581.01,9.32429
582.01,9.32607
583.01,9.32821
584.01,9.33065
585.01,9.33319
586.01,9.33574
587.01,9.33817
588.01,9.34039
589.01,9.34245
590.01,9.3444
591.01,9.34629
592.01,9.34815
593.01,9.35002
594.01,9.35194
595.01,9.35392
596.01,9.35586
597.01,9.35726
598.01,9.35756
599.01,9.35689
600.01,9.35583
601.01,9.35501
602.01,9.35482
603.01,9.35513
604.01,9.35558
605.01,9.35606
606.01,9.35685
607.01,9.35842
608.01,9.36117
609.01,9.36502
610.01,9.36941
611.01,9.3735
612.01,9.37658
613.01,9.37855
614.01,9.37968
615.01,9.3802
616.01,9.38034
617.01,9.38029
618.01,9.38033
619.01,9.38098
620.01,9.38246
621.01,9.38455
622.01,9.38699
623.01,9.38938
624.01,9.39168
625.01,9.3942
626.01,9.39691
627.01,9.3995
628.01,9.40167
629.01,9.40317
630.01,9.40396
631.01,9.40432
632.01,9.4046
633.01,9.40497
634.01,9.40552
635.01,9.40636
636.01,9.4074
637.01,9.40866
638.01,9.41024
639.01,9.41205
640.01,9.41363
641.01,9.41455
642.01,9.41473
643.01,9.41443
644.01,9.41439
645.01,9.41518
646.01,9.41665
647.01,9.41831
648.01,9.41967
649.01,9.4205
650.01,9.42124
651.01,9.42244
652.01,9.42413
653.01,9.42603
654.01,9.42781
655.01,9.42903
656.01,9.42968
657.01,9.43011
658.01,9.43056
659.01,9.43113
660.01,9.43198
661.01,9.43307
662.01,9.43413
663.01,9.435
664.01,9.43573
665.01,9.43658
666.01,9.4376
667.01,9.43841
668.01,9.43857
669.01,9.43773
670.01,9.43608
671.01,9.43425
672.01,9.4324
673.01,9.43018
674.01,9.42734
675.01,9.42401
676.01,9.42076
677.01,9.41847
678.01,9.41787
679.01,9.4194
680.01,9.42216
681.01,9.4244
682.01,9.42557
683.01,9.42516
684.01,9.42324
685.01,9.42138
686.01,9.41982
687.01,9.41894
688.01,9.41988
689.01,9.42216
690.01,9.42479
691.01,9.42654
692.01,9.42625
693.01,9.42432
694.01,9.42182
695.01,9.42011
696.01,9.42015
697.01,9.42209
698.01,9.42572
699.01,9.43039
700.01,9.43524
701.01,9.43963
702.01,9.44315
703.01,9.44579
704.01,9.44786
705.01,9.44935
706.01,9.45016
707.01,9.45019
708.01,9.44948
709.01,9.44857
710.01,9.44833
711.01,9.44925
712.01,9.45117
713.01,9.45351
714.01,9.45551
715.01,9.45676
716.01,9.45733
717.01,9.45761
718.01,9.45786
719.01,9.45815
720.01,9.45854
721.01,9.45897
722.01,9.45917
723.01,9.45901
724.01,9.45861
725.01,9.45815
726.01,9.45775
727.01,9.45747
728.01,9.45724
729.01,9.45717
730.01,9.4575
731.01,9.45829
732.01,9.45929
733.01,9.45979
734.01,9.45915
735.01,9.4577
736.01,9.45614
737.01,9.45516
738.01,9.45537
739.01,9.45636
740.01,9.45742
741.01,9.45817
742.01,9.45846
743.01,9.45851
744.01,9.45842
745.01,9.45831
746.01,9.45822
747.01,9.45801
748.01,9.45767
749.01,9.45731
750.01,9.45692
751.01,9.45644
752.01,9.45571
753.01,9.45457
754.01,9.45293
755.01,9.45096
756.01,9.44901
757.01,9.44739
758.01,9.44622
759.01,9.44562
760.01,9.44567
761.01,9.44625
762.01,9.44713
763.01,9.44809
764.01,9.44891
765.01,9.44939
766.01,9.44957
767.01,9.44947
768.01,9.44908
769.01,9.44845
770.01,9.44768
771.01,9.4469
772.01,9.44609
773.01,9.44534
774.01,9.44475
775.01,9.44424
776.01,9.4438
777.01,9.44344
778.01,9.44308
779.01,9.44243
780.01,9.44123
781.01,9.43955
782.01,9.43757
783.01,9.43555
784.01,9.43382
785.01,9.43236
786.01,9.43096
787.01,9.42958
788.01,9.42824
789.01,9.42693
790.01,9.42563
791.01,9.42448
792.01,9.42365
793.01,9.42316
794.01,9.42292
795.01,9.42271
796.01,9.42224
797.01,9.42132
798.01,9.41999
799.01,9.41838
800.01,9.41665
801.01,9.41493
802.01,9.41328
803.01,9.41175
804.01,9.41022
805.01,9.4087
806.01,9.4073
807.01,9.40603
808.01,9.40482
809.01,9.40354
810.01,9.40214
811.01,9.40058
812.01,9.39891
813.01,9.39708
814.01,9.39495
815.01,9.39228
816.01,9.38901
817.01,9.38528
818.01,9.38145
819.01,9.37805
820.01,9.37554
821.01,9.37395
822.01,9.37295
823.01,9.37172
824.01,9.3693
825.01,9.36545
826.01,9.36086
827.01,9.35671
828.01,9.35388
829.01,9.35213
830.01,9.35046
831.01,9.34803
832.01,9.34493
833.01,9.34162
834.01,9.33846
835.01,9.33549
836.01,9.33212
837.01,9.328
838.01,9.32311
839.01,9.3175
840.01,9.31123
841.01,9.30443
842.01,9.29742
843.01,9.29085
844.01,9.28545
845.01,9.28163
846.01,9.27893
847.01,9.27649
848.01,9.27363
849.01,9.26965
850.01,9.26481
851.01,9.25956
852.01,9.25488
853.01,9.25186
854.01,9.24979
855.01,9.24755
856.01,9.24444
857.01,9.24023
858.01,9.23576
859.01,9.23188
860.01,9.22843
861.01,9.22511
862.01,9.22208
863.01,9.21965
864.01,9.21805
865.01,9.21697
866.01,9.21551
867.01,9.21296
868.01,9.20911
869.01,9.2042
870.01,9.19895
871.01,9.19388
872.01,9.18902
873.01,9.1841
874.01,9.17889
875.01,9.1733
876.01,9.1673
877.01,9.16098
878.01,9.1544
879.01,9.14746
880.01,9.14026
881.01,9.13321
882.01,9.12676
883.01,9.12108
884.01,9.11594
885.01,9.11084
886.01,9.10527
887.01,9.09902
888.01,9.0923
889.01,9.08542
890.01,9.07853
891.01,9.07169
892.01,9.0649
893.01,9.05812
894.01,9.05128
895.01,9.04405
896.01,9.03598
897.01,9.02715
898.01,9.01809
899.01,9.0094
900.01,9.001488
901.01,8.99421
902.01,8.98679
903.01,8.97874
904.01,8.96999
905.01,8.9606
906.01,8.95082
907.01,8.94092
908.01,8.93092
909.01,8.92059
910.01,8.90954
911.01,8.89753
912.01,8.88484
913.01,8.87233
914.01,8.86104
915.01,8.85141
916.01,8.84309
917.01,8.8353
918.01,8.82712
919.01,8.81793
920.01,8.80751
921.01,8.79599
922.01,8.78381
923.01,8.77138
924.01,8.75892
925.01,8.74656
926.01,8.73417
927.01,8.72161
928.01,8.70892
929.01,8.69606
930.01,8.6831
931.01,8.67021
932.01,8.65743
933.01,8.64451
934.01,8.63128
935.01,8.61776
936.01,8.60384
937.01,8.58945
938.01,8.57484
939.01,8.56018
940.01,8.54539
941.01,8.53022
942.01,8.5141
943.01,8.4964
944.01,8.47722
945.01,8.45781
946.01,8.43936
947.01,8.42238
948.01,8.40679
949.01,8.3915
950.01,8.37542
951.01,8.35841
952.01,8.34071
953.01,8.32258
954.01,8.30421
955.01,8.28538
956.01,8.26593
957.01,8.2458
958.01,8.22515
959.01,8.20418
960.01,8.18279
961.01,8.1607
962.01,8.13768
963.01,8.1138
964.01,8.0896
965.01,8.06579
966.01,8.04269
967.01,8.01942
968.01,7.9945
969.01,7.96758
970.01,7.9393
971.01,7.91138
972.01,7.8854
973.01,7.86098
974.01,7.8366
975.01,7.81088
976.01,7.78349
977.01,7.75501
978.01,7.72616
979.01,7.69746
980.01,7.66914
981.01,7.64137
982.01,7.61384
983.01,7.58577
984.01,7.55629
985.01,7.52472
986.01,7.49107
987.01,7.45603
988.01,7.42045
989.01,7.38492
990.01,7.34962
991.01,7.3144
992.01,7.27885
993.01,7.24266
994.01,7.20573
995.01,7.16804
996.01,7.12928
997.01,7.08917
998.01,7.0477
999.01,7.00478
1000.01,6.96021
1001.01,6.91365
1002.01,6.86538
1003.01,6.8166
1004.01,6.76899
1005.01,6.72408
1006.01,6.68134
1007.01,6.63916
1008.01,6.59599
1009.01,6.54969
1010.01,6.49913
1011.01,6.44491
1012.01,6.38894
1013.01,6.33376
1014.01,6.2811
1015.01,6.23025
1016.01,6.17863
1017.01,6.12406
1018.01,6.06612
1019.01,6.00578
1020.01,5.9441
1021.01,5.88174
1022.01,5.81853
1023.01,5.75374
1024.01,5.68676
1025.01,5.61744
1026.01,5.54648
1027.01,5.47527
1028.01,5.40435
1029.01,5.33332
1030.01,5.26123
1031.01,5.18678
1032.01,5.1095
1033.01,5.02962
1034.01,4.94704
1035.01,4.86159
1036.01,4.77362
1037.01,4.68355
1038.01,4.59154
1039.01,4.49771
1040.01,4.40168
1041.01,4.3029
1042.01,4.20112
1043.01,4.09643
1044.01,3.98915
1045.01,3.87929
1046.01,3.7665
1047.01,3.65044
1048.01,3.53142
1049.01,3.41004
1050.01,3.28739
1051.01,3.16394
1052.01,3.03838
1053.01,2.91044
1054.01,2.78022
1055.01,2.6475
1056.01,2.51342
1057.01,2.37797
1058.01,2.24112
1059.01,2.10382
1060.01,1.96645
1061.01,1.82959
1062.01,1.69385
1063.01,1.55975
1064.01,1.42828
1065.01,1.30045
1066.01,1.17705
1067.01,1.05866
1068.01,0.945862
1069.01,0.839453
1070.01,0.740191
1071.01,0.648664
1072.01,0.565175
1073.01,0.489603
1074.01,0.421612
1075.01,0.360899
1076.01,0.287746
1077.01,0.198691
1078.01,0.116464
1079.01,0.046793
1080.01,0.007440851
1081.01,0
1082.01,0
1083.01,0
1084.01,0
1085.01,0
1086.01,0
1087.01,0
1088.01,0
1089.01,0
1090.01,0
1091.01,0
1092.01,0
1093.01,0
1094.01,0
1095.01,0
1096.01,0
1097.01,0
1098.01,0
1099.01,0
1100.01,0
1101.01,0
1102.01,0
1103.01,0
1104.01,0
1105.01,0
1106.01,0
1107.01,0
1108.01,0
1109.01,0
1110.01,0
1111.01,0
1112.01,0
1113.01,0
1114.01,0
1115.01,0
1116.01,0
1117.01,0
1118.01,0
1119.01,0
1120.01,0
1121.01,0
1122.01,0
1123.01,0
1124.01,0
1125.01,0
1126.01,0
1127.01,0
1128.01,0
1129.01,0
1130.01,0
1131.01,0
1132.01,0
1133.01,0
1134.01,0
1135.01,0
1136.01,0
1137.01,0
1138.01,0
1139.01,0
1140.01,0
1141.01,0
1142.01,0
1143.01,0
1144.01,0
1145.01,0
1146.01,0
1147.01,0
1148.01,0
1149.01,0
1150.01,0
1151.01,0
1152.01,0
1153.01,0
1154.01,0
1155.01,0
1156.01,0
1157.01,0
1158.01,0
1159.01,0
1160.01,0
1161.01,0
1162.01,0
1163.01,0
1164.01,0
1165.01,0
1166.01,0
1167.01,0
1168.01,0
1169.01,0
1170.01,0
1171.01,0
1172.01,0
1173.01,0
1174.01,0
1175.01,0
1176.01,0
1177.01,0
1178.01,0
1179.01,0
1180.01,0
1181.01,0
1182.01,0
1183.01,0
1184.01,0
1185.01,0
1186.01,0
1187.01,0
1188.01,0
1189.01,0
1190.01,0
1191.01,0
1192.01,0
1193.01,0
1194.01,0
1195.01,0
1196.01,0
1197.01,0
1198.01,0
1199.01,0
1200,0