File: PMMA/Validation_Results/DBI/csv_files_calibrated/DBI-cal_Gasification_q25_MLR_R3.csv
Time,MLR
[s],[g/m2/s]
0,0
1,0
2,0
3.01,0
4.01,0
5.01,0
6.01,0
7.01,0
8.01,6.49612E-07
9.01,6.49612E-07
10.01,1.29922E-06
11.01,2.59845E-06
12.01,3.24806E-06
13.01,5.84651E-06
14.01,9.09457E-06
15.01,1.36419E-05
16.01,2.08397E-05
17.01,2.9957E-05
18,4.29818E-05
19,5.99141E-05
20,8.18511E-05
21,0.000110434
22,0.000147462
23,0.000193584
24,0.000252049
25,0.000324156
26,0.000412504
27,0.00051969
28,0.000648962
29,0.00080422
30,0.00098741
31,0.001204381
32,0.001458379
33,0.001754602
34,0.002098247
35,0.00249451
36,0.002949239
37,0.003467629
38,0.004057477
39,0.004725278
40,0.005477528
41,0.006322674
42,0.007271767
43,0.008324106
44.01,0.009493731
45.01,0.0107891
46.01,0.012227
47.01,0.0138036
48.01,0.0155329
49.01,0.0174245
50.01,0.01948901
51.01,0.0217347
52.01,0.0241747
53.01,0.0268199
54.01,0.0296814
55.01,0.0327716
56.01,0.0361015
57.01,0.0396841
58.01,0.043535
59.01,0.0476685
60.01,0.0520969
61.01,0.0568294
62.01,0.0618742
63.01,0.06724069
64.01,0.0729391
65.01,0.0789837
66.01,0.085385
67.01,0.0921572
68.01,0.0993127
69.01,0.106863
70.01,0.11482
71.01,0.123153
72.01,0.131956
73,0.141198
74,0.150901
75,0.161026
76,0.171685
77,0.182837
78,0.19448
79,0.206621
80,0.219266
81,0.232427
82,0.246115
83,0.260335
84,0.275091
85,0.290385
86,0.306224
87,0.322613
88,0.339557
89,0.357074
90,0.37518
91,0.393886
92,0.413191
93,0.433074
94,0.453521
95,0.474542
96,0.496149
97,0.518363
98,0.541197
99,0.564645
100,0.588695
101,0.613326
102,0.6385
103,0.664175
104,0.690324
105,0.716957
106,0.74411
107,0.771812
108,0.800065
109,0.828845
110,0.858115
111,0.887862
112,0.918078
113,0.948743
114,0.979849
115,1.01142
116,1.04349
117,1.07604
118,1.10901
119,1.14235
120,1.17602
121,1.21004
122,1.2445
123,1.27942
124,1.31477
125,1.35053
126,1.38664
127,1.42308
128,1.45989
129,1.49702
130,1.53444
131,1.57211
132,1.60996
133,1.64798
134,1.68611
135,1.72438
136,1.76284
137,1.80157
138,1.84062
139,1.87993
140,1.91937
141,1.95887
142,1.99844
143,2.0381
144,2.07777
145,2.11736
146,2.1569
147,2.19658
148,2.23661
149,2.27706
150,2.31779
151,2.3586
152,2.39941
153,2.4402
154,2.48084
155,2.52111
156,2.56089
157,2.60026
158,2.63985
159,2.6797
160.01,2.72018
161.01,2.76108
162.01,2.80227
163.01,2.84303
164.01,2.88353
165.01,2.92381
166.01,2.9639
167.01,3.00389
168.01,3.04385
169.01,3.08384
170.01,3.12393
171.01,3.16417
172.01,3.20451
173.01,3.2449
174.01,3.28516
175.01,3.32504
176.01,3.36445
177.01,3.40352
178.01,3.44239
179.01,3.48106
180.01,3.51957
181.01,3.55793
182.01,3.5962
183.01,3.63459
184.01,3.67315
185.01,3.71199
186.01,3.75124
187.01,3.79079
188.01,3.83021
189.01,3.86898
190.01,3.90685
191.01,3.944
192.01,3.9809
193.01,4.01794
194.01,4.05513
195.01,4.09242
196.01,4.12968
197.01,4.16693
198.01,4.20423
199.01,4.2415
200.01,4.2787
201.01,4.31585
202.01,4.35307
203.01,4.39041
204.01,4.42774
205.01,4.46492
206.01,4.50176
207.01,4.53813
208.01,4.57414
209.01,4.60983
210.01,4.64518
211.01,4.68019
212.01,4.71491
213.01,4.74946
214.01,4.78389
215.01,4.81827
216.01,4.85256
217.01,4.88673
218.01,4.92072
219.01,4.95441
220.01,4.9878
221.01,5.02087
222.01,5.05384
223.01,5.08715
224.01,5.12093
225.01,5.15498
226.01,5.18905
227.01,5.22289
228.01,5.25645
229.01,5.28994
230.01,5.32343
231.01,5.35681
232.01,5.39006
233.01,5.42318
234.01,5.45611
235.01,5.48886
236.01,5.52147
237.01,5.55388
238.01,5.58609
239.01,5.61794
240.01,5.64923
241.01,5.68026
242.01,5.71143
243.01,5.74295
244.01,5.77468
245.01,5.80609
246.01,5.83664
247.01,5.86631
248.01,5.89545
249.01,5.92433
250.01,5.9533
251.01,5.98272
252.01,6.0127
253.01,6.04321
254.01,6.07388
255.01,6.10423
256.01,6.13405
257.01,6.16341
258.01,6.19258
259.01,6.22174
260.01,6.25089
261.01,6.28007
262.01,6.30925
263.01,6.33837
264.01,6.3673
265.01,6.39582
266.01,6.4239
267.01,6.45167
268.01,6.47924
269.01,6.50663
270.01,6.53358
271.01,6.55991
272.01,6.58567
273.01,6.61109
274.01,6.63666
275.01,6.66274
276.01,6.68935
277.01,6.71623
278.01,6.74292
279.01,6.76903
280.01,6.79442
281.01,6.81937
282.01,6.84428
283.01,6.86934
284.01,6.89453
285.01,6.91959
286.01,6.94436
287.01,6.96897
288.01,6.99362
289.01,7.01848
290.01,7.04352
291.01,7.06857
292.01,7.09347
293.01,7.11801
294.01,7.142
295.01,7.16544
296.01,7.18858
297.01,7.2116
298.01,7.23471
299.01,7.25778
300.01,7.28051
301.01,7.30279
302.01,7.32437
303.01,7.34532
304.01,7.36594
305.01,7.38646
306.01,7.40683
307.01,7.42685
308.01,7.44657
309.01,7.46641
310.01,7.48703
311.01,7.50862
312.01,7.53073
313.01,7.55271
314.01,7.57407
315.01,7.59486
316.01,7.61531
317.01,7.63557
318.01,7.65574
319.01,7.67581
320.01,7.6956
321.01,7.71504
322.01,7.73405
323.01,7.75257
324.01,7.77059
325.01,7.78819
326.01,7.80574
327.01,7.82366
328.01,7.84214
329.01,7.86096
330.01,7.87956
331.01,7.89752
332.01,7.915
333.01,7.9324
334.01,7.94991
335.01,7.96746
336.01,7.98477
337.01,8.00154
338.01,8.01768
339.01,8.03327
340.01,8.04849
341.01,8.0635
342.01,8.07838
343.01,8.09314
344.01,8.10756
345.01,8.12134
346.01,8.13482
347.01,8.14849
348.01,8.16276
349.01,8.17804
350.01,8.19401
351.01,8.20964
352.01,8.22445
353.01,8.23862
354.01,8.25246
355.01,8.26657
356.01,8.2812
357.01,8.29593
358.01,8.31046
359.01,8.32472
360.01,8.33871
361.01,8.35243
362.01,8.36585
363.01,8.37895
364.01,8.39169
365.01,8.40407
366.01,8.41608
367.01,8.4278
368.01,8.43944
369.01,8.45111
370.01,8.46283
371.01,8.47453
372.01,8.48602
373.01,8.49736
374.01,8.5089
375.01,8.52073
376.01,8.53262
377.01,8.54412
378.01,8.5546
379.01,8.56406
380.01,8.57309
381.01,8.58226
382.01,8.59188
383.01,8.60172
384.01,8.61109
385.01,8.61939
386.01,8.62643
387.01,8.63246
388.01,8.63815
389.01,8.64438
390.01,8.65165
391.01,8.6601
392.01,8.66945
393.01,8.67878
394.01,8.68749
395.01,8.69554
396.01,8.70309
397.01,8.71059
398.01,8.7183
399.01,8.72608
400.01,8.73371
401.01,8.74117
402.01,8.74856
403.01,8.75615
404.01,8.76449
405.01,8.77397
406.01,8.78436
407.01,8.79483
408.01,8.80429
409.01,8.81191
410.01,8.81782
411.01,8.82292
412.01,8.82829
413.01,8.83462
414.01,8.8422
415.01,8.85074
416.01,8.85957
417.01,8.86825
418.01,8.87654
419.01,8.8843
420.01,8.89136
421.01,8.89733
422.01,8.90205
423.01,8.90588
424.01,8.90942
425.01,8.91354
426.01,8.91872
427.01,8.92489
428.01,8.93191
429.01,8.93956
430.01,8.94755
431.01,8.95565
432.01,8.96353
433.01,8.97085
434.01,8.97743
435.01,8.98323
436.01,8.98838
437.01,8.99314
438.01,8.99773
439.01,9.00227
440.01,9.0069
441.01,9.01168
442.01,9.01645
443.01,9.02117
444.01,9.02587
445.01,9.03063
446.01,9.0356
447.01,9.04066
448.01,9.04573
449.01,9.05071
450.01,9.05539
451.01,9.05976
452.01,9.06385
453.01,9.06772
454.01,9.07154
455.01,9.07547
456.01,9.07961
457.01,9.08395
458.01,9.08832
459.01,9.0924
460.01,9.09592
461.01,9.09891
462.01,9.10191
463.01,9.10543
464.01,9.10958
465.01,9.11416
466.01,9.11871
467.01,9.12306
468.01,9.12727
469.01,9.13136
470.01,9.13536
471.01,9.13922
472.01,9.14277
473.01,9.14602
474.01,9.14912
475.01,9.1522
476.01,9.15531
477.01,9.15855
478.01,9.16195
479.01,9.16552
480.01,9.16921
481.01,9.17292
482.01,9.17648
483.01,9.1797
484.01,9.18253
485.01,9.18512
486.01,9.18762
487.01,9.19016
488.01,9.19289
489.01,9.19574
490.01,9.19862
491.01,9.20152
492.01,9.20433
493.01,9.20713
494.01,9.20991
495.01,9.21265
496.01,9.21538
497.01,9.21804
498.01,9.22047
499.01,9.22269
500.01,9.22468
501.01,9.22623
502.01,9.22721
503.01,9.22793
504.01,9.22886
505.01,9.23021
506.01,9.23188
507.01,9.23373
508.01,9.23533
509.01,9.23667
510.01,9.2381
511.01,9.23958
512.01,9.24112
513.01,9.24305
514.01,9.24539
515.01,9.24805
516.01,9.25093
517.01,9.25381
518.01,9.25642
519.01,9.25867
520.01,9.26054
521.01,9.26218
522.01,9.26398
523.01,9.26623
524.01,9.26904
525.01,9.27229
526.01,9.27568
527.01,9.27889
528.01,9.28179
529.01,9.28438
530.01,9.28671
531.01,9.28882
532.01,9.29075
533.01,9.29257
534.01,9.29437
535.01,9.29628
536.01,9.29825
537.01,9.30002
538.01,9.30132
539.01,9.30219
540.01,9.30299
541.01,9.30408
542.01,9.30547
543.01,9.30679
544.01,9.30765
545.01,9.30796
546.01,9.30817
547.01,9.30899
548.01,9.31078
549.01,9.31342
550.01,9.31658
551.01,9.31994
552.01,9.32308
553.01,9.32587
554.01,9.32827
555.01,9.33022
556.01,9.33197
557.01,9.33381
558.01,9.3359
559.01,9.33809
560.01,9.34013
561.01,9.34184
562.01,9.34327
563.01,9.34474
564.01,9.34649
565.01,9.34838
566.01,9.35025
567.01,9.3519
568.01,9.35319
569.01,9.35424
570.01,9.35481
571.01,9.35444
572.01,9.35301
573.01,9.35101
574.01,9.34924
575.01,9.34848
576.01,9.34922
577.01,9.35141
578.01,9.35449
579.01,9.35773
580.01,9.36061
581.01,9.3625
582.01,9.36335
583.01,9.36368
584.01,9.36387
585.01,9.36424
586.01,9.36501
587.01,9.36623
588.01,9.36776
589.01,9.36953
590.01,9.37145
591.01,9.37335
592.01,9.37523
593.01,9.37717
594.01,9.37884
595.01,9.37985
596.01,9.37998
597.01,9.37929
598.01,9.37853
599.01,9.37856
600.01,9.37977
601.01,9.38202
602.01,9.38452
603.01,9.38652
604.01,9.38775
605.01,9.38826
606.01,9.38832
607.01,9.38828
608.01,9.38839
609.01,9.38874
610.01,9.38932
611.01,9.38999
612.01,9.39057
613.01,9.39088
614.01,9.39092
615.01,9.39086
616.01,9.39082
617.01,9.3909
618.01,9.39118
619.01,9.39167
620.01,9.39228
621.01,9.39303
622.01,9.39401
623.01,9.39527
624.01,9.39683
625.01,9.39868
626.01,9.40065
627.01,9.40236
628.01,9.40374
629.01,9.40497
630.01,9.40617
631.01,9.40725
632.01,9.40787
633.01,9.40773
634.01,9.40688
635.01,9.40576
636.01,9.40488
637.01,9.40424
638.01,9.40345
639.01,9.4024
640.01,9.4013
641.01,9.40061
642.01,9.40071
643.01,9.40136
644.01,9.40201
645.01,9.40223
646.01,9.40201
647.01,9.40187
648.01,9.40226
649.01,9.40314
650.01,9.40428
651.01,9.40562
652.01,9.40723
653.01,9.40934
654.01,9.41198
655.01,9.41472
656.01,9.41685
657.01,9.41776
658.01,9.41722
659.01,9.41565
660.01,9.41376
661.01,9.41221
662.01,9.41127
663.01,9.41043
664.01,9.4093
665.01,9.40805
666.01,9.40705
667.01,9.40654
668.01,9.40657
669.01,9.40695
670.01,9.4075
671.01,9.40836
672.01,9.40956
673.01,9.41085
674.01,9.41189
675.01,9.41248
676.01,9.41271
677.01,9.41272
678.01,9.41268
679.01,9.41245
680.01,9.41166
681.01,9.4101
682.01,9.40792
683.01,9.40569
684.01,9.4039
685.01,9.40295
686.01,9.40305
687.01,9.40391
688.01,9.40479
689.01,9.40484
690.01,9.40354
691.01,9.40115
692.01,9.39883
693.01,9.39787
694.01,9.39857
695.01,9.40027
696.01,9.40208
697.01,9.40306
698.01,9.40266
699.01,9.40081
700.01,9.39794
701.01,9.39467
702.01,9.39183
703.01,9.39028
704.01,9.39009
705.01,9.39069
706.01,9.39141
707.01,9.39165
708.01,9.39121
709.01,9.39033
710.01,9.3892
711.01,9.38791
712.01,9.3863
713.01,9.38446
714.01,9.38281
715.01,9.38189
716.01,9.38201
717.01,9.38283
718.01,9.38357
719.01,9.3835
720.01,9.3822
721.01,9.37984
722.01,9.37679
723.01,9.37322
724.01,9.36929
725.01,9.36519
726.01,9.3612
727.01,9.35761
728.01,9.35453
729.01,9.35196
730.01,9.35016
731.01,9.3496
732.01,9.35038
733.01,9.35221
734.01,9.35412
735.01,9.35479
736.01,9.35381
737.01,9.35163
738.01,9.34909
739.01,9.34723
740.01,9.34641
741.01,9.34623
742.01,9.34605
743.01,9.34538
744.01,9.34404
745.01,9.34206
746.01,9.33978
747.01,9.33748
748.01,9.33523
749.01,9.33301
750.01,9.33072
751.01,9.32836
752.01,9.32597
753.01,9.32363
754.01,9.32143
755.01,9.31929
756.01,9.31711
757.01,9.3149
758.01,9.31262
759.01,9.31021
760.01,9.30769
761.01,9.30513
762.01,9.30255
763.01,9.2999
764.01,9.29723
765.01,9.29462
766.01,9.29213
767.01,9.28976
768.01,9.28741
769.01,9.285
770.01,9.28249
771.01,9.27995
772.01,9.27749
773.01,9.27506
774.01,9.27231
775.01,9.26909
776.01,9.26547
777.01,9.26142
778.01,9.25705
779.01,9.25248
780.01,9.24745
781.01,9.24189
782.01,9.23637
783.01,9.23151
784.01,9.2275
785.01,9.22406
786.01,9.22046
787.01,9.21619
788.01,9.21137
789.01,9.2063
790.01,9.20124
791.01,9.19636
792.01,9.19186
793.01,9.18786
794.01,9.18425
795.01,9.18054
796.01,9.17586
797.01,9.1698
798.01,9.16274
799.01,9.15538
800.01,9.1485
801.01,9.14259
802.01,9.13737
803.01,9.13217
804.01,9.12669
805.01,9.12115
806.01,9.11591
807.01,9.11126
808.01,9.10732
809.01,9.10375
810.01,9.10014
811.01,9.09622
812.01,9.09188
813.01,9.08718
814.01,9.08215
815.01,9.07652
816.01,9.06981
817.01,9.06172
818.01,9.05223
819.01,9.04175
820.01,9.03111
821.01,9.02113
822.01,9.0123
823.01,9.00494
824.01,8.99905
825.01,8.99423
826.01,8.98988
827.01,8.98544
828.01,8.98041
829.01,8.97456
830.01,8.96795
831.01,8.96072
832.01,8.95293
833.01,8.94449
834.01,8.93512
835.01,8.92473
836.01,8.9136
837.01,8.90199
838.01,8.89025
839.01,8.87879
840.01,8.86756
841.01,8.85657
842.01,8.84609
843.01,8.83633
844.01,8.82755
845.01,8.81966
846.01,8.81209
847.01,8.80415
848.01,8.79501
849.01,8.78451
850.01,8.77345
851.01,8.7625
852.01,8.75208
853.01,8.7423
854.01,8.73251
855.01,8.7221
856.01,8.71084
857.01,8.6986
858.01,8.68548
859.01,8.67172
860.01,8.65755
861.01,8.64341
862.01,8.62987
863.01,8.61713
864.01,8.60494
865.01,8.59292
866.01,8.58041
867.01,8.56675
868.01,8.5518
869.01,8.53608
870.01,8.51993
871.01,8.50316
872.01,8.4856
873.01,8.46719
874.01,8.44856
875.01,8.43083
876.01,8.41461
877.01,8.39971
878.01,8.38525
879.01,8.37067
880.01,8.35562
881.01,8.33908
882.01,8.32054
883.01,8.30031
884.01,8.27893
885.01,8.25752
886.01,8.237
887.01,8.21756
888.01,8.19908
889.01,8.18133
890.01,8.16351
891.01,8.14424
892.01,8.12269
893.01,8.09897
894.01,8.07384
895.01,8.04863
896.01,8.02408
897.01,7.99998
898.01,7.97588
899.01,7.95154
900.01,7.92713
901.01,7.90292
902.01,7.87902
903.01,7.85528
904.01,7.83115
905.01,7.80634
906.01,7.78085
907.01,7.75469
908.01,7.72789
909.01,7.70038
910.01,7.67209
911.01,7.64303
912.01,7.61332
913.01,7.58312
914.01,7.55223
915.01,7.52049
916.01,7.48796
917.01,7.45473
918.01,7.42089
919.01,7.38653
920.01,7.35149
921.01,7.3155
922.01,7.27857
923.01,7.24089
924.01,7.20338
925.01,7.16714
926.01,7.13238
927.01,7.09817
928.01,7.06285
929.01,7.0253
930.01,6.98548
931.01,6.94422
932.01,6.90229
933.01,6.85984
934.01,6.81681
935.01,6.77286
936.01,6.72768
937.01,6.68124
938.01,6.63377
939.01,6.58567
940.01,6.53721
941.01,6.48833
942.01,6.43839
943.01,6.38703
944.01,6.33429
945.01,6.28028
946.01,6.22537
947.01,6.16981
948.01,6.11373
949.01,6.0575
950.01,6.00074
951.01,5.94255
952.01,5.88222
953.01,5.819
954.01,5.75333
955.01,5.68659
956.01,5.61926
957.01,5.55146
958.01,5.4822
959.01,5.40957
960.01,5.33377
961.01,5.2565
962.01,5.17937
963.01,5.10376
964.01,5.02808
965.01,4.94873
966.01,4.86379
967.01,4.77462
968.01,4.68456
969.01,4.59501
970.01,4.50455
971.01,4.41133
972.01,4.31464
973.01,4.21531
974.01,4.11469
975.01,4.01371
976.01,3.91076
977.01,3.80411
978.01,3.69478
979.01,3.58242
980.01,3.46697
981.01,3.34953
982.01,3.22993
983.01,3.10765
984.01,2.98218
985.01,2.8539
986.01,2.72281
987.01,2.58918
988.01,2.45468
989.01,2.3198
990.01,2.18486
991.01,2.05014
992.01,1.91525
993.01,1.78032
994.01,1.6461
995.01,1.51393
996.01,1.38498
997.01,1.26014
998.01,1.14017
999.01,1.02541
1000.01,0.916407
1001.01,0.813862
1002.01,0.718297
1003.01,0.630021
1004.01,0.549161
1005.01,0.475705
1006.01,0.409537
1007.01,0.35046
1008.01,0.275794
1009.01,0.185756
1010.01,0.105933
1011.01,0.0382896
1012.01,0.003651924
1013.01,0
1014.01,0
1015.01,0
1016.01,0
1017.01,0
1018.01,0
1019.01,0
1020.01,0
1021.01,0
1022.01,0
1023.01,0
1024.01,0
1025.01,0
1026.01,0
1027.01,0
1028.01,0
1029.01,0
1030.01,0
1031.01,0
1032.01,0
1033.01,0
1034.01,0
1035.01,0
1036.01,0
1037.01,0
1038.01,0
1039.01,0
1040.01,0
1041.01,0
1042.01,0
1043.01,0
1044.01,0
1045.01,0
1046.01,0
1047.01,0
1048.01,0
1049.01,0
1050.01,0
1051.01,0
1052.01,0
1053.01,0
1054.01,0
1055.01,0
1056.01,0
1057.01,0
1058.01,0
1059.01,0
1060.01,0
1061.01,0
1062.01,0
1063.01,0
1064.01,0
1065.01,0
1066.01,0
1067.01,0
1068.01,0
1069.01,0
1070.01,0
1071.01,0
1072.01,0
1073.01,0
1074.01,0
1075.01,0
1076.01,0
1077.01,0
1078.01,0
1079.01,0
1080.01,0
1081.01,0
1082.01,0
1083.01,0
1084.01,0
1085.01,0
1086.01,0
1087.01,0
1088.01,0
1089.01,0
1090.01,0
1091.01,0
1092.01,0
1093.01,0
1094.01,0
1095.01,0
1096.01,0
1097.01,0
1098.01,0
1099.01,0
1100.01,0
1101.01,0
1102.01,0
1103.01,0
1104.01,0
1105.01,0
1106.01,0
1107.01,0
1108.01,0
1109.01,0
1110.01,0
1111.01,0
1112.01,0
1113.01,0
1114.01,0
1115.01,0
1116.01,0
1117.01,0
1118.01,0
1119.01,0
1120.01,0
1121.01,0
1122.01,0
1123.01,0
1124.01,0
1125.01,0
1126.01,0
1127.01,0
1128.01,0
1129.01,0
1130.01,0
1131.01,0
1132.01,0
1133.01,0
1134.01,0
1135.01,0
1136.01,0
1137.01,0
1138.01,0
1139.01,0
1140.01,0
1141.01,0
1142.01,0
1143.01,0
1144.01,0
1145.01,0
1146.01,0
1147.01,0
1148.01,0
1149.01,0
1150.01,0
1151.01,0
1152.01,0
1153.01,0
1154.01,0
1155.01,0
1156.01,0
1157.01,0
1158.01,0
1159.01,0
1160.01,0
1161.01,0
1162.01,0
1163.01,0
1164.01,0
1165.01,0
1166.01,0
1167.01,0
1168.01,0
1169.01,0
1170.01,0
1171.01,0
1172.01,0
1173.01,0
1174.01,0
1175.01,0
1176.01,0
1177.01,0
1178.01,0
1179.01,0
1180.01,0
1181.01,0
1182.01,0
1183.01,0
1184.01,0
1185.01,0
1186.01,0
1187.01,0
1188.01,0
1189.01,0
1190.01,0
1191.01,0
1192.01,0
1193.01,0
1194.01,0
1195.01,0
1196.01,0
1197.01,0
1198.01,0
1199.01,0
1200,0