File: PMMA/Validation_Results/DBI/csv_files_calibrated/DBI-cal_Gasification_q50_MLR_R5.csv
Time,MLR
[s],[g/m2/s]
0,0
1,0
2,6.47992E-07
3.01,1.94398E-06
4.01,9.07189E-06
5.01,3.44294E-05
6.01,0.000107836
7.01,0.000294924
8.01,0.00071912
9.01,0.001598046
10.01,0.003284438
11.01,0.006314878
12.01,0.011465
13.01,0.0197995
14.01,0.0327229
15.01,0.05202028
16.01,0.0797007
17.01,0.1186566
18,0.171651
19,0.241959
20,0.332545
21,0.44762
22,0.590158
23,0.7629836
24,0.968294
25,1.2074
26,1.48057
27,1.78686
28,2.12418
29,2.4893
30,2.87809
31,3.28577
32,3.70714
33,4.13693
34,4.57005
35,5.00192
36,5.42867
37,5.84716
38,6.255
39,6.65036
40,7.03196
41,7.39879
42,7.75137
43,8.086139
44.01,8.40518
45.01,8.70894
46.01,9.0007
47.01,9.27909
48.01,9.5468
49.01,9.80506
50.01,10.0537
51.01,10.2922
52.01,10.5208
53.01,10.7396
54.01,10.9491
55.01,11.1501
56.01,11.3428
57.01,11.5274
58.01,11.7044
59.01,11.8743
60.01,12.0378
61.01,12.1961
62.01,12.3503
63.01,12.5004
64.01,12.6461
65.01,12.7868
66.01,12.9224
67.01,13.0531
68.01,13.1794
69.01,13.301
70.01,13.4173
71.01,13.529
72.01,13.6392
73,13.7492
74,13.8594
75,13.9675
76,14.0725
77,14.173
78,14.2708
79,14.3662
80,14.4587
81,14.5494
82,14.6389
83,14.7293
84,14.8224
85,14.9165
86,15.0086
87,15.0968
88,15.1795
89,15.2577
90,15.3343
91,15.4124
92,15.4934
93,15.5772
94,15.6614
95,15.7431
96,15.8212
97,15.896
98,15.9688
99,16.041
100,16.1135
101,16.1866
102,16.2599
103,16.3328
104,16.4053
105,16.4775
106,16.5493
107,16.6204
108,16.6906
109,16.7599
110,16.8283
111,16.8963
112,16.9638
113,17.03
114,17.0945
115,17.1579
116,17.2212
117,17.2851
118,17.3499
119,17.4153
120,17.4815
121,17.5502
122,17.6234
123,17.7005
124,17.7783
125,17.8536
126,17.9245
127,17.9911
128,18.0557
129,18.1202
130,18.1854
131,18.2518
132,18.3195
133,18.3877
134,18.4554
135,18.5222
136,18.5884
137,18.6544
138,18.7207
139,18.7874
140,18.8545
141,18.9215
142,18.9883
143,19.0548
144,19.1212
145,19.1876
146,19.2543
147,19.3213
148,19.3887
149,19.4565
150,19.5244
151,19.5922
152,19.6598
153,19.7268
154,19.793
155,19.8577
156,19.9207
157,19.9824
158,20.0444
159,20.1077
160.01,20.1746
161.01,20.2461
162.01,20.3214
163.01,20.3966
164.01,20.4713
165.01,20.5448
166.01,20.617
167.01,20.6892
168.01,20.7609
169.01,20.8311
170.01,20.9007
171.01,20.9697
172.01,21.0381
173.01,21.1062
174.01,21.1734
175.01,21.2405
176.01,21.3081
177.01,21.3768
178.01,21.4474
179.01,21.5193
180.01,21.5919
181.01,21.6655
182.01,21.7401
183.01,21.8158
184.01,21.8919
185.01,21.9665
186.01,22.0388
187.01,22.109
188.01,22.1775
189.01,22.2452
190.01,22.313
191.01,22.3813
192.01,22.4505
193.01,22.5207
194.01,22.5914
195.01,22.6625
196.01,22.7341
197.01,22.806
198.01,22.878
199.01,22.9498
200.01,23.0209
201.01,23.0912
202.01,23.161
203.01,23.2295
204.01,23.2964
205.01,23.3621
206.01,23.4282
207.01,23.4963
208.01,23.5676
209.01,23.6426
210.01,23.7208
211.01,23.7997
212.01,23.8765
213.01,23.9484
214.01,24.0146
215.01,24.0772
216.01,24.1392
217.01,24.2023
218.01,24.2672
219.01,24.3331
220.01,24.3989
221.01,24.4644
222.01,24.5295
223.01,24.5946
224.01,24.6603
225.01,24.7262
226.01,24.7916
227.01,24.8559
228.01,24.919
229.01,24.9815
230.01,25.0442
231.01,25.1073
232.01,25.1696
233.01,25.2295
234.01,25.2865
235.01,25.3415
236.01,25.3957
237.01,25.4482
238.01,25.4974
239.01,25.5429
240.01,25.5868
241.01,25.633
242.01,25.6834
243.01,25.7379
244.01,25.795
245.01,25.8524
246.01,25.909
247.01,25.9623
248.01,26.0098
249.01,26.0527
250.01,26.0942
251.01,26.137
252.01,26.1822
253.01,26.228
254.01,26.2713
255.01,26.3109
256.01,26.3476
257.01,26.3826
258.01,26.417
259.01,26.4515
260.01,26.4863
261.01,26.5214
262.01,26.5572
263.01,26.5936
264.01,26.6306
265.01,26.6685
266.01,26.7072
267.01,26.7467
268.01,26.7868
269.01,26.8257
270.01,26.8618
271.01,26.8938
272.01,26.9218
273.01,26.9477
274.01,26.9737
275.01,27.0005
276.01,27.0276
277.01,27.0532
278.01,27.076
279.01,27.0961
280.01,27.1151
281.01,27.1346
282.01,27.1551
283.01,27.1759
284.01,27.1971
285.01,27.2198
286.01,27.2457
287.01,27.2757
288.01,27.309
289.01,27.3446
290.01,27.3818
291.01,27.4197
292.01,27.4587
293.01,27.5018
294.01,27.556
295.01,27.6383
296.01,27.7388
297.01,27.8214
298.01,27.8796
299.01,27.915
300.01,27.9334
301.01,27.955
302.01,27.9801
303.01,27.9943
304.01,27.9982
305.01,28.0076
306.01,28.0258
307.01,28.043
308.01,28.0566
309.01,28.0661
310.01,28.0713
311.01,28.0785
312.01,28.0884
313.01,28.0953
314.01,28.0978
315.01,28.0959
316.01,28.0903
317.01,28.0829
318.01,28.0747
319.01,28.0666
320.01,28.0599
321.01,28.0546
322.01,28.0505
323.01,28.0525
324.01,28.0616
325.01,28.0664
326.01,28.0571
327.01,28.0345
328.01,28.0057
329.01,27.9791
330.01,27.9597
331.01,27.9467
332.01,27.9336
333.01,27.9118
334.01,27.8803
335.01,27.8451
336.01,27.8117
337.01,27.7818
338.01,27.7524
339.01,27.711
340.01,27.6478
341.01,27.5718
342.01,27.4988
343.01,27.439
344.01,27.3872
345.01,27.3219
346.01,27.2323
347.01,27.122
348.01,27.0011
349.01,26.8882
350.01,26.789
351.01,26.6731
352.01,26.5253
353.01,26.3713
354.01,26.2129
355.01,26.0372
356.01,25.8413
357.01,25.6259
358.01,25.3974
359.01,25.1233
360.01,24.8097
361.01,24.4777
362.01,24.1061
363.01,23.743
364.01,23.3608
365.01,22.8811
366.01,22.2976
367.01,21.5537
368.01,20.5799
369.01,19.3139
370.01,17.6882
371.01,15.6172
372.01,12.919
373.01,9.4191
374.01,5.75585
375.01,2.76386
376.01,0.764213
377.01,0.0286021
378.01,0
379.01,0
380.01,0
381.01,0
382.01,0
383.01,0
384.01,0
385.01,0
386.01,0
387.01,0
388.01,0
389.01,0
390.01,0
391.01,0
392.01,0
393.01,0
394.01,0
395.01,0
396.01,0
397.01,0
398.01,0
399.01,0
400.01,0
401.01,0
402.01,0
403.01,0
404.01,0
405.01,0
406.01,0
407.01,0
408.01,0
409.01,0
410.01,0
411.01,0
412.01,0
413.01,0
414.01,0
415.01,0
416.01,0
417.01,0
418.01,0
419.01,0
420.01,0
421.01,0
422.01,0
423.01,0
424.01,0
425.01,0
426.01,0
427.01,0
428.01,0
429.01,0
430.01,0
431.01,0
432.01,0
433.01,0
434.01,0
435.01,0
436.01,0
437.01,0
438.01,0
439.01,0
440.01,0
441.01,0
442.01,0
443.01,0
444.01,0
445.01,0
446.01,0
447.01,0
448.01,0
449.01,0
450.01,0
451.01,0
452.01,0
453.01,0
454.01,0
455.01,0
456.01,0
457.01,0
458.01,0
459.01,0
460.01,0
461.01,0
462.01,0
463.01,0
464.01,0
465.01,0
466.01,0
467.01,0
468.01,0
469.01,0
470.01,0
471.01,0
472.01,0
473.01,0
474.01,0
475.01,0
476.01,0
477.01,0
478.01,0
479.01,0
480.01,0
481.01,0
482.01,0
483.01,0
484.01,0
485.01,0
486.01,0
487.01,0
488.01,0
489.01,0
490.01,0
491.01,0
492.01,0
493.01,0
494.01,0
495.01,0
496.01,0
497.01,0
498.01,0
499.01,0
500,0