File: PMMA/Validation_Results/DBI/csv_files_calibrated/DBI-cal_Gasification_q50_Temp_R3.csv
Time,Temp
[s],[K]
0,298.15
1,298.15
2,298.15
3.01,298.15
4.01,298.15
5.01,298.15
6.01,298.15
7.01,298.15
8.01,298.15
9.01,298.15
10.01,298.151
11.01,298.151
12.01,298.153
13.01,298.157
14.01,298.163
15.01,298.174
16.01,298.19
17.01,298.214
18,298.248
19,298.294
20,298.356
21,298.435
22,298.534
23,298.656
24,298.804
25,298.979
26,299.184
27,299.421
28,299.692
29,299.999
30,300.344
31,300.727
32,301.15
33,301.614
34,302.12
35,302.669
36,303.261
37,303.897
38,304.576
39,305.3
40,306.068
41,306.881
42,307.739
43,308.645
44.01,309.606
45.01,310.618
46.01,311.67
47.01,312.765
48.01,313.895
49.01,315.054
50.01,316.241
51.01,317.456
52.01,318.696
53.01,319.962
54.01,321.252
55.01,322.565
56.01,323.899
57.01,325.255
58.01,326.632
59.01,328.028
60.01,329.444
61.01,330.879
62.01,332.331
63.01,333.801
64.01,335.286
65.01,336.785
66.01,338.298
67.01,339.824
68.01,341.361
69.01,342.908
70.01,344.466
71.01,346.033
72.01,347.608
73,349.183
74,350.765
75,352.36
76,353.962
77,355.569
78,357.18
79,358.794
80,360.413
81,362.034
82,363.658
83,365.283
84,366.91
85,368.539
86,370.168
87,371.798
88,373.427
89,375.057
90,376.686
91,378.314
92,379.941
93,381.567
94,383.191
95,384.814
96,386.434
97,388.053
98,389.669
99,391.283
100,392.893
101,394.502
102,396.107
103,397.709
104,399.307
105,400.903
106,402.495
107,404.084
108,405.671
109,407.254
110,408.833
111,410.409
112,411.98
113,413.548
114,415.112
115,416.672
116,418.227
117,419.779
118,421.326
119,422.868
120,424.407
121,425.941
122,427.47
123,428.995
124,430.516
125,432.032
126,433.543
127,435.05
128,436.552
129,438.05
130,439.543
131,441.032
132,442.515
133,443.995
134,445.469
135,446.938
136,448.403
137,449.863
138,451.318
139,452.768
140,454.214
141,455.654
142,457.09
143,458.521
144,459.947
145,461.368
146,462.784
147,464.195
148,465.601
149,467.002
150,468.398
151,469.789
152,471.174
153,472.555
154,473.93
155,475.3
156,476.665
157,478.025
158,479.379
159,480.728
160.01,482.077
161.01,483.422
162.01,484.753
163.01,486.08
164.01,487.401
165.01,488.716
166.01,490.027
167.01,491.33
168.01,492.629
169.01,493.922
170.01,495.208
171.01,496.49
172.01,497.765
173.01,499.034
174.01,500.298
175.01,501.555
176.01,502.807
177.01,504.052
178.01,505.291
179.01,506.524
180.01,507.751
181.01,508.971
182.01,510.185
183.01,511.392
184.01,512.593
185.01,513.788
186.01,514.975
187.01,516.156
188.01,517.331
189.01,518.498
190.01,519.658
191.01,520.812
192.01,521.959
193.01,523.098
194.01,524.231
195.01,525.356
196.01,526.474
197.01,527.586
198.01,528.689
199.01,529.785
200.01,530.875
201.01,531.957
202.01,533.031
203.01,534.098
204.01,535.157
205.01,536.208
206.01,537.253
207.01,538.29
208.01,539.318
209.01,540.339
210.01,541.353
211.01,542.359
212.01,543.356
213.01,544.347
214.01,545.331
215.01,546.305
216.01,547.273
217.01,548.234
218.01,549.186
219.01,550.13
220.01,551.068
221.01,551.999
222.01,552.921
223.01,553.836
224.01,554.744
225.01,555.645
226.01,556.538
227.01,557.424
228.01,558.305
229.01,559.178
230.01,560.044
231.01,560.903
232.01,561.757
233.01,562.604
234.01,563.444
235.01,564.278
236.01,565.108
237.01,565.931
238.01,566.748
239.01,567.56
240.01,568.366
241.01,569.167
242.01,569.964
243.01,570.755
244.01,571.542
245.01,572.325
246.01,573.103
247.01,573.877
248.01,574.648
249.01,575.417
250.01,576.18
251.01,576.942
252.01,577.7
253.01,578.457
254.01,579.21
255.01,579.962
256.01,580.711
257.01,581.46
258.01,582.207
259.01,582.953
260.01,583.698
261.01,584.442
262.01,585.185
263.01,585.93
264.01,586.673
265.01,587.416
266.01,588.161
267.01,588.907
268.01,589.655
269.01,590.403
270.01,591.154
271.01,591.907
272.01,592.661
273.01,593.418
274.01,594.177
275.01,594.938
276.01,595.703
277.01,596.471
278.01,597.243
279.01,598.019
280.01,598.798
281.01,599.581
282.01,600.37
283.01,601.164
284.01,601.962
285.01,602.763
286.01,603.57
287.01,604.382
288.01,605.201
289.01,606.025
290.01,606.856
291.01,607.695
292.01,608.542
293.01,609.398
294.01,610.262
295.01,611.132
296.01,612.01
297.01,612.894
298.01,613.787
299.01,614.689
300.01,615.599
301.01,616.519
302.01,617.449
303.01,618.39
304.01,619.344
305.01,620.306
306.01,621.277
307.01,622.261
308.01,623.256
309.01,624.266
310.01,625.29
311.01,626.326
312.01,627.374
313.01,628.436
314.01,629.513
315.01,630.608
316.01,631.717
317.01,632.843
318.01,633.986
319.01,635.146
320.01,636.328
321.01,637.532
322.01,638.759
323.01,640.019
324.01,641.322
325.01,642.647
326.01,643.981
327.01,645.343
328.01,646.745
329.01,648.147
330.01,649.544
331.01,650.974
332.01,652.447
333.01,653.935
334.01,655.448
335.01,656.998
336.01,658.574
337.01,660.163
338.01,661.779
339.01,663.437
340.01,665.139
341.01,666.869
342.01,668.624
343.01,670.425
344.01,672.25
345.01,674.089
346.01,675.985
347.01,677.946
348.01,679.928
349.01,681.926
350.01,683.987
351.01,686.087
352.01,688.216
353.01,690.449
354.01,692.776
355.01,695.059
356.01,697.438
357.01,700.079
358.01,702.677
359.01,705.232
360.01,708.175
361.01,711.239
362.01,714.52
363.01,717.919
364.01,721.383
365.01,725.418
366.01,730.19
367.01,736.029
368.01,743.277
369.01,752.521
370.01,765.033
371.01,782.765
372.01,807.627
373.01,835.934
374.01,844.855
375.01,849.743
376.01,853.122
377.01,855.696
378.01,857.757
379.01,859.474
380.01,860.948
381.01,862.25
382.01,863.323
383.01,864.309
384.01,865.207
385.01,865.955
386.01,866.742
387.01,867.52
388.01,868.122
389.01,868.752
390.01,869.404
391.01,869.938
392.01,870.325
393.01,870.707
394.01,871.194
395.01,871.665
396.01,872.097
397.01,872.539
398.01,872.963
399.01,873.329
400.01,873.668
401.01,873.984
402.01,874.261
403.01,874.507
404.01,874.718
405.01,875.024
406.01,875.357
407.01,875.703
408.01,875.983
409.01,876.231
410.01,876.487
411.01,876.701
412.01,876.907
413.01,877.104
414.01,877.276
415.01,877.507
416.01,877.734
417.01,877.962
418.01,878.188
419.01,878.391
420.01,878.576
421.01,878.695
422.01,878.824
423.01,878.993
424.01,879.152
425.01,879.336
426.01,879.511
427.01,879.683
428.01,879.861
429.01,880.009
430.01,880.133
431.01,880.298
432.01,880.459
433.01,880.626
434.01,880.793
435.01,880.932
436.01,881.044
437.01,881.174
438.01,881.278
439.01,881.417
440.01,881.559
441.01,881.685
442.01,881.773
443.01,881.842
444.01,881.924
445.01,882.034
446.01,882.183
447.01,882.294
448.01,882.374
449.01,882.497
450.01,882.613
451.01,882.723
452.01,882.87
453.01,883.023
454.01,883.162
455.01,883.298
456.01,883.32
457.01,883.358
458.01,883.49
459.01,883.697
460.01,883.839
461.01,883.873
462.01,883.91
463.01,884.014
464.01,884.137
465.01,884.273
466.01,884.429
467.01,884.552
468.01,884.624
469.01,884.68
470.01,884.774
471.01,884.912
472.01,885.017
473.01,885.09
474.01,885.112
475.01,885.18
476.01,885.282
477.01,885.406
478.01,885.468
479.01,885.501
480.01,885.563
481.01,885.662
482.01,885.82
483.01,885.978
484.01,886.093
485.01,886.15
486.01,886.213
487.01,886.29
488.01,886.358
489.01,886.436
490.01,886.503
491.01,886.581
492.01,886.669
493.01,886.762
494.01,886.887
495.01,886.971
496.01,886.951
497.01,886.983
498.01,887.139
499.01,887.274
500,887.376