File: PMMA/Validation_Results/DBI/csv_files_calibrated/DBI-cal_Gasification_q50_Temp_R4.csv
Time,Temp
[s],[K]
0,298.15
1,298.15
2,298.15
3.01,298.15
4.01,298.15
5.01,298.15
6.01,298.15
7.01,298.15
8.01,298.15
9.01,298.15
10.01,298.151
11.01,298.152
12.01,298.154
13.01,298.158
14.01,298.165
15.01,298.176
16.01,298.194
17.01,298.221
18,298.258
19,298.309
20,298.375
21,298.461
22,298.568
23,298.699
24,298.857
25,299.044
26,299.263
27,299.515
28,299.803
29,300.128
30,300.492
31,300.896
32,301.342
33,301.831
34,302.362
35,302.938
36,303.558
37,304.223
38,304.934
39,305.69
40,306.491
41,307.339
42,308.234
43,309.18
44.01,310.183
45.01,311.234
46.01,312.326
47.01,313.458
48.01,314.622
49.01,315.814
50.01,317.034
51.01,318.282
52.01,319.555
53.01,320.854
54.01,322.177
55.01,323.523
56.01,324.89
57.01,326.279
58.01,327.689
59.01,329.119
60.01,330.568
61.01,332.036
62.01,333.521
63.01,335.023
64.01,336.539
65.01,338.07
66.01,339.614
67.01,341.169
68.01,342.736
69.01,344.313
70.01,345.9
71.01,347.495
72.01,349.099
73,350.701
74,352.309
75,353.932
76,355.559
77,357.192
78,358.828
79,360.467
80,362.11
81,363.755
82,365.402
83,367.051
84,368.7
85,370.351
86,372.002
87,373.653
88,375.304
89,376.954
90,378.603
91,380.251
92,381.897
93,383.542
94,385.186
95,386.827
96,388.465
97,390.101
98,391.735
99,393.366
100,394.994
101,396.618
102,398.24
103,399.857
104,401.472
105,403.082
106,404.69
107,406.295
108,407.896
109,409.494
110,411.088
111,412.677
112,414.262
113,415.844
114,417.421
115,418.993
116,420.561
117,422.125
118,423.684
119,425.239
120,426.789
121,428.334
122,429.875
123,431.412
124,432.943
125,434.47
126,435.992
127,437.51
128,439.022
129,440.53
130,442.033
131,443.531
132,445.024
133,446.512
134,447.995
135,449.473
136,450.947
137,452.415
138,453.878
139,455.336
140,456.79
141,458.237
142,459.68
143,461.118
144,462.55
145,463.978
146,465.4
147,466.817
148,468.229
149,469.636
150,471.037
151,472.433
152,473.824
153,475.209
154,476.589
155,477.964
156,479.333
157,480.697
158,482.055
159,483.406
160.01,484.759
161.01,486.106
162.01,487.44
163.01,488.77
164.01,490.093
165.01,491.41
166.01,492.722
167.01,494.027
168.01,495.327
169.01,496.621
170.01,497.908
171.01,499.19
172.01,500.465
173.01,501.734
174.01,502.999
175.01,504.255
176.01,505.505
177.01,506.75
178.01,507.987
179.01,509.219
180.01,510.444
181.01,511.661
182.01,512.874
183.01,514.078
184.01,515.276
185.01,516.467
186.01,517.651
187.01,518.828
188.01,519.999
189.01,521.161
190.01,522.317
191.01,523.466
192.01,524.607
193.01,525.742
194.01,526.869
195.01,527.988
196.01,529.1
197.01,530.205
198.01,531.303
199.01,532.392
200.01,533.473
201.01,534.548
202.01,535.614
203.01,536.673
204.01,537.725
205.01,538.768
206.01,539.803
207.01,540.831
208.01,541.851
209.01,542.863
210.01,543.866
211.01,544.864
212.01,545.852
213.01,546.832
214.01,547.805
215.01,548.77
216.01,549.727
217.01,550.676
218.01,551.619
219.01,552.554
220.01,553.481
221.01,554.4
222.01,555.313
223.01,556.218
224.01,557.116
225.01,558.006
226.01,558.891
227.01,559.767
228.01,560.636
229.01,561.499
230.01,562.356
231.01,563.206
232.01,564.049
233.01,564.886
234.01,565.719
235.01,566.545
236.01,567.366
237.01,568.181
238.01,568.993
239.01,569.799
240.01,570.6
241.01,571.395
242.01,572.188
243.01,572.976
244.01,573.759
245.01,574.539
246.01,575.315
247.01,576.089
248.01,576.858
249.01,577.625
250.01,578.389
251.01,579.151
252.01,579.91
253.01,580.667
254.01,581.422
255.01,582.175
256.01,582.928
257.01,583.679
258.01,584.429
259.01,585.178
260.01,585.927
261.01,586.677
262.01,587.427
263.01,588.177
264.01,588.93
265.01,589.683
266.01,590.438
267.01,591.194
268.01,591.952
269.01,592.711
270.01,593.472
271.01,594.237
272.01,595.004
273.01,595.774
274.01,596.547
275.01,597.324
276.01,598.107
277.01,598.893
278.01,599.682
279.01,600.475
280.01,601.273
281.01,602.077
282.01,602.885
283.01,603.699
284.01,604.519
285.01,605.346
286.01,606.18
287.01,607.02
288.01,607.867
289.01,608.719
290.01,609.579
291.01,610.446
292.01,611.322
293.01,612.204
294.01,613.095
295.01,613.995
296.01,614.904
297.01,615.825
298.01,616.754
299.01,617.693
300.01,618.642
301.01,619.603
302.01,620.575
303.01,621.559
304.01,622.554
305.01,623.56
306.01,624.577
307.01,625.605
308.01,626.65
309.01,627.707
310.01,628.781
311.01,629.872
312.01,630.98
313.01,632.105
314.01,633.248
315.01,634.406
316.01,635.581
317.01,636.772
318.01,637.981
319.01,639.21
320.01,640.455
321.01,641.718
322.01,643.001
323.01,644.304
324.01,645.629
325.01,646.976
326.01,648.339
327.01,649.723
328.01,651.13
329.01,652.562
330.01,654.025
331.01,655.512
332.01,657.025
333.01,658.566
334.01,660.132
335.01,661.727
336.01,663.345
337.01,664.987
338.01,666.653
339.01,668.348
340.01,670.08
341.01,671.845
342.01,673.645
343.01,675.478
344.01,677.335
345.01,679.221
346.01,681.14
347.01,683.103
348.01,685.115
349.01,687.18
350.01,689.28
351.01,691.422
352.01,693.619
353.01,695.872
354.01,698.199
355.01,700.614
356.01,703.124
357.01,705.744
358.01,708.528
359.01,711.495
360.01,714.688
361.01,718.242
362.01,722.139
363.01,726.612
364.01,731.889
365.01,738.066
366.01,746.043
367.01,756.014
368.01,770.043
369.01,789.746
370.01,818.1
371.01,839.555
372.01,846.582
373.01,850.885
374.01,853.991
375.01,856.392
376.01,858.338
377.01,859.962
378.01,861.357
379.01,862.593
380.01,863.706
381.01,864.717
382.01,865.633
383.01,866.468
384.01,867.212
385.01,867.886
386.01,868.502
387.01,869.055
388.01,869.607
389.01,870.132
390.01,870.619
391.01,871.063
392.01,871.499
393.01,871.937
394.01,872.325
395.01,872.665
396.01,873.034
397.01,873.453
398.01,873.794
399.01,874.075
400.01,874.293
401.01,874.544
402.01,874.867
403.01,875.186
404.01,875.463
405.01,875.751
406.01,876
407.01,876.242
408.01,876.513
409.01,876.783
410.01,876.945
411.01,877.173
412.01,877.408
413.01,877.564
414.01,877.78
415.01,878.019
416.01,878.261
417.01,878.465
418.01,878.658
419.01,878.806
420.01,878.898
421.01,879.065
422.01,879.278
423.01,879.482
424.01,879.594
425.01,879.631
426.01,879.764
427.01,879.939
428.01,880.093
429.01,880.245
430.01,880.391
431.01,880.534
432.01,880.718
433.01,880.903
434.01,880.978
435.01,881.045
436.01,881.186
437.01,881.389
438.01,881.582
439.01,881.732
440.01,881.81
441.01,881.88
442.01,881.986
443.01,882.127
444.01,882.279
445.01,882.377
446.01,882.484
447.01,882.658
448.01,882.779
449.01,882.876
450.01,882.958
451.01,883.085
452.01,883.207
453.01,883.323
454.01,883.417
455.01,883.521
456.01,883.63
457.01,883.735
458.01,883.819
459.01,883.903
460.01,883.996
461.01,884.144
462.01,884.264
463.01,884.345
464.01,884.332
465.01,884.387
466.01,884.568
467.01,884.725
468.01,884.848
469.01,884.927
470.01,885.03
471.01,885.115
472.01,885.187
473.01,885.233
474.01,885.301
475.01,885.366
476.01,885.439
477.01,885.547
478.01,885.637
479.01,885.764
480.01,885.84
481.01,885.913
482.01,886.009
483.01,886.131
484.01,886.197
485.01,886.247
486.01,886.312
487.01,886.367
488.01,886.423
489.01,886.541
490.01,886.686
491.01,886.824
492.01,886.932
493.01,886.976
494.01,887.063
495.01,887.153
496.01,887.223
497.01,887.307
498.01,887.389
499.01,887.466
500,887.516