File: PMMA/Validation_Results/DBI/csv_files_calibrated/DBI-cal_Gasification_q25_MLR_R2.csv
Time,MLR
[s],[g/m2/s]
0,0
1,0
2,0
3.01,0
4.01,0
5.01,0
6.01,0
7.01,0
8.01,6.49612E-07
9.01,6.49612E-07
10.01,1.29922E-06
11.01,2.59845E-06
12.01,3.24806E-06
13.01,5.84651E-06
14.01,9.09457E-06
15.01,1.29922E-05
16.01,2.01884E-05
17.01,2.86546E-05
18,4.10281E-05
19,5.79604E-05
20,7.86031E-05
21,0.000107186
22,0.000142915
23,0.000187738
24,0.000244254
25,0.000313763
26,0.000398862
27,0.0005028
28,0.000628175
29,0.000778235
30,0.000956229
31,0.001166054
32,0.001412906
33,0.001700035
34,0.002032636
35,0.002417206
36,0.002857643
37,0.003360443
38,0.003933401
39,0.004581064
40,0.005311228
41,0.006131688
42,0.007053393
43,0.008075277
44.01,0.009211855
45.01,0.0104703
46.01,0.0118671
47.01,0.0133989
48.01,0.0150788
49.01,0.0169165
50.01,0.0189232
51.01,0.0211065
52.01,0.0234776
53.01,0.0260488
54.01,0.0288298
55.01,0.0318329
56.01,0.0350693
57.01,0.0385506
58.01,0.0422917
59.01,0.0463063
60.01,0.0506067
61.01,0.05520273
62.01,0.0601002
63.01,0.0653087
64.01,0.0708376
65.01,0.07669969
66.01,0.0829061
67.01,0.0894691
68.01,0.0964011
69.01,0.103711
70.01,0.111412
71.01,0.119476
72.01,0.127993
73,0.136934
74,0.146313
75,0.156089
76,0.16637
77,0.177117
78,0.18833
79,0.200012
80,0.212168
81,0.224809
82,0.237946
83,0.251584
84,0.265724
85,0.28037
86,0.295521
87,0.31117
88,0.327323
89,0.344001
90,0.361227
91,0.379015
92,0.397347
93,0.416186
94,0.435515
95,0.455353
96,0.475721
97,0.496615
98,0.518025
99,0.539932
100,0.562293
101,0.585098
102,0.608377
103,0.632148
104,0.656441
105,0.681272
106,0.706634
107,0.732554
108,0.75904
109,0.786051
110,0.813563
111,0.841567
112,0.870044
113,0.898975
114,0.928318
115,0.958021
116,0.988064
117,1.01847
118,1.04923
119,1.08031
120,1.11173
121,1.14351
122,1.17555
123,1.20778
124,1.24017
125,1.27273
126,1.30556
127,1.33879
128,1.37245
129,1.40658
130,1.44104
131,1.47566
132,1.51035
133,1.54515
134,1.5803
135,1.61598
136,1.65199
137,1.68806
138,1.72389
139,1.75936
140,1.79479
141,1.83049
142,1.86662
143,1.90326
144,1.94028
145,1.97757
146,2.01502
147,2.05255
148,2.09009
149,2.12753
150,2.1648
151,2.20193
152,2.23901
153,2.27615
154,2.31343
155,2.35082
156,2.38819
157,2.42544
158,2.46258
159,2.49928
160.01,2.53598
161.01,2.57289
162.01,2.61037
163.01,2.64796
164.01,2.6855
165.01,2.72266
166.01,2.75935
167.01,2.79579
168.01,2.83223
169.01,2.86883
170.01,2.90557
171.01,2.94217
172.01,2.97859
173.01,3.01492
174.01,3.05124
175.01,3.08767
176.01,3.1241
177.01,3.16038
178.01,3.19644
179.01,3.23224
180.01,3.26777
181.01,3.3031
182.01,3.33839
183.01,3.37372
184.01,3.40908
185.01,3.4445
186.01,3.47997
187.01,3.51544
188.01,3.55076
189.01,3.5857
190.01,3.62031
191.01,3.65488
192.01,3.68967
193.01,3.72473
194.01,3.75982
195.01,3.79465
196.01,3.82918
197.01,3.86353
198.01,3.89779
199.01,3.9318
200.01,3.96545
201.01,3.99889
202.01,4.03228
203.01,4.06589
204.01,4.09979
205.01,4.13375
206.01,4.1676
207.01,4.20117
208.01,4.23443
209.01,4.26753
210.01,4.30061
211.01,4.33375
212.01,4.36685
213.01,4.39978
214.01,4.43259
215.01,4.46538
216.01,4.49824
217.01,4.53108
218.01,4.56353
219.01,4.59538
220.01,4.6267
221.01,4.65779
222.01,4.689
223.01,4.72049
224.01,4.75223
225.01,4.78405
226.01,4.81576
227.01,4.84726
228.01,4.87849
229.01,4.9094
230.01,4.94006
231.01,4.97058
232.01,5.00102
233.01,5.03142
234.01,5.06175
235.01,5.09191
236.01,5.1218
237.01,5.15146
238.01,5.18104
239.01,5.21071
240.01,5.24064
241.01,5.27085
242.01,5.30102
243.01,5.33082
244.01,5.36019
245.01,5.38929
246.01,5.41844
247.01,5.4478
248.01,5.47724
249.01,5.5065
250.01,5.5353
251.01,5.56359
252.01,5.59155
253.01,5.61928
254.01,5.64683
255.01,5.6743
256.01,5.70167
257.01,5.72902
258.01,5.75654
259.01,5.78425
260.01,5.81201
261.01,5.83967
262.01,5.86718
263.01,5.89453
264.01,5.92176
265.01,5.94889
266.01,5.97578
267.01,6.00243
268.01,6.02889
269.01,6.05509
270.01,6.08101
271.01,6.10678
272.01,6.13249
273.01,6.15825
274.01,6.18406
275.01,6.20977
276.01,6.23537
277.01,6.26106
278.01,6.28712
279.01,6.31369
280.01,6.34034
281.01,6.36619
282.01,6.39072
283.01,6.41385
284.01,6.43571
285.01,6.45698
286.01,6.47862
287.01,6.5011
288.01,6.5246
289.01,6.54913
290.01,6.57435
291.01,6.59991
292.01,6.62554
293.01,6.65088
294.01,6.67549
295.01,6.69922
296.01,6.72218
297.01,6.74452
298.01,6.76645
299.01,6.78829
300.01,6.81058
301.01,6.83374
302.01,6.85771
303.01,6.88237
304.01,6.9073
305.01,6.93199
306.01,6.95592
307.01,6.97858
308.01,7.00001
309.01,7.02054
310.01,7.04074
311.01,7.06117
312.01,7.08188
313.01,7.10308
314.01,7.12495
315.01,7.14734
316.01,7.17005
317.01,7.19249
318.01,7.21419
319.01,7.235
320.01,7.25491
321.01,7.27401
322.01,7.29253
323.01,7.31074
324.01,7.329
325.01,7.34764
326.01,7.36662
327.01,7.38562
328.01,7.40443
329.01,7.42309
330.01,7.44191
331.01,7.46124
332.01,7.48105
333.01,7.50113
334.01,7.5213
335.01,7.54122
336.01,7.56096
337.01,7.5807
338.01,7.60019
339.01,7.61925
340.01,7.63776
341.01,7.65587
342.01,7.67386
343.01,7.69176
344.01,7.70955
345.01,7.72702
346.01,7.74391
347.01,7.76032
348.01,7.77626
349.01,7.79187
350.01,7.80752
351.01,7.8235
352.01,7.83995
353.01,7.85681
354.01,7.87391
355.01,7.8911
356.01,7.90827
357.01,7.92525
358.01,7.9417
359.01,7.95745
360.01,7.97264
361.01,7.98769
362.01,8.00291
363.01,8.01842
364.01,8.03401
365.01,8.04932
366.01,8.0643
367.01,8.07914
368.01,8.09396
369.01,8.10882
370.01,8.12369
371.01,8.13841
372.01,8.15283
373.01,8.1668
374.01,8.18008
375.01,8.19274
376.01,8.20527
377.01,8.21797
378.01,8.23107
379.01,8.24437
380.01,8.25735
381.01,8.26992
382.01,8.28228
383.01,8.29442
384.01,8.30639
385.01,8.31849
386.01,8.33082
387.01,8.34359
388.01,8.3567
389.01,8.36968
390.01,8.38234
391.01,8.39475
392.01,8.40675
393.01,8.41799
394.01,8.42827
395.01,8.43774
396.01,8.44695
397.01,8.45629
398.01,8.46583
399.01,8.47594
400.01,8.48675
401.01,8.49821
402.01,8.51012
403.01,8.52152
404.01,8.53162
405.01,8.54073
406.01,8.54936
407.01,8.5579
408.01,8.56676
409.01,8.57597
410.01,8.58536
411.01,8.59467
412.01,8.60348
413.01,8.61174
414.01,8.61965
415.01,8.62802
416.01,8.63762
417.01,8.64814
418.01,8.6589
419.01,8.66933
420.01,8.67878
421.01,8.68753
422.01,8.69626
423.01,8.70506
424.01,8.71385
425.01,8.72234
426.01,8.73022
427.01,8.7378
428.01,8.74566
429.01,8.75427
430.01,8.76353
431.01,8.77296
432.01,8.78211
433.01,8.79061
434.01,8.79844
435.01,8.80582
436.01,8.81281
437.01,8.81957
438.01,8.82614
439.01,8.83238
440.01,8.83854
441.01,8.84494
442.01,8.85164
443.01,8.85864
444.01,8.8658
445.01,8.87294
446.01,8.88015
447.01,8.88754
448.01,8.89497
449.01,8.90221
450.01,8.90905
451.01,8.91545
452.01,8.92153
453.01,8.92748
454.01,8.93333
455.01,8.93902
456.01,8.94456
457.01,8.95
458.01,8.95541
459.01,8.96085
460.01,8.96642
461.01,8.97221
462.01,8.9782
463.01,8.98438
464.01,8.99059
465.01,8.99659
466.01,9.00223
467.01,9.00751
468.01,9.01246
469.01,9.01719
470.01,9.02179
471.01,9.02636
472.01,9.03102
473.01,9.03581
474.01,9.0407
475.01,9.04569
476.01,9.05073
477.01,9.05573
478.01,9.06068
479.01,9.06558
480.01,9.07039
481.01,9.07511
482.01,9.07974
483.01,9.08433
484.01,9.08875
485.01,9.09281
486.01,9.09669
487.01,9.10065
488.01,9.10489
489.01,9.10957
490.01,9.11437
491.01,9.11886
492.01,9.12282
493.01,9.12595
494.01,9.12821
495.01,9.13016
496.01,9.13217
497.01,9.13464
498.01,9.13782
499.01,9.14121
500.01,9.14452
501.01,9.14747
502.01,9.14977
503.01,9.15163
504.01,9.15365
505.01,9.15671
506.01,9.16132
507.01,9.16701
508.01,9.17287
509.01,9.17815
510.01,9.18254
511.01,9.18631
512.01,9.18983
513.01,9.19334
514.01,9.19668
515.01,9.1992
516.01,9.20055
517.01,9.20105
518.01,9.20123
519.01,9.20219
520.01,9.20465
521.01,9.20819
522.01,9.21222
523.01,9.21633
524.01,9.22017
525.01,9.22376
526.01,9.22737
527.01,9.2311
528.01,9.23493
529.01,9.2388
530.01,9.2426
531.01,9.24615
532.01,9.24926
533.01,9.25199
534.01,9.25457
535.01,9.25714
536.01,9.25974
537.01,9.2623
538.01,9.2646
539.01,9.26647
540.01,9.26798
541.01,9.26952
542.01,9.27181
543.01,9.27511
544.01,9.27909
545.01,9.28311
546.01,9.28642
547.01,9.2888
548.01,9.29056
549.01,9.29198
550.01,9.29305
551.01,9.29356
552.01,9.29348
553.01,9.29318
554.01,9.29333
555.01,9.29475
556.01,9.29776
557.01,9.30151
558.01,9.30464
559.01,9.3063
560.01,9.30641
561.01,9.3055
562.01,9.30463
563.01,9.30452
564.01,9.30553
565.01,9.3081
566.01,9.31241
567.01,9.31823
568.01,9.32487
569.01,9.33133
570.01,9.33683
571.01,9.34098
572.01,9.34383
573.01,9.34566
574.01,9.34671
575.01,9.34696
576.01,9.34627
577.01,9.34507
578.01,9.34388
579.01,9.34304
580.01,9.3429
581.01,9.34342
582.01,9.34435
583.01,9.34537
584.01,9.34625
585.01,9.34695
586.01,9.34734
587.01,9.34738
588.01,9.34706
589.01,9.3463
590.01,9.34521
591.01,9.34404
592.01,9.34319
593.01,9.34289
594.01,9.34304
595.01,9.34391
596.01,9.34562
597.01,9.34782
598.01,9.35007
599.01,9.35134
600.01,9.35106
601.01,9.35006
602.01,9.34936
603.01,9.35003
604.01,9.3526
605.01,9.35644
606.01,9.36088
607.01,9.36488
608.01,9.36704
609.01,9.36712
610.01,9.36586
611.01,9.36477
612.01,9.36529
613.01,9.36788
614.01,9.37209
615.01,9.37694
616.01,9.3817
617.01,9.38594
618.01,9.38931
619.01,9.39195
620.01,9.39433
621.01,9.39677
622.01,9.39929
623.01,9.40179
624.01,9.40414
625.01,9.40639
626.01,9.40855
627.01,9.41056
628.01,9.41234
629.01,9.41369
630.01,9.41462
631.01,9.41535
632.01,9.41596
633.01,9.41642
634.01,9.41699
635.01,9.41796
636.01,9.41942
637.01,9.4213
638.01,9.42338
639.01,9.42535
640.01,9.42701
641.01,9.42833
642.01,9.42933
643.01,9.42993
644.01,9.43005
645.01,9.42979
646.01,9.42927
647.01,9.4287
648.01,9.4287
649.01,9.42958
650.01,9.43082
651.01,9.43171
652.01,9.43185
653.01,9.43138
654.01,9.43131
655.01,9.4325
656.01,9.43489
657.01,9.43832
658.01,9.44193
659.01,9.44457
660.01,9.44572
661.01,9.44508
662.01,9.44317
663.01,9.44157
664.01,9.4414
665.01,9.44263
666.01,9.44458
667.01,9.44616
668.01,9.44659
669.01,9.44608
670.01,9.44527
671.01,9.44463
672.01,9.4443
673.01,9.4441
674.01,9.44387
675.01,9.4436
676.01,9.4435
677.01,9.44417
678.01,9.4459
679.01,9.44826
680.01,9.45031
681.01,9.45128
682.01,9.45073
683.01,9.44877
684.01,9.44659
685.01,9.44505
686.01,9.44406
687.01,9.44365
688.01,9.44378
689.01,9.44409
690.01,9.44467
691.01,9.44573
692.01,9.44716
693.01,9.44896
694.01,9.45107
695.01,9.45315
696.01,9.45486
697.01,9.45592
698.01,9.45649
699.01,9.457
700.01,9.45775
701.01,9.45887
702.01,9.46008
703.01,9.46077
704.01,9.46075
705.01,9.46036
706.01,9.46029
707.01,9.46105
708.01,9.46242
709.01,9.46376
710.01,9.46462
711.01,9.46494
712.01,9.46493
713.01,9.46487
714.01,9.46497
715.01,9.46529
716.01,9.46593
717.01,9.4667
718.01,9.46726
719.01,9.46741
720.01,9.46714
721.01,9.46661
722.01,9.46596
723.01,9.46527
724.01,9.46463
725.01,9.46421
726.01,9.46413
727.01,9.46418
728.01,9.46407
729.01,9.46341
730.01,9.4617
731.01,9.45905
732.01,9.45602
733.01,9.45306
734.01,9.45117
735.01,9.45117
736.01,9.45278
737.01,9.4554
738.01,9.45833
739.01,9.46075
740.01,9.46244
741.01,9.46364
742.01,9.46455
743.01,9.46523
744.01,9.46561
745.01,9.46561
746.01,9.46524
747.01,9.4645
748.01,9.46353
749.01,9.46268
750.01,9.46222
751.01,9.46233
752.01,9.46309
753.01,9.46413
754.01,9.46482
755.01,9.46486
756.01,9.4642
757.01,9.46332
758.01,9.46272
759.01,9.46239
760.01,9.46215
761.01,9.46155
762.01,9.46
763.01,9.4573
764.01,9.45359
765.01,9.44942
766.01,9.44571
767.01,9.44308
768.01,9.44152
769.01,9.44055
770.01,9.43975
771.01,9.43894
772.01,9.43799
773.01,9.43689
774.01,9.4356
775.01,9.43407
776.01,9.43241
777.01,9.43084
778.01,9.42949
779.01,9.42834
780.01,9.42734
781.01,9.42614
782.01,9.42452
783.01,9.42272
784.01,9.42113
785.01,9.42013
786.01,9.41976
787.01,9.41963
788.01,9.41936
789.01,9.41875
790.01,9.41765
791.01,9.4162
792.01,9.4147
793.01,9.41326
794.01,9.41193
795.01,9.41072
796.01,9.40943
797.01,9.40797
798.01,9.40652
799.01,9.40522
800.01,9.40405
801.01,9.40286
802.01,9.40145
803.01,9.39965
804.01,9.39734
805.01,9.39465
806.01,9.39183
807.01,9.38907
808.01,9.3865
809.01,9.38425
810.01,9.38232
811.01,9.38064
812.01,9.37914
813.01,9.37772
814.01,9.37621
815.01,9.3744
816.01,9.37205
817.01,9.3688
818.01,9.36441
819.01,9.35934
820.01,9.35449
821.01,9.35048
822.01,9.34741
823.01,9.34502
824.01,9.34277
825.01,9.34047
826.01,9.33824
827.01,9.33609
828.01,9.33394
829.01,9.33155
830.01,9.32864
831.01,9.32507
832.01,9.32094
833.01,9.31659
834.01,9.31248
835.01,9.30876
836.01,9.3053
837.01,9.30184
838.01,9.29817
839.01,9.29427
840.01,9.2902
841.01,9.28601
842.01,9.28155
843.01,9.27638
844.01,9.27036
845.01,9.26376
846.01,9.25721
847.01,9.25148
848.01,9.24669
849.01,9.24235
850.01,9.23837
851.01,9.23479
852.01,9.2314
853.01,9.22761
854.01,9.22263
855.01,9.21614
856.01,9.20855
857.01,9.20087
858.01,9.19407
859.01,9.18845
860.01,9.18423
861.01,9.18123
862.01,9.17849
863.01,9.17513
864.01,9.17076
865.01,9.16548
866.01,9.15998
867.01,9.15492
868.01,9.15039
869.01,9.1461
870.01,9.14162
871.01,9.13663
872.01,9.13102
873.01,9.12485
874.01,9.11838
875.01,9.11193
876.01,9.10581
877.01,9.10029
878.01,9.09534
879.01,9.09063
880.01,9.08545
881.01,9.07877
882.01,9.06987
883.01,9.05878
884.01,9.04628
885.01,9.03396
886.01,9.02334
887.01,9.01496
888.01,9.00778
889.01,8.99996
890.01,8.99082
891.01,8.98024
892.01,8.96827
893.01,8.95618
894.01,8.94507
895.01,8.93532
896.01,8.92701
897.01,8.91998
898.01,8.91343
899.01,8.90657
900.01,8.89906
901.01,8.88973
902.01,8.87793
903.01,8.86436
904.01,8.8506
905.01,8.83839
906.01,8.82851
907.01,8.82081
908.01,8.81422
909.01,8.80763
910.01,8.79983
911.01,8.78959
912.01,8.77743
913.01,8.76474
914.01,8.75252
915.01,8.74116
916.01,8.7297
917.01,8.71712
918.01,8.70392
919.01,8.69077
920.01,8.67789
921.01,8.66515
922.01,8.65171
923.01,8.63761
924.01,8.62382
925.01,8.61071
926.01,8.59816
927.01,8.5855
928.01,8.57218
929.01,8.55826
930.01,8.54401
931.01,8.52964
932.01,8.51493
933.01,8.49931
934.01,8.48247
935.01,8.46442
936.01,8.44555
937.01,8.42661
938.01,8.40831
939.01,8.39096
940.01,8.37438
941.01,8.35787
942.01,8.34056
943.01,8.32206
944.01,8.30252
945.01,8.28241
946.01,8.26219
947.01,8.24212
948.01,8.22219
949.01,8.2023
950.01,8.18214
951.01,8.16147
952.01,8.14017
953.01,8.11815
954.01,8.09554
955.01,8.0725
956.01,8.04915
957.01,8.0256
958.01,8.00182
959.01,7.97767
960.01,7.95297
961.01,7.92762
962.01,7.90157
963.01,7.87484
964.01,7.8475
965.01,7.81968
966.01,7.79157
967.01,7.76322
968.01,7.73438
969.01,7.70472
970.01,7.67407
971.01,7.64252
972.01,7.61042
973.01,7.57821
974.01,7.54641
975.01,7.51503
976.01,7.48352
977.01,7.45116
978.01,7.41738
979.01,7.38231
980.01,7.34648
981.01,7.3099
982.01,7.27209
983.01,7.23337
984.01,7.19465
985.01,7.15676
986.01,7.11991
987.01,7.08329
988.01,7.04589
989.01,7.00725
990.01,6.96733
991.01,6.92604
992.01,6.88335
993.01,6.83944
994.01,6.79427
995.01,6.74809
996.01,6.7016
997.01,6.65541
998.01,6.60949
999.01,6.56308
1000.01,6.51516
1001.01,6.46446
1002.01,6.41131
1003.01,6.35747
1004.01,6.30356
1005.01,6.24972
1006.01,6.19532
1007.01,6.13875
1008.01,6.07967
1009.01,6.01863
1010.01,5.95607
1011.01,5.89271
1012.01,5.82877
1013.01,5.76434
1014.01,5.69987
1015.01,5.63507
1016.01,5.5692
1017.01,5.50142
1018.01,5.43069
1019.01,5.35693
1020.01,5.28078
1021.01,5.20243
1022.01,5.12183
1023.01,5.03967
1024.01,4.95653
1025.01,4.87217
1026.01,4.78656
1027.01,4.6989
1028.01,4.60823
1029.01,4.51528
1030.01,4.42055
1031.01,4.32393
1032.01,4.22469
1033.01,4.12212
1034.01,4.01643
1035.01,3.90792
1036.01,3.79696
1037.01,3.6836
1038.01,3.56727
1039.01,3.44776
1040.01,3.32542
1041.01,3.20059
1042.01,3.07299
1043.01,2.94287
1044.01,2.81124
1045.01,2.67823
1046.01,2.54408
1047.01,2.40895
1048.01,2.2722
1049.01,2.13424
1050.01,1.99615
1051.01,1.85833
1052.01,1.72131
1053.01,1.58592
1054.01,1.45293
1055.01,1.32375
1056.01,1.19957
1057.01,1.08111
1058.01,0.96902
1059.01,0.863264
1060.01,0.763739
1061.01,0.670734
1062.01,0.584713
1063.01,0.506386
1064.01,0.436154
1065.01,0.373854
1066.01,0.304121
1067.01,0.217554
1068.01,0.132259
1069.01,0.0597215
1070.01,0.01321824
1071.01,0
1072.01,0
1073.01,0
1074.01,0
1075.01,0
1076.01,0
1077.01,0
1078.01,0
1079.01,0
1080.01,0
1081.01,0
1082.01,0
1083.01,0
1084.01,0
1085.01,0
1086.01,0
1087.01,0
1088.01,0
1089.01,0
1090.01,0
1091.01,0
1092.01,0
1093.01,0
1094.01,0
1095.01,0
1096.01,0
1097.01,0
1098.01,0
1099.01,0
1100.01,0
1101.01,0
1102.01,0
1103.01,0
1104.01,0
1105.01,0
1106.01,0
1107.01,0
1108.01,0
1109.01,0
1110.01,0
1111.01,0
1112.01,0
1113.01,0
1114.01,0
1115.01,0
1116.01,0
1117.01,0
1118.01,0
1119.01,0
1120.01,0
1121.01,0
1122.01,0
1123.01,0
1124.01,0
1125.01,0
1126.01,0
1127.01,0
1128.01,0
1129.01,0
1130.01,0
1131.01,0
1132.01,0
1133.01,0
1134.01,0
1135.01,0
1136.01,0
1137.01,0
1138.01,0
1139.01,0
1140.01,0
1141.01,0
1142.01,0
1143.01,0
1144.01,0
1145.01,0
1146.01,0
1147.01,0
1148.01,0
1149.01,0
1150.01,0
1151.01,0
1152.01,0
1153.01,0
1154.01,0
1155.01,0
1156.01,0
1157.01,0
1158.01,0
1159.01,0
1160.01,0
1161.01,0
1162.01,0
1163.01,0
1164.01,0
1165.01,0
1166.01,0
1167.01,0
1168.01,0
1169.01,0
1170.01,0
1171.01,0
1172.01,0
1173.01,0
1174.01,0
1175.01,0
1176.01,0
1177.01,0
1178.01,0
1179.01,0
1180.01,0
1181.01,0
1182.01,0
1183.01,0
1184.01,0
1185.01,0
1186.01,0
1187.01,0
1188.01,0
1189.01,0
1190.01,0
1191.01,0
1192.01,0
1193.01,0
1194.01,0
1195.01,0
1196.01,0
1197.01,0
1198.01,0
1199.01,0
1200,0