File: PMMA/Validation_Results/DBI/csv_files_calibrated/DBI-cal_Gasification_q25_Temp_R2.csv
Time,Back Surface Temperature
[s],[K]
0,298.15
1,298.15
2,298.15
3.01,298.15
4.01,298.15
5.01,298.15
6.01,298.15
7.01,298.15
8.01,298.15
9.01,298.15
10.01,298.15
11.01,298.151
12.01,298.151
13.01,298.153
14.01,298.156
15.01,298.161
16.01,298.169
17.01,298.18
18,298.196
19,298.218
20,298.246
21,298.283
22,298.33
23,298.387
24,298.456
25,298.539
26,298.635
27,298.746
28,298.874
29,299.019
30,299.181
31,299.361
32,299.561
33,299.781
34,300.02
35,300.28
36,300.56
37,300.861
38,301.184
39,301.528
40,301.893
41,302.279
42,302.687
43,303.116
44.01,303.568
45.01,304.042
46.01,304.534
47.01,305.047
48.01,305.581
49.01,306.135
50.01,306.709
51.01,307.304
52.01,307.92
53.01,308.557
54.01,309.217
55.01,309.899
56.01,310.602
57.01,311.326
58.01,312.067
59.01,312.826
60.01,313.6
61.01,314.385
62.01,315.181
63.01,315.987
64.01,316.805
65.01,317.632
66.01,318.47
67.01,319.317
68.01,320.174
69.01,321.04
70.01,321.915
71.01,322.797
72.01,323.688
73,324.582
74,325.484
75,326.398
76,327.32
77,328.249
78,329.185
79,330.128
80,331.078
81,332.034
82,332.996
83,333.965
84,334.939
85,335.918
86,336.902
87,337.892
88,338.885
89,339.883
90,340.885
91,341.891
92,342.901
93,343.913
94,344.929
95,345.948
96,346.97
97,347.994
98,349.021
99,350.05
100,351.08
101,352.113
102,353.148
103,354.184
104,355.221
105,356.259
106,357.299
107,358.339
108,359.381
109,360.422
110,361.465
111,362.507
112,363.55
113,364.593
114,365.636
115,366.678
116,367.721
117,368.762
118,369.804
119,370.845
120,371.885
121,372.924
122,373.962
123,374.999
124,376.036
125,377.071
126,378.104
127,379.136
128,380.166
129,381.195
130,382.2223
131,383.247
132,384.271
133,385.293
134,386.312
135,387.329
136,388.345
137,389.358
138,390.369
139,391.377
140,392.383
141,393.387
142,394.388
143,395.386
144,396.382
145,397.376
146,398.366
147,399.354
148,400.339
149,401.32
150,402.2993
151,403.275
152,404.248
153,405.217
154,406.184
155,407.147
156,408.107
157,409.064
158,410.018
159,410.968
160.01,411.921
161.01,412.869
162.01,413.809
163.01,414.7455
164.01,415.679
165.01,416.608
166.01,417.534
167.01,418.457
168.01,419.376
169.01,420.291
170.01,421.2024
171.01,422.111
172.01,423.016
173.01,423.917
174.01,424.814
175.01,425.707
176.01,426.596
177.01,427.482
178.01,428.3639
179.01,429.242
180.01,430.116
181.01,430.9868
182.01,431.854
183.01,432.718
184.01,433.576
185.01,434.432
186.01,435.283
187.01,436.13
188.01,436.9735
189.01,437.813
190.01,438.649
191.01,439.48
192.01,440.309
193.01,441.133
194.01,441.953
195.01,442.769
196.01,443.581
197.01,444.389
198.01,445.193
199.01,445.993
200.01,446.79
201.01,447.583
202.01,448.372
203.01,449.156
204.01,449.936
205.01,450.713
206.01,451.486
207.01,452.254
208.01,453.019
209.01,453.78
210.01,454.538
211.01,455.2908
212.01,456.04
213.01,456.785
214.01,457.526
215.01,458.263
216.01,458.997
217.01,459.728
218.01,460.453
219.01,461.175
220.01,461.893
221.01,462.607
222.01,463.317
223.01,464.023
224.01,464.726
225.01,465.425
226.01,466.12
227.01,466.811
228.01,467.4981
229.01,468.181
230.01,468.861
231.01,469.538
232.01,470.21
233.01,470.878
234.01,471.542
235.01,472.203
236.01,472.86
237.01,473.513
238.01,474.164
239.01,474.81
240.01,475.452
241.01,476.09
242.01,476.725
243.01,477.356
244.01,477.984
245.01,478.608
246.01,479.228
247.01,479.845
248.01,480.457
249.01,481.066
250.01,481.673
251.01,482.275
252.01,482.874
253.01,483.469
254.01,484.06
255.01,484.6475
256.01,485.232
257.01,485.814
258.01,486.391
259.01,486.965
260.01,487.535
261.01,488.1014
262.01,488.666
263.01,489.226
264.01,489.782
265.01,490.335
266.01,490.885
267.01,491.431
268.01,491.975
269.01,492.514
270.01,493.05
271.01,493.582
272.01,494.111
273.01,494.638
274.01,495.161
275.01,495.681
276.01,496.196
277.01,496.709
278.01,497.218
279.01,497.726
280.01,498.229
281.01,498.728
282.01,499.224
283.01,499.718
284.01,500.208
285.01,500.696
286.01,501.1792
287.01,501.66
288.01,502.137
289.01,502.612
290.01,503.0828
291.01,503.551
292.01,504.016
293.01,504.478
294.01,504.937
295.01,505.393
296.01,505.845
297.01,506.294
298.01,506.741
299.01,507.185
300.01,507.627
301.01,508.064
302.01,508.498
303.01,508.929
304.01,509.359
305.01,509.7849
306.01,510.208
307.01,510.628
308.01,511.044
309.01,511.459
310.01,511.87
311.01,512.279
312.01,512.684
313.01,513.087
314.01,513.488
315.01,513.885
316.01,514.28
317.01,514.671
318.01,515.06
319.01,515.447
320.01,515.83
321.01,516.212
322.01,516.589
323.01,516.966
324.01,517.339
325.01,517.709
326.01,518.076
327.01,518.441
328.01,518.805
329.01,519.165
330.01,519.522
331.01,519.877
332.01,520.23
333.01,520.58
334.01,520.927
335.01,521.271
336.01,521.614
337.01,521.955
338.01,522.292
339.01,522.627
340.01,522.96
341.01,523.291
342.01,523.619
343.01,523.945
344.01,524.267
345.01,524.5886
346.01,524.908
347.01,525.224
348.01,525.538
349.01,525.85
350.01,526.161
351.01,526.468
352.01,526.774
353.01,527.076
354.01,527.377
355.01,527.677
356.01,527.973
357.01,528.267
358.01,528.5609
359.01,528.852
360.01,529.139
361.01,529.426
362.01,529.711
363.01,529.993
364.01,530.2727
365.01,530.5516
366.01,530.8279
367.01,531.103
368.01,531.376
369.01,531.647
370.01,531.915
371.01,532.182
372.01,532.4477
373.01,532.711
374.01,532.971
375.01,533.231
376.01,533.49
377.01,533.746
378.01,533.999
379.01,534.252
380.01,534.504
381.01,534.753
382.01,534.999
383.01,535.246
384.01,535.492
385.01,535.733
386.01,535.973
387.01,536.214
388.01,536.452
389.01,536.687
390.01,536.921
391.01,537.1554
392.01,537.388
393.01,537.6173
394.01,537.845
395.01,538.073
396.01,538.299
397.01,538.523
398.01,538.745
399.01,538.9674
400.01,539.188
401.01,539.406
402.01,539.623
403.01,539.839
404.01,540.054
405.01,540.267
406.01,540.48
407.01,540.691
408.01,540.9
409.01,541.108
410.01,541.315
411.01,541.522
412.01,541.726
413.01,541.929
414.01,542.13
415.01,542.333
416.01,542.5325
417.01,542.73
418.01,542.927
419.01,543.125
420.01,543.3208
421.01,543.515
422.01,543.707
423.01,543.9
424.01,544.091
425.01,544.2812
426.01,544.47
427.01,544.659
428.01,544.845
429.01,545.031
430.01,545.217
431.01,545.402
432.01,545.584
433.01,545.766
434.01,545.948
435.01,546.1295
436.01,546.31
437.01,546.488
438.01,546.667
439.01,546.844
440.01,547.02
441.01,547.196
442.01,547.372
443.01,547.545
444.01,547.718
445.01,547.89
446.01,548.0636
447.01,548.235
448.01,548.405
449.01,548.574
450.01,548.743
451.01,548.911
452.01,549.079
453.01,549.248
454.01,549.413
455.01,549.578
456.01,549.743
457.01,549.908
458.01,550.0729
459.01,550.2362
460.01,550.397
461.01,550.56
462.01,550.721
463.01,550.882
464.01,551.043
465.01,551.204
466.01,551.361
467.01,551.519
468.01,551.678
469.01,551.837
470.01,551.994
471.01,552.151
472.01,552.307
473.01,552.462
474.01,552.618
475.01,552.773
476.01,552.928
477.01,553.082
478.01,553.234
479.01,553.387
480.01,553.541
481.01,553.693
482.01,553.845
483.01,553.997
484.01,554.148
485.01,554.298
486.01,554.448
487.01,554.599
488.01,554.749
489.01,554.898
490.01,555.047
491.01,555.196
492.01,555.344
493.01,555.491
494.01,555.64
495.01,555.788
496.01,555.934
497.01,556.08
498.01,556.228
499.01,556.374
500.01,556.52
501.01,556.665
502.01,556.812
503.01,556.956
504.01,557.1
505.01,557.245
506.01,557.39
507.01,557.534
508.01,557.678
509.01,557.823
510.01,557.9659
511.01,558.108
512.01,558.251
513.01,558.395
514.01,558.537
515.01,558.679
516.01,558.822
517.01,558.964
518.01,559.105
519.01,559.246
520.01,559.389
521.01,559.531
522.01,559.672
523.01,559.812
524.01,559.954
525.01,560.094
526.01,560.234
527.01,560.376
528.01,560.517
529.01,560.657
530.01,560.796
531.01,560.937
532.01,561.077
533.01,561.2165
534.01,561.357
535.01,561.497
536.01,561.636
537.01,561.775
538.01,561.915
539.01,562.054
540.01,562.194
541.01,562.333
542.01,562.473
543.01,562.612
544.01,562.751
545.01,562.89
546.01,563.03
547.01,563.169
548.01,563.307
549.01,563.447
550.01,563.586
551.01,563.724
552.01,563.863
553.01,564.003
554.01,564.142
555.01,564.28
556.01,564.419
557.01,564.558
558.01,564.696
559.01,564.834
560.01,564.974
561.01,565.113
562.01,565.25
563.01,565.388
564.01,565.528
565.01,565.666
566.01,565.804
567.01,565.943
568.01,566.082
569.01,566.22
570.01,566.357
571.01,566.497
572.01,566.635
573.01,566.773
574.01,566.912
575.01,567.052
576.01,567.19
577.01,567.328
578.01,567.469
579.01,567.608
580.01,567.747
581.01,567.886
582.01,568.027
583.01,568.165
584.01,568.304
585.01,568.444
586.01,568.584
587.01,568.723
588.01,568.861
589.01,569.002
590.01,569.141
591.01,569.28
592.01,569.42
593.01,569.5606
594.01,569.699
595.01,569.838
596.01,569.979
597.01,570.1175
598.01,570.256
599.01,570.396
600.01,570.537
601.01,570.676
602.01,570.814
603.01,570.955
604.01,571.095
605.01,571.234
606.01,571.374
607.01,571.516
608.01,571.655
609.01,571.794
610.01,571.936
611.01,572.077
612.01,572.217
613.01,572.358
614.01,572.501
615.01,572.642
616.01,572.7826
617.01,572.925
618.01,573.067
619.01,573.208
620.01,573.35
621.01,573.494
622.01,573.637
623.01,573.779
624.01,573.923
625.01,574.067
626.01,574.21
627.01,574.354
628.01,574.5
629.01,574.644
630.01,574.788
631.01,574.933
632.01,575.079
633.01,575.224
634.01,575.369
635.01,575.515
636.01,575.662
637.01,575.807
638.01,575.952
639.01,576.1
640.01,576.246
641.01,576.3916
642.01,576.5384
643.01,576.686
644.01,576.832
645.01,576.979
646.01,577.127
647.01,577.275
648.01,577.422
649.01,577.5698
650.01,577.719
651.01,577.866
652.01,578.0136
653.01,578.163
654.01,578.312
655.01,578.46
656.01,578.608
657.01,578.758
658.01,578.907
659.01,579.056
660.01,579.205
661.01,579.356
662.01,579.506
663.01,579.656
664.01,579.808
665.01,579.959
666.01,580.109
667.01,580.261
668.01,580.414
669.01,580.565
670.01,580.715
671.01,580.869
672.01,581.021
673.01,581.173
674.01,581.325
675.01,581.4802
676.01,581.632
677.01,581.785
678.01,581.939
679.01,582.093
680.01,582.246
681.01,582.3995
682.01,582.556
683.01,582.71
684.01,582.864
685.01,583.021
686.01,583.176
687.01,583.332
688.01,583.487
689.01,583.645
690.01,583.801
691.01,583.956
692.01,584.113
693.01,584.27
694.01,584.4274
695.01,584.584
696.01,584.7439
697.01,584.902
698.01,585.06
699.01,585.219
700.01,585.381
701.01,585.541
702.01,585.7
703.01,585.8624
704.01,586.024
705.01,586.184
706.01,586.346
707.01,586.51
708.01,586.6719
709.01,586.833
710.01,586.997
711.01,587.161
712.01,587.324
713.01,587.488
714.01,587.654
715.01,587.818
716.01,587.982
717.01,588.148
718.01,588.315
719.01,588.481
720.01,588.646
721.01,588.815
722.01,588.981
723.01,589.147
724.01,589.315
725.01,589.485
726.01,589.652
727.01,589.819
728.01,589.99
729.01,590.158
730.01,590.327
731.01,590.498
732.01,590.669
733.01,590.839
734.01,591.008
735.01,591.18
736.01,591.351
737.01,591.521
738.01,591.691
739.01,591.865
740.01,592.037
741.01,592.209
742.01,592.386
743.01,592.562
744.01,592.7365
745.01,592.912
746.01,593.091
747.01,593.267
748.01,593.4446
749.01,593.623
750.01,593.803
751.01,593.98
752.01,594.157
753.01,594.339
754.01,594.5186
755.01,594.698
756.01,594.879
757.01,595.061
758.01,595.242
759.01,595.424
760.01,595.6084
761.01,595.791
762.01,595.9731
763.01,596.157
764.01,596.343
765.01,596.5269
766.01,596.71
767.01,596.896
768.01,597.08
769.01,597.263
770.01,597.447
771.01,597.635
772.01,597.8203
773.01,598.006
774.01,598.194
775.01,598.384
776.01,598.572
777.01,598.76
778.01,598.953
779.01,599.1414
780.01,599.331
781.01,599.523
782.01,599.717
783.01,599.908
784.01,600.1
785.01,600.296
786.01,600.49
787.01,600.684
788.01,600.879
789.01,601.078
790.01,601.274
791.01,601.471
792.01,601.672
793.01,601.871
794.01,602.069
795.01,602.2683
796.01,602.472
797.01,602.673
798.01,602.873
799.01,603.077
800.01,603.281
801.01,603.484
802.01,603.687
803.01,603.896
804.01,604.101
805.01,604.305
806.01,604.513
807.01,604.722
808.01,604.9283
809.01,605.135
810.01,605.346
811.01,605.555
812.01,605.764
813.01,605.975
814.01,606.189
815.01,606.401
816.01,606.613
817.01,606.8298
818.01,607.046
819.01,607.26
820.01,607.474
821.01,607.693
822.01,607.9058
823.01,608.12
824.01,608.338
825.01,608.559
826.01,608.777
827.01,608.996
828.01,609.221
829.01,609.443
830.01,609.666
831.01,609.89
832.01,610.119
833.01,610.3425
834.01,610.567
835.01,610.795
836.01,611.022
837.01,611.248
838.01,611.4753
839.01,611.71
840.01,611.939
841.01,612.169
842.01,612.401
843.01,612.636
844.01,612.868
845.01,613.1
846.01,613.336
847.01,613.57
848.01,613.802
849.01,614.036
850.01,614.278
851.01,614.515
852.01,614.7531
853.01,614.996
854.01,615.242
855.01,615.4855
856.01,615.728
857.01,615.974
858.01,616.216
859.01,616.458
860.01,616.701
861.01,616.953
862.01,617.201
863.01,617.453
864.01,617.71
865.01,617.967
866.01,618.221
867.01,618.474
868.01,618.734
869.01,618.992
870.01,619.25
871.01,619.511
872.01,619.779
873.01,620.04
874.01,620.301
875.01,620.566
876.01,620.833
877.01,621.097
878.01,621.361
879.01,621.636
880.01,621.908
881.01,622.18
882.01,622.452
883.01,622.732
884.01,623
885.01,623.263
886.01,623.5292
887.01,623.802
888.01,624.074
889.01,624.35
890.01,624.635
891.01,624.917
892.01,625.1913
893.01,625.467
894.01,625.751
895.01,626.028
896.01,626.306
897.01,626.594
898.01,626.8935
899.01,627.184
900.01,627.478
901.01,627.777
902.01,628.081
903.01,628.37
904.01,628.656
905.01,628.947
906.01,629.244
907.01,629.542
908.01,629.845
909.01,630.1615
910.01,630.478
911.01,630.79
912.01,631.098
913.01,631.41
914.01,631.716
915.01,632.025
916.01,632.337
917.01,632.665
918.01,632.979
919.01,633.287
920.01,633.602
921.01,633.936
922.01,634.257
923.01,634.574
924.01,634.896
925.01,635.2293
926.01,635.557
927.01,635.888
928.01,636.224
929.01,636.565
930.01,636.8982
931.01,637.2324
932.01,637.573
933.01,637.923
934.01,638.262
935.01,638.596
936.01,638.937
937.01,639.283
938.01,639.62
939.01,639.962
940.01,640.316
941.01,640.679
942.01,641.0342
943.01,641.387
944.01,641.7434
945.01,642.1068
946.01,642.46
947.01,642.817
948.01,643.181
949.01,643.556
950.01,643.923
951.01,644.29
952.01,644.661
953.01,645.043
954.01,645.4137
955.01,645.785
956.01,646.159
957.01,646.549
958.01,646.93
959.01,647.31
960.01,647.694
961.01,648.088
962.01,648.4775
963.01,648.865
964.01,649.253
965.01,649.649
966.01,650.048
967.01,650.443
968.01,650.842
969.01,651.243
970.01,651.654
971.01,652.054
972.01,652.456
973.01,652.861
974.01,653.277
975.01,653.696
976.01,654.12
977.01,654.547
978.01,654.9702
979.01,655.3988
980.01,655.824
981.01,656.254
982.01,656.688
983.01,657.119
984.01,657.549
985.01,657.9906
986.01,658.449
987.01,658.913
988.01,659.378
989.01,659.8446
990.01,660.315
991.01,660.788
992.01,661.259
993.01,661.731
994.01,662.212
995.01,662.698
996.01,663.181
997.01,663.669
998.01,664.176
999.01,664.705
1000.01,665.2246
1001.01,665.742
1002.01,666.261
1003.01,666.762
1004.01,667.296
1005.01,667.855
1006.01,668.418
1007.01,668.985
1008.01,669.527
1009.01,670.081
1010.01,670.6595
1011.01,671.249
1012.01,671.843
1013.01,672.456
1014.01,673.039
1015.01,673.69
1016.01,674.357
1017.01,675.031
1018.01,675.709
1019.01,676.394
1020.01,677.02
1021.01,677.7187
1022.01,678.444
1023.01,679.1729
1024.01,679.905
1025.01,680.689
1026.01,681.478
1027.01,682.211
1028.01,683.0396
1029.01,683.8769
1030.01,684.748
1031.01,685.648
1032.01,686.5689
1033.01,687.503
1034.01,688.355
1035.01,689.265
1036.01,690.271
1037.01,691.2961
1038.01,692.339
1039.01,693.4
1040.01,694.475
1041.01,695.573
1042.01,696.702
1043.01,697.853
1044.01,698.797
1045.01,699.973
1046.01,701.238
1047.01,702.486
1048.01,703.726
1049.01,704.984
1050.01,706.238
1051.01,707.505
1052.01,708.753
1053.01,709.957
1054.01,711.154
1055.01,712.32
1056.01,713.454
1057.01,714.612
1058.01,715.752
1059.01,716.882
1060.01,717.96
1061.01,718.905
1062.01,719.755
1063.01,720.527
1064.01,721.286
1065.01,722.06
1066.01,722.813
1067.01,723.529
1068.01,725.541
1069.01,728.1337
1070.01,728.885
1071.01,729.396
1072.01,729.859
1073.01,730.293
1074.01,730.628
1075.01,730.906
1076.01,731.17
1077.01,731.393
1078.01,731.562
1079.01,731.732
1080.01,731.915
1081.01,732.113
1082.01,732.343
1083.01,732.529
1084.01,732.7
1085.01,732.789
1086.01,732.879
1087.01,733.031
1088.01,733.154
1089.01,733.276
1090.01,733.414
1091.01,733.601
1092.01,733.807
1093.01,733.943
1094.01,734.0481
1095.01,734.147
1096.01,734.249
1097.01,734.361
1098.01,734.45
1099.01,734.548
1100.01,734.6702
1101.01,734.7861
1102.01,734.902
1103.01,735.025
1104.01,735.139
1105.01,735.231
1106.01,735.254
1107.01,735.274
1108.01,735.375
1109.01,735.5426
1110.01,735.676
1111.01,735.745
1112.01,735.7948
1113.01,735.856
1114.01,735.94
1115.01,736.016
1116.01,736.0444
1117.01,736.136
1118.01,736.308
1119.01,736.45
1120.01,736.5298
1121.01,736.588
1122.01,736.661
1123.01,736.71
1124.01,736.747
1125.01,736.784
1126.01,736.843
1127.01,736.937
1128.01,737.03
1129.01,737.134
1130.01,737.158
1131.01,737.169
1132.01,737.276
1133.01,737.427
1134.01,737.452
1135.01,737.526
1136.01,737.629
1137.01,737.691
1138.01,737.74
1139.01,737.7949
1140.01,737.874
1141.01,737.977
1142.01,738.058
1143.01,738.098
1144.01,738.124
1145.01,738.156
1146.01,738.227
1147.01,738.267
1148.01,738.3729
1149.01,738.459
1150.01,738.401
1151.01,738.334
1152.01,738.441
1153.01,738.591
1154.01,738.599
1155.01,738.675
1156.01,738.786
1157.01,738.773
1158.01,738.805
1159.01,738.831
1160.01,738.899
1161.01,738.984
1162.01,739.135
1163.01,739.141
1164.01,739.145
1165.01,739.158
1166.01,739.1977
1167.01,739.355
1168.01,739.489
1169.01,739.591
1170.01,739.647
1171.01,739.699
1172.01,739.742
1173.01,739.802
1174.01,739.871
1175.01,739.935
1176.01,740.012
1177.01,740.075
1178.01,740.135
1179.01,740.164
1180.01,740.187
1181.01,740.254
1182.01,740.322
1183.01,740.372
1184.01,740.429
1185.01,740.467
1186.01,740.477
1187.01,740.508
1188.01,740.596
1189.01,740.686
1190.01,740.771
1191.01,740.8155
1192.01,740.841
1193.01,740.9
1194.01,740.987
1195.01,741.04
1196.01,741.071
1197.01,741.104
1198.01,741.15
1199.01,741.189
1200,741.259