File: PMMA/Validation_Results/DBI/csv_files_calibrated/DBI-cal_Gasification_q50_MLR_R3.csv
Time,MLR
[s],[g/m2/s]
0,0
1,0
2,6.47992E-07
3.01,1.94398E-06
4.01,9.71988E-06
5.01,3.5079E-05
6.01,0.000109784
7.01,0.000299471
8.01,0.000729514
9.01,0.001622081
10.01,0.00333251
11.01,0.006407773
12.01,0.0116313
13.01,0.0200815
14.01,0.0331828
15.01,0.0527381
16.01,0.0807805
17.01,0.120233
18,0.173883
19,0.245034
20,0.336665
21,0.453011
22,0.597049
23,0.771591
24,0.978813
25,1.21999
26,1.49531
27,1.8038
28,2.14327
29,2.51043
30,2.90108
31,3.31039
32,3.73312
33,4.16399
34,4.59789
35,5.03027
36,5.45728
37,5.87581
38,6.28352
39,6.67861
40,7.05984
41,7.42621
42,7.7783
43,8.11256
44.01,8.43109
45.01,8.73437
46.01,9.02572
47.01,9.30377
48.01,9.57125
49.01,9.82936
50.01,10.0779
51.01,10.3165
52.01,10.5452
53.01,10.7642
54.01,10.974
55.01,11.1755
56.01,11.3688
57.01,11.5542
58.01,11.7321
59.01,11.903
60.01,12.0677
61.01,12.2274
62.01,12.3832
63.01,12.535
64.01,12.6824
65.01,12.8252
66.01,12.9629
67.01,13.096
68.01,13.2248
69.01,13.3491
70.01,13.4684
71.01,13.5834
72.01,13.6972
73,13.811
74,13.925
75,14.0367
76,14.1447
77,14.2484
78,14.3494
79,14.4483
80,14.5446
81,14.6394
82,14.7335
83,14.8291
84,14.928
85,15.028
86,15.1255
87,15.2179
88,15.3047
89,15.3879
90,15.4705
91,15.5547
92,15.641
93,15.7292
94,15.8184
95,15.9081
96,15.9978
97,16.0861
98,16.1724
99,16.2565
100,16.3377
101,16.4165
102,16.4938
103,16.57
104,16.6459
105,16.7222
106,16.7995
107,16.8777
108,16.9561
109,17.0333
110,17.1087
111,17.1827
112,17.2564
113,17.3303
114,17.4043
115,17.4784
116,17.5524
117,17.6272
118,17.703
119,17.7799
120,17.8574
121,17.9351
122,18.0124
123,18.0893
124,18.1662
125,18.2429
126,18.3194
127,18.3958
128,18.4721
129,18.5486
130,18.6258
131,18.7031
132,18.7806
133,18.8577
134,18.9341
135,19.01
136,19.0851
137,19.1595
138,19.2334
139,19.3074
140,19.3821
141,19.4577
142,19.5343
143,19.6112
144,19.6879
145,19.7641
146,19.8398
147,19.9154
148,19.9909
149,20.0665
150,20.142
151,20.2178
152,20.2939
153,20.3707
154,20.4484
155,20.5255
156,20.6012
157,20.6757
158,20.749
159,20.8218
160.01,20.895
161.01,20.9691
162.01,21.0456
163.01,21.124
164.01,21.2044
165.01,21.2867
166.01,21.3696
167.01,21.4517
168.01,21.5326
169.01,21.6124
170.01,21.6925
171.01,21.7736
172.01,21.8559
173.01,21.9381
174.01,22.0183
175.01,22.0966
176.01,22.1732
177.01,22.2468
178.01,22.317
179.01,22.3835
180.01,22.4471
181.01,22.5109
182.01,22.5785
183.01,22.6522
184.01,22.7334
185.01,22.8198
186.01,22.907
187.01,22.9924
188.01,23.0749
189.01,23.1544
190.01,23.2317
191.01,23.3057
192.01,23.3748
193.01,23.4403
194.01,23.5056
195.01,23.5742
196.01,23.6487
197.01,23.7289
198.01,23.8118
199.01,23.8938
200.01,23.9724
201.01,24.0471
202.01,24.1193
203.01,24.1908
204.01,24.2626
205.01,24.335
206.01,24.407
207.01,24.478
208.01,24.5477
209.01,24.616
210.01,24.6833
211.01,24.7501
212.01,24.8157
213.01,24.8797
214.01,24.942
215.01,25.0037
216.01,25.0669
217.01,25.1327
218.01,25.2003
219.01,25.2679
220.01,25.3333
221.01,25.3954
222.01,25.454
223.01,25.5093
224.01,25.5618
225.01,25.6127
226.01,25.6627
227.01,25.7117
228.01,25.7603
229.01,25.8091
230.01,25.8595
231.01,25.9123
232.01,25.9662
233.01,26.0188
234.01,26.0682
235.01,26.113
236.01,26.1531
237.01,26.19
238.01,26.2247
239.01,26.258
240.01,26.2907
241.01,26.3236
242.01,26.3578
243.01,26.3944
244.01,26.433
245.01,26.4718
246.01,26.5094
247.01,26.5466
248.01,26.5845
249.01,26.6238
250.01,26.6637
251.01,26.7011
252.01,26.7338
253.01,26.7628
254.01,26.7912
255.01,26.8221
256.01,26.857
257.01,26.8952
258.01,26.935
259.01,26.9738
260.01,27.0097
261.01,27.0409
262.01,27.0653
263.01,27.084
264.01,27.1004
265.01,27.1178
266.01,27.1373
267.01,27.1578
268.01,27.1769
269.01,27.1945
270.01,27.2122
271.01,27.2313
272.01,27.2517
273.01,27.2722
274.01,27.2904
275.01,27.305
276.01,27.3163
277.01,27.3256
278.01,27.3339
279.01,27.343
280.01,27.3532
281.01,27.365
282.01,27.3795
283.01,27.3969
284.01,27.4165
285.01,27.4367
286.01,27.4566
287.01,27.4757
288.01,27.4933
289.01,27.5085
290.01,27.52
291.01,27.5271
292.01,27.5303
293.01,27.5307
294.01,27.5284
295.01,27.5239
296.01,27.5179
297.01,27.5113
298.01,27.5059
299.01,27.5021
300.01,27.4992
301.01,27.4963
302.01,27.4933
303.01,27.491
304.01,27.4917
305.01,27.4968
306.01,27.5046
307.01,27.5115
308.01,27.5124
309.01,27.5034
310.01,27.4841
311.01,27.4559
312.01,27.4197
313.01,27.3774
314.01,27.3309
315.01,27.2832
316.01,27.2392
317.01,27.2028
318.01,27.1746
319.01,27.1519
320.01,27.1291
321.01,27.1006
322.01,27.0626
323.01,27.0133
324.01,26.9526
325.01,26.8816
326.01,26.8017
327.01,26.7143
328.01,26.6201
329.01,26.5167
330.01,26.4008
331.01,26.2735
332.01,26.1402
333.01,26.0057
334.01,25.8707
335.01,25.731
336.01,25.5781
337.01,25.4046
338.01,25.2101
339.01,24.9976
340.01,24.7689
341.01,24.5246
342.01,24.2624
343.01,23.9772
344.01,23.665
345.01,23.3235
346.01,22.9491
347.01,22.5346
348.01,22.0725
349.01,21.5514
350.01,20.9542
351.01,20.2666
352.01,19.4568
353.01,18.4732
354.01,17.2337
355.01,15.591
356.01,13.31
357.01,10.1046
358.01,6.48816
359.01,3.35385
360.01,1.11639
361.01,0.133038
362.01,0
363.01,0
364.01,0
365.01,0
366.01,0
367.01,0
368.01,0
369.01,0
370.01,0
371.01,0
372.01,0
373.01,0
374.01,0
375.01,0
376.01,0
377.01,0
378.01,0
379.01,0
380.01,0
381.01,0
382.01,0
383.01,0
384.01,0
385.01,0
386.01,0
387.01,0
388.01,0
389.01,0
390.01,0
391.01,0
392.01,0
393.01,0
394.01,0
395.01,0
396.01,0
397.01,0
398.01,0
399.01,0
400.01,0
401.01,0
402.01,0
403.01,0
404.01,0
405.01,0
406.01,0
407.01,0
408.01,0
409.01,0
410.01,0
411.01,0
412.01,0
413.01,0
414.01,0
415.01,0
416.01,0
417.01,0
418.01,0
419.01,0
420.01,0
421.01,0
422.01,0
423.01,0
424.01,0
425.01,0
426.01,0
427.01,0
428.01,0
429.01,0
430.01,0
431.01,0
432.01,0
433.01,0
434.01,0
435.01,0
436.01,0
437.01,0
438.01,0
439.01,0
440.01,0
441.01,0
442.01,0
443.01,0
444.01,0
445.01,0
446.01,0
447.01,0
448.01,0
449.01,0
450.01,0
451.01,0
452.01,0
453.01,0
454.01,0
455.01,0
456.01,0
457.01,0
458.01,0
459.01,0
460.01,0
461.01,0
462.01,0
463.01,0
464.01,0
465.01,0
466.01,0
467.01,0
468.01,0
469.01,0
470.01,0
471.01,0
472.01,0
473.01,0
474.01,0
475.01,0
476.01,0
477.01,0
478.01,0
479.01,0
480.01,0
481.01,0
482.01,0
483.01,0
484.01,0
485.01,0
486.01,0
487.01,0
488.01,0
489.01,0
490.01,0
491.01,0
492.01,0
493.01,0
494.01,0
495.01,0
496.01,0
497.01,0
498.01,0
499.01,0
500,0