File: PMMA/Validation_Results/DBI/csv_files_calibrated/DBI-cal_Gasification_q25_Mass_R2.csv
Time,Mass
[s],[g]
0,27.75
1,27.75
2,27.75
3.01,27.75
4.01,27.75
5.01,27.75
6.01,27.75
7.01,27.75
8.01,27.75
9.01,27.75
10.01,27.75
11.01,27.75
12.01,27.75
13.01,27.75
14.01,27.75
15.01,27.75
16.01,27.75
17.01,27.75
18,27.75
19,27.75
20,27.75
21,27.75
22,27.75
23,27.75
24,27.75
25,27.75
26,27.75
27,27.75
28,27.75
29,27.75
30,27.75
31,27.75
32,27.75
33,27.75
34,27.75
35,27.75
36,27.7499
37,27.7499
38,27.7499
39,27.7499
40,27.7499
41,27.7499
42,27.7498
43,27.7498
44.01,27.7498
45.01,27.7497
46.01,27.7497
47.01,27.7496
48.01,27.7496
49.01,27.7495
50.01,27.7495
51.01,27.7494
52.01,27.7493
53.01,27.7492
54.01,27.7491
55.01,27.749
56.01,27.7489
57.01,27.7487
58.01,27.7486
59.01,27.7484
60.01,27.7482
61.01,27.748
62.01,27.7478
63.01,27.7475
64.01,27.7473
65.01,27.747
66.01,27.7467
67.01,27.7464
68.01,27.746
69.01,27.7456
70.01,27.7452
71.01,27.7448
72.01,27.7443
73,27.7438
74,27.7432
75,27.7427
76,27.742
77,27.7414
78,27.7407
79,27.7399
80,27.7391
81,27.7383
82,27.7374
83,27.7365
84,27.7355
85,27.7344
86,27.7333
87,27.7322
88,27.7309
89,27.7296
90,27.7283
91,27.7269
92,27.7254
93,27.7238
94,27.7222
95,27.7205
96,27.7187
97,27.7168
98,27.7148
99,27.7128
100,27.7107
101,27.7085
102,27.7062
103,27.7038
104,27.7013
105,27.6988
106,27.6961
107,27.6933
108,27.6905
109,27.6875
110,27.6844
111,27.6812
112,27.6779
113,27.6745
114,27.671
115,27.6674
116,27.6636
117,27.6598
118,27.6558
119,27.6517
120,27.6475
121,27.6431
122,27.6387
123,27.6341
124,27.6294
125,27.6246
126,27.6196
127,27.6145
128,27.6093
129,27.6039
130,27.5985
131,27.5929
132,27.5871
133,27.5812
134,27.5752
135,27.5691
136,27.5628
137,27.5564
138,27.5498
139,27.5431
140,27.5362
141,27.5293
142,27.5222
143,27.5149
144,27.5075
145,27.5
146,27.4923
147,27.4845
148,27.4765
149,27.4684
150,27.4601
151,27.4517
152,27.4432
153,27.4345
154,27.4256
155,27.4167
156,27.4076
157,27.3983
158,27.3889
159,27.3793
160.01,27.3695
161.01,27.3597
162.01,27.3497
163.01,27.3396
164.01,27.3294
165.01,27.319
166.01,27.3084
167.01,27.2977
168.01,27.2869
169.01,27.2759
170.01,27.2648
171.01,27.2536
172.01,27.2422
173.01,27.2306
174.01,27.219
175.01,27.2071
176.01,27.1952
177.01,27.1831
178.01,27.1709
179.01,27.1585
180.01,27.146
181.01,27.1333
182.01,27.1206
183.01,27.1076
184.01,27.0946
185.01,27.0814
186.01,27.0681
187.01,27.0546
188.01,27.041
189.01,27.0273
190.01,27.0134
191.01,26.9994
192.01,26.9853
193.01,26.971
194.01,26.9566
195.01,26.9421
196.01,26.9274
197.01,26.9126
198.01,26.8977
199.01,26.8826
200.01,26.8674
201.01,26.8521
202.01,26.8366
203.01,26.8211
204.01,26.8053
205.01,26.7895
206.01,26.7735
207.01,26.7574
208.01,26.7412
209.01,26.7248
210.01,26.7083
211.01,26.6917
212.01,26.675
213.01,26.6581
214.01,26.6411
215.01,26.624
216.01,26.6068
217.01,26.5894
218.01,26.5719
219.01,26.5542
220.01,26.5365
221.01,26.5186
222.01,26.5007
223.01,26.4825
224.01,26.4643
225.01,26.446
226.01,26.4275
227.01,26.4089
228.01,26.3902
229.01,26.3714
230.01,26.3524
231.01,26.3333
232.01,26.3141
233.01,26.2948
234.01,26.2754
235.01,26.2559
236.01,26.2362
237.01,26.2165
238.01,26.1966
239.01,26.1766
240.01,26.1565
241.01,26.1362
242.01,26.1159
243.01,26.0954
244.01,26.0749
245.01,26.0542
246.01,26.0334
247.01,26.0125
248.01,25.9915
249.01,25.9703
250.01,25.9491
251.01,25.9277
252.01,25.9062
253.01,25.8847
254.01,25.863
255.01,25.8412
256.01,25.8193
257.01,25.7973
258.01,25.7752
259.01,25.753
260.01,25.7307
261.01,25.7083
262.01,25.6858
263.01,25.6631
264.01,25.6404
265.01,25.6175
266.01,25.5946
267.01,25.5715
268.01,25.5484
269.01,25.5251
270.01,25.5018
271.01,25.4783
272.01,25.4548
273.01,25.4311
274.01,25.4074
275.01,25.3835
276.01,25.3596
277.01,25.3355
278.01,25.3114
279.01,25.2872
280.01,25.2628
281.01,25.2383
282.01,25.2138
283.01,25.1892
284.01,25.1644
285.01,25.1396
286.01,25.1147
287.01,25.0898
288.01,25.0647
289.01,25.0395
290.01,25.0143
291.01,24.9889
292.01,24.9635
293.01,24.9379
294.01,24.9123
295.01,24.8866
296.01,24.8607
297.01,24.8348
298.01,24.8088
299.01,24.7827
300.01,24.7566
301.01,24.7303
302.01,24.704
303.01,24.6775
304.01,24.651
305.01,24.6244
306.01,24.5976
307.01,24.5708
308.01,24.5439
309.01,24.5169
310.01,24.4899
311.01,24.4628
312.01,24.4355
313.01,24.4082
314.01,24.3809
315.01,24.3534
316.01,24.3259
317.01,24.2982
318.01,24.2705
319.01,24.2427
320.01,24.2148
321.01,24.1868
322.01,24.1588
323.01,24.1307
324.01,24.1025
325.01,24.0743
326.01,24.046
327.01,24.0176
328.01,23.9891
329.01,23.9606
330.01,23.932
331.01,23.9033
332.01,23.8746
333.01,23.8458
334.01,23.8169
335.01,23.7879
336.01,23.7588
337.01,23.7297
338.01,23.7005
339.01,23.6712
340.01,23.6418
341.01,23.6124
342.01,23.5829
343.01,23.5533
344.01,23.5237
345.01,23.494
346.01,23.4642
347.01,23.4344
348.01,23.4045
349.01,23.3745
350.01,23.3445
351.01,23.3144
352.01,23.2843
353.01,23.2541
354.01,23.2238
355.01,23.1935
356.01,23.1631
357.01,23.1326
358.01,23.1021
359.01,23.0715
360.01,23.0408
361.01,23.0101
362.01,22.9793
363.01,22.9485
364.01,22.9176
365.01,22.8867
366.01,22.8557
367.01,22.8246
368.01,22.7935
369.01,22.7623
370.01,22.7311
371.01,22.6998
372.01,22.6684
373.01,22.637
374.01,22.6056
375.01,22.5741
376.01,22.5425
377.01,22.5109
378.01,22.4793
379.01,22.4476
380.01,22.4158
381.01,22.384
382.01,22.3521
383.01,22.3203
384.01,22.2883
385.01,22.2563
386.01,22.2243
387.01,22.1922
388.01,22.1601
389.01,22.1279
390.01,22.0956
391.01,22.0634
392.01,22.031
393.01,21.9986
394.01,21.9662
395.01,21.9338
396.01,21.9013
397.01,21.8688
398.01,21.8362
399.01,21.8036
400.01,21.771
401.01,21.7383
402.01,21.7056
403.01,21.6728
404.01,21.64
405.01,21.6071
406.01,21.5742
407.01,21.5413
408.01,21.5084
409.01,21.4754
410.01,21.4423
411.01,21.4093
412.01,21.3762
413.01,21.3431
414.01,21.3099
415.01,21.2767
416.01,21.2435
417.01,21.2102
418.01,21.1769
419.01,21.1436
420.01,21.1102
421.01,21.0768
422.01,21.0433
423.01,21.0099
424.01,20.9763
425.01,20.9428
426.01,20.9092
427.01,20.8756
428.01,20.8419
429.01,20.8083
430.01,20.7746
431.01,20.7408
432.01,20.707
433.01,20.6732
434.01,20.6394
435.01,20.6055
436.01,20.5716
437.01,20.5377
438.01,20.5037
439.01,20.4697
440.01,20.4357
441.01,20.4017
442.01,20.3677
443.01,20.3336
444.01,20.2995
445.01,20.2653
446.01,20.2312
447.01,20.197
448.01,20.1628
449.01,20.1285
450.01,20.0943
451.01,20.06
452.01,20.0256
453.01,19.9913
454.01,19.9569
455.01,19.9225
456.01,19.8881
457.01,19.8537
458.01,19.8192
459.01,19.7848
460.01,19.7503
461.01,19.7157
462.01,19.6812
463.01,19.6466
464.01,19.612
465.01,19.5774
466.01,19.5428
467.01,19.5081
468.01,19.4735
469.01,19.4388
470.01,19.4041
471.01,19.3693
472.01,19.3346
473.01,19.2998
474.01,19.265
475.01,19.2302
476.01,19.1954
477.01,19.1606
478.01,19.1257
479.01,19.0908
480.01,19.0559
481.01,19.021
482.01,18.9861
483.01,18.9511
484.01,18.9162
485.01,18.8812
486.01,18.8462
487.01,18.8112
488.01,18.7761
489.01,18.7411
490.01,18.706
491.01,18.6709
492.01,18.6358
493.01,18.6007
494.01,18.5656
495.01,18.5304
496.01,18.4953
497.01,18.4602
498.01,18.425
499.01,18.3898
500.01,18.3546
501.01,18.3194
502.01,18.2842
503.01,18.249
504.01,18.2138
505.01,18.1786
506.01,18.1433
507.01,18.1081
508.01,18.0728
509.01,18.0375
510.01,18.0021
511.01,17.9668
512.01,17.9314
513.01,17.896
514.01,17.8607
515.01,17.8253
516.01,17.7898
517.01,17.7544
518.01,17.719
519.01,17.6836
520.01,17.6482
521.01,17.6128
522.01,17.5773
523.01,17.5419
524.01,17.5064
525.01,17.4709
526.01,17.4354
527.01,17.3999
528.01,17.3643
529.01,17.3288
530.01,17.2932
531.01,17.2577
532.01,17.2221
533.01,17.1865
534.01,17.1509
535.01,17.1152
536.01,17.0796
537.01,17.044
538.01,17.0083
539.01,16.9727
540.01,16.937
541.01,16.9013
542.01,16.8656
543.01,16.83
544.01,16.7943
545.01,16.7585
546.01,16.7228
547.01,16.6871
548.01,16.6513
549.01,16.6155
550.01,16.5798
551.01,16.544
552.01,16.5082
553.01,16.4725
554.01,16.4367
555.01,16.401
556.01,16.3652
557.01,16.3294
558.01,16.2936
559.01,16.2578
560.01,16.222
561.01,16.1861
562.01,16.1503
563.01,16.1145
564.01,16.0787
565.01,16.0429
566.01,16.0071
567.01,15.9712
568.01,15.9354
569.01,15.8995
570.01,15.8635
571.01,15.8276
572.01,15.7916
573.01,15.7557
574.01,15.7197
575.01,15.6837
576.01,15.6478
577.01,15.6118
578.01,15.5758
579.01,15.5399
580.01,15.5039
581.01,15.468
582.01,15.432
583.01,15.396
584.01,15.3601
585.01,15.3241
586.01,15.2881
587.01,15.2522
588.01,15.2162
589.01,15.1802
590.01,15.1442
591.01,15.1083
592.01,15.0723
593.01,15.0364
594.01,15.0004
595.01,14.9645
596.01,14.9285
597.01,14.8925
598.01,14.8566
599.01,14.8206
600.01,14.7846
601.01,14.7486
602.01,14.7126
603.01,14.6766
604.01,14.6406
605.01,14.6046
606.01,14.5686
607.01,14.5326
608.01,14.4965
609.01,14.4605
610.01,14.4244
611.01,14.3884
612.01,14.3524
613.01,14.3163
614.01,14.2803
615.01,14.2442
616.01,14.2081
617.01,14.172
618.01,14.1359
619.01,14.0997
620.01,14.0636
621.01,14.0274
622.01,13.9912
623.01,13.9551
624.01,13.9189
625.01,13.8827
626.01,13.8465
627.01,13.8103
628.01,13.774
629.01,13.7378
630.01,13.7016
631.01,13.6653
632.01,13.6291
633.01,13.5929
634.01,13.5566
635.01,13.5204
636.01,13.4841
637.01,13.4479
638.01,13.4116
639.01,13.3754
640.01,13.3391
641.01,13.3028
642.01,13.2665
643.01,13.2302
644.01,13.1939
645.01,13.1576
646.01,13.1213
647.01,13.0851
648.01,13.0488
649.01,13.0125
650.01,12.9762
651.01,12.9399
652.01,12.9036
653.01,12.8673
654.01,12.831
655.01,12.7947
656.01,12.7584
657.01,12.7221
658.01,12.6858
659.01,12.6494
660.01,12.6131
661.01,12.5767
662.01,12.5404
663.01,12.504
664.01,12.4677
665.01,12.4314
666.01,12.395
667.01,12.3587
668.01,12.3223
669.01,12.286
670.01,12.2496
671.01,12.2133
672.01,12.1769
673.01,12.1406
674.01,12.1042
675.01,12.0679
676.01,12.0315
677.01,11.9952
678.01,11.9589
679.01,11.9225
680.01,11.8861
681.01,11.8498
682.01,11.8134
683.01,11.777
684.01,11.7407
685.01,11.7043
686.01,11.668
687.01,11.6316
688.01,11.5953
689.01,11.5589
690.01,11.5226
691.01,11.4862
692.01,11.4499
693.01,11.4135
694.01,11.3772
695.01,11.3408
696.01,11.3044
697.01,11.268
698.01,11.2316
699.01,11.1952
700.01,11.1588
701.01,11.1224
702.01,11.086
703.01,11.0496
704.01,11.0132
705.01,10.9768
706.01,10.9404
707.01,10.904
708.01,10.8676
709.01,10.8311
710.01,10.7947
711.01,10.7583
712.01,10.7219
713.01,10.6854
714.01,10.649
715.01,10.6126
716.01,10.5762
717.01,10.5397
718.01,10.5033
719.01,10.4669
720.01,10.4304
721.01,10.394
722.01,10.3576
723.01,10.3211
724.01,10.2847
725.01,10.2483
726.01,10.2119
727.01,10.1754
728.01,10.139
729.01,10.1026
730.01,10.0662
731.01,10.0298
732.01,9.99337
733.01,9.95699
734.01,9.92062
735.01,9.88425
736.01,9.84788
737.01,9.8115
738.01,9.7751
739.01,9.7387
740.01,9.70228
741.01,9.66586
742.01,9.62944
743.01,9.59302
744.01,9.55659
745.01,9.52016
746.01,9.48373
747.01,9.4473
748.01,9.41088
749.01,9.37446
750.01,9.33805
751.01,9.30164
752.01,9.26522
753.01,9.2288
754.01,9.19238
755.01,9.15595
756.01,9.11952
757.01,9.0831
758.01,9.04669
759.01,9.01027
760.01,8.97386
761.01,8.93744
762.01,8.90103
763.01,8.86462
764.01,8.82823
765.01,8.79186
766.01,8.7555
767.01,8.71916
768.01,8.68282
769.01,8.64649
770.01,8.61016
771.01,8.57383
772.01,8.53751
773.01,8.50119
774.01,8.46487
775.01,8.42856
776.01,8.39226
777.01,8.35596
778.01,8.31967
779.01,8.28339
780.01,8.24711
781.01,8.21083
782.01,8.17455
783.01,8.13828
784.01,8.10203
785.01,8.06577
786.01,8.02952
787.01,7.99327
788.01,7.95702
789.01,7.92077
790.01,7.88452
791.01,7.84828
792.01,7.81205
793.01,7.77582
794.01,7.7396
795.01,7.70338
796.01,7.66716
797.01,7.63095
798.01,7.59475
799.01,7.55855
800.01,7.52236
801.01,7.48617
802.01,7.44998
803.01,7.41381
804.01,7.37764
805.01,7.34147
806.01,7.30532
807.01,7.26919
808.01,7.23306
809.01,7.19694
810.01,7.16083
811.01,7.12473
812.01,7.08863
813.01,7.05254
814.01,7.01645
815.01,6.98037
816.01,6.94429
817.01,6.90823
818.01,6.87218
819.01,6.83615
820.01,6.80014
821.01,6.76415
822.01,6.72818
823.01,6.69221
824.01,6.65625
825.01,6.6203
826.01,6.58436
827.01,6.54842
828.01,6.5125
829.01,6.47658
830.01,6.44067
831.01,6.40477
832.01,6.36889
833.01,6.33303
834.01,6.29719
835.01,6.26136
836.01,6.22554
837.01,6.18973
838.01,6.15394
839.01,6.11817
840.01,6.0824
841.01,6.04666
842.01,6.01093
843.01,5.97522
844.01,5.93953
845.01,5.90386
846.01,5.86822
847.01,5.83261
848.01,5.79702
849.01,5.76145
850.01,5.72588
851.01,5.69034
852.01,5.65481
853.01,5.61929
854.01,5.58378
855.01,5.54829
856.01,5.51284
857.01,5.47742
858.01,5.44202
859.01,5.40665
860.01,5.37131
861.01,5.33597
862.01,5.30064
863.01,5.26532
864.01,5.23001
865.01,5.19473
866.01,5.15947
867.01,5.12423
868.01,5.08901
869.01,5.0538
870.01,5.01861
871.01,4.98344
872.01,4.94828
873.01,4.91315
874.01,4.87805
875.01,4.84297
876.01,4.80792
877.01,4.77289
878.01,4.73788
879.01,4.70288
880.01,4.6679
881.01,4.63295
882.01,4.59802
883.01,4.56312
884.01,4.52828
885.01,4.4935
886.01,4.45876
887.01,4.42406
888.01,4.38938
889.01,4.35472
890.01,4.3201
891.01,4.28551
892.01,4.25098
893.01,4.21648
894.01,4.18204
895.01,4.14764
896.01,4.11328
897.01,4.07893
898.01,4.04462
899.01,4.01033
900.01,3.97607
901.01,3.94183
902.01,3.90763
903.01,3.87349
904.01,3.8394
905.01,3.80537
906.01,3.77138
907.01,3.73743
908.01,3.7035
909.01,3.66959
910.01,3.6357
911.01,3.60185
912.01,3.56804
913.01,3.53428
914.01,3.50058
915.01,3.46692
916.01,3.4333
917.01,3.39972
918.01,3.3662
919.01,3.33273
920.01,3.29931
921.01,3.26594
922.01,3.23261
923.01,3.19934
924.01,3.16613
925.01,3.13297
926.01,3.09986
927.01,3.06679
928.01,3.03377
929.01,3.00081
930.01,2.9679
931.01,2.93505
932.01,2.90225
933.01,2.8695
934.01,2.83682
935.01,2.80421
936.01,2.77167
937.01,2.73921
938.01,2.70681
939.01,2.67449
940.01,2.64224
941.01,2.61004
942.01,2.5779
943.01,2.54583
944.01,2.51384
945.01,2.48193
946.01,2.45009
947.01,2.41834
948.01,2.38666
949.01,2.35505
950.01,2.32352
951.01,2.29207
952.01,2.2607
953.01,2.22941
954.01,2.19821
955.01,2.1671
956.01,2.13608
957.01,2.10515
958.01,2.07431
959.01,2.04356
960.01,2.0129
961.01,1.98234
962.01,1.95188
963.01,1.92152
964.01,1.89127
965.01,1.86112
966.01,1.83108
967.01,1.80115
968.01,1.77132
969.01,1.74161
970.01,1.71202
971.01,1.68254
972.01,1.65319
973.01,1.62397
974.01,1.59486
975.01,1.56589
976.01,1.53702
977.01,1.50828
978.01,1.47966
979.01,1.45118
980.01,1.42284
981.01,1.39464
982.01,1.36657
983.01,1.33866
984.01,1.3109
985.01,1.28329
986.01,1.25582
987.01,1.22849
988.01,1.20129
989.01,1.17425
990.01,1.14736
991.01,1.12062
992.01,1.09404
993.01,1.06763
994.01,1.0414
995.01,1.01533
996.01,0.989451
997.01,0.963754
998.01,0.938233
999.01,0.912881
1000.01,0.887706
1001.01,0.862723
1002.01,0.83794
1003.01,0.813369
1004.01,0.789011
1005.01,0.764857
1006.01,0.740904
1007.01,0.717162
1008.01,0.693642
1009.01,0.670358
1010.01,0.647315
1011.01,0.624512
1012.01,0.601955
1013.01,0.579647
1014.01,0.557588
1015.01,0.535777
1016.01,0.514213
1017.01,0.492902
1018.01,0.471857
1019.01,0.451089
1020.01,0.430614
1021.01,0.410439
1022.01,0.390566
1023.01,0.371004
1024.01,0.351769
1025.01,0.332859
1026.01,0.314266
1027.01,0.296003
1028.01,0.278086
1029.01,0.260525
1030.01,0.243328
1031.01,0.226496
1032.01,0.210037
1033.01,0.193963
1034.01,0.178294
1035.01,0.163041
1036.01,0.148209
1037.01,0.133806
1038.01,0.119844
1039.01,0.106336
1040.01,0.0932948
1041.01,0.0807314
1042.01,0.0686531
1043.01,0.0570668
1044.01,0.0459897
1045.01,0.0354294
1046.01,0.02537742
1047.01,0.0158386
1048.01,0.006826638
1049.01,-0.001653405
1050.01,-0.009600448
1051.01,-0.0170155
1052.01,-0.0239018
1053.01,-0.0302602
1054.01,-0.036098
1055.01,-0.0414289
1056.01,-0.0462679
1057.01,-0.0506377
1058.01,-0.0545639
1059.01,-0.0580713
1060.01,-0.0611848
1061.01,-0.0639266
1062.01,-0.0663208
1063.01,-0.06839646
1064.01,-0.07018578
1065.01,-0.0717218
1066.01,-0.0730349
1067.01,-0.0741515
1068.01,-0.0748674
1069.01,-0.0750708
1070.01,-0.0750708
1071.01,-0.0750708
1072.01,-0.0750708
1073.01,-0.0750708
1074.01,-0.0750708
1075.01,-0.0750708
1076.01,-0.0750708
1077.01,-0.0750708
1078.01,-0.0750708
1079.01,-0.0750708
1080.01,-0.0750708
1081.01,-0.0750708
1082.01,-0.0750708
1083.01,-0.0750708
1084.01,-0.0750708
1085.01,-0.0750708
1086.01,-0.0750708
1087.01,-0.0750708
1088.01,-0.0750708
1089.01,-0.0750708
1090.01,-0.0750708
1091.01,-0.0750708
1092.01,-0.0750708
1093.01,-0.0750708
1094.01,-0.0750708
1095.01,-0.0750708
1096.01,-0.0750708
1097.01,-0.0750708
1098.01,-0.0750708
1099.01,-0.0750708
1100.01,-0.0750708
1101.01,-0.0750708
1102.01,-0.0750708
1103.01,-0.0750708
1104.01,-0.0750708
1105.01,-0.0750708
1106.01,-0.0750708
1107.01,-0.0750708
1108.01,-0.0750708
1109.01,-0.0750708
1110.01,-0.0750708
1111.01,-0.0750708
1112.01,-0.0750708
1113.01,-0.0750708
1114.01,-0.0750708
1115.01,-0.0750708
1116.01,-0.0750708
1117.01,-0.0750708
1118.01,-0.0750708
1119.01,-0.0750708
1120.01,-0.0750708
1121.01,-0.0750708
1122.01,-0.0750708
1123.01,-0.0750708
1124.01,-0.0750708
1125.01,-0.0750708
1126.01,-0.0750708
1127.01,-0.0750708
1128.01,-0.0750708
1129.01,-0.0750708
1130.01,-0.0750708
1131.01,-0.0750708
1132.01,-0.0750708
1133.01,-0.0750708
1134.01,-0.0750708
1135.01,-0.0750708
1136.01,-0.0750708
1137.01,-0.0750708
1138.01,-0.0750708
1139.01,-0.0750708
1140.01,-0.0750708
1141.01,-0.0750708
1142.01,-0.0750708
1143.01,-0.0750708
1144.01,-0.0750708
1145.01,-0.0750708
1146.01,-0.0750708
1147.01,-0.0750708
1148.01,-0.0750708
1149.01,-0.0750708
1150.01,-0.0750708
1151.01,-0.0750708
1152.01,-0.0750708
1153.01,-0.0750708
1154.01,-0.0750708
1155.01,-0.0750708
1156.01,-0.0750708
1157.01,-0.0750708
1158.01,-0.0750708
1159.01,-0.0750708
1160.01,-0.0750708
1161.01,-0.0750708
1162.01,-0.0750708
1163.01,-0.0750708
1164.01,-0.0750708
1165.01,-0.0750708
1166.01,-0.0750708
1167.01,-0.0750708
1168.01,-0.0750708
1169.01,-0.0750708
1170.01,-0.0750708
1171.01,-0.0750708
1172.01,-0.0750708
1173.01,-0.0750708
1174.01,-0.0750708
1175.01,-0.0750708
1176.01,-0.0750708
1177.01,-0.0750708
1178.01,-0.0750708
1179.01,-0.0750708
1180.01,-0.0750708
1181.01,-0.0750708
1182.01,-0.0750708
1183.01,-0.0750708
1184.01,-0.0750708
1185.01,-0.0750708
1186.01,-0.0750708
1187.01,-0.0750708
1188.01,-0.0750708
1189.01,-0.0750708
1190.01,-0.0750708
1191.01,-0.0750708
1192.01,-0.0750708
1193.01,-0.0750708
1194.01,-0.0750708
1195.01,-0.0750708
1196.01,-0.0750708
1197.01,-0.0750708
1198.01,-0.0750708
1199.01,-0.0750708
1200,-0.0750708