File: PMMA/Validation_Results/DBI/csv_files_calibrated/DBI_Gasification_q50_Mass_R4.csv
Time,Mass
[s],[g]
0,25.643
1,25.643
2,25.643
3.01,25.643
4.01,25.643
5.01,25.643
6.01,25.643
7.01,25.643
8.01,25.643
9.01,25.643
10.01,25.643
11.01,25.643
12.01,25.6429
13.01,25.6429
14.01,25.6428
15.01,25.6427
16.01,25.6424
17.01,25.6421
18,25.6416
19,25.6409
20,25.6398
21,25.6384
22,25.6365
23,25.634
24,25.6308
25,25.6267
26,25.6217
27,25.6155
28,25.6081
29,25.5993
30,25.5891
31,25.5773
32,25.5639
33,25.5489
34,25.5322
35,25.5138
36,25.4937
37,25.472
38,25.4487
39,25.4239
40,25.3976
41,25.3698
42,25.3406
43,25.3102
44.01,25.2781
45.01,25.2451
46.01,25.211
47.01,25.1758
48.01,25.1396
49.01,25.1024
50.01,25.0641
51.01,25.0249
52.01,24.9848
53.01,24.9439
54.01,24.9021
55.01,24.8595
56.01,24.8162
57.01,24.7721
58.01,24.7273
59.01,24.6818
60.01,24.6357
61.01,24.5889
62.01,24.5415
63.01,24.4935
64.01,24.445
65.01,24.3958
66.01,24.3461
67.01,24.2959
68.01,24.2452
69.01,24.1939
70.01,24.1422
71.01,24.09
72.01,24.0373
73,23.9848
74,23.9313
75,23.8772
76,23.8228
77,23.7679
78,23.7126
79,23.6569
80,23.6008
81,23.5443
82,23.4874
83,23.4302
84,23.3725
85,23.3145
86,23.256
87,23.1972
88,23.1379
89,23.0783
90,23.0184
91,22.958
92,22.8974
93,22.8364
94,22.775
95,22.7133
96,22.6512
97,22.5888
98,22.526
99,22.4629
100,22.3995
101,22.3357
102,22.2716
103,22.2073
104,22.1426
105,22.0775
106,22.0121
107,21.9464
108,21.8804
109,21.814
110,21.7473
111,21.6802
112,21.6129
113,21.5453
114,21.4773
115,21.4091
116,21.3405
117,21.2715
118,21.2022
119,21.1326
120,21.0627
121,20.9924
122,20.9219
123,20.8509
124,20.7797
125,20.7081
126,20.6362
127,20.564
128,20.4915
129,20.4188
130,20.3457
131,20.2723
132,20.1986
133,20.1246
134,20.0502
135,19.9755
136,19.9004
137,19.825
138,19.7493
139,19.6732
140,19.5969
141,19.5202
142,19.4431
143,19.3658
144,19.2882
145,19.2102
146,19.1319
147,19.0533
148,18.9743
149,18.8951
150,18.8155
151,18.7356
152,18.6553
153,18.5747
154,18.4938
155,18.4126
156,18.3311
157,18.2492
158,18.167
159,18.0845
160.01,18.0009
161.01,17.9177
162.01,17.8342
163.01,17.7504
164.01,17.6662
165.01,17.5817
166.01,17.4968
167.01,17.4117
168.01,17.3262
169.01,17.2405
170.01,17.1545
171.01,17.0681
172.01,16.9815
173.01,16.8945
174.01,16.8071
175.01,16.7195
176.01,16.6315
177.01,16.5432
178.01,16.4545
179.01,16.3656
180.01,16.2763
181.01,16.1868
182.01,16.097
183.01,16.0068
184.01,15.9163
185.01,15.8256
186.01,15.7345
187.01,15.6431
188.01,15.5515
189.01,15.4597
190.01,15.3676
191.01,15.2752
192.01,15.1825
193.01,15.0895
194.01,14.9962
195.01,14.9027
196.01,14.8088
197.01,14.7146
198.01,14.6201
199.01,14.5253
200.01,14.4302
201.01,14.3349
202.01,14.2393
203.01,14.1434
204.01,14.0473
205.01,13.9509
206.01,13.8543
207.01,13.7575
208.01,13.6605
209.01,13.5631
210.01,13.4656
211.01,13.3677
212.01,13.2697
213.01,13.1713
214.01,13.0727
215.01,12.9738
216.01,12.8747
217.01,12.7754
218.01,12.6759
219.01,12.5762
220.01,12.4765
221.01,12.3765
222.01,12.2764
223.01,12.1762
224.01,12.0757
225.01,11.975
226.01,11.8741
227.01,11.773
228.01,11.6718
229.01,11.5703
230.01,11.4688
231.01,11.367
232.01,11.2651
233.01,11.1631
234.01,11.0609
235.01,10.9585
236.01,10.8561
237.01,10.7535
238.01,10.6509
239.01,10.5482
240.01,10.4454
241.01,10.3425
242.01,10.2394
243.01,10.1362
244.01,10.0328
245.01,9.9293
246.01,9.82565
247.01,9.72189
248.01,9.61803
249.01,9.5141
250.01,9.4101
251.01,9.30604
252.01,9.20189
253.01,9.09762
254.01,8.99324
255.01,8.88874
256.01,8.78415
257.01,8.67949
258.01,8.57477
259.01,8.47
260.01,8.36514
261.01,8.26022
262.01,8.15523
263.01,8.05018
264.01,7.94506
265.01,7.83985
266.01,7.73455
267.01,7.62917
268.01,7.52371
269.01,7.41819
270.01,7.31261
271.01,7.20699
272.01,7.10134
273.01,6.99567
274.01,6.88999
275.01,6.78429
276.01,6.67858
277.01,6.57285
278.01,6.4671
279.01,6.36132
280.01,6.25552
281.01,6.14969
282.01,6.04385
283.01,5.938
284.01,5.83213
285.01,5.72626
286.01,5.62037
287.01,5.51447
288.01,5.40858
289.01,5.30269
290.01,5.19682
291.01,5.09097
292.01,4.98516
293.01,4.87938
294.01,4.77366
295.01,4.66797
296.01,4.56233
297.01,4.45673
298.01,4.35119
299.01,4.24571
300.01,4.14032
301.01,4.03502
302.01,3.92984
303.01,3.82478
304.01,3.71985
305.01,3.61507
306.01,3.51044
307.01,3.40599
308.01,3.30176
309.01,3.19776
310.01,3.09401
311.01,2.99052
312.01,2.8873
313.01,2.78437
314.01,2.68173
315.01,2.57939
316.01,2.47737
317.01,2.37569
318.01,2.2744
319.01,2.17353
320.01,2.07315
321.01,1.97332
322.01,1.87413
323.01,1.77558
324.01,1.6777
325.01,1.58054
326.01,1.48418
327.01,1.38869
328.01,1.29413
329.01,1.20057
330.01,1.10809
331.01,1.01679
332.01,0.92679
333.01,0.838219
334.01,0.751199
335.01,0.665871
336.01,0.582414
337.01,0.501095
338.01,0.422262
339.01,0.346363
340.01,0.273969
341.01,0.205857
342.01,0.143255
343.01,0.0881079
344.01,0.0436171
345.01,0.0145358
346.01,0.004533194
347.01,0.004533194
348.01,0.004533194
349.01,0.004533194
350.01,0.004533194
351.01,0.004533194
352.01,0.004533194
353.01,0.004533194
354.01,0.004533194
355.01,0.004533194
356.01,0.004533194
357.01,0.004533194
358.01,0.004533194
359.01,0.004533194
360.01,0.004533194
361.01,0.004533194
362.01,0.004533194
363.01,0.004533194
364.01,0.004533194
365.01,0.004533194
366.01,0.004533194
367.01,0.004533194
368.01,0.004533194
369.01,0.004533194
370.01,0.004533194
371.01,0.004533194
372.01,0.004533194
373.01,0.004533194
374.01,0.004533194
375.01,0.004533194
376.01,0.004533194
377.01,0.004533194
378.01,0.004533194
379.01,0.004533194
380.01,0.004533194
381.01,0.004533194
382.01,0.004533194
383.01,0.004533194
384.01,0.004533194
385.01,0.004533194
386.01,0.004533194
387.01,0.004533194
388.01,0.004533194
389.01,0.004533194
390.01,0.004533194
391.01,0.004533194
392.01,0.004533194
393.01,0.004533194
394.01,0.004533194
395.01,0.004533194
396.01,0.004533194
397.01,0.004533194
398.01,0.004533194
399.01,0.004533194
400.01,0.004533194
401.01,0.004533194
402.01,0.004533194
403.01,0.004533194
404.01,0.004533194
405.01,0.004533194
406.01,0.004533194
407.01,0.004533194
408.01,0.004533194
409.01,0.004533194
410.01,0.004533194
411.01,0.004533194
412.01,0.004533194
413.01,0.004533194
414.01,0.004533194
415.01,0.004533194
416.01,0.004533194
417.01,0.004533194
418.01,0.004533194
419.01,0.004533194
420.01,0.004533194
421.01,0.004533194
422.01,0.004533194
423.01,0.004533194
424.01,0.004533194
425.01,0.004533194
426.01,0.004533194
427.01,0.004533194
428.01,0.004533194
429.01,0.004533194
430.01,0.004533194
431.01,0.004533194
432.01,0.004533194
433.01,0.004533194
434.01,0.004533194
435.01,0.004533194
436.01,0.004533194
437.01,0.004533194
438.01,0.004533194
439.01,0.004533194
440.01,0.004533194
441.01,0.004533194
442.01,0.004533194
443.01,0.004533194
444.01,0.004533194
445.01,0.004533194
446.01,0.004533194
447.01,0.004533194
448.01,0.004533194
449.01,0.004533194
450.01,0.004533194
451.01,0.004533194
452.01,0.004533194
453.01,0.004533194
454.01,0.004533194
455.01,0.004533194
456.01,0.004533194
457.01,0.004533194
458.01,0.004533194
459.01,0.004533194
460.01,0.004533194
461.01,0.004533194
462.01,0.004533194
463.01,0.004533194
464.01,0.004533194
465.01,0.004533194
466.01,0.004533194
467.01,0.004533194
468.01,0.004533194
469.01,0.004533194
470.01,0.004533194
471.01,0.004533194
472.01,0.004533194
473.01,0.004533194
474.01,0.004533194
475.01,0.004533194
476.01,0.004533194
477.01,0.004533194
478.01,0.004533194
479.01,0.004533194
480.01,0.004533194
481.01,0.004533194
482.01,0.004533194
483.01,0.004533194
484.01,0.004533194
485.01,0.004533194
486.01,0.004533194
487.01,0.004533194
488.01,0.004533194
489.01,0.004533194
490.01,0.004533194
491.01,0.004533194
492.01,0.004533194
493.01,0.004533194
494.01,0.004533194
495.01,0.004533194
496.01,0.004533194
497.01,0.004533194
498.01,0.004533194
499.01,0.004533194
500,0.004533194