File: PMMA/Validation_Results/DBI/csv_files_calibrated/DBI_Gasification_q50_Mass_R5.csv
Time,Mass
[s],[g]
0,28.113
1,28.113
2,28.113
3.01,28.113
4.01,28.113
5.01,28.113
6.01,28.113
7.01,28.113
8.01,28.113
9.01,28.113
10.01,28.113
11.01,28.113
12.01,28.1129
13.01,28.1129
14.01,28.1128
15.01,28.1127
16.01,28.1124
17.01,28.1121
18,28.1116
19,28.1108
20,28.1098
21,28.1084
22,28.1065
23,28.104
24,28.1007
25,28.0966
26,28.0916
27,28.0854
28,28.0779
29,28.0691
30,28.0589
31,28.0471
32,28.0336
33,28.0185
34,28.0018
35,27.9834
36,27.9633
37,27.9416
38,27.9182
39,27.8934
40,27.867
41,27.8392
42,27.81
43,27.7795
44.01,27.7474
45.01,27.7144
46.01,27.6803
47.01,27.6451
48.01,27.6088
49.01,27.5715
50.01,27.5333
51.01,27.4941
52.01,27.454
53.01,27.4131
54.01,27.3714
55.01,27.3288
56.01,27.2855
57.01,27.2415
58.01,27.1967
59.01,27.1514
60.01,27.1053
61.01,27.0587
62.01,27.0114
63.01,26.9636
64.01,26.9152
65.01,26.8662
66.01,26.8168
67.01,26.7668
68.01,26.7163
69.01,26.6653
70.01,26.6139
71.01,26.562
72.01,26.5097
73,26.4576
74,26.4044
75,26.3509
76,26.2969
77,26.2426
78,26.1878
79,26.1327
80,26.0772
81,26.0214
82,25.9652
83,25.9087
84,25.8519
85,25.7947
86,25.7371
87,25.6791
88,25.6209
89,25.5623
90,25.5034
91,25.4443
92,25.3848
93,25.325
94,25.2649
95,25.2045
96,25.1437
97,25.0827
98,25.0214
99,24.9598
100,24.8979
101,24.8357
102,24.7733
103,24.7106
104,24.6476
105,24.5843
106,24.5208
107,24.4569
108,24.3928
109,24.3285
110,24.2638
111,24.1989
112,24.1338
113,24.0684
114,24.0027
115,23.9368
116,23.8706
117,23.8042
118,23.7376
119,23.6707
120,23.6035
121,23.5362
122,23.4685
123,23.4005
124,23.3323
125,23.2637
126,23.1948
127,23.1257
128,23.0563
129,22.9867
130,22.9169
131,22.8468
132,22.7764
133,22.7058
134,22.6349
135,22.5637
136,22.4923
137,22.4206
138,22.3487
139,22.2765
140,22.2041
141,22.1314
142,22.0585
143,21.9853
144,21.9118
145,21.8381
146,21.7641
147,21.6899
148,21.6154
149,21.5407
150,21.4657
151,21.3904
152,21.3149
153,21.2391
154,21.163
155,21.0867
156,21.0102
157,20.9334
158,20.8564
159,20.7791
160.01,20.7008
161.01,20.6231
162.01,20.545
163.01,20.4667
164.01,20.388
165.01,20.3091
166.01,20.2299
167.01,20.1504
168.01,20.0706
169.01,19.9906
170.01,19.9103
171.01,19.8297
172.01,19.7489
173.01,19.6678
174.01,19.5864
175.01,19.5048
176.01,19.423
177.01,19.3408
178.01,19.2584
179.01,19.1758
180.01,19.0928
181.01,19.0096
182.01,18.9261
183.01,18.8422
184.01,18.7581
185.01,18.6737
186.01,18.5891
187.01,18.5041
188.01,18.4189
189.01,18.3334
190.01,18.2477
191.01,18.1617
192.01,18.0754
193.01,17.9889
194.01,17.9021
195.01,17.815
196.01,17.7276
197.01,17.64
198.01,17.5521
199.01,17.4639
200.01,17.3754
201.01,17.2867
202.01,17.1977
203.01,17.1084
204.01,17.0189
205.01,16.9291
206.01,16.8391
207.01,16.7488
208.01,16.6583
209.01,16.5674
210.01,16.4763
211.01,16.3849
212.01,16.2931
213.01,16.2011
214.01,16.1088
215.01,16.0162
216.01,15.9234
217.01,15.8304
218.01,15.7372
219.01,15.6436
220.01,15.5499
221.01,15.4558
222.01,15.3616
223.01,15.267
224.01,15.1723
225.01,15.0772
226.01,14.9819
227.01,14.8864
228.01,14.7906
229.01,14.6946
230.01,14.5983
231.01,14.5019
232.01,14.4051
233.01,14.3081
234.01,14.2109
235.01,14.1135
236.01,14.0158
237.01,13.918
238.01,13.82
239.01,13.7217
240.01,13.6233
241.01,13.5248
242.01,13.4261
243.01,13.3271
244.01,13.228
245.01,13.1286
246.01,13.029
247.01,12.9292
248.01,12.8291
249.01,12.7289
250.01,12.6286
251.01,12.5281
252.01,12.4275
253.01,12.3266
254.01,12.2256
255.01,12.1244
256.01,12.023
257.01,11.9216
258.01,11.82
259.01,11.7182
260.01,11.6164
261.01,11.5144
262.01,11.4122
263.01,11.31
264.01,11.2076
265.01,11.105
266.01,11.0023
267.01,10.8994
268.01,10.7964
269.01,10.6933
270.01,10.59
271.01,10.4865
272.01,10.3829
273.01,10.2793
274.01,10.1755
275.01,10.0717
276.01,9.96771
277.01,9.86364
278.01,9.75947
279.01,9.65522
280.01,9.5509
281.01,9.44652
282.01,9.34206
283.01,9.23751
284.01,9.13288
285.01,9.02818
286.01,8.9234
287.01,8.8185
288.01,8.71347
289.01,8.6083
290.01,8.50301
291.01,8.39756
292.01,8.29196
293.01,8.18621
294.01,8.08031
295.01,7.9742
296.01,7.86777
297.01,7.76075
298.01,7.65331
299.01,7.54593
300.01,7.43859
301.01,7.33104
302.01,7.2233
303.01,7.11559
304.01,7.007875
305.01,6.9001
306.01,6.79231
307.01,6.68445
308.01,6.57645
309.01,6.46841
310.01,6.36041
311.01,6.2524
312.01,6.14433
313.01,6.03617
314.01,5.92802
315.01,5.81991
316.01,5.7118
317.01,5.60367
318.01,5.4956
319.01,5.38761
320.01,5.27962
321.01,5.17162
322.01,5.06366
323.01,4.95574
324.01,4.84781
325.01,4.73978
326.01,4.63168
327.01,4.52369
328.01,4.41591
329.01,4.30823
330.01,4.20057
331.01,4.09299
332.01,3.9855
333.01,3.87802
334.01,3.77056
335.01,3.66332
336.01,3.55632
337.01,3.44938
338.01,3.34244
339.01,3.23565
340.01,3.1291
341.01,3.0228
342.01,2.91683
343.01,2.81122
344.01,2.70579
345.01,2.60041
346.01,2.49524
347.01,2.39063
348.01,2.28658
349.01,2.1829
350.01,2.07959
351.01,1.97672
352.01,1.8742
353.01,1.7723
354.01,1.67126
355.01,1.57076
356.01,1.47068
357.01,1.37149
358.01,1.27347
359.01,1.17628
360.01,1.07972
361.01,0.984743
362.01,0.891551
363.01,0.799477
364.01,0.708638
365.01,0.619247
366.01,0.531939
367.01,0.447251
368.01,0.365394
369.01,0.287455
370.01,0.215137
371.01,0.149937
372.01,0.093105
373.01,0.0470469
374.01,0.0162647
375.01,0.004940842
376.01,0.004500547
377.01,0.004500547
378.01,0.004500547
379.01,0.004500547
380.01,0.004500547
381.01,0.004500547
382.01,0.004500547
383.01,0.004500547
384.01,0.004500547
385.01,0.004500547
386.01,0.004500547
387.01,0.004500547
388.01,0.004500547
389.01,0.004500547
390.01,0.004500547
391.01,0.004500547
392.01,0.004500547
393.01,0.004500547
394.01,0.004500547
395.01,0.004500547
396.01,0.004500547
397.01,0.004500547
398.01,0.004500547
399.01,0.004500547
400.01,0.004500547
401.01,0.004500547
402.01,0.004500547
403.01,0.004500547
404.01,0.004500547
405.01,0.004500547
406.01,0.004500547
407.01,0.004500547
408.01,0.004500547
409.01,0.004500547
410.01,0.004500547
411.01,0.004500547
412.01,0.004500547
413.01,0.004500547
414.01,0.004500547
415.01,0.004500547
416.01,0.004500547
417.01,0.004500547
418.01,0.004500547
419.01,0.004500547
420.01,0.004500547
421.01,0.004500547
422.01,0.004500547
423.01,0.004500547
424.01,0.004500547
425.01,0.004500547
426.01,0.004500547
427.01,0.004500547
428.01,0.004500547
429.01,0.004500547
430.01,0.004500547
431.01,0.004500547
432.01,0.004500547
433.01,0.004500547
434.01,0.004500547
435.01,0.004500547
436.01,0.004500547
437.01,0.004500547
438.01,0.004500547
439.01,0.004500547
440.01,0.004500547
441.01,0.004500547
442.01,0.004500547
443.01,0.004500547
444.01,0.004500547
445.01,0.004500547
446.01,0.004500547
447.01,0.004500547
448.01,0.004500547
449.01,0.004500547
450.01,0.004500547
451.01,0.004500547
452.01,0.004500547
453.01,0.004500547
454.01,0.004500547
455.01,0.004500547
456.01,0.004500547
457.01,0.004500547
458.01,0.004500547
459.01,0.004500547
460.01,0.004500547
461.01,0.004500547
462.01,0.004500547
463.01,0.004500547
464.01,0.004500547
465.01,0.004500547
466.01,0.004500547
467.01,0.004500547
468.01,0.004500547
469.01,0.004500547
470.01,0.004500547
471.01,0.004500547
472.01,0.004500547
473.01,0.004500547
474.01,0.004500547
475.01,0.004500547
476.01,0.004500547
477.01,0.004500547
478.01,0.004500547
479.01,0.004500547
480.01,0.004500547
481.01,0.004500547
482.01,0.004500547
483.01,0.004500547
484.01,0.004500547
485.01,0.004500547
486.01,0.004500547
487.01,0.004500547
488.01,0.004500547
489.01,0.004500547
490.01,0.004500547
491.01,0.004500547
492.01,0.004500547
493.01,0.004500547
494.01,0.004500547
495.01,0.004500547
496.01,0.004500547
497.01,0.004500547
498.01,0.004500547
499.01,0.004500547
500,0.004500547