File: Non-charring/PMMA/FM/FM_FPA_50kW_3.csv
Time,Mass,Temperature
[s],[g],[K]
1,167.404,305.864
2,167.479,306.946
3,167.443,332.034
4,167.424,365.982
5,167.344,390.858
6,167.354,410.13
7,167.387,426.475
8,167.511,441.356
9,167.651,455.116
10,167.745,467.877
11,167.806,479.933
12,167.813,490.994
13,167.801,501.362
14,167.783,510.98
15,167.751,520.102
16,167.729,529.099
17,167.726,538.009
18,167.724,546.182
19,167.701,553.848
20,167.715,561.155
21,167.696,568.53
22,167.703,575.149
23,167.693,581.709
24,167.71,588.354
25,167.716,595.188
26,167.707,601.568
27,167.688,607.063
28,167.69,612.646
29,167.665,617.728
30,167.68,622.313
31,167.668,626.257
32,167.675,629.782
33,167.634,635.566
34,167.621,641.491
35,167.613,646.056
36,167.601,647.776
37,167.554,650.561
38,167.553,651.985
39,167.503,654.485
40,167.441,650.961
41,167.414,650.314
42,167.354,652.391
43,167.319,650.44
44,167.229,648.834
45,167.151,645.601
46,167.0409,648.454
47,166.948,651.47
48,166.863,646.828
49,166.753,645.894
50,166.655,645.156
51,166.571,643.601
52,166.444,647.681
53,166.359,644.359
54,166.231,642.57
55,166.13,646.912
56,166.042,641.985
57,165.946,644.376
58,165.836,652.116
59,165.726,646.261
60,165.594,638.189
61,165.471,644.798
62,165.381,642.654
63,165.239,648.278
64,165.113,645.456
65,164.993,652.023
66,164.88,645.22
67,164.747,643.051
68,164.586,647.865
69,164.48,639.48
70,164.324,643.544
71,164.209,641.173
72,164.077,648.632
73,163.923,647.003
74,163.769,647.421
75,163.64,656.057
76,163.505,655.456
77,163.391,649.523
78,163.245,647.232
79,163.119,653.915
80,162.982,659.028
81,162.832,656.804
82,162.7,655.535
83,162.549,647.423
84,162.4,642.924
85,162.249,651.509
86,162.099,656.984
87,161.967,657.952
88,161.815,640.916
89,161.661,646.78
90,161.534,642.318
91,161.398,639.295
92,161.26,649.015
93,161.117,658.691
94,160.995,655.044
95,160.83,652.419
96,160.688,649.74
97,160.541,648.29
98,160.385,655.403
99,160.238,658.092
100,160.073,650.756
101,159.922,649.109
102,159.725,650.438
103,159.605,644.114
104,159.449,666.584
105,159.326,662.807
106,159.186,661.851
107,159.023,650.6
108,158.859,644.306
109,158.695,638.306
110,158.571,653.486
111,158.414,661.38
112,158.277,652.22
113,158.1,647.434
114,157.945,650.067
115,157.81,650.782
116,157.596,646.359
117,157.467,650.637
118,157.338,656
119,157.118,655.558
120,157.024,651.618
121,156.791,656.608
122,156.68,658.41
123,156.473,644.233
124,156.36,650.363
125,156.191,660.394
126,156.024,652.577
127,155.902,654.114
128,155.722,652.346
129,155.522,647.966
130,155.414,639.402
131,155.202,653.627
132,155.108,663.796
133,154.881,649.664
134,154.769,654.097
135,154.57,654.523
136,154.401,648.734
137,154.236,653.171
138,154.063,645.432
139,153.867,645.387
140,153.76,647.919
141,153.546,638.363
142,153.452,642.412
143,153.204,644.129
144,153.075,646.112
145,152.848,643.45
146,152.672,650.908
147,152.534,647.25
148,152.348,652.062
149,152.141,656.704
150,152.014,660.999
151,151.81,648.255
152,151.655,646.98
153,151.398,647.767
154,151.257,652.316
155,151.017,647.236
156,150.845,647.285
157,150.711,646.698
158,150.527,646.363
159,150.325,653.678
160,150.17,656.978
161,149.972,660.717
162,149.828,655.926
163,149.605,652.1
164,149.482,648.405
165,149.255,649.598
166,149.089,655.387
167,148.921,657.215
168,148.706,652.525
169,148.53,648.62
170,148.331,651.449
171,148.132,648.016
172,147.973,648.401
173,147.735,649.881
174,147.59,648.123
175,147.355,641.831
176,147.145,645.667
177,147.001,647.149
178,146.785,644.317
179,146.624,650.291
180,146.434,651.751
181,146.23,646.513
182,146.067,657.93
183,145.815,649.611
184,145.671,651.894
185,145.492,650.459
186,145.261,637.649
187,145.097,646.959
188,144.859,642.851
189,144.664,647.248
190,144.471,638.209
191,144.221,634.24
192,144.091,635.568
193,143.813,650.327
194,143.638,652.679
195,143.425,654.246
196,143.177,650.077
197,142.997,650.433
198,142.773,657.787
199,142.587,654.022
200,142.376,647.978
201,142.132,647.672
202,141.926,647.427
203,141.666,658.919
204,141.511,649.25
205,141.295,651.656
206,141.035,653.467
207,140.868,651.776
208,140.603,661.031
209,140.384,656.747
210,140.181,652.647
211,139.943,652.081
212,139.735,643.883
213,139.484,645.442
214,139.284,650.111
215,139.03,639.529
216,138.761,641.613
217,138.569,649.26
218,138.309,648.499
219,138.095,640.313
220,137.876,647.721
221,137.636,649.942
222,137.444,648.933
223,137.141,648.944
224,136.916,648.203
225,136.687,650.301
226,136.432,653.812
227,136.198,652.526
228,135.91,647.327
229,135.657,644.336
230,135.439,647.906
231,135.135,651.616
232,134.895,647.43
233,134.612,648.09
234,134.35,662.317
235,134.117,648.303
236,133.817,645.034
237,133.6,653.754
238,133.312,650.66
239,133.045,650.815
240,132.775,655.377
241,132.508,651.252
242,132.239,644.634
243,131.924,646.641
244,131.64,655.115
245,131.383,655.6
246,131.068,664.989
247,130.808,652.318
248,130.504,644.028
249,130.216,639.634
250,129.913,631.789
251,129.614,628.364
252,129.338,639.95
253,129.023,634.125
254,128.737,639.463
255,128.467,643.811
256,128.144,644.593
257,127.857,636.995
258,127.553,641.516
259,127.257,651.871
260,126.963,634.629
261,126.67,633.533
262,126.409,638.802
263,126.096,632.005
264,125.807,637.961
265,125.553,635.833
266,125.229,634.896
267,124.991,634.01
268,124.729,637.059
269,124.496,637.958
270,124.249,637.902
271,124.002,640.144
272,123.827,657.419
273,123.598,658.826
274,123.4,652.33
275,123.25,661.013
276,123.058,671.075
277,122.945,680.64
278,122.789,694.783
279,122.681,711.496
280,122.623,741.475
281,122.511,770.246
282,122.503,794.6
283,122.444,803.36
284,122.361,812.346
285,122.346,820.332
286,122.293,839.309
287,122.271,848.172
288,122.254,849.65
289,122.231,852.729
290,122.225,862.327
291,122.175,862.398
292,122.217,855.016
293,122.214,862.249
294,122.143,865.053
295,122.161,864.135
296,122.132,866.474
297,122.126,866.239
298,122.109,865.988
299,122.112,866.567
300,122.152,866.989
301,122.118,867.271
302,122.153,867.079
303,122.137,865.581
304,122.088,865.414
305,122.113,866.143
306,122.105,865.253
307,122.105,865.637
308,122.109,864.902
309,122.065,865.729
310,122.075,866.99
311,122.023,866.469
312,122.042,865.184
313,122.064,864.806
314,122.012,866.312
315,122.036,865.5