File: Non-charring/PMMA/FM/FM_Gasification_25kWm2_1.csv
Time,Mass,Temperature
[s],[g],[K]
1,168.333,299.763
2,168.165,318.946
3,168.083,334.381
4,168.085,346.596
5,168.196,356.519
6,168.474,365.29
7,168.605,373.252
8,168.545,380.487
9,168.508,387.324
10,168.497,393.735
11,168.495,399.721
12,168.517,405.173
13,168.544,409.872
14,168.59,414.667
15,168.596,419.233
16,168.604,423.646
17,168.629,428.216
18,168.65,432.038
19,168.617,435.679
20,168.599,439.866
21,168.592,444.155
22,168.59,448.223
23,168.601,451.999
24,168.568,455.201
25,168.588,458.499
26,168.552,462.198
27,168.557,465.434
28,168.558,468.292
29,168.557,471.304
30,168.523,474.454
31,168.487,477.696
32,168.518,480.625
33,168.519,483.369
34,168.486,485.64
35,168.49,488.318
36,168.466,490.836
37,168.473,493.415
38,168.45,495.997
39,168.449,498.67
40,168.435,500.983
41,168.409,503.07
42,168.429,505.319
43,168.422,507.924
44,168.409,510.353
45,168.408,512.44
46,168.386,514.772
47,168.4,516.948
48,168.368,518.872
49,168.373,520.858
50,168.38,522.828
51,168.357,524.954
52,168.373,526.876
53,168.393,528.657
54,168.347,530.113
55,168.3545,531.759
56,168.356,534.194
57,168.348,536.362
58,168.325,538.541
59,168.341,540.15
60,168.317,541.748
61,168.321,542.921
62,168.31,545.205
63,168.304,547.291
64,168.309,548.916
65,168.315,550.685
66,168.34,552.074
67,168.314,553.464
68,168.29,555.228
69,168.2935,556.547
70,168.301,557.965
71,168.292,559.762
72,168.321,561.565
73,168.3,563.039
74,168.297,564.453
75,168.304,566.211
76,168.303,567.371
77,168.292,568.71
78,168.282,570.352
79,168.286,572.013
80,168.293,573.538
81,168.264,575.281
82,168.27,577.038
83,168.244,578.7
84,168.273,580.311
85,168.281,581.846
86,168.304,582.941
87,168.255,583.928
88,168.272,585.55
89,168.263,587.543
90,168.247,588.72
91,168.24,589.677
92,168.246,590.392
93,168.236,592.193
94,168.216,593.505
95,168.229,594.9
96,168.243,596.206
97,168.188,597.178
98,168.196,598.475
99,168.198,599.878
100,168.188,600.238
101,168.182,601.324
102,168.188,603.128
103,168.204,604.226
104,168.154,605.331
105,168.154,605.838
106,168.153,607.31
107,168.131,608.645
108,168.131,609.451
109,168.1244,610.17
110,168.101,611.221
111,168.111,612.72
112,168.104,613.408
113,168.075,614.894
114,168.079,616.979
115,168.089,618.183
116,168.08,619.194
117,168.073,620.412
118,168.046,622.041
119,168.025,623.121
120,168.035,624.278
121,168.029,625.256
122,168.028,626.678
123,168.013,627.772
124,167.98,628.918
125,168.026,629.75
126,167.968,630.158
127,167.976,631.025
128,167.952,631.874
129,167.944,632.68
130,167.925,632.962
131,167.929,633.511
132,167.888,634.345
133,167.886,635.46
134,167.875,636.511
135,167.904,636.995
136,167.87,638.05
137,167.882,638.965
138,167.874,638.855
139,167.927,639.229
140,167.887,639.881
141,167.891,639.564
142,167.856,641.634
143,167.819,641.438
144,167.839,643.338
145,167.832,642.547
146,167.846,641.803
147,167.832,643.38
148,167.83,644.992
149,167.793,645.1
150,167.771,645.675
151,167.761,645.139
152,167.762,646.246
153,167.736,646.384
154,167.716,645.785
155,167.721,646.459
156,167.713,645.38
157,167.663,648.015
158,167.687,648.132
159,167.662,648.495
160,167.613,648.876
161,167.607,650.912
162,167.565,648.937
163,167.555,648.624
164,167.503,649.876
165,167.498,650.797
166,167.456,652.532
167,167.439,650.229
168,167.413,652.21
169,167.391,651.69
170,167.345,651.424
171,167.317,650.961
172,167.273,649.117
173,167.246,650.862
174,167.206,651.442
175,167.182,651.671
176,167.151,651.301
177,167.105,654.62
178,167.08,652.074
179,167.068,649.252
180,167.027,651.523
181,166.995,652.402
182,166.949,653.641
183,166.924,653.998
184,166.871,653.549
185,166.817,651.539
186,166.805,655.183
187,166.751,652.88
188,166.744,652.912
189,166.703,656.306
190,166.647,656.588
191,166.593,654.013
192,166.564,654.339
193,166.535,656.525
194,166.474,658.055
195,166.434,657.069
196,166.396,652.944
197,166.35,654.719
198,166.302,657.39
199,166.274,658.602
200,166.243,655.574
201,166.178,659.941
202,166.13,658.512
203,166.07,652.659
204,166.044,654.367
205,165.979,662.052
206,165.935,659.762
207,165.881,656.927
208,165.852,654.087
209,165.793,659.569
210,165.758,662.362
211,165.697,663.895
212,165.662,657.492
213,165.597,655.839
214,165.566,662.305
215,165.507,661.776
216,165.458,658.553
217,165.416,657.37
218,165.372,661.431
219,165.319,662.455
220,165.284,659.459
221,165.211,660.848
222,165.189,659.215
223,165.13,658.148
224,165.065,660.988
225,165.018,658.576
226,164.977,664.494
227,164.938,665.299
228,164.856,666.885
229,164.867,667.725
230,164.8,668.531
231,164.762,664.114
232,164.68,666.747
233,164.643,666.501
234,164.562,665.328
235,164.512,665.852
236,164.456,667.132
237,164.395,670.804
238,164.352,668.81
239,164.319,669.026
240,164.274,668.942
241,164.219,670.326
242,164.18,668.884
243,164.132,668.189
244,164.074,670.958
245,164.0189,673.062
246,163.974,669.293
247,163.907,666.079
248,163.863,668.019
249,163.787,668.939
250,163.747,671.464
251,163.692,671.378
252,163.581,671.036
253,163.571,670.735
254,163.538,670.442
255,163.492,672.154
256,163.46,672.758
257,163.409,667.701
258,163.336,671.299
259,163.298,669.362
260,163.247,671.353
261,163.234,675.791
262,163.189,673.509
263,163.16,675.31
264,163.076,675.093
265,163.031,670.935
266,162.952,670.78
267,162.899,670.524
268,162.843,671.44
269,162.796,672.574
270,162.725,677.566
271,162.652,674.888
272,162.627,673.725
273,162.558,676.554
274,162.533,677.495
275,162.453,674.72
276,162.399,671.749
277,162.316,671.05
278,162.302,672.588
279,162.218,676.064
280,162.146,675.1
281,162.088,678.404
282,162.011,675.339
283,161.97,670.32
284,161.888,669.089
285,161.817,670.981
286,161.76,676.358
287,161.686,676.488
288,161.647,672.565
289,161.574,673.728
290,161.502,672.109
291,161.461,669.182
292,161.403,674.472
293,161.302,675.309
294,161.232,673.563
295,161.174,671.742
296,161.092,673.03
297,161,670.231
298,160.942,673.931
299,160.869,675.878
300,160.782,676.318
301,160.782,675.406
302,160.713,677.262
303,160.658,672.284
304,160.576,670.422
305,160.516,676.741
306,160.482,680.252
307,160.443,680.751
308,160.39,679
309,160.306,669.136
310,160.208,672.588
311,160.168,675.301
312,160.074,678.707
313,160.038,677.12
314,159.948,679.057
315,159.883,677.049
316,159.826,678.364
317,159.754,676.231
318,159.652,675.369
319,159.603,677.535
320,159.54,678.57
321,159.468,679.326
322,159.394,679.454
323,159.314,677.275
324,159.251,673.862
325,159.172,676.156
326,159.101,679.517
327,159.042,681.585
328,158.966,680.538
329,158.896,669.793
330,158.828,670.5
331,158.751,676.398
332,158.686,673.824
333,158.62,673.329
334,158.54,677.352
335,158.441,676.238
336,158.364,676.126
337,158.282,676.477
338,158.227,673.475
339,158.102,670.003
340,158.027,672.668
341,157.96,677.683
342,157.883,676.697
343,157.808,677.697
344,157.734,677.905
345,157.652,677.152
346,157.558,678.235
347,157.47,676.901
348,157.402,680.341
349,157.33,676.017
350,157.264,675.437
351,157.176,673.13
352,157.098,671.422
353,157.014,678.899
354,156.962,678.501
355,156.846,678.982
356,156.779,678.814
357,156.71,669.946
358,156.642,674.366
359,156.546,675.693
360,156.467,676.982
361,156.393,679.492
362,156.291,676.557
363,156.223,678.156
364,156.154,678.252
365,156.034,678.914
366,155.974,678.882
367,155.867,678.631
368,155.792,677.703
369,155.728,677.669
370,155.649,676.656
371,155.57,675.781
372,155.486,674.899
373,155.429,668.732
374,155.32,673.064
375,155.226,675.023
376,155.172,675.808
377,155.1,673.576
378,155.007,670.928
379,154.9485,673.182
380,154.874,678.331
381,154.797,680.268
382,154.732,674.088
383,154.644,674.354
384,154.569,676.551
385,154.512,677.552
386,154.414,674.988
387,154.314,669.955
388,154.233,673.063
389,154.127,675.007
390,154.054,672.321
391,153.971,670.698
392,153.891,672.664
393,153.807,677.645
394,153.715,678.362
395,153.6567,678.011
396,153.556,675.92
397,153.455,674.574
398,153.394,678.165
399,153.265,679.465
400,153.213,679.93
401,153.108,676.005
402,153.047,677.538
403,152.929,676.922
404,152.837,679.415
405,152.767,677.931
406,152.686,674.88
407,152.581,674.901
408,152.535,677.745
409,152.4,671.371
410,152.349,672.283
411,152.265,668.219
412,152.183,665.002
413,152.077,666.343
414,151.984,653.674
415,151.906,661.541
416,151.809,670.843
417,151.73,673.873
418,151.655,675.655
419,151.551,675.93
420,151.495,675.77
421,151.36,672.891
422,151.309,670.555
423,151.217,668.182
424,151.154,672.245
425,151.058,673.153
426,151.009,673.099
427,150.925,666.03
428,150.821,651.865
429,150.732,661.434
430,150.639,668.822
431,150.555,668.506
432,150.448,669.451
433,150.394,674.947
434,150.289,668.509
435,150.205,663.423
436,150.114,664.463
437,150.025,665.018
438,149.947,663.808
439,149.858,653.203
440,149.758,648.515
441,149.648,663.236
442,149.533,651.432
443,149.462,654.217
444,149.337,659
445,149.263,655.835
446,149.153,655.672
447,149.053,654.333
448,148.966,655.561
449,148.889,657.136
450,148.779,650.049
451,148.663,667.468
452,148.577,671.891
453,148.518,669.49
454,148.4,665.026
455,148.293,661.665
456,148.212,667.112
457,148.108,672.009
458,148.009,674.626
459,147.902,663.682
460,147.81,663.854
461,147.735,670.566
462,147.629,668.588
463,147.557,667.899
464,147.402,677.665
465,147.322,675.718
466,147.26,670.628
467,147.131,670.31
468,147.05,663.583
469,146.952,660.082
470,146.865,661.287
471,146.757,667.618
472,146.641,663.197
473,146.551,655.197
474,146.453,641.733
475,146.382,649.753
476,146.272,654.35
477,146.172,657.939
478,146.094,665.072
479,146.016,668.163
480,145.856,668.207
481,145.784,664.107
482,145.698,664.902
483,145.595,660.587
484,145.473,663.801
485,145.357,662.809
486,145.235,660.425
487,145.2156,660.404
488,145.111,665.02
489,144.973,668.432
490,144.84,661.461
491,144.787,662.605
492,144.677,655.298
493,144.548,647.201
494,144.464,658.393
495,144.379,658.671
496,144.227,648.32
497,144.082,660.048
498,144.047,650.28
499,143.963,644.743
500,143.812,656.105
501,143.687,658.183
502,143.594,671.088
503,143.475,665.125
504,143.39,656.013
505,143.318,653.408
506,143.22,650.378
507,143.071,651.82
508,142.94,645.382
509,142.889,646.223
510,142.817,637.659
511,142.654,630.846
512,142.57,642.979
513,142.457,660.95
514,142.319,661.477
515,142.213,655.59
516,142.174,646.863
517,142.043,644.871
518,141.893,639.25
519,141.763,641.167
520,141.684,642.455
521,141.576,634.086
522,141.454,633.294
523,141.362,641.368
524,141.2653,642.092
525,141.105,638.031
526,140.99,637.914
527,140.931,637.766
528,140.832,638.539
529,140.691,627.789
530,140.55,632.869
531,140.43,645.344
532,140.31,636.536
533,140.207,641.449
534,140.144,641.561
535,140.029,647.97
536,139.879,642.36
537,139.722,639.201
538,139.6353,642.735
539,139.551,636.701
540,139.427,626.314
541,139.276,634.616
542,139.201,639.971
543,139.022,638.642
544,138.909,634.584
545,138.864,644.019
546,138.727,641.419
547,138.576,643.536
548,138.444,644.901
549,138.374,650.088
550,138.291,642.254
551,138.122,630.118
552,138.029,624.006
553,137.927,627.819
554,137.745,643.599
555,137.617,640.214
556,137.567,642.644
557,137.423,633.781
558,137.296,625.252
559,137.13,628.864
560,137.041,633.511
561,136.902,630.064
562,136.763,631.23
563,136.716,634.647
564,136.594,631.539
565,136.398,631.949
566,136.292,633.005
567,136.202,630.897
568,136.114,634.699
569,135.964,639.389
570,135.867,629.728
571,135.738,627.85
572,135.564,626.918
573,135.449,631.353
574,135.387,622.557
575,135.261,625.059
576,135.104,629.482
577,134.965,631.376
578,134.863,625.701
579,134.789,621.692
580,134.624,619.176
581,134.523,618.161
582,134.392,623.881
583,134.213,623.635
584,134.093,626.115
585,133.992,631.226
586,133.885,632.577
587,133.745,633.213
588,133.579,631.786
589,133.464,628.86
590,133.342,638.537
591,133.227,639.157
592,133.149,637.985
593,133.024,640.488
594,132.836,639.237
595,132.715,631.878
596,132.641,634.565
597,132.532,635.022
598,132.396,627.025
599,132.236,630.538
600,132.145,626.772
601,131.974,629.399
602,131.834,627.38
603,131.755,629.62
604,131.657,632.723
605,131.5,633.207
606,131.361,627.75
607,131.284,637.788
608,131.147,638.187
609,130.996,632.28
610,130.905,633.065
611,130.759,641.195
612,130.633,626.049
613,130.523,619.48
614,130.387,628.388
615,130.251,628.377
616,130.139,633.63
617,130.006,634.623
618,129.885,623.965
619,129.757,625.758
620,129.647,621.34
621,129.513,613.358
622,129.403,628.594
623,129.279,619.31
624,129.152,615.194
625,129.038,621.79
626,128.892,627
627,128.774,624.477
628,128.6577,624.302
629,128.527,623.348
630,128.413,620.387
631,128.312,627.906
632,128.156,622.115
633,128.016,622.773
634,127.914,630.454
635,127.79,635.358
636,127.676,642.348
637,127.552,634.246
638,127.425,632.218
639,127.32,615.79
640,127.202,641.082
641,127.093,645.823
642,126.964,644.481
643,126.849,646.997
644,126.75,648.689
645,126.633,649.548
646,126.515,634.829
647,126.384,646.567
648,126.286,642.365
649,126.176,649.76
650,126.066,656.579
651,125.974,660.775
652,125.849,648.26
653,125.754,645.986
654,125.686,654.785
655,125.569,673.931
656,125.486,675.49
657,125.396,680.368
658,125.317,692.263
659,125.212,707.609
660,125.142,714.725
661,125.087,710.572
662,125.022,706.542
663,124.968,717.876
664,124.891,711.339
665,124.821,722.648
666,124.785,730.681
667,124.714,711.653
668,124.667,716.001
669,124.601,724.948
670,124.55,728.156
671,124.507,731.634
672,124.438,738.181
673,124.379,743.021
674,124.365,743.907
675,124.32,744.787
676,124.277,745.925
677,124.26,742.432
678,124.203,742.595
679,124.177,747.886
680,124.142,750.772
681,124.134,750.44
682,124.082,747.038
683,124.067,749.341
684,124.045,753.941
685,124.004,754.984
686,123.989,751.393
687,123.958,756.809
688,123.938,757.055
689,123.903,760.736
690,123.896,762.961
691,123.858,762.194
692,123.848,765.049
693,123.836,764.518
694,123.816,763.264
695,123.811,765.203
696,123.786,767.61
697,123.757,765.015
698,123.742,760.382
699,123.734,764.426
700,123.724,767.479
701,123.721,765.426
702,123.692,768.245
703,123.683,767.142
704,123.667,772.269
705,123.687,769.625
706,123.633,770.909
707,123.628,774.843
708,123.64,773.256
709,123.636,771.124
710,123.616,770.282
711,123.568,774.29
712,123.58,775.541
713,123.571,773.538
714,123.573,776.652
715,123.562,777.492
716,123.572,778.738
717,123.546,778.601
718,123.544,778.862
719,123.527,777.706
720,123.511,779.77
721,123.526,781.549
722,123.513,781.699
723,123.508,782.042
724,123.491,781.711
725,123.502,778.295
726,123.51,780.308
727,123.506,781.982
728,123.487,784.359
729,123.459,782.445
730,123.471,780.178
731,123.452,780.459
732,123.457,782.873
733,123.458,780.663
734,123.46,780.56
735,123.46,781.363
736,123.479,779.912
737,123.461,783.499
738,123.445,782.728
739,123.46,782.557
740,123.442,783.673
741,123.443,783.84
742,123.461,782.116
743,123.437,782.815
744,123.443,783.786
745,123.428,783.998
746,123.425,784.981
747,123.423,785.493
748,123.423,783.431
749,123.426,782.339