File: Wood/Calibration_Data/Aalto/Aalto_Wood_STA_N2_10K_R3.csv
Time (s),Temperature (K),Mass (mg),,,,
0,313.162,8.054,,,,
53.6154,314.162,8.04928,,,,
70.6038,315.162,8.03829,,,,
83.4786,316.162,8.02961,,,,
94.4868,317.162,8.02589,,,,
104.4144,318.162,8.02102,,,,
113.6928,319.162,8.01774,,,,
122.5392,320.162,8.01432,,,,
131.0682,321.162,8.01144,,,,
139.2846,322.162,8.00917,,,,
147.261,323.162,8.00589,,,,
155.0556,324.162,8.00435,,,,
162.6846,325.162,8.00294,,,,
170.1702,326.162,7.99948,,,,
177.5034,327.162,7.99773,,,,
184.677,328.162,7.99625,,,,
191.6916,329.162,7.99417,,,,
198.531,330.162,7.99406,,,,
205.2102,331.162,7.99282,,,,
211.7508,332.162,7.99161,,,,
218.1372,333.162,7.99101,,,,
224.391,334.162,7.99009,,,,
230.5518,335.162,7.98861,,,,
236.616,336.162,7.98658,,,,
242.5662,337.162,7.98519,,,,
248.4336,338.162,7.98326,,,,
254.2158,339.162,7.98277,,,,
259.914,340.162,7.98157,,,,
265.5498,341.162,7.98012,,,,
271.1328,342.162,7.97947,,,,
276.6588,343.162,7.97904,,,,
282.1224,344.162,7.97862,,,,
287.538,345.162,7.97729,,,,
292.9098,346.162,7.97638,,,,
298.2462,347.162,7.97479,,,,
303.5436,348.162,7.97333,,,,
308.8068,349.162,7.97174,,,,
314.0418,350.162,7.96988,,,,
319.2582,351.162,7.96796,,,,
324.4572,352.162,7.966,,,,
329.6286,353.162,7.96466,,,,
334.7622,354.162,7.96158,,,,
339.8664,355.162,7.96044,,,,
344.9562,356.162,7.95977,,,,
350.0406,357.162,7.95884,,,,
355.104,358.162,7.95793,,,,
360.138,359.162,7.95734,,,,
365.1366,360.162,7.95642,,,,
370.1208,361.162,7.95482,,,,
375.09,362.162,7.95405,,,,
380.0562,363.162,7.95281,,,,
385.0062,364.162,7.95185,,,,
389.9502,365.162,7.95108,,,,
394.8888,366.162,7.94948,,,,
399.8256,367.162,7.94748,,,,
404.7576,368.162,7.94628,,,,
409.6818,369.162,7.94629,,,,
414.6102,370.162,7.94587,,,,
419.535,371.162,7.94512,,,,
424.458,372.162,7.94418,,,,
429.372,373.162,7.94309,,,,
434.2836,374.162,7.94199,,,,
439.2084,375.162,7.9411,,,,
444.1338,376.162,7.94004,,,,
449.0682,377.162,7.93907,,,,
453.9996,378.162,7.93838,,,,
458.9442,379.162,7.93767,,,,
463.8966,380.162,7.93712,,,,
468.852,381.162,7.93646,,,,
473.8026,382.162,7.93627,,,,
478.7496,383.162,7.93688,,,,
483.708,384.162,7.9378,,,,
488.6796,385.162,7.93865,,,,
493.6632,386.162,7.93785,,,,
498.6582,387.162,7.93732,,,,
503.6658,388.162,7.93683,,,,
508.695,389.162,7.936,,,,
513.7272,390.162,7.93611,,,,
518.7588,391.162,7.93636,,,,
523.7778,392.162,7.93658,,,,
528.8016,393.162,7.93677,,,,
533.8338,394.162,7.93678,,,,
538.8846,395.162,7.9365,,,,
543.948,396.162,7.9367,,,,
549.0132,397.162,7.93677,,,,
554.0778,398.162,7.93719,,,,
559.14,399.162,7.93723,,,,
564.2142,400.162,7.93603,,,,
569.3058,401.162,7.93513,,,,
574.4136,402.162,7.93504,,,,
579.5316,403.162,7.93538,,,,
584.6478,404.162,7.93537,,,,
589.7646,405.162,7.93508,,,,
594.8898,406.162,7.9348,,,,
600.03,407.162,7.93477,,,,
605.1852,408.162,7.93461,,,,
610.3458,409.162,7.93417,,,,
615.5118,410.162,7.93385,,,,
620.6928,411.162,7.93396,,,,
625.8894,412.162,7.93404,,,,
631.0998,413.162,7.93269,,,,
636.3186,414.162,7.93122,,,,
641.5446,415.162,7.93134,,,,
646.776,416.162,7.93153,,,,
652.0116,417.162,7.93179,,,,
657.2538,418.162,7.93216,,,,
662.5116,419.162,7.93218,,,,
667.7874,420.162,7.93194,,,,
673.0872,421.162,7.93189,,,,
678.3936,422.162,7.93176,,,,
683.7114,423.162,7.93184,,,,
689.0346,424.162,7.93208,,,,
694.3812,425.162,7.93187,,,,
699.741,426.162,7.93163,,,,
705.1158,427.162,7.93126,,,,
710.4984,428.162,7.93101,,,,
715.896,429.162,7.93019,,,,
721.3152,430.162,7.92967,,,,
726.7494,431.162,7.92929,,,,
732.1932,432.162,7.92886,,,,
737.6418,433.162,7.9284,,,,
743.1036,434.162,7.92826,,,,
748.5768,435.162,7.92828,,,,
754.0632,436.162,7.92793,,,,
759.5646,437.162,7.92625,,,,
765.0888,438.162,7.92576,,,,
770.6262,439.162,7.92488,,,,
776.1636,440.162,7.92387,,,,
781.7022,441.162,7.92312,,,,
787.257,442.162,7.92269,,,,
792.831,443.162,7.9223,,,,
798.4158,444.162,7.92137,,,,
804.0078,445.162,7.92046,,,,
809.613,446.162,7.91954,,,,
815.2308,447.162,7.918,,,,
820.8546,448.162,7.91677,,,,
826.4922,449.162,7.91494,,,,
832.1358,450.162,7.91398,,,,
837.7866,451.162,7.91337,,,,
843.4464,452.162,7.91188,,,,
849.114,453.162,7.91064,,,,
854.8014,454.162,7.90892,,,,
860.499,455.162,7.90753,,,,
866.1972,456.162,7.90561,,,,
871.893,457.162,7.90316,,,,
877.6026,458.162,7.90128,,,,
883.3296,459.162,7.89966,,,,
889.0572,460.162,7.89754,,,,
894.7734,461.162,7.89531,,,,
900.492,462.162,7.89321,,,,
906.2292,463.162,7.89108,,,,
911.9808,464.162,7.88887,,,,
917.7444,465.162,7.8856,,,,
923.5134,466.162,7.88309,,,,
929.2914,467.162,7.88058,,,,
935.0826,468.162,7.87782,,,,
940.8864,469.162,7.87522,,,,
946.692,470.162,7.87296,,,,
952.4898,471.162,7.87037,,,,
958.2852,472.162,7.86681,,,,
964.098,473.162,7.86358,,,,
969.9312,474.162,7.8602,,,,
975.7758,475.162,7.85697,,,,
981.6144,476.162,7.85353,,,,
987.4566,477.162,7.84925,,,,
993.3108,478.162,7.84584,,,,
999.1782,479.162,7.84155,,,,
1005.06,480.162,7.83713,,,,
1010.93,481.162,7.83282,,,,
1016.79,482.162,7.82933,,,,
1022.68,483.162,7.82472,,,,
1028.589,484.162,7.81887,,,,
1034.5,485.162,7.81424,,,,
1040.4,486.162,7.81012,,,,
1046.313,487.162,7.80613,,,,
1052.232,488.162,7.80104,,,,
1058.16,489.162,7.79639,,,,
1064.1,490.162,7.7911,,,,
1070.03,491.162,7.78754,,,,
1075.96,492.162,7.78333,,,,
1081.89,493.162,7.77717,,,,
1087.845,494.162,7.77207,,,,
1093.8,495.162,7.76658,,,,
1099.749,496.162,7.76163,,,,
1105.7,497.162,7.75511,,,,
1111.66,498.162,7.74932,,,,
1117.641,499.162,7.74456,,,,
1123.62,500.162,7.73847,,,,
1129.59,501.162,7.73361,,,,
1135.56,502.162,7.727,,,,
1141.54,503.162,7.72053,,,,
1147.52,504.162,7.71409,,,,
1153.5,505.162,7.70723,,,,
1159.48,506.162,7.7008,,,,
1165.47,507.162,7.6951,,,,
1171.46,508.162,7.68732,,,,
1177.46,509.162,7.67967,,,,
1183.45,510.162,7.67319,,,,
1189.45,511.162,7.66495,,,,
1195.45,512.162,7.65757,,,,
1201.44,513.162,7.64927,,,,
1207.43,514.162,7.6409,,,,
1213.42,515.162,7.63382,,,,
1219.41,516.162,7.62424,,,,
1225.41,517.162,7.61531,,,,
1231.43,518.162,7.60674,,,,
1237.458,519.162,7.59736,,,,
1243.48,520.162,7.58788,,,,
1249.48,521.162,7.57862,,,,
1255.5,522.162,7.5679,,,,
1261.51,523.162,7.55604,,,,
1267.53,524.162,7.54577,,,,
1273.55,525.162,7.53434,,,,
1279.57,526.162,7.52232,,,,
1285.593,527.162,7.50981,,,,
1291.62,528.162,7.49838,,,,
1297.644,529.162,7.4852,,,,
1303.66,530.162,7.4736,,,,
1309.68,531.162,7.46111,,,,
1315.71,532.162,7.44742,,,,
1321.72,533.162,7.434,,,,
1327.75,534.162,7.42038,,,,
1333.79,535.162,7.40668,,,,
1339.83,536.162,7.39218,,,,
1345.86,537.162,7.37741,,,,
1351.87,538.162,7.36325,,,,
1357.884,539.162,7.3469,,,,
1363.9,540.162,7.33145,,,,
1369.91,541.162,7.3165,,,,
1375.93,542.162,7.30002,,,,
1381.96,543.162,7.2849,,,,
1387.99,544.162,7.26644,,,,
1394.02,545.162,7.2472,,,,
1400.05,546.162,7.23072,,,,
1406.09,547.162,7.2128,,,,
1412.13,548.162,7.19475,,,,
1418.16,549.162,7.17453,,,,
1424.18,550.162,7.15478,,,,
1430.2,551.162,7.13664,,,,
1436.22,552.162,7.11736,,,,
1442.26,553.162,7.097,,,,
1448.3,554.162,7.07561,,,,
1454.34,555.162,7.05571,,,,
1460.38,556.162,7.0342,,,,
1466.418,557.162,7.01166,,,,
1472.448,558.162,6.99072,,,,
1478.48,559.162,6.96812,,,,
1484.51,560.162,6.94599,,,,
1490.55,561.162,6.92146,,,,
1496.59,562.162,6.89687,,,,
1502.64,563.162,6.87374,,,,
1508.685,564.162,6.84953,,,,
1514.739,565.162,6.82507,,,,
1520.79,566.162,6.79857,,,,
1526.83,567.162,6.7721,,,,
1532.87,568.162,6.74022,,,,
1538.92,569.162,6.71024,,,,
1544.96,570.162,6.68512,,,,
1551,571.162,6.66068,,,,
1557.03,572.162,6.63132,,,,
1563.07,573.162,6.59943,,,,
1569.11,574.162,6.56865,,,,
1575.153,575.162,6.53962,,,,
1581.198,576.162,6.50825,,,,
1587.24,577.162,6.474,,,,
1593.28,578.162,6.44839,,,,
1599.32,579.162,6.41266,,,,
1605.37,580.162,6.37688,,,,
1611.41,581.162,6.34683,,,,
1617.45,582.162,6.31389,,,,
1623.51,583.162,6.27539,,,,
1629.56,584.162,6.2409,,,,
1635.603,585.162,6.20468,,,,
1641.64,586.162,6.16929,,,,
1647.684,587.162,6.13203,,,,
1653.72,588.162,6.09329,,,,
1659.76,589.162,6.05389,,,,
1665.8,590.162,6.01525,,,,
1671.83,591.162,5.97513,,,,
1677.87,592.162,5.9349,,,,
1683.909,593.162,5.89386,,,,
1689.95,594.162,5.85304,,,,
1695.99,595.162,5.81175,,,,
1702.04,596.162,5.76864,,,,
1708.08,597.162,5.72581,,,,
1714.11,598.162,5.68144,,,,
1720.15,599.162,5.63656,,,,
1726.21,600.162,5.59173,,,,
1732.27,601.162,5.54716,,,,
1738.314,602.162,5.4997,,,,
1744.35,603.162,5.45262,,,,
1750.386,604.162,5.40562,,,,
1756.44,605.162,5.35717,,,,
1762.49,606.162,5.30938,,,,
1768.52,607.162,5.26148,,,,
1774.53,608.162,5.21149,,,,
1780.55,609.162,5.16088,,,,
1786.6,610.162,5.1102,,,,
1792.65,611.162,5.05896,,,,
1798.68,612.162,5.00752,,,,
1804.71,613.162,4.95543,,,,
1810.76,614.162,4.90342,,,,
1816.81,615.162,4.85016,,,,
1822.85,616.162,4.7955,,,,
1828.893,617.162,4.74008,,,,
1834.93,618.162,4.68378,,,,
1840.97,619.162,4.62705,,,,
1847.01,620.162,4.5712,,,,
1853.05,621.162,4.51204,,,,
1859.12,622.162,4.45341,,,,
1865.175,623.162,4.39364,,,,
1871.22,624.162,4.33328,,,,
1877.25,625.162,4.27186,,,,
1883.298,626.162,4.20791,,,,
1889.37,627.162,4.14196,,,,
1895.43,628.162,4.07731,,,,
1901.47,629.162,4.01035,,,,
1907.51,630.162,3.94135,,,,
1913.562,631.162,3.87212,,,,
1919.62,632.162,3.80145,,,,
1925.66,633.162,3.72963,,,,
1931.7,634.162,3.65421,,,,
1937.739,635.162,3.58091,,,,
1943.8,636.162,3.50556,,,,
1949.86,637.162,3.42963,,,,
1955.9,638.162,3.35111,,,,
1961.925,639.162,3.27145,,,,
1967.96,640.162,3.19213,,,,
1974,641.162,3.11222,,,,
1980.04,642.162,3.03191,,,,
1986.09,643.162,2.95058,,,,
1992.14,644.162,2.87088,,,,
1998.17,645.162,2.79257,,,,
2004.2,646.162,2.7157,,,,
2010.24,647.162,2.63808,,,,
2016.3,648.162,2.56358,,,,
2022.35,649.162,2.49221,,,,
2028.4,650.162,2.42459,,,,
2034.44,651.162,2.36145,,,,
2040.48,652.162,2.30078,,,,
2046.5,653.162,2.24634,,,,
2052.51,654.162,2.19705,,,,
2058.53,655.162,2.15295,,,,
2064.56,656.162,2.11163,,,,
2070.59,657.162,2.07839,,,,
2076.6,658.162,2.05234,,,,
2082.61,659.162,2.02965,,,,
2088.615,660.162,2.00889,,,,
2094.62,661.162,1.99133,,,,
2100.63,662.162,1.9763,,,,
2106.639,663.162,1.96511,,,,
2112.651,664.162,1.95696,,,,
2118.66,665.162,1.94814,,,,
2124.678,666.162,1.94022,,,,
2130.69,667.162,1.93197,,,,
2136.69,668.162,1.92397,,,,
2142.69,669.162,1.9164,,,,
2148.702,670.162,1.90904,,,,
2154.72,671.162,1.9016,,,,
2160.74,672.162,1.89485,,,,
2166.76,673.162,1.88858,,,,
2172.79,674.162,1.88018,,,,
2178.81,675.162,1.87333,,,,
2184.82,676.162,1.86688,,,,
2190.84,677.162,1.8601,,,,
2196.84,678.162,1.85403,,,,
2202.84,679.162,1.84765,,,,
2208.85,680.162,1.84148,,,,
2214.88,681.162,1.83517,,,,
2220.91,682.162,1.82818,,,,
2226.94,683.162,1.82255,,,,
2232.95,684.162,1.81675,,,,
2238.97,685.162,1.81081,,,,
2244.99,686.162,1.80451,,,,
2251.02,687.162,1.79864,,,,
2257.05,688.162,1.79269,,,,
2263.07,689.162,1.78735,,,,
2269.07,690.162,1.77993,,,,
2275.071,691.162,1.77418,,,,
2281.1,692.162,1.76813,,,,
2287.13,693.162,1.76191,,,,
2293.15,694.162,1.75602,,,,
2299.164,695.162,1.75117,,,,
2305.18,696.162,1.74579,,,,
2311.185,697.162,1.74108,,,,
2317.191,698.162,1.73475,,,,
2323.2,699.162,1.72976,,,,
2329.22,700.162,1.72383,,,,
2335.23,701.162,1.71853,,,,
2341.24,702.162,1.71276,,,,
2347.25,703.162,1.70686,,,,
2353.278,704.162,1.70088,,,,
2359.3,705.162,1.69674,,,,
2365.32,706.162,1.69102,,,,
2371.317,707.162,1.68547,,,,
2377.32,708.162,1.67981,,,,
2383.32,709.162,1.67376,,,,
2389.32,710.162,1.66862,,,,
2395.32,711.162,1.66357,,,,
2401.317,712.162,1.65848,,,,
2407.31,713.162,1.65333,,,,
2413.3,714.162,1.648624,,,,
2419.28,715.162,1.64434,,,,
2425.275,716.162,1.63977,,,,
2431.27,717.162,1.63521,,,,
2437.257,718.162,1.6303,,,,
2443.23,719.162,1.62528,,,,
2449.2,720.162,1.62014,,,,
2455.18,721.162,1.61572,,,,
2461.16,722.162,1.61183,,,,
2467.13,723.162,1.60743,,,,
2473.1,724.162,1.60375,,,,
2479.068,725.162,1.59976,,,,
2485.02,726.162,1.59547,,,,
2490.98,727.162,1.5914,,,,
2496.951,728.162,1.58714,,,,
2502.936,729.162,1.5817,,,,
2508.91,730.162,1.57799,,,,
2514.88,731.162,1.57422,,,,
2520.86,732.162,1.56901,,,,
2526.86,733.162,1.56615,,,,
2532.86,734.162,1.5622,,,,
2538.85,735.162,1.55726,,,,
2544.82,736.162,1.55312,,,,
2550.8,737.162,1.54992,,,,
2556.78,738.162,1.54589,,,,
2562.76,739.162,1.54308,,,,
2568.74,740.162,1.54037,,,,
2574.71,741.162,1.53634,,,,
2580.696,742.162,1.53379,,,,
2586.67,743.162,1.5304,,,,
2592.64,744.162,1.52692,,,,
2598.606,745.162,1.52271,,,,
2604.573,746.162,1.5199,,,,
2610.546,747.162,1.51641,,,,
2616.53,748.162,1.5133,,,,
2622.516,749.162,1.51047,,,,
2628.498,750.162,1.50739,,,,
2634.48,751.162,1.50397,,,,
2640.471,752.162,1.50143,,,,
2646.46,753.162,1.49849,,,,
2652.444,754.162,1.49591,,,,
2658.42,755.162,1.49424,,,,
2664.41,756.162,1.49137,,,,
2670.4,757.162,1.48844,,,,
2676.381,758.162,1.48525,,,,
2682.36,759.162,1.48253,,,,
2688.35,760.162,1.48012,,,,
2694.34,761.162,1.47797,,,,
2700.33,762.162,1.47438,,,,
2706.318,763.162,1.47233,,,,
2712.3,764.162,1.46941,,,,
2718.27,765.162,1.46633,,,,
2724.26,766.162,1.46373,,,,
2730.26,767.162,1.46209,,,,
2736.27,768.162,1.45961,,,,
2742.28,769.162,1.45724,,,,
2748.28,770.162,1.45535,,,,
2754.27,771.162,1.45248,,,,
2760.27,772.162,1.45036,,,,
2766.27,773.162,1.44817,,,,
2772.27,774.162,1.44399,,,,
2778.273,775.162,1.44183,,,,
2784.276,776.162,1.43722,,,,
2790.273,777.162,1.4326,,,,
2796.27,778.162,1.43029,,,,
2802.276,779.162,1.42838,,,,
2808.29,780.162,1.42648,,,,
2814.31,781.162,1.42444,,,,
2820.327,782.162,1.42234,,,,
2826.35,783.162,1.41996,,,,
2832.372,784.162,1.41791,,,,
2838.39,785.162,1.41726,,,,
2844.4,786.162,1.41576,,,,
2850.42,787.162,1.4136,,,,
2856.44,788.162,1.41197,,,,
2862.477,789.162,1.41032,,,,
2868.52,790.162,1.40792,,,,
2874.56,791.162,1.40659,,,,
2880.59,792.162,1.4048,,,,
2886.61,793.162,1.40238,,,,
2892.64,794.162,1.40037,,,,
2898.68,795.162,1.39826,,,,
2904.71,796.162,1.3963,,,,
2910.75,797.162,1.39578,,,,
2916.79,798.162,1.39425,,,,
2922.849,799.162,1.39245,,,,
2928.91,800.162,1.39118,,,,
2934.97,801.162,1.38872,,,,
2941.023,802.162,1.3867,,,,
2947.08,803.162,1.38513,,,,
2953.13,804.162,1.3832,,,,
2959.19,805.162,1.38195,,,,
2965.25,806.162,1.37959,,,,
2971.31,807.162,1.37746,,,,
2977.38,808.162,1.37557,,,,
2983.44,809.162,1.37439,,,,
2989.515,810.162,1.37285,,,,
2995.58,811.162,1.37145,,,,
3001.66,812.162,1.36974,,,,
3007.73,813.162,1.36804,,,,
3013.8,814.162,1.3653,,,,
3019.88,815.162,1.36444,,,,
3025.94,816.162,1.36261,,,,
3032,817.162,1.36011,,,,
3038.07,818.162,1.35847,,,,
3044.14,819.162,1.35671,,,,
3050.2,820.162,1.3551,,,,
3056.27,821.162,1.35402,,,,
3062.34,822.162,1.35136,,,,
3068.42,823.162,1.34942,,,,
3074.49,824.162,1.34724,,,,
3080.56,825.162,1.34515,,,,
3086.64,826.162,1.34328,,,,
3092.69,827.162,1.34145,,,,
3098.75,828.162,1.33965,,,,
3104.83,829.162,1.33771,,,,
3110.92,830.162,1.33669,,,,
3117,831.162,1.33467,,,,
3123.084,832.162,1.33325,,,,
3129.17,833.162,1.33193,,,,
3135.27,834.162,1.33028,,,,
3141.36,835.162,1.32857,,,,
3147.44,836.162,1.32699,,,,
3153.54,837.162,1.32393,,,,
3159.63,838.162,1.32256,,,,
3165.732,839.162,1.32085,,,,
3171.82,840.162,1.31888,,,,
3177.903,841.162,1.31842,,,,
3183.99,842.162,1.31689,,,,
3190.071,843.162,1.31553,,,,
3196.152,844.162,1.31419,,,,
3202.24,845.162,1.31321,,,,
3208.335,846.162,1.31068,,,,
3214.43,847.162,1.30819,,,,
3220.51,848.162,1.3086,,,,
3226.6,849.162,1.30588,,,,
3232.695,850.162,1.30614,,,,
3238.78,851.162,1.30628,,,,
3244.86,852.162,1.30458,,,,
3250.93,853.162,1.30348,,,,
3257.007,854.162,1.3019,,,,
3263.07,855.162,1.3003,,,,
3269.13,856.162,1.29866,,,,
3275.193,857.162,1.29675,,,,
3281.26,858.162,1.29493,,,,
3287.33,859.162,1.29362,,,,
3293.382,860.162,1.29195,,,,
3299.433,861.162,1.28911,,,,
3305.48,862.162,1.28772,,,,
3311.53,863.162,1.28449,,,,
3317.57,864.162,1.28276,,,,
3323.61,865.162,1.28127,,,,
3329.646,866.162,1.27986,,,,
3335.67,867.162,1.27803,,,,
3341.7,868.162,1.27655,,,,
3347.73,869.162,1.27513,,,,
3353.74,870.162,1.27355,,,,
3359.77,871.162,1.2719,,,,
3365.78,872.162,1.26905,,,,
3371.793,873.162,1.26389,,,,
3377.817,874.162,1.26672,,,,
3383.84,875.162,1.26711,,,,
3389.86,876.162,1.26498,,,,
3395.88,877.162,1.26468,,,,
3401.9,878.162,1.26379,,,,
3407.913,879.162,1.26239,,,,
3413.94,880.162,1.26098,,,,
3419.958,881.162,1.25938,,,,
3425.973,882.162,1.25717,,,,
3431.98,883.162,1.25527,,,,
3437.98,884.162,1.25397,,,,
3443.98,885.162,1.24849,,,,
3449.99,886.162,1.24516,,,,
3455.985,887.162,1.24737,,,,
3461.98,888.162,1.24567,,,,
3467.98,889.162,1.24567,,,,
3473.97,890.162,1.24537,,,,
3479.98,891.162,1.24367,,,,
3485.98,892.162,1.24197,,,,
3491.97,893.162,1.24047,,,,
3497.96,894.162,1.24027,,,,
3503.95,895.162,1.23967,,,,
3509.95,896.162,1.23778,,,,
3515.94,897.162,1.23637,,,,
3521.93,898.162,1.23607,,,,
3527.91,899.162,1.23519,,,,
3533.89,900.162,1.23349,,,,
3539.86,901.162,1.23218,,,,
3545.84,902.162,1.23198,,,,
3551.83,903.162,1.22996,,,,
3557.81,904.162,1.22358,,,,
3563.8,905.162,1.22514,,,,
3569.805,906.162,1.22587,,,,
3575.8,907.162,1.22557,,,,
3581.79,908.162,1.22461,,,,
3587.77,909.162,1.22295,,,,
3593.75,910.162,1.2209,,,,
3599.736,911.162,1.22069,,,,
3605.71,912.162,1.21981,,,,
3611.69,913.162,1.21873,,,,
3617.66,914.162,1.21771,,,,
3623.64,915.162,1.21717,,,,
3629.619,916.162,1.21688,,,,
3635.6,917.162,1.21655,,,,
3641.58,918.162,1.21542,,,,
3647.55,919.162,1.21427,,,,
3653.53,920.162,1.21307,,,,
3659.505,921.162,1.21227,,,,
3665.48,922.162,1.21159,,,,
3671.45,923.162,1.21042,,,,
3677.43,924.162,1.2096,,,,
3683.41,925.162,1.20843,,,,
3689.4,926.162,1.20756,,,,
3695.37,927.162,1.20694,,,,
3701.34,928.162,1.20588,,,,
3707.313,929.162,1.20498,,,,
3713.29,930.162,1.2039,,,,
3719.27,931.162,1.20306,,,,
3725.26,932.162,1.20212,,,,
3731.26,933.162,1.20099,,,,
3737.26,934.162,1.20001,,,,
3743.26,935.162,1.19851,,,,
3749.253,936.162,1.19787,,,,
3755.232,937.162,1.19792,,,,
3761.21,938.162,1.19831,,,,
3767.18,939.162,1.19791,,,,
3773.16,940.162,1.19724,,,,
3779.142,941.162,1.19659,,,,
3785.12,942.162,1.19587,,,,
3791.1,943.162,1.19543,,,,
3797.08,944.162,1.19526,,,,
3803.052,945.162,1.19452,,,,
3809.03,946.162,1.19403,,,,
3815.01,947.162,1.19359,,,,
3821.01,948.162,1.19336,,,,
3827.01,949.162,1.19198,,,,
3833,950.162,1.18882,,,,
3839,951.162,1.18826,,,,
3845.01,952.162,1.18748,,,,
3851,953.162,1.18625,,,,
3856.98,954.162,1.18506,,,,
3862.95,955.162,1.18396,,,,
3868.92,956.162,1.18305,,,,
3874.89,957.162,1.18203,,,,
3880.87,958.162,1.18298,,,,
3886.84,959.162,1.18343,,,,
3892.81,960.162,1.18321,,,,
3898.77,961.162,1.18275,,,,
3904.73,962.162,1.18188,,,,
3910.698,963.162,1.18128,,,,
3916.67,964.162,1.18108,,,,
3922.65,965.162,1.18075,,,,
3928.63,966.162,1.18062,,,,
3934.6,967.162,1.18051,,,,
3940.57,968.162,1.17939,,,,
3946.551,969.162,1.1779,,,,
3952.53,970.162,1.17557,,,,
3958.53,971.162,1.17495,,,,
3964.52,972.162,1.17373,,,,
3970.53,973.162,1.17327,,,,
3976.52,974.162,1.17293,,,,
3982.5,975.162,1.17223,,,,
3988.49,976.162,1.17114,,,,
3994.48,977.162,1.17023,,,,
4000.47,978.162,1.169411,,,,
4006.47,979.162,1.16878,,,,
4012.473,980.162,1.16795,,,,
4018.47,981.162,1.1667,,,,
4024.47,982.162,1.1657,,,,
4030.46,983.162,1.16527,,,,
4036.461,984.162,1.16515,,,,
4042.452,985.162,1.16345,,,,
4048.44,986.162,1.1628,,,,
4054.44,987.162,1.16252,,,,
4060.446,988.162,1.16215,,,,
4066.45,989.162,1.16161,,,,
4072.44,990.162,1.16101,,,,
4078.42,991.162,1.16039,,,,
4084.4,992.162,1.15967,,,,
4090.4,993.162,1.15836,,,,
4096.41,994.162,1.15752,,,,
4102.41,995.162,1.15712,,,,
4108.42,996.162,1.15643,,,,
4114.434,997.162,1.15691,,,,
4120.45,998.162,1.15711,,,,
4126.455,999.162,1.15732,,,,
4132.46,1000.162,1.15741,,,,
4138.46,1001.162,1.15708,,,,
4144.45,1002.162,1.1562,,,,
4150.44,1003.162,1.15535,,,,
4156.431,1004.162,1.15511,,,,
4162.44,1005.162,1.15426,,,,
4168.44,1006.162,1.1532,,,,
4174.43,1007.162,1.15163,,,,
4180.422,1008.162,1.15129,,,,
4186.42,1009.162,1.15078,,,,
4192.44,1010.162,1.14997,,,,
4198.44,1011.162,1.14935,,,,
4204.44,1012.162,1.14904,,,,
4210.45,1013.162,1.14837,,,,
4216.46,1014.162,1.14787,,,,
4222.47,1015.162,1.14854,,,,
4228.46,1016.162,1.14965,,,,
4234.44,1017.162,1.14997,,,,
4240.42,1018.162,1.1491,,,,
4246.42,1019.162,1.14839,,,,
4252.419,1020.162,1.14761,,,,
4258.42,1021.162,1.14726,,,,
4264.42,1022.162,1.14707,,,,
4270.43,1023.162,1.14662,,,,
4276.44,1024.162,1.14612,,,,
4282.45,1025.162,1.14554,,,,
4288.45,1026.162,1.14487,,,,
4294.46,1027.162,1.14358,,,,
4300.46,1028.162,1.14284,,,,
4306.47,1029.162,1.14277,,,,
4312.473,1030.162,1.14257,,,,
4318.47,1031.162,1.14213,,,,
4324.46,1032.162,1.14155,,,,
4330.46,1033.162,1.14038,,,,
4336.46,1034.162,1.13968,,,,
4342.45,1035.162,1.13137,,,,
4348.443,1036.162,1.13199,,,,
4354.443,1037.162,1.13614,,,,
4360.45,1038.162,1.13703,,,,
4366.46,1039.162,1.13733,,,,
4372.45,1040.162,1.13702,,,,
4378.44,1041.162,1.13636,,,,
4384.43,1042.162,1.13582,,,,
4390.431,1043.162,1.1353,,,,
4396.437,1044.162,1.13507,,,,
4402.44,1045.162,1.13449,,,,
4408.44,1046.162,1.13355,,,,
4414.44,1047.162,1.13242,,,,
4420.428,1048.162,1.13112,,,,
4426.419,1049.162,1.12917,,,,
4432.42,1050.162,1.12876,,,,
4438.437,1051.162,1.12887,,,,
4444.44,1052.162,1.12875,,,,
4450.42,1053.162,1.12812,,,,
4456.4,1054.162,1.12813,,,,
4462.389,1055.162,1.12744,,,,
4468.38,1056.162,1.12687,,,,
4474.37,1057.162,1.12647,,,,
4480.36,1058.162,1.12599,,,,
4486.35,1059.162,1.12529,,,,
4492.34,1060.162,1.1249,,,,
4498.332,1061.162,1.12501,,,,
4504.34,1062.162,1.12495,,,,
4510.34,1063.162,1.12488,,,,
4516.33,1064.162,1.11735,,,,
4522.32,1065.162,1.11728,,,,
4528.32,1066.162,1.1209,,,,
4534.32,1067.162,1.12203,,,,
4540.32,1068.162,1.12298,,,,
4546.308,1069.162,1.12213,,,,
4552.29,1070.162,1.1213,,,,
4555.29,1070.662,1.12138,,,,