File: Wood/Calibration_Data/Aalto/Aalto_ExpDat_mcfp_STA_10N2800Trial04-1.csv
##Temp./›C,Time/min,DSC/(uV/mg),Mass/%,Gas Flow(purge2)/(ml/min),Gas Flow(protective)/(ml/min),DTG/(%/min),Sensit./(uV/mW)
40.012,0,-6.92E-03,100,0.00E+00,70,6.19821,1
41.012,0.89359,-2.63E-02,99.94145,0.00E+00,70,-0.35113,1
42.012,1.17673,-3.64E-02,99.8049,0.00E+00,70,-0.43844,1
43.012,1.39131,-4.32E-02,99.69722,0.00E+00,70,-0.39193,1
44.012,1.57478,-4.63E-02,99.65093,0.00E+00,70,-0.33534,1
45.012,1.74024,-4.84E-02,99.59054,0.00E+00,70,-0.29981,1
46.012,1.89488,-4.80E-02,99.54976,0.00E+00,70,-0.2809,1
47.012,2.04232,-4.89E-02,99.50732,0.00E+00,70,-0.2682,1
48.012,2.18447,-4.75E-02,99.47153,0.00E+00,70,-0.25266,1
49.012,2.32141,-4.69E-02,99.44337,0.00E+00,70,-0.23405,1
50.012,2.45435,-4.65E-02,99.40268,0.00E+00,70,-0.21858,1
51.012,2.58426,-4.64E-02,99.38355,0.00E+00,70,-0.21064,1
52.012,2.71141,-4.64E-02,99.36602,0.00E+00,70,-0.20731,1
53.012,2.83617,-4.73E-02,99.32302,0.00E+00,70,-0.20048,1
54.012,2.95839,-4.76E-02,99.30132,0.00E+00,70,-0.18512,1
55.012,3.07795,-4.90E-02,99.283,0.00E+00,70,-0.16361,1
56.012,3.19486,-5.12E-02,99.25715,0.00E+00,70,-0.14238,1
57.012,3.30885,-5.42E-02,99.25579,0.00E+00,70,-0.12718,1
58.012,3.42017,-5.60E-02,99.24032,0.00E+00,70,-0.12093,1
59.012,3.52918,-5.87E-02,99.2253,0.00E+00,70,-0.12416,1
60.012,3.63562,-6.22E-02,99.21789,0.00E+00,70,-0.13533,1
61.012,3.73985,-6.47E-02,99.20644,0.00E+00,70,-0.15061,1
62.012,3.84253,-6.88E-02,99.18814,0.00E+00,70,-0.16448,1
63.012,3.9436,-7.23E-02,99.1629,0.00E+00,70,-0.1718,1
64.012,4.04277,-7.71E-02,99.14568,0.00E+00,70,-0.17055,1
65.012,4.14056,-8.04E-02,99.12173,0.00E+00,70,-0.16226,1
66.012,4.23693,-8.34E-02,99.11564,0.00E+00,70,-0.15021,1
67.012,4.3319,-8.72E-02,99.10065,0.00E+00,70,-0.13776,1
68.012,4.42583,-9.15E-02,99.08267,0.00E+00,70,-0.12785,1
69.012,4.51888,-9.46E-02,99.07467,0.00E+00,70,-0.12326,1
70.012,4.61098,-9.80E-02,99.06925,0.00E+00,70,-0.12611,1
71.012,4.70204,-0.10231,99.06403,0.00E+00,70,-0.13682,1
72.012,4.7923,-0.10625,99.04757,0.00E+00,70,-0.1539,1
73.012,4.88183,-0.10981,99.0363,0.00E+00,70,-0.17458,1
74.012,4.97077,-0.11346,99.01646,0.00E+00,70,-0.19602,1
75.012,5.05906,-0.11697,98.99835,0.00E+00,70,-0.21587,1
76.012,5.14678,-0.1217,98.97859,0.00E+00,70,-0.23239,1
77.012,5.23403,-0.12533,98.95561,0.00E+00,70,-0.24397,1
78.012,5.32097,-0.12904,98.93173,0.00E+00,70,-0.24896,1
79.012,5.40762,-0.135,98.90743,0.00E+00,70,-0.24592,1
80.012,5.49381,-0.13968,98.89071,0.00E+00,70,-0.23458,1
81.012,5.57937,-0.14504,98.85244,0.00E+00,70,-0.21659,1
82.012,5.66444,-0.15094,98.83828,0.00E+00,70,-0.19547,1
83.012,5.74927,-0.15615,98.83008,0.00E+00,70,-0.17553,1
84.012,5.83401,-0.16302,98.81842,0.00E+00,70,-0.16048,1
85.012,5.9184,-0.16759,98.8072,0.00E+00,70,-0.15212,1
86.012,6.0023,-0.17602,98.7999,0.00E+00,70,-0.14999,1
87.012,6.08561,-0.18163,98.78845,0.00E+00,70,-0.15222,1
88.012,6.16868,-0.18929,98.76853,0.00E+00,70,-0.15673,1
89.012,6.2515,-0.19612,98.75897,0.00E+00,70,-0.16193,1
90.012,6.33427,-0.20317,98.74363,0.00E+00,70,-0.16664,1
91.012,6.41677,-0.21102,98.73172,0.00E+00,70,-0.16957,1
92.012,6.49917,-0.21932,98.72214,0.00E+00,70,-0.1692,1
93.012,6.58148,-0.22634,98.70222,0.00E+00,70,-0.16443,1
94.012,6.66376,-0.23401,98.67745,0.00E+00,70,-0.15557,1
95.012,6.74596,-0.24275,98.66248,0.00E+00,70,-0.14488,1
96.012,6.82803,-0.25084,98.66265,0.00E+00,70,-0.13565,1
97.012,6.91017,-0.25992,98.65743,0.00E+00,70,-0.1305,1
98.012,6.99225,-0.26837,98.64818,0.00E+00,70,-0.13004,1
99.012,7.0743,-0.27682,98.63646,0.00E+00,70,-0.13273,1
100.012,7.1562,-0.28427,98.62288,0.00E+00,70,-0.13585,1
101.012,7.23806,-0.29265,98.60928,0.00E+00,70,-0.13686,1
102.012,7.32014,-0.30138,98.5982,0.00E+00,70,-0.13413,1
103.012,7.40223,-0.30933,98.5851,0.00E+00,70,-0.12698,1
104.012,7.48447,-0.3178,98.57305,0.00E+00,70,-0.11521,1
105.012,7.56666,-0.32511,98.56445,0.00E+00,70,-9.89E-02,1
106.012,7.64907,-0.33222,98.55567,0.00E+00,70,-7.83E-02,1
107.012,7.73161,-0.34025,98.54884,0.00E+00,70,-5.48E-02,1
108.012,7.8142,-0.34724,98.54054,0.00E+00,70,-3.12E-02,1
109.012,7.89671,-0.35481,98.53828,0.00E+00,70,-1.17E-02,1
110.012,7.97916,-0.36246,98.54585,0.00E+00,70,-2.27E-05,1
111.012,8.0618,-0.36947,98.55725,0.00E+00,70,1.78E-03,1
112.012,8.14466,-0.37671,98.56774,0.00E+00,70,-4.75E-03,1
113.012,8.22772,-0.3838,98.55788,0.00E+00,70,-1.50E-02,1
114.012,8.31097,-0.39161,98.5513,0.00E+00,70,-2.35E-02,1
115.012,8.39443,-0.39787,98.54516,0.00E+00,70,-2.61E-02,1
116.012,8.47825,-0.40574,98.53488,0.00E+00,70,-2.23E-02,1
117.012,8.56212,-0.41262,98.53631,0.00E+00,70,-1.42E-02,1
118.012,8.64598,-0.41947,98.53936,0.00E+00,70,-5.43E-03,1
119.012,8.72963,-0.42639,98.54214,0.00E+00,70,1.37E-03,1
120.012,8.81336,-0.43278,98.5444,0.00E+00,70,4.99E-03,1
121.012,8.89723,-0.43948,98.54452,0.00E+00,70,5.33E-03,1
122.012,8.98141,-0.4461,98.54109,0.00E+00,70,2.53E-03,1
123.012,9.0658,-0.45347,98.54364,0.00E+00,70,-3.46E-03,1
124.012,9.15022,-0.46153,98.54441,0.00E+00,70,-1.23E-02,1
125.012,9.23463,-0.46746,98.54968,0.00E+00,70,-2.25E-02,1
126.012,9.319,-0.47454,98.55021,0.00E+00,70,-3.15E-02,1
127.012,9.40357,-0.48092,98.53521,0.00E+00,70,-3.67E-02,1
128.012,9.48843,-0.48846,98.52412,0.00E+00,70,-3.69E-02,1
129.012,9.57356,-0.49437,98.52293,0.00E+00,70,-3.35E-02,1
130.012,9.65886,-0.50158,98.52716,0.00E+00,70,-2.90E-02,1
131.012,9.74413,-0.50815,98.52702,0.00E+00,70,-2.59E-02,1
132.012,9.82941,-0.51604,98.52346,0.00E+00,70,-2.51E-02,1
133.012,9.91483,-0.52203,98.52001,0.00E+00,70,-2.65E-02,1
134.012,10.0005,-0.5292,98.51957,0.00E+00,70,-2.95E-02,1
135.012,10.08642,-0.53657,98.5176,0.00E+00,70,-3.36E-02,1
136.012,10.17243,-0.54242,98.51212,0.00E+00,70,-3.92E-02,1
137.012,10.25853,-0.54983,98.50818,0.00E+00,70,-4.60E-02,1
138.012,10.34488,-0.55597,98.50958,0.00E+00,70,-5.25E-02,1
139.012,10.43149,-0.56237,98.51053,0.00E+00,70,-5.61E-02,1
140.012,10.51833,-0.57002,98.49373,0.00E+00,70,-5.37E-02,1
141.012,10.60531,-0.57606,98.47555,0.00E+00,70,-4.44E-02,1
142.012,10.69241,-0.58259,98.47701,0.00E+00,70,-3.03E-02,1
143.012,10.7796,-0.58923,98.4794,0.00E+00,70,-1.58E-02,1
144.012,10.86686,-0.59662,98.48263,0.00E+00,70,-4.88E-03,1
145.012,10.95423,-0.60307,98.48727,0.00E+00,70,5.17E-04,1
146.012,11.04186,-0.61068,98.48747,0.00E+00,70,1.22E-03,1
147.012,11.12979,-0.61749,98.48451,0.00E+00,70,-6.11E-04,1
148.012,11.21812,-0.62333,98.4839,0.00E+00,70,-3.27E-03,1
149.012,11.30656,-0.62967,98.48219,0.00E+00,70,-6.45E-03,1
150.012,11.39519,-0.63797,98.48323,0.00E+00,70,-1.10E-02,1
151.012,11.48391,-0.64278,98.48623,0.00E+00,70,-1.77E-02,1
152.012,11.57302,-0.6505,98.48363,0.00E+00,70,-2.67E-02,1
153.012,11.66235,-0.65694,98.48058,0.00E+00,70,-3.68E-02,1
154.012,11.75193,-0.66313,98.476,0.00E+00,70,-4.64E-02,1
155.012,11.84164,-0.66874,98.47288,0.00E+00,70,-5.38E-02,1
156.012,11.9316,-0.67429,98.46279,0.00E+00,70,-5.79E-02,1
157.012,12.02192,-0.6807,98.45627,0.00E+00,70,-5.86E-02,1
158.012,12.11249,-0.68609,98.45163,0.00E+00,70,-5.71E-02,1
159.012,12.20322,-0.69118,98.44618,0.00E+00,70,-5.55E-02,1
160.012,12.29403,-0.69714,98.44047,0.00E+00,70,-5.65E-02,1
161.012,12.38506,-0.70224,98.43885,0.00E+00,70,-6.19E-02,1
162.012,12.47628,-0.707,98.439,0.00E+00,70,-7.16E-02,1
163.012,12.56772,-0.71229,98.43465,0.00E+00,70,-8.36E-02,1
164.012,12.65941,-0.71716,98.41387,0.00E+00,70,-9.44E-02,1
165.012,12.75148,-0.7221,98.40778,0.00E+00,70,-0.10145,1
166.012,12.84377,-0.72705,98.39685,0.00E+00,70,-0.10374,1
167.012,12.93606,-0.73253,98.38432,0.00E+00,70,-0.10275,1
168.012,13.02837,-0.737,98.37499,0.00E+00,70,-0.10143,1
169.012,13.12095,-0.74109,98.36958,0.00E+00,70,-0.10293,1
170.012,13.21385,-0.74627,98.36484,0.00E+00,70,-0.10916,1
171.012,13.30693,-0.75178,98.35327,0.00E+00,70,-0.11998,1
172.012,13.40013,-0.75679,98.342,0.00E+00,70,-0.13338,1
173.012,13.49355,-0.76071,98.33051,0.00E+00,70,-0.14637,1
174.012,13.58718,-0.76618,98.31144,0.00E+00,70,-0.1562,1
175.012,13.68091,-0.76945,98.29609,0.00E+00,70,-0.16164,1
176.012,13.77487,-0.77418,98.27338,0.00E+00,70,-0.16376,1
177.012,13.86893,-0.77921,98.26152,0.00E+00,70,-0.16549,1
178.012,13.96311,-0.78274,98.25387,0.00E+00,70,-0.1701,1
179.012,14.05744,-0.78702,98.23539,0.00E+00,70,-0.17944,1
180.012,14.1519,-0.79078,98.21999,0.00E+00,70,-0.19323,1
181.012,14.24669,-0.7967,98.19872,0.00E+00,70,-0.20951,1
182.012,14.34165,-0.80085,98.18136,0.00E+00,70,-0.22565,1
183.012,14.43662,-0.80492,98.15753,0.00E+00,70,-0.23945,1
184.012,14.53155,-0.8092,98.12717,0.00E+00,70,-0.25001,1
185.012,14.62671,-0.81283,98.10376,0.00E+00,70,-0.25799,1
186.012,14.72216,-0.81711,98.08373,0.00E+00,70,-0.26501,1
187.012,14.81762,-0.82148,98.05735,0.00E+00,70,-0.27278,1
188.012,14.91289,-0.82475,98.02963,0.00E+00,70,-0.28239,1
189.012,15.0082,-0.82882,98.00356,0.00E+00,70,-0.29406,1
190.012,15.10382,-0.83213,97.97719,0.00E+00,70,-0.30698,1
191.012,15.19968,-0.83615,97.94977,0.00E+00,70,-0.31926,1
192.012,15.29574,-0.83968,97.90915,0.00E+00,70,-0.3288,1
193.012,15.39189,-0.84449,97.87797,0.00E+00,70,-0.33467,1
194.012,15.48819,-0.84815,97.84678,0.00E+00,70,-0.33808,1
195.012,15.58471,-0.85143,97.81255,0.00E+00,70,-0.34202,1
196.012,15.68144,-0.85436,97.78018,0.00E+00,70,-0.34969,1
197.012,15.7782,-0.85924,97.75223,0.00E+00,70,-0.36257,1
198.012,15.87483,-0.86288,97.71998,0.00E+00,70,-0.37968,1
199.012,15.97142,-0.86608,97.67576,0.00E+00,70,-0.39849,1
200.012,16.0683,-0.87025,97.63573,0.00E+00,70,-0.41685,1
201.012,16.16552,-0.873,97.5938,0.00E+00,70,-0.43415,1
202.012,16.26293,-0.8789,97.55368,0.00E+00,70,-0.45109,1
203.012,16.36024,-0.88181,97.51091,0.00E+00,70,-0.46838,1
204.012,16.45761,-0.88606,97.45778,0.00E+00,70,-0.48584,1
205.012,16.55518,-0.89104,97.41547,0.00E+00,70,-0.50268,1
206.012,16.65297,-0.89593,97.36215,0.00E+00,70,-0.51855,1
207.012,16.75093,-0.89976,97.30727,0.00E+00,70,-0.53405,1
208.012,16.84876,-0.90305,97.25377,0.00E+00,70,-0.54982,1
209.012,16.94657,-0.9073,97.21044,0.00E+00,70,-0.56497,1
210.012,17.04466,-0.91219,97.15324,0.00E+00,70,-0.57688,1
211.012,17.14315,-0.91685,97.08054,0.00E+00,70,-0.58307,1
212.012,17.24161,-0.92064,97.02315,0.00E+00,70,-0.58374,1
213.012,17.34002,-0.92536,96.972,0.00E+00,70,-0.58178,1
214.012,17.43855,-0.93044,96.92241,0.00E+00,70,-0.58017,1
215.012,17.5372,-0.93441,96.85922,0.00E+00,70,-0.5803,1
216.012,17.63604,-0.93929,96.80148,0.00E+00,70,-0.58297,1
217.012,17.73497,-0.94576,96.73578,0.00E+00,70,-0.58992,1
218.012,17.83384,-0.95002,96.69159,0.00E+00,70,-0.60303,1
219.012,17.93263,-0.95508,96.63931,0.00E+00,70,-0.6218,1
220.012,18.03152,-0.96078,96.56286,0.00E+00,70,-0.64288,1
221.012,18.13075,-0.96566,96.49948,0.00E+00,70,-0.66215,1
222.012,18.23002,-0.97153,96.43131,0.00E+00,70,-0.677,1
223.012,18.32915,-0.97628,96.36982,0.00E+00,70,-0.68712,1
224.012,18.42831,-0.98208,96.28895,0.00E+00,70,-0.69403,1
225.012,18.52772,-0.98695,96.21706,0.00E+00,70,-0.70059,1
226.012,18.62735,-0.99267,96.15788,0.00E+00,70,-0.71027,1
227.012,18.72692,-0.99817,96.08236,0.00E+00,70,-0.72527,1
228.012,18.82646,-1.00421,96.02192,0.00E+00,70,-0.74498,1
229.012,18.92597,-1.01126,95.93986,0.00E+00,70,-0.76631,1
230.012,19.02568,-1.01663,95.85963,0.00E+00,70,-0.78623,1
231.012,19.12536,-1.02173,95.7796,0.00E+00,70,-0.80379,1
232.012,19.22498,-1.02891,95.69441,0.00E+00,70,-0.82043,1
233.012,19.32461,-1.03529,95.61462,0.00E+00,70,-0.83823,1
234.012,19.42446,-1.04119,95.54383,0.00E+00,70,-0.85842,1
235.012,19.52436,-1.0476,95.44725,0.00E+00,70,-0.88093,1
236.012,19.62432,-1.05443,95.35219,0.00E+00,70,-0.90508,1
237.012,19.72423,-1.06084,95.27176,0.00E+00,70,-0.92993,1
238.012,19.82414,-1.06725,95.16951,0.00E+00,70,-0.95446,1
239.012,19.92411,-1.0743,95.07784,0.00E+00,70,-0.97814,1
240.012,20.024,-1.07971,94.97479,0.00E+00,70,-1.00147,1
241.012,20.12377,-1.08678,94.8709,0.00E+00,70,-1.02564,1
242.012,20.22361,-1.09305,94.78291,0.00E+00,70,-1.05139,1
243.012,20.32354,-1.09983,94.66401,0.00E+00,70,-1.07848,1
244.012,20.42358,-1.10653,94.55318,0.00E+00,70,-1.10676,1
245.012,20.52389,-1.11328,94.44679,0.00E+00,70,-1.13763,1
246.012,20.6243,-1.11978,94.33027,0.00E+00,70,-1.17356,1
247.012,20.72463,-1.12761,94.21252,0.00E+00,70,-1.21587,1
248.012,20.82474,-1.13291,94.09753,0.00E+00,70,-1.26285,1
249.012,20.92492,-1.14054,93.96446,0.00E+00,70,-1.31058,1
250.012,21.02518,-1.14705,93.81728,0.00E+00,70,-1.35523,1
251.012,21.12551,-1.15538,93.68975,0.00E+00,70,-1.39507,1
252.012,21.22586,-1.16191,93.54783,0.00E+00,70,-1.43013,1
253.012,21.32621,-1.16928,93.39855,0.00E+00,70,-1.46081,1
254.012,21.42655,-1.17706,93.24319,0.00E+00,70,-1.48769,1
255.012,21.52698,-1.18448,93.10133,0.00E+00,70,-1.51251,1
256.012,21.6274,-1.19097,92.93771,0.00E+00,70,-1.53835,1
257.012,21.72774,-1.1989,92.79365,0.00E+00,70,-1.56809,1
258.012,21.82802,-1.20725,92.63853,0.00E+00,70,-1.60231,1
259.012,21.92842,-1.21415,92.46863,0.00E+00,70,-1.63902,1
260.012,22.02874,-1.22151,92.302,0.00E+00,70,-1.67555,1
261.012,22.12919,-1.23013,92.1329,0.00E+00,70,-1.71108,1
262.012,22.22987,-1.23582,91.96273,0.00E+00,70,-1.74676,1
263.012,22.33057,-1.24293,91.78273,0.00E+00,70,-1.78398,1
264.012,22.43098,-1.25127,91.59927,0.00E+00,70,-1.8227,1
265.012,22.53124,-1.25874,91.42354,0.00E+00,70,-1.86176,1
266.012,22.6314,-1.26615,91.22045,0.00E+00,70,-1.90063,1
267.012,22.73166,-1.27433,91.02867,0.00E+00,70,-1.94114,1
268.012,22.83186,-1.28068,90.84306,0.00E+00,70,-1.98652,1
269.012,22.93223,-1.28909,90.63843,0.00E+00,70,-2.03819,1
270.012,23.03262,-1.29588,90.45065,0.00E+00,70,-2.09276,1
271.012,23.13312,-1.30458,90.22155,0.00E+00,70,-2.14424,1
272.012,23.23361,-1.31044,89.98267,0.00E+00,70,-2.18923,1
273.012,23.33414,-1.31755,89.77796,0.00E+00,70,-2.22965,1
274.012,23.43481,-1.32604,89.55556,0.00E+00,70,-2.26933,1
275.012,23.53547,-1.3337,89.33142,0.00E+00,70,-2.30908,1
276.012,23.63599,-1.34051,89.08033,0.00E+00,70,-2.34706,1
277.012,23.73627,-1.34836,88.8351,0.00E+00,70,-2.3828,1
278.012,23.83661,-1.35551,88.60987,0.00E+00,70,-2.4192,1
279.012,23.93708,-1.36285,88.37055,0.00E+00,70,-2.45956,1
280.012,24.03769,-1.37064,88.11774,0.00E+00,70,-2.50461,1
281.012,24.13833,-1.37682,87.85213,0.00E+00,70,-2.55257,1
282.012,24.239,-1.38535,87.6051,0.00E+00,70,-2.60144,1
283.012,24.33966,-1.39155,87.33801,0.00E+00,70,-2.65034,1
284.012,24.4403,-1.3986,87.05805,0.00E+00,70,-2.69986,1
285.012,24.5408,-1.40644,86.79811,0.00E+00,70,-2.75118,1
286.012,24.64129,-1.41363,86.51749,0.00E+00,70,-2.80449,1
287.012,24.74189,-1.42102,86.24269,0.00E+00,70,-2.85801,1
288.012,24.8425,-1.42806,85.93822,0.00E+00,70,-2.90997,1
289.012,24.94321,-1.43443,85.63282,0.00E+00,70,-2.96304,1
290.012,25.04392,-1.44262,85.34569,0.00E+00,70,-3.02517,1
291.012,25.14475,-1.45026,85.04504,0.00E+00,70,-3.10447,1
292.012,25.24565,-1.45655,84.74142,0.00E+00,70,-3.20012,1
293.012,25.34646,-1.46417,84.41239,0.00E+00,70,-3.29759,1
294.012,25.44723,-1.47244,84.08369,0.00E+00,70,-3.37567,1
295.012,25.54789,-1.47906,83.68788,0.00E+00,70,-3.4223,1
296.012,25.64859,-1.48506,83.31568,0.00E+00,70,-3.44675,1
297.012,25.74932,-1.49297,83.00378,0.00E+00,70,-3.47364,1
298.012,25.84993,-1.50049,82.70033,0.00E+00,70,-3.5226,1
299.012,25.95044,-1.50725,82.33569,0.00E+00,70,-3.59339,1
300.012,26.05113,-1.51479,81.93984,0.00E+00,70,-3.67074,1
301.012,26.15178,-1.51925,81.55755,0.00E+00,70,-3.73982,1
302.012,26.25255,-1.52709,81.19713,0.00E+00,70,-3.79747,1
303.012,26.3533,-1.53381,80.80769,0.00E+00,70,-3.85,1
304.012,26.45392,-1.54009,80.38245,0.00E+00,70,-3.90545,1
305.012,26.55459,-1.54689,80.06448,0.00E+00,70,-3.96736,1
306.012,26.65539,-1.55131,79.62082,0.00E+00,70,-4.03421,1
307.012,26.75617,-1.55833,79.17658,0.00E+00,70,-4.10386,1
308.012,26.85682,-1.5645,78.80339,0.00E+00,70,-4.17693,1
309.012,26.95754,-1.56965,78.39444,0.00E+00,70,-4.25437,1
310.012,27.05842,-1.57526,77.9164,0.00E+00,70,-4.33395,1
311.012,27.15929,-1.58044,77.48818,0.00E+00,70,-4.41229,1
312.012,27.26005,-1.58738,77.03847,0.00E+00,70,-4.48944,1
313.012,27.36073,-1.5924,76.59913,0.00E+00,70,-4.5683,1
314.012,27.4614,-1.5988,76.13648,0.00E+00,70,-4.64983,1
315.012,27.56204,-1.60403,75.65541,0.00E+00,70,-4.7308,1
316.012,27.66266,-1.60956,75.16622,0.00E+00,70,-4.80688,1
317.012,27.76334,-1.61459,74.68655,0.00E+00,70,-4.87617,1
318.012,27.86387,-1.61906,74.18837,0.00E+00,70,-4.93963,1
319.012,27.96453,-1.62386,73.68886,0.00E+00,70,-5.00057,1
320.012,28.06515,-1.62796,73.1793,0.00E+00,70,-5.06311,1
321.012,28.16588,-1.63347,72.67249,0.00E+00,70,-5.13145,1
322.012,28.26658,-1.63762,72.15976,0.00E+00,70,-5.20715,1
323.012,28.36731,-1.64315,71.62454,0.00E+00,70,-5.28778,1
324.012,28.46796,-1.64711,71.0928,0.00E+00,70,-5.36824,1
325.012,28.56856,-1.65154,70.54188,0.00E+00,70,-5.44494,1
326.012,28.66919,-1.65589,69.98456,0.00E+00,70,-5.51833,1
327.012,28.77017,-1.66003,69.42799,0.00E+00,70,-5.59153,1
328.012,28.87116,-1.66226,68.87457,0.00E+00,70,-5.66558,1
329.012,28.9719,-1.66735,68.28529,0.00E+00,70,-5.73796,1
330.012,29.07243,-1.67129,67.70079,0.00E+00,70,-5.80555,1
331.012,29.1731,-1.67555,67.11716,0.00E+00,70,-5.86874,1
332.012,29.27397,-1.68002,66.5156,0.00E+00,70,-5.93189,1
333.012,29.37479,-1.68317,65.92231,0.00E+00,70,-5.9997,1
334.012,29.47526,-1.68621,65.32759,0.00E+00,70,-6.07261,1
335.012,29.57551,-1.69001,64.7069,0.00E+00,70,-6.14637,1
336.012,29.67591,-1.69197,64.07843,0.00E+00,70,-6.21589,1
337.012,29.77669,-1.69425,63.44922,0.00E+00,70,-6.27942,1
338.012,29.87746,-1.69708,62.81298,0.00E+00,70,-6.33967,1
339.012,29.97792,-1.69773,62.17431,0.00E+00,70,-6.40235,1
340.012,30.0785,-1.69993,61.52761,0.00E+00,70,-6.47346,1
341.012,30.17928,-1.70119,60.88177,0.00E+00,70,-6.55617,1
342.012,30.28009,-1.70201,60.22052,0.00E+00,70,-6.64907,1
343.012,30.38084,-1.7024,59.54188,0.00E+00,70,-6.74682,1
344.012,30.48155,-1.70284,58.8537,0.00E+00,70,-6.84349,1
345.012,30.58221,-1.70258,58.15475,0.00E+00,70,-6.93626,1
346.012,30.68287,-1.70202,57.45039,0.00E+00,70,-7.02691,1
347.012,30.78348,-1.70039,56.75687,0.00E+00,70,-7.11978,1
348.012,30.88423,-1.69963,56.0223,0.00E+00,70,-7.21946,1
349.012,30.98527,-1.69646,55.29433,0.00E+00,70,-7.32964,1
350.012,31.08625,-1.69432,54.55226,0.00E+00,70,-7.45236,1
351.012,31.18701,-1.68995,53.80277,0.00E+00,70,-7.5876,1
352.012,31.28756,-1.68596,53.04017,0.00E+00,70,-7.73237,1
353.012,31.3883,-1.68254,52.24626,0.00E+00,70,-7.88228,1
354.012,31.48946,-1.67611,51.42741,0.00E+00,70,-8.03394,1
355.012,31.59049,-1.67084,50.62465,0.00E+00,70,-8.18587,1
356.012,31.69123,-1.6649,49.79331,0.00E+00,70,-8.33902,1
357.012,31.79182,-1.65904,48.9366,0.00E+00,70,-8.4942,1
358.012,31.8927,-1.6528,48.07695,0.00E+00,70,-8.65088,1
359.012,31.99362,-1.64748,47.19955,0.00E+00,70,-8.80588,1
360.012,32.09436,-1.6389,46.3078,0.00E+00,70,-8.95596,1
361.012,32.19496,-1.6316,45.37141,0.00E+00,70,-9.10016,1
362.012,32.29565,-1.62178,44.46131,0.00E+00,70,-9.24029,1
363.012,32.39666,-1.6125,43.52572,0.00E+00,70,-9.37796,1
364.012,32.49762,-1.6025,42.58298,0.00E+00,70,-9.50982,1
365.012,32.59829,-1.59415,41.608,0.00E+00,70,-9.62765,1
366.012,32.69875,-1.58519,40.61889,0.00E+00,70,-9.72225,1
367.012,32.79928,-1.57424,39.63415,0.00E+00,70,-9.78666,1
368.012,32.89993,-1.56719,38.64192,0.00E+00,70,-9.81628,1
369.012,33.00069,-1.55919,37.64483,0.00E+00,70,-9.80784,1
370.012,33.10148,-1.55292,36.63497,0.00E+00,70,-9.75915,1
371.012,33.20231,-1.54665,35.64536,0.00E+00,70,-9.66892,1
372.012,33.30286,-1.54283,34.67303,0.00E+00,70,-9.53516,1
373.012,33.40338,-1.54064,33.71861,0.00E+00,70,-9.35163,1
374.012,33.50404,-1.54069,32.75491,0.00E+00,70,-9.10914,1
375.012,33.60501,-1.5421,31.82995,0.00E+00,70,-8.8003,1
376.012,33.70589,-1.54539,30.94381,0.00E+00,70,-8.42557,1
377.012,33.80667,-1.55066,30.10419,0.00E+00,70,-7.99009,1
378.012,33.90737,-1.56063,29.32019,0.00E+00,70,-7.50101,1
379.012,34.00798,-1.56931,28.5669,0.00E+00,70,-6.96591,1
380.012,34.10833,-1.58342,27.89097,0.00E+00,70,-6.39275,1
381.012,34.20851,-1.59912,27.27896,0.00E+00,70,-5.78823,1
382.012,34.30881,-1.6141,26.7314,0.00E+00,70,-5.16087,1
383.012,34.40933,-1.63193,26.2184,0.00E+00,70,-4.52785,1
384.012,34.50978,-1.65034,25.80571,0.00E+00,70,-3.91724,1
385.012,34.61001,-1.6688,25.4823,0.00E+00,70,-3.35633,1
386.012,34.71012,-1.68791,25.20049,0.00E+00,70,-2.85999,1
387.012,34.81025,-1.70445,24.94281,0.00E+00,70,-2.42806,1
388.012,34.91036,-1.71982,24.72476,0.00E+00,70,-2.05432,1
389.012,35.01043,-1.73384,24.53813,0.00E+00,70,-1.73615,1
390.012,35.11065,-1.74639,24.39914,0.00E+00,70,-1.47709,1
391.012,35.21085,-1.7571,24.298,0.00E+00,70,-1.28185,1
392.012,35.31106,-1.76538,24.18848,0.00E+00,70,-1.14699,1
393.012,35.4113,-1.77062,24.0902,0.00E+00,70,-1.06002,1
394.012,35.51148,-1.77545,23.98774,0.00E+00,70,-1.00455,1
395.012,35.61158,-1.77898,23.88842,0.00E+00,70,-0.9665,1
396.012,35.71158,-1.78266,23.79442,0.00E+00,70,-0.93755,1
397.012,35.8117,-1.78465,23.70299,0.00E+00,70,-0.91464,1
398.012,35.91196,-1.78816,23.61059,0.00E+00,70,-0.89736,1
399.012,36.01228,-1.79239,23.52688,0.00E+00,70,-0.88486,1
400.012,36.11271,-1.79632,23.44896,0.00E+00,70,-0.87433,1
401.012,36.21311,-1.79906,23.34468,0.00E+00,70,-0.86212,1
402.012,36.31347,-1.80269,23.25964,0.00E+00,70,-0.84625,1
403.012,36.41373,-1.80722,23.17955,0.00E+00,70,-0.82792,1
404.012,36.51393,-1.81173,23.09536,0.00E+00,70,-0.8104,1
405.012,36.61401,-1.81525,23.02003,0.00E+00,70,-0.79659,1
406.012,36.71407,-1.8199,22.94075,0.00E+00,70,-0.78709,1
407.012,36.81422,-1.82319,22.86412,0.00E+00,70,-0.7802,1
408.012,36.91463,-1.82885,22.78581,0.00E+00,70,-0.77357,1
409.012,37.01519,-1.831,22.69898,0.00E+00,70,-0.76602,1
410.012,37.11561,-1.8365,22.6291,0.00E+00,70,-0.75822,1
411.012,37.21586,-1.84004,22.55706,0.00E+00,70,-0.7516,1
412.012,37.31622,-1.84372,22.48341,0.00E+00,70,-0.74716,1
413.012,37.41653,-1.8479,22.40515,0.00E+00,70,-0.74524,1
414.012,37.51697,-1.8513,22.3322,0.00E+00,70,-0.74581,1
415.012,37.61746,-1.85433,22.25837,0.00E+00,70,-0.74828,1
416.012,37.71782,-1.8573,22.19204,0.00E+00,70,-0.75071,1
417.012,37.81784,-1.86088,22.09993,0.00E+00,70,-0.75001,1
418.012,37.91785,-1.86341,22.02851,0.00E+00,70,-0.74345,1
419.012,38.01826,-1.86627,21.9535,0.00E+00,70,-0.7303,1
420.012,38.11877,-1.86935,21.87615,0.00E+00,70,-0.71282,1
421.012,38.21916,-1.87196,21.80307,0.00E+00,70,-0.69541,1
422.012,38.3194,-1.87344,21.7428,0.00E+00,70,-0.68262,1
423.012,38.41964,-1.87485,21.676,0.00E+00,70,-0.67695,1
424.012,38.51975,-1.87849,21.61753,0.00E+00,70,-0.67776,1
425.012,38.61985,-1.87907,21.53902,0.00E+00,70,-0.68212,1
426.012,38.72004,-1.88121,21.47701,0.00E+00,70,-0.68682,1
427.012,38.82033,-1.88271,21.40337,0.00E+00,70,-0.68955,1
428.012,38.92051,-1.88152,21.33759,0.00E+00,70,-0.68908,1
429.012,39.02061,-1.88241,21.266,0.00E+00,70,-0.68534,1
430.012,39.12087,-1.88265,21.19273,0.00E+00,70,-0.67976,1
431.012,39.2213,-1.88202,21.11847,0.00E+00,70,-0.67521,1
432.012,39.32174,-1.88012,21.06702,0.00E+00,70,-0.67423,1
433.012,39.42197,-1.87836,20.99598,0.00E+00,70,-0.67675,1
434.012,39.52195,-1.87786,20.9271,0.00E+00,70,-0.67962,1
435.012,39.62193,-1.87489,20.8569,0.00E+00,70,-0.67864,1
436.012,39.72197,-1.87166,20.78176,0.00E+00,70,-0.67128,1
437.012,39.82208,-1.87034,20.71786,0.00E+00,70,-0.65779,1
438.012,39.92206,-1.86488,20.65521,0.00E+00,70,-0.64044,1
439.012,40.02195,-1.86201,20.59196,0.00E+00,70,-0.62196,1
440.012,40.12177,-1.85644,20.52806,0.00E+00,70,-0.60492,1
441.012,40.22161,-1.85149,20.46963,0.00E+00,70,-0.59182,1
442.012,40.32141,-1.84466,20.41641,0.00E+00,70,-0.58472,1
443.012,40.42125,-1.83909,20.35964,0.00E+00,70,-0.58387,1
444.012,40.52113,-1.83087,20.30306,0.00E+00,70,-0.58658,1
445.012,40.62095,-1.8242,20.24209,0.00E+00,70,-0.58785,1
446.012,40.72056,-1.81539,20.1798,0.00E+00,70,-0.58301,1
447.012,40.82008,-1.80677,20.11602,0.00E+00,70,-0.57063,1
448.012,40.91969,-1.79637,20.06111,0.00E+00,70,-0.55326,1
449.012,41.01928,-1.78435,20.0128,0.00E+00,70,-0.53584,1
450.012,41.11884,-1.77212,19.95813,0.00E+00,70,-0.52288,1
451.012,41.21837,-1.75883,19.91241,0.00E+00,70,-0.51677,1
452.012,41.3178,-1.74657,19.86294,0.00E+00,70,-0.51751,1
453.012,41.41707,-1.73295,19.80972,0.00E+00,70,-0.5229,1
454.012,41.51633,-1.71975,19.75914,0.00E+00,70,-0.52922,1
455.012,41.61585,-1.70654,19.70618,0.00E+00,70,-0.53264,1
456.012,41.7156,-1.69249,19.63875,0.00E+00,70,-0.53094,1
457.012,41.81518,-1.67813,19.5926,0.00E+00,70,-0.52476,1
458.012,41.91464,-1.66403,19.54576,0.00E+00,70,-0.51688,1
459.012,42.01431,-1.64924,19.48107,0.00E+00,70,-0.51006,1
460.012,42.11426,-1.63352,19.44563,0.00E+00,70,-0.50493,1
461.012,42.21432,-1.61799,19.3966,0.00E+00,70,-0.49927,1
462.012,42.31409,-1.60364,19.33525,0.00E+00,70,-0.48947,1
463.012,42.41369,-1.58946,19.28385,0.00E+00,70,-0.47359,1
464.012,42.51332,-1.57391,19.24416,0.00E+00,70,-0.45321,1
465.012,42.61304,-1.5606,19.19403,0.00E+00,70,-0.43287,1
466.012,42.71272,-1.54487,19.15915,0.00E+00,70,-0.4175,1
467.012,42.81226,-1.52919,19.12549,0.00E+00,70,-0.40992,1
468.012,42.91189,-1.51465,19.07549,0.00E+00,70,-0.40987,1
469.012,43.0116,-1.49868,19.04388,0.00E+00,70,-0.41464,1
470.012,43.11124,-1.48277,19.00179,0.00E+00,70,-0.42019,1
471.012,43.21064,-1.46594,18.95856,0.00E+00,70,-0.42264,1
472.012,43.3101,-1.45161,18.90626,0.00E+00,70,-0.41995,1
473.012,43.40955,-1.43535,18.87137,0.00E+00,70,-0.41261,1
474.012,43.5091,-1.41895,18.82805,0.00E+00,70,-0.40293,1
475.012,43.60882,-1.404,18.78944,0.00E+00,70,-0.39292,1
476.012,43.7086,-1.38808,18.75426,0.00E+00,70,-0.38282,1
477.012,43.8083,-1.37321,18.71605,0.00E+00,70,-0.37145,1
478.012,43.908,-1.35569,18.67364,0.00E+00,70,-0.35802,1
479.012,44.00785,-1.33976,18.64208,0.00E+00,70,-0.34392,1
480.012,44.10767,-1.32278,18.60559,0.00E+00,70,-0.33253,1
481.012,44.2074,-1.30502,18.57355,0.00E+00,70,-0.32706,1
482.012,44.30703,-1.28964,18.55275,0.00E+00,70,-0.32806,1
483.012,44.40682,-1.27181,18.51709,0.00E+00,70,-0.33267,1
484.012,44.50661,-1.25524,18.48072,0.00E+00,70,-0.33661,1
485.012,44.60635,-1.23792,18.44118,0.00E+00,70,-0.33732,1
486.012,44.70599,-1.21982,18.40737,0.00E+00,70,-0.3355,1
487.012,44.80578,-1.20305,18.37741,0.00E+00,70,-0.33368,1
488.012,44.90569,-1.18376,18.35071,0.00E+00,70,-0.33348,1
489.012,45.00558,-1.16645,18.30622,0.00E+00,70,-0.33401,1
490.012,45.1053,-1.14969,18.28067,0.00E+00,70,-0.33266,1
491.012,45.20493,-1.13174,18.24448,0.00E+00,70,-0.32728,1
492.012,45.30454,-1.11368,18.20625,0.00E+00,70,-0.31787,1
493.012,45.40433,-1.0969,18.17389,0.00E+00,70,-0.30675,1
494.012,45.50432,-1.0772,18.15354,0.00E+00,70,-0.29722,1
495.012,45.60451,-1.06075,18.1228,0.00E+00,70,-0.29192,1
496.012,45.70466,-1.04421,18.09334,0.00E+00,70,-0.2923,1
497.012,45.80463,-1.02605,18.06986,0.00E+00,70,-0.29926,1
498.012,45.90456,-1.00958,18.03433,0.00E+00,70,-0.31365,1
499.012,46.00448,-0.99326,18.00795,0.00E+00,70,-0.33548,1
500.012,46.10451,-0.9763,17.9808,0.00E+00,70,-0.36211,1
501.012,46.20452,-0.95841,17.92886,0.00E+00,70,-0.38687,1
502.012,46.30455,-0.94295,17.90201,0.00E+00,70,-0.40066,1
503.012,46.4046,-0.92675,17.84485,0.00E+00,70,-0.39626,1
504.012,46.50455,-0.91063,17.78739,0.00E+00,70,-0.3733,1
505.012,46.60451,-0.89471,17.75876,0.00E+00,70,-0.33931,1
506.012,46.7046,-0.8806,17.73504,0.00E+00,70,-0.30512,1
507.012,46.80479,-0.86478,17.7114,0.00E+00,70,-0.27819,1
508.012,46.90509,-0.84877,17.6861,0.00E+00,70,-0.25907,1
509.012,47.00545,-0.83501,17.66009,0.00E+00,70,-0.24397,1
510.012,47.10584,-0.82029,17.63047,0.00E+00,70,-0.22986,1
511.012,47.2062,-0.80726,17.60501,0.00E+00,70,-0.21751,1
512.012,47.30647,-0.79425,17.597,0.00E+00,70,-0.20994,1
513.012,47.40668,-0.78102,17.57839,0.00E+00,70,-0.2089,1
514.012,47.50698,-0.76959,17.55148,0.00E+00,70,-0.21305,1
515.012,47.60739,-0.75686,17.53128,0.00E+00,70,-0.21928,1
516.012,47.70795,-0.74485,17.51076,0.00E+00,70,-0.22512,1
517.012,47.80864,-0.73474,17.481,0.00E+00,70,-0.2299,1
518.012,47.90926,-0.72571,17.46447,0.00E+00,70,-0.2337,1
519.012,48.00979,-0.71527,17.44223,0.00E+00,70,-0.23573,1
520.012,48.11018,-0.70616,17.41218,0.00E+00,70,-0.23397,1
521.012,48.21074,-0.69858,17.38727,0.00E+00,70,-0.22689,1
522.012,48.31133,-0.69035,17.36111,0.00E+00,70,-0.21567,1
523.012,48.41188,-0.68286,17.33677,0.00E+00,70,-0.20451,1
524.012,48.51242,-0.67628,17.33024,0.00E+00,70,-0.19835,1
525.012,48.61318,-0.66899,17.31127,0.00E+00,70,-0.19962,1
526.012,48.71415,-0.66436,17.2889,0.00E+00,70,-0.20683,1
527.012,48.81517,-0.65932,17.27317,0.00E+00,70,-0.21568,1
528.012,48.91618,-0.65447,17.24258,0.00E+00,70,-0.22207,1
529.012,49.01705,-0.65271,17.21756,0.00E+00,70,-0.22463,1
530.012,49.11797,-0.6491,17.19801,0.00E+00,70,-0.22492,1
531.012,49.21888,-0.64814,17.1741,0.00E+00,70,-0.22504,1
532.012,49.31986,-0.64792,17.15852,0.00E+00,70,-0.22505,1
533.012,49.42079,-0.64759,17.1293,0.00E+00,70,-0.22298,1
534.012,49.52187,-0.64752,17.1028,0.00E+00,70,-0.21731,1
535.012,49.62299,-0.64803,17.0794,0.00E+00,70,-0.20938,1
536.012,49.72407,-0.64894,17.0647,0.00E+00,70,-0.20296,1
537.012,49.82525,-0.65127,17.04559,0.00E+00,70,-0.20139,1
538.012,49.92641,-0.65532,17.02819,0.00E+00,70,-0.20502,1
539.012,50.02761,-0.65936,17.00694,0.00E+00,70,-0.21133,1
540.012,50.12884,-0.66332,16.98587,0.00E+00,70,-0.21723,1
541.012,50.23008,-0.66833,16.95188,0.00E+00,70,-0.2212,1
542.012,50.33129,-0.67546,16.94114,0.00E+00,70,-0.22335,1
543.012,50.43232,-0.68305,16.91837,0.00E+00,70,-0.22398,1
544.012,50.53339,-0.69027,16.88733,0.00E+00,70,-0.22305,1
545.012,50.63447,-0.69862,16.86697,0.00E+00,70,-0.22122,1
546.012,50.73561,-0.70825,16.84513,0.00E+00,70,-0.22054,1
547.012,50.83669,-0.71752,16.82523,0.00E+00,70,-0.22328,1
548.012,50.93783,-0.7296,16.81183,0.00E+00,70,-0.22964,1
549.012,51.03902,-0.74244,16.77869,0.00E+00,70,-0.23716,1
550.012,51.14027,-0.75523,16.75461,0.00E+00,70,-0.24231,1
551.012,51.24153,-0.76896,16.72759,0.00E+00,70,-0.24281,1
552.012,51.34274,-0.78404,16.70169,0.00E+00,70,-0.23864,1
553.012,51.44393,-0.79987,16.67844,0.00E+00,70,-0.23132,1
554.012,51.54489,-0.81621,16.65571,0.00E+00,70,-0.22267,1
555.012,51.64589,-0.83365,16.63329,0.00E+00,70,-0.21397,1
556.012,51.74718,-0.85299,16.60928,0.00E+00,70,-0.20603,1
557.012,51.84864,-0.87235,16.59656,0.00E+00,70,-0.19965,1
558.012,51.95003,-0.89159,16.57146,0.00E+00,70,-0.19589,1
559.012,52.0514,-0.91346,16.55394,0.00E+00,70,-0.19599,1
560.012,52.15288,-0.93518,16.53746,0.00E+00,70,-0.20065,1
561.012,52.25452,-0.9575,16.51702,0.00E+00,70,-0.20886,1
562.012,52.35593,-0.98045,16.49573,0.00E+00,70,-0.21736,1
563.012,52.45736,-1.00466,16.47612,0.00E+00,70,-0.22183,1
564.012,52.55896,-1.02988,16.43811,0.00E+00,70,-0.21909,1
565.012,52.66054,-1.05474,16.42111,0.00E+00,70,-0.20913,1
566.012,52.7622,-1.0808,16.3999,0.00E+00,70,-0.19512,1
567.012,52.86369,-1.10811,16.37546,0.00E+00,70,-0.18179,1
568.012,52.96505,-1.13552,16.36979,0.00E+00,70,-0.17314,1
569.012,53.06644,-1.16382,16.35073,0.00E+00,70,-0.17106,1
570.012,53.16785,-1.19314,16.33392,0.00E+00,70,-0.17484,1
571.012,53.2692,-1.22141,16.31725,0.00E+00,70,-0.181,1
572.012,53.37061,-1.25199,16.30509,0.00E+00,70,-0.18412,1
573.012,53.47225,-1.2837,16.27362,0.00E+00,70,-0.17909,1
574.012,53.57384,-1.31323,16.24276,0.00E+00,70,-0.16452,1
575.012,53.67523,-1.34553,16.24785,0.00E+00,70,-0.14442,1
576.012,53.77668,-1.37611,16.21405,0.00E+00,70,-0.12654,1
577.012,53.87825,-1.40722,16.21731,0.00E+00,70,-0.11847,1
578.012,53.97968,-1.43786,16.21908,0.00E+00,70,-0.12345,1
579.012,54.08092,-1.47024,16.19796,0.00E+00,70,-0.13892,1
580.012,54.18223,-1.50288,16.18427,0.00E+00,70,-0.15898,1
581.012,54.28345,-1.53611,16.16465,0.00E+00,70,-0.17802,1
582.012,54.38448,-1.56821,16.14473,0.00E+00,70,-0.19304,1
583.012,54.48546,-1.60052,16.12445,0.00E+00,70,-0.20384,1
584.012,54.58655,-1.63302,16.10067,0.00E+00,70,-0.21212,1
585.012,54.68774,-1.66539,16.07809,0.00E+00,70,-0.22042,1
586.012,54.78876,-1.69719,16.06185,0.00E+00,70,-0.23041,1
587.012,54.8897,-1.72918,16.04108,0.00E+00,70,-0.24108,1
588.012,54.99055,-1.76042,16.00585,0.00E+00,70,-0.24869,1
589.012,55.09136,-1.79101,15.98854,0.00E+00,70,-0.24927,1
590.012,55.19209,-1.8244,15.9485,0.00E+00,70,-0.2417,1
591.012,55.29279,-1.85611,15.92694,0.00E+00,70,-0.22878,1
592.012,55.39352,-1.88765,15.90846,0.00E+00,70,-0.2155,1
593.012,55.4941,-1.91893,15.89104,0.00E+00,70,-0.20633,1
594.012,55.59458,-1.94956,15.86832,0.00E+00,70,-0.20378,1
595.012,55.69503,-1.97915,15.84991,0.00E+00,70,-0.20835,1
596.012,55.79543,-2.01015,15.83224,0.00E+00,70,-0.21757,1
597.012,55.89574,-2.03815,15.81259,0.00E+00,70,-0.2245,1
598.012,55.99609,-2.06739,15.7922,0.00E+00,70,-0.21934,1
599.012,56.09628,-2.09493,15.75682,0.00E+00,70,-0.19632,1
600.012,56.19655,-2.12262,15.69267,0.00E+00,70,-0.16039,1
601.012,56.29695,-2.14963,15.7278,0.00E+00,70,-0.12589,1
602.012,56.39741,-2.17634,15.73273,0.00E+00,70,-0.10655,1
603.012,56.49774,-2.20155,15.70627,0.00E+00,70,-0.10662,1
604.012,56.59802,-2.22742,15.7025,0.00E+00,70,-0.12147,1
605.012,56.69829,-2.25365,15.69145,0.00E+00,70,-0.14412,1
606.012,56.79855,-2.27786,15.67403,0.00E+00,70,-0.16988,1
607.012,56.89897,-2.30374,15.65657,0.00E+00,70,-0.1968,1
608.012,56.9993,-2.32718,15.63673,0.00E+00,70,-0.22371,1
609.012,57.09955,-2.35058,15.60932,0.00E+00,70,-0.24805,1
610.012,57.19962,-2.37502,15.58569,0.00E+00,70,-0.26367,1
611.012,57.29963,-2.39853,15.56949,0.00E+00,70,-0.262,1
612.012,57.39974,-2.4209,15.50152,0.00E+00,70,-0.23804,1
613.012,57.49976,-2.44422,15.4601,0.00E+00,70,-0.19723,1
614.012,57.59975,-2.4625,15.48758,0.00E+00,70,-0.15465,1
615.012,57.69964,-2.48351,15.46647,0.00E+00,70,-0.12558,1
616.012,57.79964,-2.50303,15.46642,0.00E+00,70,-0.11591,1
617.012,57.89958,-2.52338,15.46275,0.00E+00,70,-0.12051,1
618.012,57.99966,-2.54111,15.44168,0.00E+00,70,-0.12918,1
619.012,58.09969,-2.55903,15.42054,0.00E+00,70,-0.13434,1
620.012,58.19957,-2.57824,15.40191,0.00E+00,70,-0.13474,1
621.012,58.29932,-2.59542,15.39939,0.00E+00,70,-0.13324,1
622.012,58.39917,-2.61322,15.39203,0.00E+00,70,-0.13257,1
623.012,58.49912,-2.63016,15.36857,0.00E+00,70,-0.13339,1
624.012,58.59892,-2.64615,15.35105,0.00E+00,70,-0.13569,1
625.012,58.69878,-2.66177,15.34733,0.00E+00,70,-0.14072,1
626.012,58.79854,-2.67783,15.33631,0.00E+00,70,-0.15067,1
627.012,58.89818,-2.6932,15.31527,0.00E+00,70,-0.16616,1
628.012,58.99773,-2.70713,15.29897,0.00E+00,70,-0.18323,1
629.012,59.09741,-2.71926,15.29654,0.00E+00,70,-0.19286,1
630.012,59.19714,-2.73411,15.27136,0.00E+00,70,-0.18579,1
631.012,59.29682,-2.745,15.19217,0.00E+00,70,-0.16115,1
632.012,59.39668,-2.75667,15.21151,0.00E+00,70,-0.12993,1
633.012,59.49675,-2.76741,15.22058,0.00E+00,70,-0.10795,1
634.012,59.59672,-2.77787,15.21686,0.00E+00,70,-0.10342,1
635.012,59.69644,-2.78799,15.20505,0.00E+00,70,-0.1117,1
636.012,59.79614,-2.79957,15.18435,0.00E+00,70,-0.12169,1
637.012,59.89591,-2.81034,15.15894,0.00E+00,70,-0.12538,1
638.012,59.9956,-2.8208,15.15628,0.00E+00,70,-0.12156,1
639.012,60.09524,-2.83037,15.14543,0.00E+00,70,-0.11313,1
640.012,60.19484,-2.84052,15.13201,0.00E+00,70,-0.10333,1
641.012,60.29437,-2.84787,15.11933,0.00E+00,70,-9.49E-02,1
642.012,60.39403,-2.8569,15.11261,0.00E+00,70,-9.04E-02,1
643.012,60.49365,-2.8659,15.109,0.00E+00,70,-9.17E-02,1
644.012,60.59327,-2.8732,15.10491,0.00E+00,70,-9.83E-02,1
645.012,60.69293,-2.88082,15.09085,0.00E+00,70,-0.1068,1
646.012,60.79252,-2.88697,15.0766,0.00E+00,70,-0.11361,1
647.012,60.89214,-2.89451,15.0617,0.00E+00,70,-0.11698,1
648.012,60.99175,-2.90016,15.05177,0.00E+00,70,-0.11764,1
649.012,61.09128,-2.90834,15.04334,0.00E+00,70,-0.11726,1
650.012,61.19078,-2.91542,15.0288,0.00E+00,70,-0.11671,1
651.012,61.29042,-2.92189,15.01865,0.00E+00,70,-0.11594,1
652.012,61.39019,-2.92688,15.00412,0.00E+00,70,-0.11489,1
653.012,61.48994,-2.93183,14.99325,0.00E+00,70,-0.1141,1
654.012,61.58952,-2.9384,14.98562,0.00E+00,70,-0.11428,1
655.012,61.68898,-2.94217,14.97248,0.00E+00,70,-0.11566,1
656.012,61.78855,-2.94587,14.9613,0.00E+00,70,-0.11788,1
657.012,61.88814,-2.95007,14.94782,0.00E+00,70,-0.1203,1
658.012,61.98788,-2.95343,14.93744,0.00E+00,70,-0.12204,1
659.012,62.08771,-2.95635,14.9258,0.00E+00,70,-0.12153,1
660.012,62.18766,-2.95875,14.91169,0.00E+00,70,-0.11636,1
661.012,62.28769,-2.96204,14.89958,0.00E+00,70,-0.10463,1
662.012,62.38769,-2.96582,14.88097,0.00E+00,70,-8.71E-02,1
663.012,62.48755,-2.96973,14.87303,0.00E+00,70,-6.83E-02,1
664.012,62.5872,-2.97245,14.87356,0.00E+00,70,-5.42E-02,1
665.012,62.68677,-2.9764,14.87846,0.00E+00,70,-4.87E-02,1
666.012,62.78638,-2.97897,14.87344,0.00E+00,70,-5.10E-02,1
667.012,62.88607,-2.98225,14.86514,0.00E+00,70,-5.68E-02,1
668.012,62.9857,-2.98605,14.85706,0.00E+00,70,-6.16E-02,1
669.012,63.08539,-2.99038,14.84814,0.00E+00,70,-6.36E-02,1
670.012,63.18504,-2.99186,14.84263,0.00E+00,70,-6.41E-02,1
671.012,63.28463,-2.99415,14.84057,0.00E+00,70,-6.61E-02,1
672.012,63.3842,-2.99422,14.83139,0.00E+00,70,-7.27E-02,1
673.012,63.48382,-2.99706,14.82536,0.00E+00,70,-8.60E-02,1
674.012,63.58358,-2.9983,14.81978,0.00E+00,70,-0.10562,1
675.012,63.68346,-3.00067,14.81703,0.00E+00,70,-0.12724,1
676.012,63.78344,-3.00199,14.79989,0.00E+00,70,-0.14433,1
677.012,63.88339,-3.00387,14.76057,0.00E+00,70,-0.15197,1
678.012,63.98341,-3.00354,14.75367,0.00E+00,70,-0.1501,1
679.012,64.08343,-3.00595,14.74404,0.00E+00,70,-0.14218,1
680.012,64.18326,-3.00655,14.72874,0.00E+00,70,-0.13088,1
681.012,64.28294,-3.00729,14.7139,0.00E+00,70,-0.11574,1
682.012,64.38251,-3.00734,14.70032,0.00E+00,70,-9.51E-02,1
683.012,64.48208,-3.00812,14.68901,0.00E+00,70,-6.99E-02,1
684.012,64.58158,-3.00782,14.67626,0.00E+00,70,-4.57E-02,1
685.012,64.68114,-3.008,14.68806,0.00E+00,70,-2.95E-02,1
686.012,64.78067,-3.00793,14.69366,0.00E+00,70,-2.55E-02,1
687.012,64.88016,-3.00942,14.69098,0.00E+00,70,-3.16E-02,1
688.012,64.97948,-3.01041,14.68531,0.00E+00,70,-4.12E-02,1
689.012,65.07884,-3.01117,14.67441,0.00E+00,70,-4.84E-02,1
690.012,65.1783,-3.01186,14.66702,0.00E+00,70,-5.17E-02,1
691.012,65.27788,-3.01123,14.6645,0.00E+00,70,-5.44E-02,1
692.012,65.37751,-3.0106,14.6604,0.00E+00,70,-6.19E-02,1
693.012,65.47714,-3.01129,14.65886,0.00E+00,70,-7.74E-02,1
694.012,65.57668,-3.01047,14.65741,0.00E+00,70,-9.94E-02,1
695.012,65.67624,-3.01074,14.64347,0.00E+00,70,-0.1213,1
696.012,65.77585,-3.01147,14.62501,0.00E+00,70,-0.13527,1
697.012,65.87557,-3.01121,14.59606,0.00E+00,70,-0.13687,1
698.012,65.97544,-3.01119,14.58835,0.00E+00,70,-0.12766,1
699.012,66.07539,-3.01186,14.57331,0.00E+00,70,-0.11393,1
700.012,66.17546,-3.01133,14.56758,0.00E+00,70,-0.10254,1
701.012,66.27537,-3.01189,14.5633,0.00E+00,70,-9.72E-02,1
702.012,66.37503,-3.01175,14.55461,0.00E+00,70,-9.73E-02,1
703.012,66.47476,-3.01156,14.54114,0.00E+00,70,-0.10012,1
704.012,66.57464,-3.01164,14.52974,0.00E+00,70,-0.10304,1
705.012,66.67458,-3.0101,14.51963,0.00E+00,70,-0.10502,1
706.012,66.77451,-3.01011,14.51175,0.00E+00,70,-0.10584,1
707.012,66.87455,-3.01035,14.50147,0.00E+00,70,-0.10513,1
708.012,66.9745,-3.00965,14.48597,0.00E+00,70,-0.10257,1
709.012,67.07446,-3.00982,14.47357,0.00E+00,70,-9.86E-02,1
710.012,67.17437,-3.00872,14.46818,0.00E+00,70,-9.42E-02,1
711.012,67.27435,-3.0077,14.46673,0.00E+00,70,-8.97E-02,1
712.012,67.3742,-3.00728,14.4456,0.00E+00,70,-8.47E-02,1
713.012,67.474,-3.00668,14.43756,0.00E+00,70,-7.90E-02,1
714.012,67.57399,-3.00616,14.43404,0.00E+00,70,-7.44E-02,1
715.012,67.6741,-3.00506,14.42945,0.00E+00,70,-7.30E-02,1
716.012,67.77416,-3.00349,14.4228,0.00E+00,70,-7.59E-02,1
717.012,67.87396,-3.0041,14.41531,0.00E+00,70,-8.18E-02,1
718.012,67.97367,-3.00396,14.40762,0.00E+00,70,-8.76E-02,1
719.012,68.07341,-3.00492,14.39866,0.00E+00,70,-8.91E-02,1
720.012,68.17339,-3.00206,14.38242,0.00E+00,70,-8.30E-02,1
721.012,68.27346,-2.99859,14.37194,0.00E+00,70,-6.87E-02,1
722.012,68.37353,-2.9957,14.36706,0.00E+00,70,-4.89E-02,1
723.012,68.47369,-2.99291,14.35848,0.00E+00,70,-2.87E-02,1
724.012,68.5739,-2.99008,14.36446,0.00E+00,70,-1.42E-02,1
725.012,68.67412,-2.98804,14.36696,0.00E+00,70,-9.79E-03,1
726.012,68.77425,-2.98662,14.36956,0.00E+00,70,-1.63E-02,1
727.012,68.87438,-2.98569,14.37059,0.00E+00,70,-3.10E-02,1
728.012,68.97441,-2.985,14.3665,0.00E+00,70,-4.91E-02,1
729.012,69.07424,-2.98146,14.35555,0.00E+00,70,-6.64E-02,1
730.012,69.17398,-2.98011,14.34508,0.00E+00,70,-8.10E-02,1
731.012,69.27385,-2.97704,14.34201,0.00E+00,70,-9.23E-02,1
732.012,69.37394,-2.97408,14.33154,0.00E+00,70,-9.98E-02,1
733.012,69.474,-2.97126,14.31841,0.00E+00,70,-0.10225,1
734.012,69.57389,-2.96705,14.29885,0.00E+00,70,-9.92E-02,1
735.012,69.6737,-2.96393,14.29462,0.00E+00,70,-9.20E-02,1
736.012,69.77373,-2.95975,14.28827,0.00E+00,70,-8.26E-02,1
737.012,69.87393,-2.95477,14.27822,0.00E+00,70,-7.18E-02,1
738.012,69.97399,-2.9504,14.27057,0.00E+00,70,-5.87E-02,1
739.012,70.074,-2.94589,14.26666,0.00E+00,70,-4.20E-02,1
740.012,70.17412,-2.94192,14.25833,0.00E+00,70,-2.25E-02,1
741.012,70.27438,-2.93843,14.25214,0.00E+00,70,-4.87E-03,1
742.012,70.37448,-2.93227,14.26049,0.00E+00,70,3.84E-03,1
743.012,70.47437,-2.92881,14.27431,0.00E+00,70,-4.95E-04,1
744.012,70.57407,-2.92458,14.27826,0.00E+00,70,-1.56E-02,1
745.012,70.67373,-2.92099,14.2675,0.00E+00,70,-3.41E-02,1
746.012,70.77361,-2.91578,14.25864,0.00E+00,70,-4.84E-02,1
747.012,70.87365,-2.91206,14.24899,0.00E+00,70,-5.58E-02,1
748.012,70.97372,-2.90652,14.24456,0.00E+00,70,-5.85E-02,1
749.012,71.07374,-2.89995,14.24228,0.00E+00,70,-6.08E-02,1
750.012,71.17383,-2.89436,14.23666,0.00E+00,70,-6.54E-02,1
751.012,71.27396,-2.88921,14.23042,0.00E+00,70,-7.18E-02,1
752.012,71.37417,-2.88406,14.22323,0.00E+00,70,-7.76E-02,1
753.012,71.47423,-2.88025,14.21494,0.00E+00,70,-7.96E-02,1
754.012,71.57433,-2.87449,14.19895,0.00E+00,70,-7.73E-02,1
755.012,71.67438,-2.8704,14.18968,0.00E+00,70,-7.38E-02,1
756.012,71.7745,-2.86263,14.18891,0.00E+00,70,-7.54E-02,1
757.012,71.87455,-2.85918,14.18639,0.00E+00,70,-8.83E-02,1
758.012,71.97444,-2.85308,14.18091,0.00E+00,70,-0.11398,1
759.012,72.07434,-2.84862,14.17376,0.00E+00,70,-0.14499,1
760.012,72.17429,-2.84333,14.15913,0.00E+00,70,-0.16449,1
761.012,72.27432,-2.8368,14.15046,0.00E+00,70,-0.15452,1
762.012,72.37419,-2.83232,14.04725,0.00E+00,70,-0.11038,1
763.012,72.47405,-2.82516,14.05505,0.00E+00,70,-4.83E-02,1
764.012,72.57405,-2.81856,14.10653,0.00E+00,70,4.02E-03,1
765.012,72.67417,-2.81329,14.1176,0.00E+00,70,2.63E-02,1
766.012,72.77427,-2.80692,14.12127,0.00E+00,70,1.82E-02,1
767.012,72.87423,-2.80191,14.11743,0.00E+00,70,-6.01E-03,1
768.012,72.97402,-2.79724,14.10924,0.00E+00,70,-3.15E-02,1
769.012,73.07381,-2.7907,14.1026,0.00E+00,70,-5.17E-02,1
770.012,73.17385,-2.78757,14.09609,0.00E+00,70,-6.76E-02,1
771.012,73.27395,-2.78039,14.09321,0.00E+00,70,-8.26E-02,1
772.012,73.37402,-2.77476,14.08609,0.00E+00,70,-9.82E-02,1
773.012,73.47408,-2.76824,14.07437,0.00E+00,70,-0.11184,1
774.012,73.57396,-2.76288,14.0603,0.00E+00,70,-0.11852,1
775.012,73.6738,-2.75668,14.04423,0.00E+00,70,-0.11434,1
776.012,73.77365,-2.7511,14.01996,0.00E+00,70,-9.97E-02,1
777.012,73.87374,-2.74435,14.01489,0.00E+00,70,-8.00E-02,1
778.012,73.97395,-2.73721,14.01627,0.00E+00,70,-6.24E-02,1
779.012,74.07393,-2.73146,14.01473,0.00E+00,70,-5.19E-02,1
780.012,74.17361,-2.72445,14.00697,0.00E+00,70,-4.91E-02,1
781.012,74.27329,-2.71969,14.00707,0.00E+00,70,-5.11E-02,1
782.012,74.37315,-2.71355,13.99845,0.00E+00,70,-5.46E-02,1
783.012,74.47296,-2.70563,13.99138,0.00E+00,70,-5.71E-02,1
784.012,74.57281,-2.69948,13.98646,0.00E+00,70,-5.81E-02,1
785.012,74.67261,-2.69294,13.98052,0.00E+00,70,-5.91E-02,1
786.012,74.77243,-2.68707,13.97182,0.00E+00,70,-6.39E-02,1
787.012,74.87228,-2.68133,13.96699,0.00E+00,70,-7.68E-02,1
788.012,74.9722,-2.67497,13.9684,0.00E+00,70,-9.74E-02,1
789.012,75.07226,-2.66984,13.96754,0.00E+00,70,-0.11552,1
790.012,75.17227,-2.66454,13.9667,0.00E+00,70,-0.11454,1
791.012,75.27218,-2.66098,13.87319,0.00E+00,70,-8.50E-02,1
792.012,75.372,-2.65413,13.87242,0.00E+00,70,-3.62E-02,1
793.012,75.47198,-2.64715,13.91725,0.00E+00,70,8.52E-03,1
794.012,75.57202,-2.64064,13.93128,0.00E+00,70,3.39E-02,1
795.012,75.67199,-2.63453,13.94309,0.00E+00,70,3.74E-02,1
796.012,75.7718,-2.62779,13.93258,0.00E+00,70,-2.05E-02,1
797.012,75.87142,-2.62268,13.92228,0.00E+00,70,-6.17E-02,1
797.512,75.92149,-2.61904,13.92328,0.00E+00,70,-6.45E-02,1