File: Wood/Calibration_Data/Aalto/Aalto_Wood_TGA_N2_10K_R3.csv
Time (s),Temperature (K),Mass (mg)
0,313.2,8.054
53.6154,314.2,8.049
70.6038,315.2,8.038
83.4786,316.2,8.030
94.4868,317.2,8.026
104.4144,318.2,8.021
113.6928,319.2,8.018
122.5392,320.2,8.014
131.0682,321.2,8.011
139.2846,322.2,8.009
147.261,323.2,8.006
155.0556,324.2,8.004
162.6846,325.2,8.003
170.1702,326.2,7.999
177.5034,327.2,7.998
184.677,328.2,7.996
191.6916,329.2,7.994
198.531,330.2,7.994
205.2102,331.2,7.993
211.7508,332.2,7.992
218.1372,333.2,7.991
224.391,334.2,7.990
230.5518,335.2,7.989
236.616,336.2,7.987
242.5662,337.2,7.985
248.4336,338.2,7.983
254.2158,339.2,7.983
259.914,340.2,7.982
265.5498,341.2,7.980
271.1328,342.2,7.979
276.6588,343.2,7.979
282.1224,344.2,7.979
287.538,345.2,7.977
292.9098,346.2,7.976
298.2462,347.2,7.975
303.5436,348.2,7.973
308.8068,349.2,7.972
314.0418,350.2,7.970
319.2582,351.2,7.968
324.4572,352.2,7.966
329.6286,353.2,7.965
334.7622,354.2,7.962
339.8664,355.2,7.960
344.9562,356.2,7.960
350.0406,357.2,7.959
355.104,358.2,7.958
360.138,359.2,7.957
365.1366,360.2,7.956
370.1208,361.2,7.955
375.09,362.2,7.954
380.0562,363.2,7.953
385.0062,364.2,7.952
389.9502,365.2,7.951
394.8888,366.2,7.949
399.8256,367.2,7.947
404.7576,368.2,7.946
409.6818,369.2,7.946
414.6102,370.2,7.946
419.535,371.2,7.945
424.458,372.2,7.944
429.372,373.2,7.943
434.2836,374.2,7.942
439.2084,375.2,7.941
444.1338,376.2,7.940
449.0682,377.2,7.939
453.9996,378.2,7.938
458.9442,379.2,7.938
463.8966,380.2,7.937
468.852,381.2,7.936
473.8026,382.2,7.936
478.7496,383.2,7.937
483.708,384.2,7.938
488.6796,385.2,7.939
493.6632,386.2,7.938
498.6582,387.2,7.937
503.6658,388.2,7.937
508.695,389.2,7.936
513.7272,390.2,7.936
518.7588,391.2,7.936
523.7778,392.2,7.937
528.8016,393.2,7.937
533.8338,394.2,7.937
538.8846,395.2,7.936
543.948,396.2,7.937
549.0132,397.2,7.937
554.0778,398.2,7.937
559.14,399.2,7.937
564.2142,400.2,7.936
569.3058,401.2,7.935
574.4136,402.2,7.935
579.5316,403.2,7.935
584.6478,404.2,7.935
589.7646,405.2,7.935
594.8898,406.2,7.935
600.03,407.2,7.935
605.1852,408.2,7.935
610.3458,409.2,7.934
615.5118,410.2,7.934
620.6928,411.2,7.934
625.8894,412.2,7.934
631.0998,413.2,7.933
636.3186,414.2,7.931
641.5446,415.2,7.931
646.776,416.2,7.932
652.0116,417.2,7.932
657.2538,418.2,7.932
662.5116,419.2,7.932
667.7874,420.2,7.932
673.0872,421.2,7.932
678.3936,422.2,7.932
683.7114,423.2,7.932
689.0346,424.2,7.932
694.3812,425.2,7.932
699.741,426.2,7.932
705.1158,427.2,7.931
710.4984,428.2,7.931
715.896,429.2,7.930
721.3152,430.2,7.930
726.7494,431.2,7.929
732.1932,432.2,7.929
737.6418,433.2,7.928
743.1036,434.2,7.928
748.5768,435.2,7.928
754.0632,436.2,7.928
759.5646,437.2,7.926
765.0888,438.2,7.926
770.6262,439.2,7.925
776.1636,440.2,7.924
781.7022,441.2,7.923
787.257,442.2,7.923
792.831,443.2,7.922
798.4158,444.2,7.921
804.0078,445.2,7.920
809.613,446.2,7.920
815.2308,447.2,7.918
820.8546,448.2,7.917
826.4922,449.2,7.915
832.1358,450.2,7.914
837.7866,451.2,7.913
843.4464,452.2,7.912
849.114,453.2,7.911
854.8014,454.2,7.909
860.499,455.2,7.908
866.1972,456.2,7.906
871.893,457.2,7.903
877.6026,458.2,7.901
883.3296,459.2,7.900
889.0572,460.2,7.898
894.7734,461.2,7.895
900.492,462.2,7.893
906.2292,463.2,7.891
911.9808,464.2,7.889
917.7444,465.2,7.886
923.5134,466.2,7.883
929.2914,467.2,7.881
935.0826,468.2,7.878
940.8864,469.2,7.875
946.692,470.2,7.873
952.4898,471.2,7.870
958.2852,472.2,7.867
964.098,473.2,7.864
969.9312,474.2,7.860
975.7758,475.2,7.857
981.6144,476.2,7.854
987.4566,477.2,7.849
993.3108,478.2,7.846
999.1782,479.2,7.842
1005.06,480.2,7.837
1010.93,481.2,7.833
1016.79,482.2,7.829
1022.68,483.2,7.825
1028.589,484.2,7.819
1034.5,485.2,7.814
1040.4,486.2,7.810
1046.313,487.2,7.806
1052.232,488.2,7.801
1058.16,489.2,7.796
1064.1,490.2,7.791
1070.03,491.2,7.788
1075.96,492.2,7.783
1081.89,493.2,7.777
1087.845,494.2,7.772
1093.8,495.2,7.767
1099.749,496.2,7.762
1105.7,497.2,7.755
1111.66,498.2,7.749
1117.641,499.2,7.745
1123.62,500.2,7.738
1129.59,501.2,7.734
1135.56,502.2,7.727
1141.54,503.2,7.721
1147.52,504.2,7.714
1153.5,505.2,7.707
1159.48,506.2,7.701
1165.47,507.2,7.695
1171.46,508.2,7.687
1177.46,509.2,7.680
1183.45,510.2,7.673
1189.45,511.2,7.665
1195.45,512.2,7.658
1201.44,513.2,7.649
1207.43,514.2,7.641
1213.42,515.2,7.634
1219.41,516.2,7.624
1225.41,517.2,7.615
1231.43,518.2,7.607
1237.458,519.2,7.597
1243.48,520.2,7.588
1249.48,521.2,7.579
1255.5,522.2,7.568
1261.51,523.2,7.556
1267.53,524.2,7.546
1273.55,525.2,7.534
1279.57,526.2,7.522
1285.593,527.2,7.510
1291.62,528.2,7.498
1297.644,529.2,7.485
1303.66,530.2,7.474
1309.68,531.2,7.461
1315.71,532.2,7.447
1321.72,533.2,7.434
1327.75,534.2,7.420
1333.79,535.2,7.407
1339.83,536.2,7.392
1345.86,537.2,7.377
1351.87,538.2,7.363
1357.884,539.2,7.347
1363.9,540.2,7.331
1369.91,541.2,7.317
1375.93,542.2,7.300
1381.96,543.2,7.285
1387.99,544.2,7.266
1394.02,545.2,7.247
1400.05,546.2,7.231
1406.09,547.2,7.213
1412.13,548.2,7.195
1418.16,549.2,7.175
1424.18,550.2,7.155
1430.2,551.2,7.137
1436.22,552.2,7.117
1442.26,553.2,7.097
1448.3,554.2,7.076
1454.34,555.2,7.056
1460.38,556.2,7.034
1466.418,557.2,7.012
1472.448,558.2,6.991
1478.48,559.2,6.968
1484.51,560.2,6.946
1490.55,561.2,6.921
1496.59,562.2,6.897
1502.64,563.2,6.874
1508.685,564.2,6.850
1514.739,565.2,6.825
1520.79,566.2,6.799
1526.83,567.2,6.772
1532.87,568.2,6.740
1538.92,569.2,6.710
1544.96,570.2,6.685
1551,571.2,6.661
1557.03,572.2,6.631
1563.07,573.2,6.599
1569.11,574.2,6.569
1575.153,575.2,6.540
1581.198,576.2,6.508
1587.24,577.2,6.474
1593.28,578.2,6.448
1599.32,579.2,6.413
1605.37,580.2,6.377
1611.41,581.2,6.347
1617.45,582.2,6.314
1623.51,583.2,6.275
1629.56,584.2,6.241
1635.603,585.2,6.205
1641.64,586.2,6.169
1647.684,587.2,6.132
1653.72,588.2,6.093
1659.76,589.2,6.054
1665.8,590.2,6.015
1671.83,591.2,5.975
1677.87,592.2,5.935
1683.909,593.2,5.894
1689.95,594.2,5.853
1695.99,595.2,5.812
1702.04,596.2,5.769
1708.08,597.2,5.726
1714.11,598.2,5.681
1720.15,599.2,5.637
1726.21,600.2,5.592
1732.27,601.2,5.547
1738.314,602.2,5.500
1744.35,603.2,5.453
1750.386,604.2,5.406
1756.44,605.2,5.357
1762.49,606.2,5.309
1768.52,607.2,5.261
1774.53,608.2,5.211
1780.55,609.2,5.161
1786.6,610.2,5.110
1792.65,611.2,5.059
1798.68,612.2,5.008
1804.71,613.2,4.955
1810.76,614.2,4.903
1816.81,615.2,4.850
1822.85,616.2,4.796
1828.893,617.2,4.740
1834.93,618.2,4.684
1840.97,619.2,4.627
1847.01,620.2,4.571
1853.05,621.2,4.512
1859.12,622.2,4.453
1865.175,623.2,4.394
1871.22,624.2,4.333
1877.25,625.2,4.272
1883.298,626.2,4.208
1889.37,627.2,4.142
1895.43,628.2,4.077
1901.47,629.2,4.010
1907.51,630.2,3.941
1913.562,631.2,3.872
1919.62,632.2,3.801
1925.66,633.2,3.730
1931.7,634.2,3.654
1937.739,635.2,3.581
1943.8,636.2,3.506
1949.86,637.2,3.430
1955.9,638.2,3.351
1961.925,639.2,3.271
1967.96,640.2,3.192
1974,641.2,3.112
1980.04,642.2,3.032
1986.09,643.2,2.951
1992.14,644.2,2.871
1998.17,645.2,2.793
2004.2,646.2,2.716
2010.24,647.2,2.638
2016.3,648.2,2.564
2022.35,649.2,2.492
2028.4,650.2,2.425
2034.44,651.2,2.361
2040.48,652.2,2.301
2046.5,653.2,2.246
2052.51,654.2,2.197
2058.53,655.2,2.153
2064.56,656.2,2.112
2070.59,657.2,2.078
2076.6,658.2,2.052
2082.61,659.2,2.030
2088.615,660.2,2.009
2094.62,661.2,1.991
2100.63,662.2,1.976
2106.639,663.2,1.965
2112.651,664.2,1.957
2118.66,665.2,1.948
2124.678,666.2,1.940
2130.69,667.2,1.932
2136.69,668.2,1.924
2142.69,669.2,1.916
2148.702,670.2,1.909
2154.72,671.2,1.902
2160.74,672.2,1.895
2166.76,673.2,1.889
2172.79,674.2,1.880
2178.81,675.2,1.873
2184.82,676.2,1.867
2190.84,677.2,1.860
2196.84,678.2,1.854
2202.84,679.2,1.848
2208.85,680.2,1.841
2214.88,681.2,1.835
2220.91,682.2,1.828
2226.94,683.2,1.823
2232.95,684.2,1.817
2238.97,685.2,1.811
2244.99,686.2,1.805
2251.02,687.2,1.799
2257.05,688.2,1.793
2263.07,689.2,1.787
2269.07,690.2,1.780
2275.071,691.2,1.774
2281.1,692.2,1.768
2287.13,693.2,1.762
2293.15,694.2,1.756
2299.164,695.2,1.751
2305.18,696.2,1.746
2311.185,697.2,1.741
2317.191,698.2,1.735
2323.2,699.2,1.730
2329.22,700.2,1.724
2335.23,701.2,1.719
2341.24,702.2,1.713
2347.25,703.2,1.707
2353.278,704.2,1.701
2359.3,705.2,1.697
2365.32,706.2,1.691
2371.317,707.2,1.685
2377.32,708.2,1.680
2383.32,709.2,1.674
2389.32,710.2,1.669
2395.32,711.2,1.664
2401.317,712.2,1.658
2407.31,713.2,1.653
2413.3,714.2,1.649
2419.28,715.2,1.644
2425.275,716.2,1.640
2431.27,717.2,1.635
2437.257,718.2,1.630
2443.23,719.2,1.625
2449.2,720.2,1.620
2455.18,721.2,1.616
2461.16,722.2,1.612
2467.13,723.2,1.607
2473.1,724.2,1.604
2479.068,725.2,1.600
2485.02,726.2,1.595
2490.98,727.2,1.591
2496.951,728.2,1.587
2502.936,729.2,1.582
2508.91,730.2,1.578
2514.88,731.2,1.574
2520.86,732.2,1.569
2526.86,733.2,1.566
2532.86,734.2,1.562
2538.85,735.2,1.557
2544.82,736.2,1.553
2550.8,737.2,1.550
2556.78,738.2,1.546
2562.76,739.2,1.543
2568.74,740.2,1.540
2574.71,741.2,1.536
2580.696,742.2,1.534
2586.67,743.2,1.530
2592.64,744.2,1.527
2598.606,745.2,1.523
2604.573,746.2,1.520
2610.546,747.2,1.516
2616.53,748.2,1.513
2622.516,749.2,1.510
2628.498,750.2,1.507
2634.48,751.2,1.504
2640.471,752.2,1.501
2646.46,753.2,1.498
2652.444,754.2,1.496
2658.42,755.2,1.494
2664.41,756.2,1.491
2670.4,757.2,1.488
2676.381,758.2,1.485
2682.36,759.2,1.483
2688.35,760.2,1.480
2694.34,761.2,1.478
2700.33,762.2,1.474
2706.318,763.2,1.472
2712.3,764.2,1.469
2718.27,765.2,1.466
2724.26,766.2,1.464
2730.26,767.2,1.462
2736.27,768.2,1.460
2742.28,769.2,1.457
2748.28,770.2,1.455
2754.27,771.2,1.452
2760.27,772.2,1.450
2766.27,773.2,1.448
2772.27,774.2,1.444
2778.273,775.2,1.442
2784.276,776.2,1.437
2790.273,777.2,1.433
2796.27,778.2,1.430
2802.276,779.2,1.428
2808.29,780.2,1.426
2814.31,781.2,1.424
2820.327,782.2,1.422
2826.35,783.2,1.420
2832.372,784.2,1.418
2838.39,785.2,1.417
2844.4,786.2,1.416
2850.42,787.2,1.414
2856.44,788.2,1.412
2862.477,789.2,1.410
2868.52,790.2,1.408
2874.56,791.2,1.407
2880.59,792.2,1.405
2886.61,793.2,1.402
2892.64,794.2,1.400
2898.68,795.2,1.398
2904.71,796.2,1.396
2910.75,797.2,1.396
2916.79,798.2,1.394
2922.849,799.2,1.392
2928.91,800.2,1.391
2934.97,801.2,1.389
2941.023,802.2,1.387
2947.08,803.2,1.385
2953.13,804.2,1.383
2959.19,805.2,1.382
2965.25,806.2,1.380
2971.31,807.2,1.377
2977.38,808.2,1.376
2983.44,809.2,1.374
2989.515,810.2,1.373
2995.58,811.2,1.371
3001.66,812.2,1.370
3007.73,813.2,1.368
3013.8,814.2,1.365
3019.88,815.2,1.364
3025.94,816.2,1.363
3032,817.2,1.360
3038.07,818.2,1.358
3044.14,819.2,1.357
3050.2,820.2,1.355
3056.27,821.2,1.354
3062.34,822.2,1.351
3068.42,823.2,1.349
3074.49,824.2,1.347
3080.56,825.2,1.345
3086.64,826.2,1.343
3092.69,827.2,1.341
3098.75,828.2,1.340
3104.83,829.2,1.338
3110.92,830.2,1.337
3117,831.2,1.335
3123.084,832.2,1.333
3129.17,833.2,1.332
3135.27,834.2,1.330
3141.36,835.2,1.329
3147.44,836.2,1.327
3153.54,837.2,1.324
3159.63,838.2,1.323
3165.732,839.2,1.321
3171.82,840.2,1.319
3177.903,841.2,1.318
3183.99,842.2,1.317
3190.071,843.2,1.316
3196.152,844.2,1.314
3202.24,845.2,1.313
3208.335,846.2,1.311
3214.43,847.2,1.308
3220.51,848.2,1.309
3226.6,849.2,1.306
3232.695,850.2,1.306
3238.78,851.2,1.306
3244.86,852.2,1.305
3250.93,853.2,1.303
3257.007,854.2,1.302
3263.07,855.2,1.300
3269.13,856.2,1.299
3275.193,857.2,1.297
3281.26,858.2,1.295
3287.33,859.2,1.294
3293.382,860.2,1.292
3299.433,861.2,1.289
3305.48,862.2,1.288
3311.53,863.2,1.284
3317.57,864.2,1.283
3323.61,865.2,1.281
3329.646,866.2,1.280
3335.67,867.2,1.278
3341.7,868.2,1.277
3347.73,869.2,1.275
3353.74,870.2,1.274
3359.77,871.2,1.272
3365.78,872.2,1.269
3371.793,873.2,1.264
3377.817,874.2,1.267
3383.84,875.2,1.267
3389.86,876.2,1.265
3395.88,877.2,1.265
3401.9,878.2,1.264
3407.913,879.2,1.262
3413.94,880.2,1.261
3419.958,881.2,1.259
3425.973,882.2,1.257
3431.98,883.2,1.255
3437.98,884.2,1.254
3443.98,885.2,1.248
3449.99,886.2,1.245
3455.985,887.2,1.247
3461.98,888.2,1.246
3467.98,889.2,1.246
3473.97,890.2,1.245
3479.98,891.2,1.244
3485.98,892.2,1.242
3491.97,893.2,1.240
3497.96,894.2,1.240
3503.95,895.2,1.240
3509.95,896.2,1.238
3515.94,897.2,1.236
3521.93,898.2,1.236
3527.91,899.2,1.235
3533.89,900.2,1.233
3539.86,901.2,1.232
3545.84,902.2,1.232
3551.83,903.2,1.230
3557.81,904.2,1.224
3563.8,905.2,1.225
3569.805,906.2,1.226
3575.8,907.2,1.226
3581.79,908.2,1.225
3587.77,909.2,1.223
3593.75,910.2,1.221
3599.736,911.2,1.221
3605.71,912.2,1.220
3611.69,913.2,1.219
3617.66,914.2,1.218
3623.64,915.2,1.217
3629.619,916.2,1.217
3635.6,917.2,1.217
3641.58,918.2,1.215
3647.55,919.2,1.214
3653.53,920.2,1.213
3659.505,921.2,1.212
3665.48,922.2,1.212
3671.45,923.2,1.210
3677.43,924.2,1.210
3683.41,925.2,1.208
3689.4,926.2,1.208
3695.37,927.2,1.207
3701.34,928.2,1.206
3707.313,929.2,1.205
3713.29,930.2,1.204
3719.27,931.2,1.203
3725.26,932.2,1.202
3731.26,933.2,1.201
3737.26,934.2,1.200
3743.26,935.2,1.199
3749.253,936.2,1.198
3755.232,937.2,1.198
3761.21,938.2,1.198
3767.18,939.2,1.198
3773.16,940.2,1.197
3779.142,941.2,1.197
3785.12,942.2,1.196
3791.1,943.2,1.195
3797.08,944.2,1.195
3803.052,945.2,1.195
3809.03,946.2,1.194
3815.01,947.2,1.194
3821.01,948.2,1.193
3827.01,949.2,1.192
3833,950.2,1.189
3839,951.2,1.188
3845.01,952.2,1.187
3851,953.2,1.186
3856.98,954.2,1.185
3862.95,955.2,1.184
3868.92,956.2,1.183
3874.89,957.2,1.182
3880.87,958.2,1.183
3886.84,959.2,1.183
3892.81,960.2,1.183
3898.77,961.2,1.183
3904.73,962.2,1.182
3910.698,963.2,1.181
3916.67,964.2,1.181
3922.65,965.2,1.181
3928.63,966.2,1.181
3934.6,967.2,1.181
3940.57,968.2,1.179
3946.551,969.2,1.178
3952.53,970.2,1.176
3958.53,971.2,1.175
3964.52,972.2,1.174
3970.53,973.2,1.173
3976.52,974.2,1.173
3982.5,975.2,1.172
3988.49,976.2,1.171
3994.48,977.2,1.170
4000.47,978.2,1.169
4006.47,979.2,1.169
4012.473,980.2,1.168
4018.47,981.2,1.167
4024.47,982.2,1.166
4030.46,983.2,1.165
4036.461,984.2,1.165
4042.452,985.2,1.163
4048.44,986.2,1.163
4054.44,987.2,1.163
4060.446,988.2,1.162
4066.45,989.2,1.162
4072.44,990.2,1.161
4078.42,991.2,1.160
4084.4,992.2,1.160
4090.4,993.2,1.158
4096.41,994.2,1.158
4102.41,995.2,1.157
4108.42,996.2,1.156
4114.434,997.2,1.157
4120.45,998.2,1.157
4126.455,999.2,1.157
4132.46,1000.2,1.157
4138.46,1001.2,1.157
4144.45,1002.2,1.156
4150.44,1003.2,1.155
4156.431,1004.2,1.155
4162.44,1005.2,1.154
4168.44,1006.2,1.153
4174.43,1007.2,1.152
4180.422,1008.2,1.151
4186.42,1009.2,1.151
4192.44,1010.2,1.150
4198.44,1011.2,1.149
4204.44,1012.2,1.149
4210.45,1013.2,1.148
4216.46,1014.2,1.148
4222.47,1015.2,1.149
4228.46,1016.2,1.150
4234.44,1017.2,1.150
4240.42,1018.2,1.149
4246.42,1019.2,1.148
4252.419,1020.2,1.148
4258.42,1021.2,1.147
4264.42,1022.2,1.147
4270.43,1023.2,1.147
4276.44,1024.2,1.146
4282.45,1025.2,1.146
4288.45,1026.2,1.145
4294.46,1027.2,1.144
4300.46,1028.2,1.143
4306.47,1029.2,1.143
4312.473,1030.2,1.143
4318.47,1031.2,1.142
4324.46,1032.2,1.142
4330.46,1033.2,1.140
4336.46,1034.2,1.140
4342.45,1035.2,1.131
4348.443,1036.2,1.132
4354.443,1037.2,1.136
4360.45,1038.2,1.137
4366.46,1039.2,1.137
4372.45,1040.2,1.137
4378.44,1041.2,1.136
4384.43,1042.2,1.136
4390.431,1043.2,1.135
4396.437,1044.2,1.135
4402.44,1045.2,1.134
4408.44,1046.2,1.134
4414.44,1047.2,1.132
4420.428,1048.2,1.131
4426.419,1049.2,1.129
4432.42,1050.2,1.129
4438.437,1051.2,1.129
4444.44,1052.2,1.129
4450.42,1053.2,1.128
4456.4,1054.2,1.128
4462.389,1055.2,1.127
4468.38,1056.2,1.127
4474.37,1057.2,1.126
4480.36,1058.2,1.126
4486.35,1059.2,1.125
4492.34,1060.2,1.125
4498.332,1061.2,1.125
4504.34,1062.2,1.125
4510.34,1063.2,1.125
4516.33,1064.2,1.117
4522.32,1065.2,1.117
4528.32,1066.2,1.121
4534.32,1067.2,1.122
4540.32,1068.2,1.123
4546.308,1069.2,1.122
4552.29,1070.2,1.121
4555.29,1070.7,1.121