File: Wood/Calibration_Data/Aalto/Aalto_Wood_TGA_N2_10K_R1.csv
Time (s),Temperature (K),Mass (mg)
0,313.2,7.427
54.5988,314.1,7.420
71.3202,315.1,7.421
84.0258,316.1,7.421
94.8354,317.1,7.422
104.6142,318.1,7.423
113.7846,319.1,7.420
122.475,320.1,7.419
130.8378,321.1,7.419
138.9312,322.1,7.419
146.79,323.1,7.417
154.488,324.1,7.418
162.0252,325.1,7.419
169.3746,326.1,7.417
176.5554,327.1,7.417
183.6252,328.1,7.417
190.6002,329.1,7.416
197.4492,330.1,7.415
204.1512,331.1,7.413
210.7134,332.1,7.413
217.1364,333.1,7.412
223.4418,334.1,7.410
229.638,335.1,7.408
235.7016,336.1,7.407
241.6422,337.1,7.407
247.4826,338.1,7.404
253.2444,339.1,7.403
258.9354,340.1,7.402
264.579,341.1,7.401
270.1812,342.1,7.400
275.7276,343.1,7.398
281.211,344.1,7.397
286.6308,345.1,7.395
291.9924,346.1,7.394
297.3108,347.1,7.393
302.5956,348.1,7.392
307.8636,349.1,7.391
313.104,350.1,7.389
318.3288,351.1,7.387
323.5194,352.1,7.385
328.6818,353.1,7.384
333.8106,354.1,7.382
338.9196,355.1,7.382
344.01,356.1,7.381
349.0788,357.1,7.380
354.1296,358,7.379
359.1594,359,7.379
364.1646,360,7.378
369.1512,361,7.378
374.1234,362,7.377
379.0884,363,7.376
384.042,364,7.375
388.9854,365,7.375
393.924,366,7.373
398.8488,367,7.371
403.767,368,7.369
408.6792,369,7.369
413.5926,370,7.369
418.5036,371,7.368
423.4116,372,7.367
428.3232,373,7.366
433.2342,374,7.365
438.141,375,7.365
443.0424,376,7.364
447.9474,377,7.364
452.8662,378,7.363
457.7982,379,7.364
462.7428,380,7.363
467.6934,381,7.363
472.6506,382,7.363
477.609,383,7.363
482.5794,384,7.364
487.5582,385,7.364
492.549,386,7.363
497.5446,387,7.362
502.5492,388,7.361
507.5556,389,7.360
512.5632,390,7.360
517.572,391,7.361
522.5904,392,7.361
527.6226,393,7.361
532.6614,394,7.361
537.7008,395,7.361
542.7378,396,7.361
547.7832,397,7.360
552.8496,398,7.360
557.9328,399,7.360
563.0166,400,7.359
568.0968,401,7.359
573.1794,401.9,7.359
578.2686,402.9,7.359
583.3602,403.9,7.359
588.45,404.9,7.359
593.5542,405.9,7.358
598.6752,406.9,7.357
603.8214,407.9,7.357
608.9736,408.9,7.357
614.1366,409.9,7.357
619.3002,410.9,7.357
624.4722,411.9,7.357
629.6544,412.9,7.356
634.8558,413.9,7.354
640.0656,414.9,7.354
645.2754,415.9,7.355
650.487,416.9,7.355
655.7208,417.9,7.355
660.9768,418.9,7.354
666.246,419.9,7.353
671.5236,420.9,7.353
676.8132,421.9,7.352
682.113,422.9,7.352
687.426,423.9,7.352
692.7492,424.9,7.352
698.0856,425.9,7.351
703.4244,426.9,7.351
708.7782,427.9,7.351
714.1494,428.9,7.350
719.544,429.9,7.349
724.959,430.9,7.349
730.392,431.9,7.349
735.84,432.9,7.348
741.2802,433.9,7.348
746.7186,434.9,7.348
752.1582,435.9,7.347
757.6302,436.9,7.346
763.134,437.9,7.345
768.6618,438.9,7.344
774.1878,439.9,7.343
779.7252,440.9,7.342
785.28,441.9,7.341
790.857,442.9,7.341
796.4346,443.9,7.340
802.0146,444.9,7.338
807.5988,445.9,7.337
813.1932,446.8,7.336
818.802,447.8,7.336
824.4306,448.8,7.334
830.061,449.8,7.333
835.7028,450.8,7.331
841.3398,451.8,7.330
846.9864,452.8,7.328
852.6372,453.8,7.326
858.297,454.8,7.324
863.9676,455.8,7.322
869.6538,456.8,7.321
875.3556,457.8,7.320
881.079,458.8,7.318
886.8114,459.8,7.315
892.5444,460.8,7.313
898.2798,461.8,7.311
904.0248,462.8,7.309
909.7758,463.8,7.305
915.5274,464.8,7.303
921.2856,465.8,7.301
927.0504,466.8,7.298
932.832,467.8,7.294
938.6208,468.8,7.291
944.4192,469.8,7.288
950.214,470.8,7.284
956.0088,471.8,7.281
961.8072,472.8,7.278
967.623,473.8,7.274
973.449,474.8,7.269
979.2804,475.8,7.266
985.1208,476.8,7.262
990.9702,477.8,7.259
996.8298,478.8,7.255
1002.69,479.8,7.250
1008.55,480.8,7.246
1014.41,481.8,7.242
1020.28,482.8,7.238
1026.16,483.8,7.233
1032.048,484.8,7.228
1037.94,485.8,7.223
1043.838,486.8,7.220
1049.751,487.8,7.216
1055.667,488.8,7.210
1061.58,489.8,7.205
1067.49,490.7,7.201
1073.41,491.7,7.196
1079.34,492.7,7.191
1085.28,493.7,7.187
1091.21,494.7,7.182
1097.13,495.7,7.177
1103.07,496.7,7.172
1109.01,497.7,7.167
1114.971,498.7,7.163
1120.92,499.7,7.165
1126.88,500.7,7.154
1132.854,501.7,7.144
1138.83,502.7,7.139
1144.82,503.7,7.143
1150.79,504.7,7.127
1156.75,505.7,7.119
1162.72,506.7,7.114
1168.683,507.7,7.107
1174.65,508.7,7.101
1180.62,509.7,7.096
1186.6,510.7,7.089
1192.59,511.7,7.082
1198.58,512.7,7.076
1204.57,513.7,7.068
1210.57,514.7,7.060
1216.59,515.7,7.051
1222.599,516.7,7.043
1228.59,517.7,7.033
1234.58,518.7,7.025
1240.57,519.7,7.017
1246.58,520.7,7.008
1252.58,521.7,6.999
1258.59,522.7,6.989
1264.6,523.7,6.979
1270.6,524.7,6.968
1276.6,525.7,6.958
1282.61,526.7,6.946
1288.63,527.7,6.936
1294.65,528.7,6.924
1300.66,529.7,6.912
1306.67,530.7,6.901
1312.68,531.7,6.890
1318.7,532.7,6.878
1324.73,533.7,6.864
1330.74,534.7,6.850
1336.75,535.6,6.837
1342.77,536.6,6.823
1348.78,537.6,6.810
1354.79,538.6,6.797
1360.8,539.6,6.781
1366.8,540.6,6.766
1372.8,541.6,6.752
1378.81,542.6,6.736
1384.83,543.6,6.721
1390.85,544.6,6.707
1396.88,545.6,6.689
1402.9,546.6,6.669
1408.91,547.6,6.654
1414.91,548.6,6.637
1420.91,549.6,6.618
1426.92,550.6,6.601
1432.95,551.6,6.582
1438.99,552.6,6.566
1445.01,553.6,6.547
1451.03,554.6,6.527
1457.06,555.6,6.511
1463.1,556.6,6.488
1469.127,557.6,6.468
1475.15,558.6,6.449
1481.17,559.6,6.426
1487.18,560.6,6.404
1493.2,561.6,6.383
1499.25,562.6,6.360
1505.29,563.6,6.338
1511.33,564.6,6.315
1517.35,565.6,6.298
1523.37,566.6,6.263
1529.38,567.6,6.233
1535.4,568.6,6.214
1541.43,569.6,6.191
1547.48,570.6,6.167
1553.517,571.6,6.141
1559.55,572.6,6.117
1565.58,573.6,6.089
1571.6,574.6,6.063
1577.65,575.6,6.035
1583.69,576.6,5.996
1589.727,577.6,5.973
1595.74,578.6,5.948
1601.76,579.5,5.914
1607.799,580.5,5.882
1613.83,581.5,5.852
1619.86,582.5,5.821
1625.89,583.5,5.789
1631.91,584.5,5.757
1637.94,585.5,5.720
1643.96,586.5,5.690
1649.99,587.5,5.657
1656.01,588.5,5.617
1662.024,589.5,5.582
1668.04,590.5,5.545
1674.04,591.5,5.507
1680.06,592.5,5.471
1686.08,593.5,5.434
1692.11,594.5,5.393
1698.147,595.5,5.356
1704.19,596.5,5.316
1710.21,597.5,5.275
1716.23,598.5,5.234
1722.252,599.5,5.196
1728.28,600.5,5.153
1734.32,601.5,5.112
1740.36,602.5,5.068
1746.4,603.5,5.023
1752.43,604.5,4.980
1758.46,605.5,4.935
1764.5,606.5,4.891
1770.53,607.5,4.846
1776.573,608.5,4.802
1782.61,609.5,4.753
1788.64,610.5,4.708
1794.66,611.5,4.660
1800.687,612.5,4.611
1806.71,613.5,4.565
1812.73,614.5,4.517
1818.756,615.5,4.465
1824.79,616.5,4.417
1830.83,617.5,4.364
1836.85,618.5,4.313
1842.88,619.5,4.262
1848.89,620.5,4.208
1854.915,621.5,4.154
1860.95,622.5,4.100
1866.98,623.4,4.046
1873.01,624.4,3.988
1879.035,625.4,3.929
1885.06,626.4,3.872
1891.1,627.4,3.815
1897.116,628.4,3.752
1903.13,629.4,3.690
1909.18,630.4,3.627
1915.23,631.4,3.565
1921.29,632.4,3.498
1927.32,633.4,3.429
1933.347,634.4,3.362
1939.37,635.4,3.293
1945.39,636.4,3.223
1951.41,637.4,3.151
1957.45,638.4,3.079
1963.49,639.4,3.007
1969.53,640.4,2.934
1975.563,641.4,2.859
1981.59,642.4,2.787
1987.614,643.4,2.712
1993.64,644.4,2.637
1999.68,645.4,2.567
2005.71,646.4,2.494
2011.74,647.4,2.424
2017.76,648.4,2.358
2023.78,649.4,2.292
2029.81,650.4,2.230
2035.83,651.4,2.173
2041.84,652.4,2.117
2047.842,653.4,2.067
2053.84,654.4,2.022
2059.84,655.4,1.981
2065.85,656.4,1.944
2071.842,657.4,1.919
2077.836,658.4,1.895
2083.83,659.4,1.871
2089.82,660.4,1.850
2095.8,661.4,1.834
2101.78,662.4,1.823
2107.76,663.4,1.814
2113.76,664.4,1.805
2119.761,665.4,1.797
2125.755,666.4,1.790
2131.76,667.4,1.782
2137.77,668.3,1.775
2143.79,669.3,1.770
2149.81,670.3,1.763
2155.82,671.3,1.756
2161.82,672.3,1.750
2167.83,673.3,1.743
2173.85,674.3,1.737
2179.86,675.3,1.731
2185.88,676.3,1.725
2191.89,677.3,1.719
2197.902,678.3,1.715
2203.91,679.3,1.710
2209.92,680.3,1.703
2215.93,681.3,1.698
2221.92,682.3,1.692
2227.91,683.3,1.687
2233.92,684.3,1.682
2239.93,685.3,1.676
2245.93,686.3,1.672
2251.92,687.3,1.665
2257.926,688.3,1.661
2263.92,689.3,1.655
2269.93,690.3,1.650
2275.93,691.3,1.645
2281.94,692.3,1.640
2287.93,693.3,1.633
2293.91,694.3,1.629
2299.9,695.3,1.624
2305.88,696.3,1.619
2311.86,697.3,1.615
2317.84,698.3,1.609
2323.83,699.3,1.604
2329.82,700.3,1.598
2335.803,701.3,1.594
2341.79,702.3,1.589
2347.791,703.3,1.584
2353.79,704.3,1.579
2359.78,705.3,1.574
2365.78,706.3,1.570
2371.77,707.3,1.565
2377.77,708.3,1.561
2383.75,709.3,1.556
2389.74,710.3,1.551
2395.73,711.3,1.546
2401.72,712.2,1.541
2407.69,713.2,1.537
2413.67,714.2,1.534
2419.66,715.2,1.529
2425.66,716.2,1.525
2431.659,717.2,1.521
2437.66,718.2,1.516
2443.64,719.2,1.510
2449.61,720.2,1.506
2455.57,721.2,1.503
2461.54,722.2,1.499
2467.52,723.2,1.495
2473.51,724.2,1.491
2479.5,725.2,1.487
2485.48,726.2,1.484
2491.44,727.2,1.479
2497.41,728.2,1.476
2503.38,729.2,1.473
2509.35,730.2,1.468
2515.329,731.2,1.464
2521.311,732.2,1.460
2527.3,733.2,1.456
2533.29,734.2,1.454
2539.27,735.2,1.449
2545.24,736.2,1.446
2551.21,737.2,1.443
2557.19,738.2,1.440
2563.16,739.2,1.436
2569.12,740.2,1.433
2575.09,741.2,1.431
2581.07,742.2,1.429
2587.05,743.2,1.425
2593.01,744.2,1.423
2598.99,745.2,1.419
2604.97,746.2,1.415
2610.94,747.2,1.413
2616.93,748.2,1.411
2622.92,749.2,1.408
2628.91,750.2,1.405
2634.91,751.2,1.403
2640.91,752.2,1.399
2646.93,753.2,1.396
2652.94,754.2,1.394
2658.94,755.2,1.390
2664.94,756.2,1.388
2670.93,757.1,1.387
2676.94,758.1,1.384
2682.95,759.1,1.382
2688.96,760.1,1.380
2694.97,761.1,1.377
2700.98,762.1,1.374
2707,763.1,1.371
2713.02,764.1,1.369
2719.04,765.1,1.367
2725.06,766.1,1.366
2731.09,767.1,1.364
2737.12,768.1,1.362
2743.15,769.1,1.359
2749.185,770.1,1.357
2755.22,771.1,1.355
2761.27,772.1,1.353
2767.3,773.1,1.351
2773.34,774.1,1.348
2779.38,775.1,1.345
2785.43,776.1,1.340
2791.48,777.1,1.337
2797.53,778.1,1.333
2803.57,779.1,1.332
2809.61,780.1,1.330
2815.65,781.1,1.328
2821.7,782.1,1.326
2827.75,783.1,1.324
2833.81,784.1,1.322
2839.869,785.1,1.321
2845.93,786.1,1.320
2852,787.1,1.319
2858.07,788.1,1.317
2864.142,789.1,1.317
2870.22,790.1,1.316
2876.292,791.1,1.314
2882.37,792.1,1.313
2888.44,793.1,1.309
2894.5,794.1,1.307
2900.57,795.1,1.305
2906.637,796.1,1.304
2912.7,797.1,1.303
2918.77,798.1,1.302
2924.84,799.1,1.299
2930.91,800.1,1.298
2936.99,801,1.297
2943.07,802,1.295
2949.15,803,1.293
2955.22,804,1.291
2961.29,805,1.289
2967.37,806,1.288
2973.45,807,1.286
2979.52,808,1.285
2985.58,809,1.283
2991.64,810,1.280
2997.69,811,1.279
3003.732,812,1.277
3009.77,813,1.276
3015.82,814,1.275
3021.86,815,1.274
3027.91,816,1.272
3033.95,817,1.270
3039.98,818,1.269
3046.008,819,1.267
3052.05,820,1.266
3058.1,821,1.268
3064.14,822,1.269
3070.158,823,1.262
3076.17,824,1.257
3082.18,825,1.254
3088.188,826,1.253
3094.197,827,1.251
3100.22,828,1.250
3106.24,829,1.248
3112.242,830,1.247
3118.233,831,1.246
3124.23,832,1.244
3130.24,833,1.242
3136.245,834,1.242
3142.24,835,1.240
3148.23,836,1.239
3154.221,837,1.237
3160.218,838,1.236
3166.215,839,1.235
3172.2,840,1.234
3178.197,841,1.234
3184.2,842,1.232
3190.2,843,1.231
3196.185,844,1.230
3202.16,844.9,1.228
3208.14,845.9,1.225
3214.13,846.9,1.222
3220.12,847.9,1.222
3226.09,848.9,1.220
3232.06,849.9,1.221
3238.03,850.9,1.223
3244.01,851.9,1.223
3250,852.9,1.219
3255.98,853.9,1.218
3261.95,854.9,1.217
3267.918,855.9,1.215
3273.88,856.9,1.213
3279.84,857.9,1.212
3285.795,858.9,1.212
3291.77,859.9,1.211
3297.75,860.9,1.210
3303.74,861.9,1.208
3309.73,862.9,1.206
3315.72,863.9,1.204
3321.705,864.9,1.202
3327.693,865.9,1.201
3333.68,866.9,1.199
3339.663,867.9,1.198
3345.64,868.9,1.196
3351.62,869.9,1.194
3357.597,870.9,1.193
3363.567,871.9,1.192
3369.54,872.9,1.186
3375.53,873.9,1.186
3381.5,874.9,1.187
3387.47,875.9,1.187
3393.45,876.9,1.186
3399.43,877.9,1.186
3405.41,878.9,1.184
3411.399,879.9,1.183
3417.39,880.9,1.182
3423.375,881.9,1.181
3429.34,882.9,1.180
3435.31,883.9,1.178
3441.29,884.9,1.177
3447.27,885.9,1.168
3453.26,886.9,1.171
3459.25,887.9,1.171
3465.24,888.9,1.170
3471.22,889.8,1.170
3477.21,890.8,1.169
3483.21,891.8,1.168
3489.21,892.8,1.166
3495.2,893.8,1.165
3501.19,894.8,1.164
3507.19,895.8,1.163
3513.18,896.8,1.162
3519.15,897.8,1.161
3525.13,898.8,1.158
3531.1,899.8,1.158
3537.087,900.8,1.157
3543.08,901.8,1.155
3549.06,902.8,1.153
3555.04,903.8,1.148
3561.01,904.8,1.149
3566.98,905.8,1.151
3572.95,906.8,1.151
3578.93,907.8,1.150
3584.9,908.8,1.150
3590.883,909.8,1.149
3596.87,910.8,1.148
3602.86,911.8,1.146
3608.86,912.8,1.146
3614.85,913.8,1.144
3620.81,914.8,1.143
3626.78,915.8,1.142
3632.76,916.8,1.142
3638.739,917.8,1.142
3644.72,918.8,1.141
3650.69,919.8,1.140
3656.66,920.8,1.139
3662.64,921.8,1.139
3668.62,922.8,1.138
3674.613,923.8,1.137
3680.6,924.8,1.136
3686.57,925.8,1.134
3692.54,926.8,1.134
3698.5,927.8,1.133
3704.47,928.8,1.132
3710.45,929.8,1.131
3716.43,930.8,1.130
3722.41,931.8,1.129
3728.39,932.8,1.129
3734.36,933.7,1.128
3740.34,934.7,1.128
3746.32,935.7,1.127
3752.3,936.7,1.126
3758.29,937.7,1.126
3764.28,938.7,1.126
3770.271,939.7,1.126
3776.25,940.7,1.125
3782.22,941.7,1.124
3788.193,942.7,1.122
3794.17,943.7,1.122
3800.15,944.7,1.121
3806.13,945.7,1.122
3812.11,946.7,1.122
3818.09,947.7,1.121
3824.09,948.7,1.121
3830.09,949.7,1.118
3836.08,950.7,1.117
3842.055,951.7,1.116
3848.03,952.7,1.115
3854.01,953.7,1.114
3859.98,954.7,1.113
3865.96,955.7,1.112
3871.94,956.7,1.111
3877.92,957.7,1.110
3883.91,958.7,1.112
3889.89,959.7,1.112
3895.866,960.7,1.111
3901.839,961.7,1.111
3907.81,962.7,1.109
3913.79,963.7,1.114
3919.75,964.7,1.112
3925.722,965.7,1.107
3931.69,966.7,1.105
3937.68,967.7,1.105
3943.67,968.7,1.104
3949.66,969.7,1.109
3955.66,970.7,1.114
3961.63,971.7,1.112
3967.61,972.7,1.109
3973.593,973.7,1.106
3979.569,974.7,1.105
3985.53,975.7,1.104
3991.49,976.7,1.103
3997.45,977.7,1.101
4003.42,978.6,1.100
4009.398,979.6,1.099
4015.37,980.6,1.100
4021.34,981.6,1.097
4027.3,982.6,1.094
4033.28,983.6,1.092
4039.26,984.6,1.091
4045.257,985.6,1.093
4051.24,986.6,1.094
4057.21,987.6,1.089
4063.17,988.6,1.087
4069.15,989.6,1.086
4075.128,990.6,1.086
4081.11,991.6,1.086
4087.08,992.6,1.086
4093.06,993.6,1.086
4099.04,994.6,1.086
4105.02,995.6,1.086
4110.99,996.6,1.088
4116.97,997.6,1.088
4122.96,998.6,1.088
4128.94,999.6,1.087
4134.92,1000.6,1.086
4140.9,1001.6,1.086
4146.87,1002.6,1.086
4152.84,1003.6,1.085
4158.82,1004.6,1.085
4164.79,1005.6,1.084
4170.77,1006.6,1.083
4176.77,1007.6,1.082
4182.78,1008.6,1.081
4188.78,1009.6,1.081
4194.747,1010.6,1.081
4200.71,1011.6,1.081
4206.66,1012.6,1.080
4212.621,1013.6,1.079
4218.58,1014.6,1.078
4224.53,1015.6,1.080
4230.5,1016.6,1.080
4236.47,1017.6,1.080
4242.44,1018.6,1.080
4248.42,1019.6,1.079
4254.4,1020.6,1.079
4260.38,1021.6,1.078
4266.36,1022.5,1.078
4272.35,1023.5,1.077
4278.34,1024.5,1.076
4284.32,1025.5,1.076
4290.31,1026.5,1.076
4296.29,1027.5,1.075
4302.279,1028.5,1.074
4308.25,1029.5,1.073
4314.23,1030.5,1.072
4320.21,1031.5,1.071
4326.21,1032.5,1.070
4332.189,1033.5,1.069
4338.17,1034.5,1.068
4344.15,1035.5,1.059
4350.13,1036.5,1.063
4356.11,1037.5,1.065
4362.09,1038.5,1.065
4368.07,1039.5,1.066
4374.06,1040.5,1.065
4380.05,1041.5,1.065
4386.02,1042.5,1.064
4391.997,1043.5,1.064
4397.96,1044.5,1.063
4403.92,1045.5,1.063
4409.89,1046.5,1.063
4415.859,1047.5,1.061
4421.835,1048.5,1.060
4427.82,1049.5,1.060
4433.81,1050.5,1.060
4439.8,1051.5,1.059
4445.78,1052.5,1.059
4451.74,1053.5,1.058
4457.715,1054.5,1.058
4463.69,1055.5,1.057
4469.66,1056.5,1.058
4475.64,1057.5,1.058
4481.62,1058.5,1.057
4487.6,1059.5,1.057
4493.58,1060.5,1.056
4499.55,1061.5,1.055
4505.51,1062.5,1.055
4511.47,1063.5,1.055
4517.45,1064.5,1.046
4523.42,1065.5,1.048
4529.4,1066.4,1.052
4535.4,1067.4,1.052
4541.38,1068.4,1.053
4547.37,1069.4,1.053
4553.34,1070.4,1.052
4556.35,1070.9,1.052