File: Wood/Calibration_Data/Aalto/Aalto_Wood_STA_N2_10K_R1.csv
Time (s),Temperature (K),Mass (mg)
0,313.15,7.427
54.5988,314.148,7.41955
71.3202,315.1455,7.42069
84.0258,316.143,7.421
94.8354,317.141,7.42233
104.6142,318.139,7.42292
113.7846,319.136,7.42016
122.475,320.134,7.41934
130.8378,321.132,7.41902
138.9312,322.13,7.41865
146.79,323.127,7.4174
154.488,324.125,7.41825
162.0252,325.123,7.4189
169.3746,326.121,7.41714
176.5554,327.118,7.41742
183.6252,328.116,7.4166
190.6002,329.114,7.4156
197.4492,330.112,7.41453
204.1512,331.109,7.41319
210.7134,332.107,7.41282
217.1364,333.105,7.4116
223.4418,334.103,7.41002
229.638,335.1,7.40847
235.7016,336.0982,7.40739
241.6422,337.096,7.40654
247.4826,338.0937,7.40439
253.2444,339.091,7.40325
258.9354,340.0892,7.402
264.579,341.087,7.40066
270.1812,342.085,7.39967
275.7276,343.082,7.39836
281.211,344.08,7.39673
286.6308,345.078,7.39488
291.9924,346.076,7.39428
297.3108,347.073,7.39302
302.5956,348.071,7.39177
307.8636,349.069,7.39057
313.104,350.067,7.38884
318.3288,351.064,7.38697
323.5194,352.062,7.38497
328.6818,353.06,7.38356
333.8106,354.058,7.38246
338.9196,355.055,7.38151
344.01,356.053,7.38106
349.0788,357.051,7.38026
354.1296,358.049,7.37949
359.1594,359.046,7.3791
364.1646,360.044,7.37842
369.1512,361.0419,7.37758
374.1234,362.04,7.37722
379.0884,363.0374,7.37627
384.042,364.035,7.3755
388.9854,365.0329,7.37519
393.924,366.031,7.37254
398.8488,367.028,7.37066
403.767,368.026,7.36925
408.6792,369.024,7.36908
413.5926,370.022,7.36885
418.5036,371.019,7.36814
423.4116,372.017,7.36741
428.3232,373.015,7.36641
433.2342,374.013,7.3655
438.141,375.01,7.36509
443.0424,376.008,7.36441
447.9474,377.006,7.36384
452.8662,378.004,7.36349
457.7982,379.001,7.3637
462.7428,379.999,7.36344
467.6934,380.997,7.36302
472.6506,381.995,7.363
477.609,382.992,7.36323
482.5794,383.99,7.36357
487.5582,384.988,7.36385
492.549,385.9856,7.36252
497.5446,386.983,7.36153
502.5492,387.9811,7.3612
507.5556,388.979,7.3601
512.5632,389.9766,7.36014
517.572,390.974,7.36072
522.5904,391.972,7.36104
527.6226,392.97,7.36131
532.6614,393.968,7.36109
537.7008,394.965,7.36082
542.7378,395.963,7.36051
547.7832,396.961,7.36032
552.8496,397.959,7.36038
557.9328,398.956,7.36021
563.0166,399.954,7.35892
568.0968,400.952,7.35853
573.1794,401.95,7.35902
578.2686,402.947,7.35941
583.3602,403.945,7.35911
588.45,404.943,7.35863
593.5542,405.941,7.35795
598.6752,406.938,7.35742
603.8214,407.936,7.35728
608.9736,408.934,7.3569
614.1366,409.932,7.35662
619.3002,410.9293,7.35666
624.4722,411.927,7.35662
629.6544,412.9248,7.35574
634.8558,413.923,7.35395
640.0656,414.9203,7.35382
645.2754,415.918,7.35462
650.487,416.916,7.35499
655.7208,417.914,7.35475
660.9768,418.911,7.35387
666.246,419.909,7.35307
671.5236,420.907,7.35264
676.8132,421.905,7.35218
682.113,422.902,7.35188
687.426,423.9,7.35189
692.7492,424.898,7.35162
698.0856,425.896,7.35133
703.4244,426.893,7.35101
708.7782,427.891,7.35068
714.1494,428.889,7.35007
719.544,429.887,7.34944
724.959,430.884,7.34908
730.392,431.882,7.3486
735.84,432.88,7.34811
741.2802,433.878,7.34769
746.7186,434.875,7.34763
752.1582,435.873,7.34663
757.6302,436.871,7.34598
763.134,437.8685,7.34511
768.6618,438.866,7.34368
774.1878,439.864,7.34257
779.7252,440.862,7.34173
785.28,441.859,7.34143
790.857,442.857,7.34103
796.4346,443.855,7.34028
802.0146,444.853,7.33841
807.5988,445.85,7.33717
813.1932,446.848,7.33628
818.802,447.846,7.33554
824.4306,448.844,7.33446
830.061,449.841,7.3326
835.7028,450.839,7.33122
841.3398,451.837,7.32957
846.9864,452.835,7.32781
852.6372,453.832,7.32583
858.297,454.83,7.32397
863.9676,455.828,7.32211
869.6538,456.826,7.32055
875.3556,457.823,7.31993
881.079,458.821,7.31829
886.8114,459.819,7.31525
892.5444,460.8167,7.31273
898.2798,461.814,7.31101
904.0248,462.8122,7.30876
909.7758,463.81,7.30533
915.5274,464.8077,7.3032
921.2856,465.805,7.30066
927.0504,466.803,7.29757
932.832,467.801,7.29361
938.6208,468.799,7.29072
944.4192,469.796,7.28771
950.214,470.794,7.28437
956.0088,471.792,7.28108
961.8072,472.79,7.27778
967.623,473.787,7.27369
973.449,474.785,7.26934
979.2804,475.783,7.2662
985.1208,476.781,7.26233
990.9702,477.778,7.2587
996.8298,478.776,7.25505
1002.69,479.774,7.24992
1008.55,480.772,7.2462
1014.41,481.769,7.24229
1020.28,482.767,7.23769
1026.16,483.765,7.23313
1032.048,484.763,7.22756
1037.94,485.7604,7.22323
1043.838,486.758,7.21975
1049.751,487.7559,7.21602
1055.667,488.754,7.20958
1061.58,489.7514,7.2052
1067.49,490.749,7.20105
1073.41,491.747,7.19634
1079.34,492.745,7.19139
1085.28,493.742,7.18709
1091.21,494.74,7.1823
1097.13,495.738,7.17712
1103.07,496.736,7.17243
1109.01,497.733,7.16733
1114.971,498.731,7.16335
1120.92,499.729,7.16499
1126.88,500.727,7.15367
1132.854,501.724,7.14401
1138.83,502.722,7.13923
1144.82,503.72,7.14278
1150.79,504.718,7.12742
1156.75,505.715,7.119
1162.72,506.713,7.11433
1168.683,507.711,7.107
1174.65,508.709,7.10127
1180.62,509.706,7.09633
1186.6,510.7041,7.08939
1192.59,511.702,7.08244
1198.58,512.6996,7.07597
1204.57,513.697,7.06791
1210.57,514.6951,7.05967
1216.59,515.693,7.05108
1222.599,516.691,7.04285
1228.59,517.688,7.03336
1234.58,518.686,7.02533
1240.57,519.684,7.01716
1246.58,520.682,7.00792
1252.58,521.679,6.99917
1258.59,522.677,6.98882
1264.6,523.675,6.97854
1270.6,524.673,6.96793
1276.6,525.67,6.95755
1282.61,526.668,6.94587
1288.63,527.666,6.93562
1294.65,528.664,6.92408
1300.66,529.661,6.91246
1306.67,530.659,6.90145
1312.68,531.657,6.89007
1318.7,532.655,6.87783
1324.73,533.652,6.86375
1330.74,534.65,6.85049
1336.75,535.6478,6.8371
1342.77,536.646,6.82255
1348.78,537.6433,6.81035
1354.79,538.641,6.79715
1360.8,539.6388,6.78144
1366.8,540.637,6.76561
1372.8,541.634,6.75164
1378.81,542.632,6.73624
1384.83,543.63,6.72141
1390.85,544.628,6.70733
1396.88,545.625,6.6892
1402.9,546.623,6.66947
1408.91,547.621,6.65437
1414.91,548.619,6.63691
1420.91,549.616,6.61751
1426.92,550.614,6.60097
1432.95,551.612,6.58175
1438.99,552.61,6.56573
1445.01,553.607,6.54666
1451.03,554.605,6.52724
1457.06,555.603,6.51109
1463.1,556.601,6.48814
1469.127,557.598,6.46764
1475.15,558.596,6.44906
1481.17,559.594,6.42576
1487.18,560.5915,6.40377
1493.2,561.589,6.38276
1499.25,562.587,6.36018
1505.29,563.585,6.3381
1511.33,564.5825,6.31515
1517.35,565.58,6.29814
1523.37,566.578,6.26258
1529.38,567.576,6.23333
1535.4,568.573,6.21381
1541.43,569.571,6.19088
1547.48,570.569,6.16658
1553.517,571.567,6.14112
1559.55,572.564,6.11664
1565.58,573.562,6.08912
1571.6,574.56,6.06282
1577.65,575.558,6.03474
1583.69,576.555,5.99562
1589.727,577.553,5.97268
1595.74,578.551,5.94756
1601.76,579.549,5.91441
1607.799,580.546,5.88193
1613.83,581.544,5.85168
1619.86,582.542,5.82057
1625.89,583.54,5.7893
1631.91,584.537,5.75685
1637.94,585.5352,5.7205
1643.96,586.533,5.6896
1649.99,587.5307,5.65709
1656.01,588.528,5.61733
1662.024,589.5262,5.58155
1668.04,590.524,5.5452
1674.04,591.522,5.50724
1680.06,592.519,5.47112
1686.08,593.517,5.4339
1692.11,594.515,5.39342
1698.147,595.513,5.35565
1704.19,596.51,5.31596
1710.21,597.508,5.2754
1716.23,598.506,5.23397
1722.252,599.504,5.19556
1728.28,600.501,5.15271
1734.32,601.499,5.11229
1740.36,602.497,5.06836
1746.4,603.495,5.02294
1752.43,604.492,4.98013
1758.46,605.49,4.93541
1764.5,606.488,4.89106
1770.53,607.486,4.84616
1776.573,608.483,4.80169
1782.61,609.481,4.75284
1788.64,610.4789,4.70756
1794.66,611.477,4.66035
1800.687,612.4744,4.61055
1806.71,613.472,4.56491
1812.73,614.4699,4.51659
1818.756,615.468,4.46549
1824.79,616.465,4.41695
1830.83,617.463,4.36358
1836.85,618.461,4.31305
1842.88,619.459,4.26168
1848.89,620.456,4.20785
1854.915,621.454,4.15428
1860.95,622.452,4.09999
1866.98,623.45,4.04553
1873.01,624.447,3.98784
1879.035,625.445,3.92872
1885.06,626.443,3.87249
1891.1,627.441,3.81485
1897.116,628.438,3.75185
1903.13,629.436,3.69011
1909.18,630.434,3.62747
1915.23,631.432,3.56492
1921.29,632.429,3.49832
1927.32,633.427,3.42937
1933.347,634.425,3.36217
1939.37,635.4226,3.29284
1945.39,636.42,3.22284
1951.41,637.4181,3.15136
1957.45,638.416,3.07904
1963.49,639.4136,3.00695
1969.53,640.411,2.9338
1975.563,641.409,2.85904
1981.59,642.407,2.78676
1987.614,643.405,2.71174
1993.64,644.402,2.63669
1999.68,645.4,2.56694
2005.71,646.398,2.49365
2011.74,647.396,2.42406
2017.76,648.393,2.35797
2023.78,649.391,2.29215
2029.81,650.389,2.22966
2035.83,651.387,2.1725
2041.84,652.384,2.11719
2047.842,653.382,2.0671
2053.84,654.38,2.02215
2059.84,655.378,1.98089
2065.85,656.375,1.94439
2071.842,657.373,1.91859
2077.836,658.371,1.89522
2083.83,659.369,1.87071
2089.82,660.3663,1.84993
2095.8,661.364,1.83434
2101.78,662.3618,1.82276
2107.76,663.36,1.81388
2113.76,664.3573,1.80483
2119.761,665.355,1.79726
2125.755,666.353,1.78986
2131.76,667.351,1.7822
2137.77,668.348,1.77507
2143.79,669.346,1.77024
2149.81,670.344,1.76341
2155.82,671.342,1.75647
2161.82,672.339,1.75042
2167.83,673.337,1.74306
2173.85,674.335,1.73669
2179.86,675.333,1.73068
2185.88,676.33,1.72464
2191.89,677.328,1.71896
2197.902,678.326,1.71478
2203.91,679.324,1.70957
2209.92,680.321,1.70334
2215.93,681.319,1.69846
2221.92,682.317,1.69237
2227.91,683.315,1.68698
2233.92,684.312,1.68226
2239.93,685.31,1.6763
2245.93,686.308,1.67214
2251.92,687.3055,1.66489
2257.926,688.303,1.66059
2263.92,689.301,1.65527
2269.93,690.299,1.65023
2275.93,691.296,1.64531
2281.94,692.294,1.64036
2287.93,693.292,1.63344
2293.91,694.29,1.62864
2299.9,695.287,1.62404
2305.88,696.285,1.61882
2311.86,697.283,1.6146
2317.84,698.281,1.60893
2323.83,699.278,1.60441
2329.82,700.276,1.59828
2335.803,701.274,1.59407
2341.79,702.272,1.58877
2347.791,703.269,1.58432
2353.79,704.267,1.57883
2359.78,705.265,1.574
2365.78,706.263,1.56953
2371.77,707.26,1.56487
2377.77,708.258,1.56067
2383.75,709.256,1.55587
2389.74,710.2537,1.55142
2395.73,711.251,1.54639
2401.72,712.2492,1.54107
2407.69,713.247,1.53736
2413.67,714.2447,1.53354
2419.66,715.242,1.52908
2425.66,716.24,1.52462
2431.659,717.238,1.52105
2437.66,718.236,1.51614
2443.64,719.233,1.51045
2449.61,720.231,1.50592
2455.57,721.229,1.50341
2461.54,722.227,1.49864
2467.52,723.224,1.49462
2473.51,724.222,1.49088
2479.5,725.22,1.48658
2485.48,726.218,1.48367
2491.44,727.215,1.47941
2497.41,728.213,1.47552
2503.38,729.211,1.47269
2509.35,730.209,1.46811
2515.329,731.206,1.46401
2521.311,732.204,1.46046
2527.3,733.202,1.45642
2533.29,734.2,1.45403
2539.27,735.1974,1.44902
2545.24,736.195,1.44559
2551.21,737.1929,1.44255
2557.19,738.191,1.43993
2563.16,739.1884,1.43605
2569.12,740.186,1.43332
2575.09,741.184,1.4313
2581.07,742.182,1.4288
2587.05,743.179,1.4254
2593.01,744.177,1.42253
2598.99,745.175,1.41882
2604.97,746.173,1.41546
2610.94,747.17,1.41299
2616.93,748.168,1.41081
2622.92,749.166,1.40834
2628.91,750.164,1.40479
2634.91,751.161,1.40277
2640.91,752.159,1.39902
2646.93,753.157,1.3962
2652.94,754.155,1.39396
2658.94,755.152,1.3904
2664.94,756.15,1.38848
2670.93,757.148,1.38659
2676.94,758.146,1.38429
2682.95,759.143,1.3823
2688.96,760.1411,1.37993
2694.97,761.139,1.37697
2700.98,762.1366,1.37389
2707,763.134,1.37129
2713.02,764.1321,1.36915
2719.04,765.13,1.36683
2725.06,766.128,1.36556
2731.09,767.125,1.36436
2737.12,768.123,1.36213
2743.15,769.121,1.35948
2749.185,770.119,1.35689
2755.22,771.116,1.35513
2761.27,772.114,1.35335
2767.3,773.112,1.35056
2773.34,774.11,1.34805
2779.38,775.107,1.3447
2785.43,776.105,1.34
2791.48,777.103,1.33677
2797.53,778.101,1.33345
2803.57,779.098,1.33221
2809.61,780.096,1.33036
2815.65,781.094,1.32819
2821.7,782.092,1.32611
2827.75,783.089,1.32394
2833.81,784.087,1.32191
2839.869,785.0848,1.32144
2845.93,786.083,1.32022
2852,787.0803,1.31883
2858.07,788.078,1.31723
2864.142,789.0758,1.3169
2870.22,790.074,1.31556
2876.292,791.071,1.31428
2882.37,792.069,1.31297
2888.44,793.067,1.30938
2894.5,794.065,1.30709
2900.57,795.062,1.30522
2906.637,796.06,1.30442
2912.7,797.058,1.30326
2918.77,798.056,1.30182
2924.84,799.053,1.29891
2930.91,800.051,1.29793
2936.99,801.049,1.2968
2943.07,802.047,1.29548
2949.15,803.044,1.29346
2955.22,804.042,1.29101
2961.29,805.04,1.28945
2967.37,806.038,1.28839
2973.45,807.035,1.28635
2979.52,808.033,1.28458
2985.58,809.031,1.2827
2991.64,810.0285,1.27997
2997.69,811.026,1.27862
3003.732,812.024,1.27725
3009.77,813.022,1.27593
3015.82,814.0195,1.2747
3021.86,815.017,1.27352
3027.91,816.015,1.2721
3033.95,817.013,1.27046
3039.98,818.01,1.26906
3046.008,819.008,1.26727
3052.05,820.006,1.2656
3058.1,821.004,1.26767
3064.14,822.001,1.26854
3070.158,822.999,1.26184
3076.17,823.997,1.25672
3082.18,824.995,1.25442
3088.188,825.992,1.25259
3094.197,826.99,1.25104
3100.22,827.988,1.24991
3106.24,828.986,1.248
3112.242,829.983,1.24651
3118.233,830.981,1.24557
3124.23,831.979,1.24374
3130.24,832.977,1.24244
3136.245,833.974,1.24208
3142.24,834.9722,1.24025
3148.23,835.97,1.23866
3154.221,836.9677,1.23725
3160.218,837.965,1.23625
3166.215,838.9632,1.23471
3172.2,839.961,1.23398
3178.197,840.959,1.23351
3184.2,841.956,1.23197
3190.2,842.954,1.2315
3196.185,843.952,1.22955
3202.16,844.95,1.22801
3208.14,845.947,1.22477
3214.13,846.945,1.22179
3220.12,847.943,1.22239
3226.09,848.941,1.21989
3232.06,849.938,1.22139
3238.03,850.936,1.22276
3244.01,851.934,1.22274
3250,852.932,1.21897
3255.98,853.929,1.21832
3261.95,854.927,1.21703
3267.918,855.925,1.21523
3273.88,856.923,1.2133
3279.84,857.92,1.2124
3285.795,858.918,1.21211
3291.77,859.9159,1.21119
3297.75,860.914,1.21048
3303.74,861.9114,1.20847
3309.73,862.909,1.20592
3315.72,863.9069,1.20417
3321.705,864.905,1.20246
3327.693,865.902,1.20066
3333.68,866.9,1.19917
3339.663,867.898,1.19836
3345.64,868.896,1.19551
3351.62,869.893,1.19426
3357.597,870.891,1.19283
3363.567,871.889,1.19204
3369.54,872.887,1.18595
3375.53,873.884,1.18622
3381.5,874.882,1.18718
3387.47,875.88,1.18695
3393.45,876.878,1.1862
3399.43,877.875,1.186
3405.41,878.873,1.18422
3411.399,879.871,1.18302
3417.39,880.869,1.18172
3423.375,881.866,1.18053
3429.34,882.864,1.17953
3435.31,883.862,1.17844
3441.29,884.8596,1.1769
3447.27,885.857,1.16822
3453.26,886.8551,1.17094
3459.25,887.853,1.17076
3465.24,888.8506,1.17019
3471.22,889.848,1.16997
3477.21,890.846,1.16919
3483.21,891.844,1.16762
3489.21,892.842,1.16577
3495.2,893.839,1.16517
3501.19,894.837,1.16406
3507.19,895.835,1.16286
3513.18,896.833,1.16167
3519.15,897.83,1.16056
3525.13,898.828,1.15847
3531.1,899.826,1.1579
3537.087,900.824,1.15728
3543.08,901.821,1.15516
3549.06,902.819,1.1531
3555.04,903.817,1.14826
3561.01,904.815,1.14901
3566.98,905.812,1.15119
3572.95,906.81,1.15091
3578.93,907.808,1.15041
3584.9,908.806,1.14991
3590.883,909.8033,1.14922
3596.87,910.801,1.14774
3602.86,911.7988,1.14643
3608.86,912.797,1.14554
3614.85,913.7943,1.14361
3620.81,914.792,1.14344
3626.78,915.79,1.14201
3632.76,916.788,1.14237
3638.739,917.785,1.14233
3644.72,918.783,1.14107
3650.69,919.781,1.13964
3656.66,920.779,1.13932
3662.64,921.776,1.13857
3668.62,922.774,1.13755
3674.613,923.772,1.13664
3680.6,924.77,1.13559
3686.57,925.767,1.13429
3692.54,926.765,1.1339
3698.5,927.763,1.13337
3704.47,928.761,1.13234
3710.45,929.758,1.13099
3716.43,930.756,1.13004
3722.41,931.754,1.12949
3728.39,932.752,1.12869
3734.36,933.749,1.12792
3740.34,934.747,1.12784
3746.32,935.745,1.12736
3752.3,936.7425,1.12643
3758.29,937.74,1.12568
3764.28,938.738,1.12578
3770.271,939.736,1.12569
3776.25,940.733,1.12468
3782.22,941.731,1.12377
3788.193,942.729,1.12199
3794.17,943.727,1.12168
3800.15,944.724,1.12138
3806.13,945.722,1.12174
3812.11,946.72,1.12196
3818.09,947.718,1.12124
3824.09,948.715,1.12056
3830.09,949.713,1.11828
3836.08,950.711,1.11732
3842.055,951.709,1.11628
3848.03,952.706,1.11476
3854.01,953.704,1.1135
3859.98,954.702,1.11256
3865.96,955.7,1.11193
3871.94,956.697,1.11127
3877.92,957.695,1.11049
3883.91,958.693,1.11179
3889.89,959.6907,1.11171
3895.866,960.688,1.11146
3901.839,961.6862,1.11053
3907.81,962.684,1.10931
3913.79,963.6817,1.11357
3919.75,964.679,1.11168
3925.722,965.677,1.10678
3931.69,966.675,1.10533
3937.68,967.673,1.1051
3943.67,968.67,1.10383
3949.66,969.668,1.10926
3955.66,970.666,1.114
3961.63,971.664,1.11155
3967.61,972.661,1.10864
3973.593,973.659,1.10647
3979.569,974.657,1.1047
3985.53,975.655,1.10364
3991.49,976.652,1.10285
3997.45,977.65,1.10108
4003.42,978.648,1.09959
4009.398,979.646,1.09861
4015.37,980.643,1.09999
4021.34,981.641,1.09747
4027.3,982.639,1.09425
4033.28,983.637,1.09192
4039.26,984.6344,1.09089
4045.257,985.632,1.09335
4051.24,986.6299,1.09352
4057.21,987.628,1.08874
4063.17,988.6254,1.08707
4069.15,989.623,1.08614
4075.128,990.621,1.08614
4081.11,991.619,1.08619
4087.08,992.616,1.08631
4093.06,993.614,1.08633
4099.04,994.612,1.08639
4105.02,995.61,1.08646
4110.99,996.607,1.08756
4116.97,997.605,1.08804
4122.96,998.603,1.08761
4128.94,999.601,1.08681
4134.92,1000.6,1.08631
4140.9,1001.6,1.08603
4146.87,1002.59,1.08599
4152.84,1003.59,1.08529
4158.82,1004.59,1.08474
4164.79,1005.59,1.08425
4170.77,1006.58,1.08331
4176.77,1007.58,1.08206
4182.78,1008.58,1.08138
4188.78,1009.58,1.0814
4194.747,1010.58,1.08123
4200.71,1011.57,1.08074
4206.66,1012.57,1.07992
4212.621,1013.57,1.07863
4218.58,1014.57,1.07805
4224.53,1015.56,1.07968
4230.5,1016.56,1.08034
4236.47,1017.56,1.08036
4242.44,1018.56,1.07975
4248.42,1019.56,1.07937
4254.4,1020.55,1.07877
4260.38,1021.55,1.07826
4266.36,1022.55,1.07766
4272.35,1023.55,1.07707
4278.34,1024.54,1.07647
4284.32,1025.54,1.07588
4290.31,1026.54,1.07569
4296.29,1027.54,1.07506
4302.279,1028.54,1.07404
4308.25,1029.53,1.07285
4314.23,1030.53,1.07187
4320.21,1031.53,1.07097
4326.21,1032.53,1.07008
4332.189,1033.52,1.06936
4338.17,1034.52,1.0681
4344.15,1035.52,1.05873
4350.13,1036.52,1.06262
4356.11,1037.52,1.06471
4362.09,1038.51,1.06531
4368.07,1039.51,1.0656
4374.06,1040.51,1.0654
4380.05,1041.51,1.0652
4386.02,1042.5,1.0644
4391.997,1043.5,1.0635
4397.96,1044.5,1.0634
4403.92,1045.5,1.06331
4409.89,1046.49,1.06292
4415.859,1047.49,1.06133
4421.835,1048.49,1.06022
4427.82,1049.49,1.0599
4433.81,1050.49,1.05981
4439.8,1051.48,1.05942
4445.78,1052.48,1.05894
4451.74,1053.48,1.05772
4457.715,1054.48,1.05772
4463.69,1055.47,1.05731
4469.66,1056.47,1.05759
4475.64,1057.47,1.05752
4481.62,1058.47,1.05713
4487.6,1059.47,1.05656
4493.58,1060.46,1.05554
4499.55,1061.461,1.05494
4505.51,1062.46,1.05454
4511.47,1063.46,1.05472
4517.45,1064.45,1.04627
4523.42,1065.45,1.0481
4529.4,1066.45,1.05156
4535.4,1067.45,1.052
4541.38,1068.45,1.05279
4547.37,1069.44,1.05282
4553.34,1070.44,1.05229
4556.35,1070.94,1.05216