File: Wood/Calibration_Data/Aalto/Aalto_ExpDat_mcfp_STA_10N2800Trial01-1.csv
##Temp./›C,Time/min,DSC/(uV/mg),Mass/%,Gas Flow(purge2)/(ml/min),Gas Flow(protective)/(ml/min),DTG/(%/min),Sensit./(uV/mW)
40,0,-4.31E-03,100,0.00E+00,70,-0.81372,1
40.99775,0.90998,-1.66E-02,99.89968,0.00E+00,70,3.11E-02,1
41.9955,1.18867,-2.38E-02,99.91499,0.00E+00,70,2.68E-02,1
42.99324,1.40043,-2.77E-02,99.91916,0.00E+00,70,2.27E-02,1
43.99099,1.58059,-3.01E-02,99.93717,0.00E+00,70,-7.10E-03,1
44.98874,1.74357,-3.05E-02,99.94502,0.00E+00,70,-4.68E-02,1
45.98649,1.89641,-2.96E-02,99.90785,0.00E+00,70,-7.10E-02,1
46.98424,2.04125,-2.94E-02,99.89683,0.00E+00,70,-7.18E-02,1
47.98198,2.18063,-2.68E-02,99.89255,0.00E+00,70,-5.76E-02,1
48.97973,2.31552,-2.53E-02,99.88758,0.00E+00,70,-3.80E-02,1
49.97748,2.4465,-2.34E-02,99.87074,0.00E+00,70,-2.17E-02,1
50.97523,2.5748,-2.14E-02,99.88216,0.00E+00,70,-1.76E-02,1
51.97298,2.70042,-2.11E-02,99.89099,0.00E+00,70,-2.85E-02,1
52.97072,2.82291,-2.10E-02,99.86719,0.00E+00,70,-4.89E-02,1
53.96847,2.94259,-2.15E-02,99.87097,0.00E+00,70,-7.11E-02,1
54.96622,3.06042,-2.20E-02,99.85995,0.00E+00,70,-9.09E-02,1
55.96397,3.17667,-2.34E-02,99.84646,0.00E+00,70,-0.10649,1
56.96172,3.29082,-2.57E-02,99.83211,0.00E+00,70,-0.11842,1
57.95946,3.40252,-2.70E-02,99.81402,0.00E+00,70,-0.12904,1
58.95721,3.51189,-2.93E-02,99.8091,0.00E+00,70,-0.14059,1
59.95496,3.61894,-3.29E-02,99.79267,0.00E+00,70,-0.15279,1
60.95271,3.72403,-3.52E-02,99.77133,0.00E+00,70,-0.16361,1
61.95046,3.8273,-3.79E-02,99.75047,0.00E+00,70,-0.17172,1
62.9482,3.92836,-4.16E-02,99.73595,0.00E+00,70,-0.17738,1
63.94595,4.02737,-4.56E-02,99.72446,0.00E+00,70,-0.18131,1
64.9437,4.12471,-4.80E-02,99.69559,0.00E+00,70,-0.18382,1
65.94145,4.22074,-5.14E-02,99.68026,0.00E+00,70,-0.18524,1
66.9392,4.31559,-5.48E-02,99.66338,0.00E+00,70,-0.18648,1
67.93694,4.40965,-5.96E-02,99.64538,0.00E+00,70,-0.18854,1
68.93469,4.50302,-6.26E-02,99.63201,0.00E+00,70,-0.19145,1
69.93244,4.59546,-6.65E-02,99.61438,0.00E+00,70,-0.19422,1
70.93019,4.68685,-7.07E-02,99.59237,0.00E+00,70,-0.19598,1
71.92794,4.77718,-7.38E-02,99.56752,0.00E+00,70,-0.19726,1
72.92568,4.86654,-7.87E-02,99.55942,0.00E+00,70,-0.19987,1
73.92343,4.95518,-8.16E-02,99.54247,0.00E+00,70,-0.20542,1
74.92118,5.04326,-8.61E-02,99.52568,0.00E+00,70,-0.21374,1
75.91893,5.13106,-9.07E-02,99.50947,0.00E+00,70,-0.22232,1
76.91668,5.2184,-9.44E-02,99.48614,0.00E+00,70,-0.22712,1
77.91442,5.30548,-9.93E-02,99.46103,0.00E+00,70,-0.22461,1
78.91217,5.39199,-0.10475,99.43405,0.00E+00,70,-0.21349,1
79.90992,5.47803,-0.1103,99.41509,0.00E+00,70,-0.19532,1
80.90767,5.56351,-0.11534,99.40023,0.00E+00,70,-0.17369,1
81.90542,5.64866,-0.12233,99.38752,0.00E+00,70,-0.15252,1
82.90316,5.7335,-0.1274,99.38147,0.00E+00,70,-0.13486,1
83.90091,5.81798,-0.13378,99.37066,0.00E+00,70,-0.12226,1
84.89866,5.90216,-0.14015,99.36024,0.00E+00,70,-0.11506,1
85.89641,5.98599,-0.14902,99.35505,0.00E+00,70,-0.11304,1
86.89416,6.06941,-0.15621,99.34588,0.00E+00,70,-0.11602,1
87.8919,6.15252,-0.16346,99.33463,0.00E+00,70,-0.12395,1
88.88965,6.23539,-0.1712,99.32974,0.00E+00,70,-0.13649,1
89.8874,6.31814,-0.17936,99.3169,0.00E+00,70,-0.15219,1
90.88515,6.4007,-0.18703,99.30653,0.00E+00,70,-0.16789,1
91.8829,6.48309,-0.19591,99.30242,0.00E+00,70,-0.17926,1
92.88064,6.5654,-0.20398,99.26672,0.00E+00,70,-0.18255,1
93.87839,6.64748,-0.21218,99.24148,0.00E+00,70,-0.17654,1
94.87614,6.72945,-0.22164,99.22249,0.00E+00,70,-0.16349,1
95.87389,6.81132,-0.22955,99.22011,0.00E+00,70,-0.1479,1
96.87164,6.89321,-0.23893,99.21703,0.00E+00,70,-0.13405,1
97.86938,6.97506,-0.24838,99.20746,0.00E+00,70,-0.12397,1
98.86713,7.05686,-0.25503,99.1976,0.00E+00,70,-0.11693,1
99.86488,7.13872,-0.26471,99.18425,0.00E+00,70,-0.11057,1
100.863,7.22057,-0.27243,99.17191,0.00E+00,70,-0.10261,1
101.86,7.30235,-0.28069,99.16637,0.00E+00,70,-9.20E-02,1
102.858,7.38404,-0.28965,99.15725,0.00E+00,70,-7.91E-02,1
103.856,7.46579,-0.29809,99.14959,0.00E+00,70,-6.49E-02,1
104.854,7.54777,-0.3061,99.14484,0.00E+00,70,-5.10E-02,1
105.851,7.62997,-0.31365,99.14774,0.00E+00,70,-3.85E-02,1
106.849,7.71238,-0.32137,99.14423,0.00E+00,70,-2.86E-02,1
107.847,7.79489,-0.32883,99.13851,0.00E+00,70,-2.27E-02,1
108.845,7.87751,-0.33653,99.13827,0.00E+00,70,-2.23E-02,1
109.842,7.96015,-0.34459,99.14138,0.00E+00,70,-2.80E-02,1
110.84,8.04299,-0.3511,99.14598,0.00E+00,70,-3.89E-02,1
111.838,8.12597,-0.35776,99.14968,0.00E+00,70,-5.14E-02,1
112.8356,8.20915,-0.36521,99.13178,0.00E+00,70,-6.06E-02,1
113.833,8.29241,-0.37264,99.11851,0.00E+00,70,-6.24E-02,1
114.8311,8.37582,-0.37889,99.11403,0.00E+00,70,-5.50E-02,1
115.829,8.45926,-0.38734,99.09923,0.00E+00,70,-4.09E-02,1
116.8266,8.54272,-0.39431,99.09972,0.00E+00,70,-2.48E-02,1
117.824,8.6262,-0.40003,99.10757,0.00E+00,70,-1.21E-02,1
118.822,8.70984,-0.40759,99.11189,0.00E+00,70,-6.03E-03,1
119.82,8.79371,-0.41293,99.11549,0.00E+00,70,-7.01E-03,1
120.818,8.87769,-0.41924,99.11261,0.00E+00,70,-1.31E-02,1
121.815,8.96168,-0.42633,99.10898,0.00E+00,70,-2.16E-02,1
122.813,9.04563,-0.43318,99.10469,0.00E+00,70,-3.00E-02,1
123.811,9.12972,-0.43977,99.10215,0.00E+00,70,-3.67E-02,1
124.809,9.21416,-0.44624,99.10301,0.00E+00,70,-4.05E-02,1
125.806,9.29888,-0.45281,99.10074,0.00E+00,70,-4.10E-02,1
126.804,9.38361,-0.45964,99.08339,0.00E+00,70,-3.85E-02,1
127.802,9.46828,-0.4673,99.07804,0.00E+00,70,-3.53E-02,1
128.8,9.55299,-0.47318,99.08467,0.00E+00,70,-3.39E-02,1
129.797,9.63781,-0.47976,99.0899,0.00E+00,70,-3.59E-02,1
130.795,9.72267,-0.48587,99.08585,0.00E+00,70,-4.09E-02,1
131.793,9.8075,-0.4929,99.07942,0.00E+00,70,-4.68E-02,1
132.791,9.89257,-0.49915,99.07027,0.00E+00,70,-5.10E-02,1
133.788,9.97792,-0.50493,99.06316,0.00E+00,70,-5.26E-02,1
134.786,10.06369,-0.51186,99.06128,0.00E+00,70,-5.27E-02,1
135.784,10.14956,-0.51822,99.05618,0.00E+00,70,-5.31E-02,1
136.782,10.23561,-0.5252,99.0524,0.00E+00,70,-5.54E-02,1
137.7793,10.32167,-0.53063,99.05289,0.00E+00,70,-5.90E-02,1
138.777,10.40787,-0.53644,99.05231,0.00E+00,70,-6.13E-02,1
139.7748,10.49424,-0.54357,99.04054,0.00E+00,70,-5.96E-02,1
140.773,10.58093,-0.54958,99.01643,0.00E+00,70,-5.35E-02,1
141.7703,10.66776,-0.55612,99.01468,0.00E+00,70,-4.59E-02,1
142.768,10.75459,-0.56201,99.02551,0.00E+00,70,-4.13E-02,1
143.766,10.84145,-0.56736,99.0304,0.00E+00,70,-4.27E-02,1
144.764,10.92868,-0.57437,99.02721,0.00E+00,70,-4.91E-02,1
145.761,11.01628,-0.58027,99.01538,0.00E+00,70,-5.65E-02,1
146.759,11.1041,-0.58749,99.00452,0.00E+00,70,-6.07E-02,1
147.757,11.19206,-0.59307,98.99877,0.00E+00,70,-6.01E-02,1
148.755,11.28022,-0.59864,98.99253,0.00E+00,70,-5.59E-02,1
149.752,11.36855,-0.60551,98.98857,0.00E+00,70,-5.08E-02,1
150.75,11.4571,-0.61041,98.98872,0.00E+00,70,-4.76E-02,1
151.748,11.54582,-0.61618,98.98504,0.00E+00,70,-4.78E-02,1
152.746,11.63476,-0.62307,98.98121,0.00E+00,70,-5.11E-02,1
153.743,11.72374,-0.62723,98.9768,0.00E+00,70,-5.62E-02,1
154.741,11.81297,-0.63319,98.97246,0.00E+00,70,-6.17E-02,1
155.739,11.90249,-0.6388,98.96425,0.00E+00,70,-6.61E-02,1
156.737,11.9924,-0.643,98.95569,0.00E+00,70,-6.87E-02,1
157.734,12.08265,-0.64895,98.95088,0.00E+00,70,-7.01E-02,1
158.732,12.1732,-0.65352,98.94445,0.00E+00,70,-7.17E-02,1
159.73,12.264,-0.65909,98.9378,0.00E+00,70,-7.54E-02,1
160.728,12.35467,-0.66363,98.93217,0.00E+00,70,-8.26E-02,1
161.725,12.44531,-0.66838,98.93136,0.00E+00,70,-9.33E-02,1
162.723,12.53597,-0.6733,98.91781,0.00E+00,70,-0.106,1
163.721,12.62717,-0.67876,98.90905,0.00E+00,70,-0.11776,1
164.7185,12.7189,-0.68337,98.89735,0.00E+00,70,-0.12547,1
165.716,12.81103,-0.6888,98.87817,0.00E+00,70,-0.1276,1
166.714,12.90313,-0.69362,98.86314,0.00E+00,70,-0.12549,1
167.712,12.99542,-0.69833,98.85188,0.00E+00,70,-0.12303,1
168.709,13.088,-0.70292,98.84782,0.00E+00,70,-0.12421,1
169.707,13.18095,-0.70873,98.84243,0.00E+00,70,-0.13059,1
170.705,13.27391,-0.71359,98.83242,0.00E+00,70,-0.14045,1
171.703,13.36691,-0.7188,98.80718,0.00E+00,70,-0.15073,1
172.7,13.45998,-0.72357,98.79043,0.00E+00,70,-0.15987,1
173.698,13.55322,-0.72902,98.77852,0.00E+00,70,-0.16876,1
174.696,13.6467,-0.7334,98.76854,0.00E+00,70,-0.17942,1
175.694,13.74051,-0.73916,98.75404,0.00E+00,70,-0.19282,1
176.691,13.83435,-0.74448,98.72892,0.00E+00,70,-0.20798,1
177.689,13.92838,-0.74919,98.71043,0.00E+00,70,-0.22276,1
178.687,14.02233,-0.75411,98.6882,0.00E+00,70,-0.23474,1
179.685,14.11644,-0.75986,98.66441,0.00E+00,70,-0.24203,1
180.682,14.21062,-0.76501,98.63777,0.00E+00,70,-0.24397,1
181.68,14.30495,-0.76972,98.61271,0.00E+00,70,-0.24225,1
182.678,14.39946,-0.77493,98.58769,0.00E+00,70,-0.24113,1
183.676,14.49423,-0.77893,98.5667,0.00E+00,70,-0.24569,1
184.673,14.58926,-0.7844,98.55832,0.00E+00,70,-0.25862,1
185.671,14.68465,-0.78814,98.5363,0.00E+00,70,-0.27828,1
186.669,14.78019,-0.79323,98.49532,0.00E+00,70,-0.30015,1
187.6667,14.87574,-0.79835,98.46144,0.00E+00,70,-0.32035,1
188.664,14.97133,-0.80375,98.43827,0.00E+00,70,-0.33797,1
189.6622,15.06708,-0.80843,98.40797,0.00E+00,70,-0.3544,1
190.66,15.16293,-0.81383,98.36178,0.00E+00,70,-0.37129,1
191.6577,15.25879,-0.81924,98.33313,0.00E+00,70,-0.38927,1
192.655,15.35476,-0.82308,98.29894,0.00E+00,70,-0.40761,1
193.653,15.45084,-0.82799,98.25737,0.00E+00,70,-0.42456,1
194.651,15.5472,-0.83432,98.20403,0.00E+00,70,-0.43856,1
195.649,15.64368,-0.83862,98.16513,0.00E+00,70,-0.44971,1
196.646,15.74032,-0.84342,98.12461,0.00E+00,70,-0.46,1
197.644,15.8369,-0.84958,98.07952,0.00E+00,70,-0.47172,1
198.642,15.93348,-0.85421,98.03531,0.00E+00,70,-0.48529,1
199.64,16.03012,-0.86012,97.99078,0.00E+00,70,-0.49887,1
200.637,16.12705,-0.86526,97.93579,0.00E+00,70,-0.51006,1
201.635,16.22415,-0.87136,97.87717,0.00E+00,70,-0.5181,1
202.633,16.32134,-0.87626,97.83487,0.00E+00,70,-0.52457,1
203.631,16.41868,-0.88311,97.78279,0.00E+00,70,-0.53201,1
204.628,16.51617,-0.8889,97.73393,0.00E+00,70,-0.54211,1
205.626,16.61383,-0.89417,97.68474,0.00E+00,70,-0.55503,1
206.624,16.71152,-0.89877,97.61576,0.00E+00,70,-0.57012,1
207.622,16.80916,-0.90516,97.56568,0.00E+00,70,-0.58639,1
208.619,16.90686,-0.91128,97.51295,0.00E+00,70,-0.60203,1
209.617,17.00461,-0.91803,97.45103,0.00E+00,70,-0.61391,1
210.615,17.10262,-0.92346,97.38966,0.00E+00,70,-0.61931,1
211.613,17.2008,-0.92981,97.31462,0.00E+00,70,-0.61881,1
212.6104,17.29901,-0.93534,97.25637,0.00E+00,70,-0.61699,1
213.608,17.3973,-0.94135,97.20948,0.00E+00,70,-0.61858,1
214.6059,17.49585,-0.94728,97.15927,0.00E+00,70,-0.62414,1
215.604,17.59445,-0.95419,97.07255,0.00E+00,70,-0.63022,1
216.6014,17.69293,-0.96012,97.01365,0.00E+00,70,-0.63378,1
217.599,17.79142,-0.96671,96.95769,0.00E+00,70,-0.63508,1
218.597,17.89012,-0.97272,96.89427,0.00E+00,70,-0.63607,1
219.595,17.989,-0.9798,96.82765,0.00E+00,70,-0.63737,1
220.592,18.08801,-0.98614,96.76979,0.00E+00,70,-0.63728,1
221.59,18.18687,-0.99364,96.70521,0.00E+00,70,-0.63345,1
222.588,18.28557,-1.00019,96.63546,0.00E+00,70,-0.62653,1
223.586,18.38443,-1.00655,96.57233,0.00E+00,70,-0.62341,1
224.583,18.48353,-1.01205,96.50364,0.00E+00,70,-0.63553,1
225.581,18.58285,-1.01942,96.45013,0.00E+00,70,-0.66972,1
226.579,18.68206,-1.02471,96.47214,0.00E+00,70,-0.71915,1
227.577,18.78132,-1.03228,96.31975,0.00E+00,70,-0.76821,1
228.574,18.8809,-1.03924,96.18975,0.00E+00,70,-0.80761,1
229.572,18.98056,-1.04701,96.1253,0.00E+00,70,-0.84116,1
230.57,19.08027,-1.05184,96.17318,0.00E+00,70,-0.87476,1
231.568,19.17977,-1.05944,95.96635,0.00E+00,70,-0.90289,1
232.565,19.27918,-1.06643,95.85299,0.00E+00,70,-0.9134,1
233.563,19.37861,-1.07329,95.79009,0.00E+00,70,-0.90299,1
234.561,19.47805,-1.08142,95.69141,0.00E+00,70,-0.88324,1
235.559,19.57753,-1.08726,95.61418,0.00E+00,70,-0.87164,1
236.556,19.67701,-1.09514,95.54771,0.00E+00,70,-0.87945,1
237.5541,19.77669,-1.10172,95.45432,0.00E+00,70,-0.90755,1
238.552,19.8765,-1.10806,95.36069,0.00E+00,70,-0.94988,1
239.5496,19.97633,-1.11448,95.27361,0.00E+00,70,-0.99834,1
240.547,20.07609,-1.12194,95.16504,0.00E+00,70,-1.0458,1
241.5451,20.17613,-1.12863,95.05415,0.00E+00,70,-1.08718,1
242.543,20.27643,-1.1358,94.9385,0.00E+00,70,-1.11961,1
243.541,20.37665,-1.14304,94.8276,0.00E+00,70,-1.1432,1
244.538,20.47648,-1.14919,94.69992,0.00E+00,70,-1.16162,1
245.536,20.57628,-1.1569,94.59177,0.00E+00,70,-1.1812,1
246.534,20.67621,-1.16378,94.48171,0.00E+00,70,-1.20807,1
247.532,20.77632,-1.17072,94.35733,0.00E+00,70,-1.24504,1
248.529,20.87638,-1.17805,94.23954,0.00E+00,70,-1.28983,1
249.527,20.97649,-1.18467,94.10011,0.00E+00,70,-1.33673,1
250.525,21.07663,-1.19135,93.9617,0.00E+00,70,-1.37991,1
251.523,21.17672,-1.19964,93.81891,0.00E+00,70,-1.41625,1
252.52,21.27673,-1.20666,93.67917,0.00E+00,70,-1.44586,1
253.518,21.37686,-1.21385,93.52191,0.00E+00,70,-1.47086,1
254.516,21.47709,-1.22083,93.38393,0.00E+00,70,-1.4942,1
255.514,21.57742,-1.22878,93.22843,0.00E+00,70,-1.5198,1
256.511,21.67768,-1.23584,93.07198,0.00E+00,70,-1.55216,1
257.509,21.77788,-1.24304,92.92384,0.00E+00,70,-1.59453,1
258.507,21.87804,-1.25025,92.77052,0.00E+00,70,-1.64585,1
259.505,21.97833,-1.25855,92.60574,0.00E+00,70,-1.69965,1
260.502,22.07877,-1.26633,92.4162,0.00E+00,70,-1.74725,1
261.5,22.17906,-1.27264,92.23767,0.00E+00,70,-1.78376,1
262.4978,22.27924,-1.27866,92.05738,0.00E+00,70,-1.8121,1
263.496,22.37947,-1.2864,91.8615,0.00E+00,70,-1.84054,1
264.4933,22.47973,-1.29362,91.69723,0.00E+00,70,-1.87583,1
265.491,22.57986,-1.30039,91.51939,0.00E+00,70,-1.91755,1
266.4888,22.67996,-1.30804,91.30797,0.00E+00,70,-1.95919,1
267.487,22.77999,-1.31576,91.09485,0.00E+00,70,-1.99537,1
268.484,22.87994,-1.32308,90.90675,0.00E+00,70,-2.02878,1
269.482,22.98011,-1.32912,90.69933,0.00E+00,70,-2.06891,1
270.48,23.08048,-1.33622,90.4996,0.00E+00,70,-2.12311,1
271.478,23.18089,-1.34275,90.31007,0.00E+00,70,-2.18864,1
272.475,23.28129,-1.34975,90.066,0.00E+00,70,-2.25389,1
273.473,23.38166,-1.3567,89.80035,0.00E+00,70,-2.30727,1
274.471,23.48181,-1.36458,89.59696,0.00E+00,70,-2.34446,1
275.469,23.58176,-1.37053,89.36193,0.00E+00,70,-2.3684,1
276.466,23.68177,-1.3773,89.10078,0.00E+00,70,-2.38495,1
277.464,23.78207,-1.38408,88.87802,0.00E+00,70,-2.40027,1
278.462,23.88258,-1.39084,88.61918,0.00E+00,70,-2.42065,1
279.46,23.98316,-1.3973,88.40355,0.00E+00,70,-2.45201,1
280.457,24.08349,-1.40413,88.14671,0.00E+00,70,-2.49773,1
281.455,24.18387,-1.40947,87.88522,0.00E+00,70,-2.55714,1
282.453,24.28439,-1.41673,87.66782,0.00E+00,70,-2.62551,1
283.451,24.38497,-1.42289,87.35888,0.00E+00,70,-2.69615,1
284.448,24.48545,-1.42944,87.08284,0.00E+00,70,-2.76302,1
285.446,24.58583,-1.43619,86.83261,0.00E+00,70,-2.82204,1
286.444,24.68616,-1.44254,86.51895,0.00E+00,70,-2.87115,1
287.4415,24.78638,-1.44802,86.22286,0.00E+00,70,-2.9118,1
288.439,24.88673,-1.45477,85.93999,0.00E+00,70,-2.95219,1
289.437,24.98747,-1.46243,85.63596,0.00E+00,70,-3.00713,1
290.435,25.08817,-1.46883,85.33862,0.00E+00,70,-3.08881,1
291.4325,25.18877,-1.47428,85.02959,0.00E+00,70,-3.19226,1
292.43,25.28919,-1.47953,84.80058,0.00E+00,70,-3.28945,1
293.428,25.38944,-1.48572,84.3218,0.00E+00,70,-3.34639,1
294.426,25.48969,-1.49225,83.92792,0.00E+00,70,-3.35198,1
295.423,25.58997,-1.49774,83.66508,0.00E+00,70,-3.32973,1
296.421,25.69057,-1.50339,83.35634,0.00E+00,70,-3.31958,1
297.419,25.79132,-1.50963,83.02924,0.00E+00,70,-3.34973,1
298.417,25.89195,-1.51521,82.68643,0.00E+00,70,-3.42485,1
299.414,25.99244,-1.52132,82.35683,0.00E+00,70,-3.5331,1
300.412,26.09292,-1.52712,81.98629,0.00E+00,70,-3.65495,1
301.41,26.19339,-1.53134,81.63215,0.00E+00,70,-3.76716,1
302.408,26.29411,-1.53704,81.2541,0.00E+00,70,-3.85136,1
303.405,26.39488,-1.54217,80.72735,0.00E+00,70,-3.90602,1
304.403,26.49545,-1.54749,80.41847,0.00E+00,70,-3.94854,1
305.401,26.59572,-1.55113,80.08022,0.00E+00,70,-3.99835,1
306.399,26.69606,-1.55509,79.63391,0.00E+00,70,-4.06036,1
307.396,26.79665,-1.5602,79.19659,0.00E+00,70,-4.1272,1
308.394,26.89722,-1.56438,78.78927,0.00E+00,70,-4.19326,1
309.392,26.99771,-1.56829,78.37036,0.00E+00,70,-4.26169,1
310.39,27.09818,-1.57144,77.94933,0.00E+00,70,-4.33852,1
311.387,27.19856,-1.57639,77.5124,0.00E+00,70,-4.42599,1
312.3852,27.29893,-1.58005,77.02301,0.00E+00,70,-4.52277,1
313.383,27.39934,-1.58307,76.60704,0.00E+00,70,-4.62547,1
314.3807,27.49976,-1.58658,76.16922,0.00E+00,70,-4.72705,1
315.378,27.60018,-1.59091,75.63392,0.00E+00,70,-4.8175,1
316.3762,27.7004,-1.59368,75.15213,0.00E+00,70,-4.89013,1
317.374,27.80059,-1.59667,74.6627,0.00E+00,70,-4.94792,1
318.372,27.90071,-1.59944,74.1516,0.00E+00,70,-5.00082,1
319.369,28.00101,-1.60119,73.66524,0.00E+00,70,-5.05835,1
320.367,28.10134,-1.60305,73.1641,0.00E+00,70,-5.12357,1
321.365,28.20177,-1.60564,72.61905,0.00E+00,70,-5.19363,1
322.363,28.30245,-1.60646,72.11049,0.00E+00,70,-5.26335,1
323.36,28.40309,-1.60799,71.57617,0.00E+00,70,-5.32857,1
324.358,28.5035,-1.60994,71.02998,0.00E+00,70,-5.38936,1
325.356,28.60382,-1.61154,70.47226,0.00E+00,70,-5.45125,1
326.354,28.7042,-1.61255,69.95506,0.00E+00,70,-5.522,1
327.351,28.80474,-1.61372,69.3781,0.00E+00,70,-5.60489,1
328.349,28.90541,-1.61459,68.8339,0.00E+00,70,-5.69416,1
329.347,29.00599,-1.61747,68.24233,0.00E+00,70,-5.778,1
330.345,29.10659,-1.61808,67.63078,0.00E+00,70,-5.84799,1
331.342,29.20711,-1.61931,67.05445,0.00E+00,70,-5.90523,1
332.34,29.30766,-1.62032,66.45222,0.00E+00,70,-5.9589,1
333.338,29.40827,-1.6207,65.85514,0.00E+00,70,-6.01846,1
334.336,29.50886,-1.62186,65.25057,0.00E+00,70,-6.08742,1
335.333,29.60955,-1.62133,64.65179,0.00E+00,70,-6.16261,1
336.331,29.71019,-1.62167,63.99409,0.00E+00,70,-6.23754,1
337.3289,29.81066,-1.62125,63.38435,0.00E+00,70,-6.3075,1
338.327,29.91106,-1.62092,62.74876,0.00E+00,70,-6.37283,1
339.3244,30.01145,-1.61967,62.07817,0.00E+00,70,-6.43864,1
340.322,30.11184,-1.61942,61.46365,0.00E+00,70,-6.51155,1
341.3199,30.21214,-1.6169,60.81307,0.00E+00,70,-6.59461,1
342.318,30.3126,-1.61571,60.12514,0.00E+00,70,-6.68541,1
343.315,30.41319,-1.61346,59.47152,0.00E+00,70,-6.77861,1
344.313,30.51381,-1.61153,58.75294,0.00E+00,70,-6.87105,1
345.311,30.61422,-1.60816,58.07254,0.00E+00,70,-6.96377,1
346.309,30.71459,-1.60462,57.38095,0.00E+00,70,-7.06039,1
347.306,30.81491,-1.60078,56.65607,0.00E+00,70,-7.16364,1
348.304,30.91525,-1.59567,55.93485,0.00E+00,70,-7.27448,1
349.302,31.01576,-1.59119,55.20381,0.00E+00,70,-7.39195,1
350.3,31.11638,-1.58505,54.47052,0.00E+00,70,-7.51338,1
351.297,31.21687,-1.57811,53.69384,0.00E+00,70,-7.6368,1
352.295,31.31725,-1.56997,52.89784,0.00E+00,70,-7.76406,1
353.293,31.41769,-1.56222,52.1407,0.00E+00,70,-7.8997,1
354.291,31.51826,-1.55192,51.36457,0.00E+00,70,-8.04595,1
355.288,31.6186,-1.54385,50.51641,0.00E+00,70,-8.20035,1
356.286,31.71891,-1.53358,49.68503,0.00E+00,70,-8.36068,1
357.284,31.81963,-1.52281,48.84168,0.00E+00,70,-8.52731,1
358.282,31.92054,-1.51248,47.99942,0.00E+00,70,-8.69909,1
359.279,32.02143,-1.50403,47.10272,0.00E+00,70,-8.87087,1
360.277,32.12197,-1.49163,46.17443,0.00E+00,70,-9.03493,1
361.275,32.22245,-1.47877,45.26954,0.00E+00,70,-9.18665,1
362.2726,32.32282,-1.46524,44.33609,0.00E+00,70,-9.32443,1
363.27,32.42317,-1.45149,43.39353,0.00E+00,70,-9.44809,1
364.2681,32.52357,-1.43763,42.43115,0.00E+00,70,-9.55692,1
365.266,32.62411,-1.42255,41.45744,0.00E+00,70,-9.64996,1
366.2636,32.72484,-1.40857,40.48669,0.00E+00,70,-9.72619,1
367.261,32.82554,-1.3932,39.50183,0.00E+00,70,-9.78259,1
368.259,32.92605,-1.37841,38.49524,0.00E+00,70,-9.81274,1
369.257,33.02646,-1.36384,37.52195,0.00E+00,70,-9.80763,1
370.255,33.1269,-1.35136,36.51192,0.00E+00,70,-9.75846,1
371.252,33.22729,-1.33935,35.50135,0.00E+00,70,-9.65966,1
372.25,33.32792,-1.32709,34.56225,0.00E+00,70,-9.50849,1
373.248,33.42853,-1.31777,33.57543,0.00E+00,70,-9.30419,1
374.246,33.529,-1.30817,32.63846,0.00E+00,70,-9.04584,1
375.243,33.62933,-1.30139,31.74857,0.00E+00,70,-8.73195,1
376.241,33.72974,-1.2967,30.86242,0.00E+00,70,-8.36045,1
377.239,33.83018,-1.29306,30.021,0.00E+00,70,-7.93085,1
378.237,33.93043,-1.29273,29.25141,0.00E+00,70,-7.4456,1
379.234,34.03061,-1.29441,28.50673,0.00E+00,70,-6.90728,1
380.232,34.1307,-1.29763,27.8322,0.00E+00,70,-6.32142,1
381.23,34.23074,-1.30581,27.22706,0.00E+00,70,-5.69875,1
382.228,34.33074,-1.31255,26.67153,0.00E+00,70,-5.06019,1
383.225,34.43078,-1.32387,26.17997,0.00E+00,70,-4.43619,1
384.223,34.5307,-1.33615,25.83263,0.00E+00,70,-3.85716,1
385.221,34.6306,-1.34863,25.51791,0.00E+00,70,-3.33579,1
386.219,34.73056,-1.36184,25.18801,0.00E+00,70,-2.86553,1
387.2163,34.83041,-1.37595,24.90822,0.00E+00,70,-2.43571,1
388.214,34.93002,-1.38646,24.6982,0.00E+00,70,-2.04703,1
389.2118,35.02959,-1.39863,24.54237,0.00E+00,70,-1.71207,1
390.21,35.12938,-1.40707,24.42276,0.00E+00,70,-1.44482,1
391.2073,35.22936,-1.41539,24.30089,0.00E+00,70,-1.2486,1
392.205,35.32935,-1.42263,24.19907,0.00E+00,70,-1.11304,1
393.203,35.42925,-1.42838,24.09934,0.00E+00,70,-1.02108,1
394.201,35.52928,-1.43369,23.9962,0.00E+00,70,-0.95808,1
395.198,35.62947,-1.43714,23.90028,0.00E+00,70,-0.91635,1
396.196,35.72978,-1.44068,23.83513,0.00E+00,70,-0.89244,1
397.194,35.83009,-1.44511,23.74328,0.00E+00,70,-0.88192,1
398.192,35.93026,-1.44758,23.64979,0.00E+00,70,-0.87705,1
399.189,36.03027,-1.45139,23.56836,0.00E+00,70,-0.86934,1
400.187,36.13044,-1.45445,23.46919,0.00E+00,70,-0.85342,1
401.185,36.23076,-1.45823,23.38353,0.00E+00,70,-0.82872,1
402.183,36.33108,-1.46169,23.30256,0.00E+00,70,-0.79873,1
403.18,36.43134,-1.46446,23.22125,0.00E+00,70,-0.76914,1
404.178,36.53152,-1.4677,23.14474,0.00E+00,70,-0.74577,1
405.176,36.6317,-1.47174,23.08852,0.00E+00,70,-0.73207,1
406.174,36.73182,-1.47472,23.01829,0.00E+00,70,-0.72731,1
407.171,36.83202,-1.47692,22.93449,0.00E+00,70,-0.72734,1
408.169,36.93216,-1.47974,22.86876,0.00E+00,70,-0.7277,1
409.167,37.03197,-1.4824,22.78667,0.00E+00,70,-0.72635,1
410.165,37.13191,-1.48437,22.71418,0.00E+00,70,-0.72394,1
411.162,37.23202,-1.48554,22.65055,0.00E+00,70,-0.72193,1
412.16,37.33217,-1.48743,22.57031,0.00E+00,70,-0.72054,1
413.158,37.43209,-1.488,22.5144,0.00E+00,70,-0.71841,1
414.1555,37.53206,-1.48966,22.41666,0.00E+00,70,-0.71444,1
415.153,37.6321,-1.48983,22.35878,0.00E+00,70,-0.70971,1
416.151,37.73208,-1.49002,22.28721,0.00E+00,70,-0.70696,1
417.149,37.83211,-1.4924,22.2193,0.00E+00,70,-0.70776,1
418.146,37.93224,-1.49137,22.15315,0.00E+00,70,-0.71014,1
419.144,38.03233,-1.49195,22.08645,0.00E+00,70,-0.70978,1
420.142,38.13216,-1.48826,21.99331,0.00E+00,70,-0.70396,1
421.14,38.23189,-1.48337,21.92864,0.00E+00,70,-0.69415,1
422.137,38.33168,-1.48269,21.86675,0.00E+00,70,-0.68465,1
423.135,38.43132,-1.48034,21.79639,0.00E+00,70,-0.67892,1
424.133,38.53093,-1.47867,21.73966,0.00E+00,70,-0.67715,1
425.131,38.63061,-1.47666,21.66322,0.00E+00,70,-0.67704,1
426.128,38.73046,-1.47439,21.60237,0.00E+00,70,-0.67621,1
427.126,38.83031,-1.47249,21.51992,0.00E+00,70,-0.67398,1
428.124,38.93005,-1.46932,21.46314,0.00E+00,70,-0.67097,1
429.122,39.02991,-1.46602,21.39185,0.00E+00,70,-0.6673,1
430.119,39.12985,-1.46339,21.33184,0.00E+00,70,-0.66181,1
431.117,39.22983,-1.45952,21.25803,0.00E+00,70,-0.65319,1
432.115,39.32969,-1.45653,21.19299,0.00E+00,70,-0.6421,1
433.113,39.42963,-1.45074,21.13275,0.00E+00,70,-0.63165,1
434.11,39.52956,-1.44667,21.06996,0.00E+00,70,-0.62534,1
435.108,39.62942,-1.44263,21.01344,0.00E+00,70,-0.62406,1
436.106,39.72921,-1.43771,20.94889,0.00E+00,70,-0.62486,1
437.1037,39.82904,-1.43323,20.88897,0.00E+00,70,-0.62284,1
438.101,39.92889,-1.42591,20.82121,0.00E+00,70,-0.61498,1
439.0992,40.02862,-1.42102,20.74955,0.00E+00,70,-0.60269,1
440.097,40.12823,-1.41257,20.69962,0.00E+00,70,-0.5908,1
441.0947,40.22789,-1.40526,20.64822,0.00E+00,70,-0.58423,1
442.092,40.32769,-1.39752,20.58819,0.00E+00,70,-0.58487,1
443.09,40.42763,-1.38987,20.52807,0.00E+00,70,-0.59057,1
444.088,40.52765,-1.38363,20.48006,0.00E+00,70,-0.59612,1
445.086,40.62762,-1.37727,20.41383,0.00E+00,70,-0.59587,1
446.083,40.72734,-1.36979,20.33728,0.00E+00,70,-0.58726,1
447.081,40.82683,-1.36112,20.27624,0.00E+00,70,-0.57248,1
448.079,40.92616,-1.35086,20.24256,0.00E+00,70,-0.55646,1
449.077,41.02562,-1.34034,20.17832,0.00E+00,70,-0.5429,1
450.074,41.12526,-1.32965,20.1241,0.00E+00,70,-0.53243,1
451.072,41.22512,-1.31826,20.07375,0.00E+00,70,-0.52395,1
452.07,41.32498,-1.30523,20.01586,0.00E+00,70,-0.51702,1
453.068,41.42459,-1.29292,19.97673,0.00E+00,70,-0.51238,1
454.065,41.52404,-1.27955,19.91929,0.00E+00,70,-0.51079,1
455.063,41.62352,-1.2663,19.86697,0.00E+00,70,-0.5118,1
456.061,41.72303,-1.25064,19.82892,0.00E+00,70,-0.51353,1
457.059,41.82256,-1.23582,19.76714,0.00E+00,70,-0.51358,1
458.056,41.92215,-1.22129,19.71197,0.00E+00,70,-0.51045,1
459.054,42.02185,-1.20566,19.66423,0.00E+00,70,-0.50437,1
460.052,42.12171,-1.18936,19.60983,0.00E+00,70,-0.49624,1
461.05,42.22153,-1.1733,19.57756,0.00E+00,70,-0.48603,1
462.0474,42.32117,-1.15932,19.51022,0.00E+00,70,-0.4727,1
463.045,42.42062,-1.14448,19.46404,0.00E+00,70,-0.45577,1
464.0429,42.52022,-1.12919,19.42307,0.00E+00,70,-0.43637,1
465.041,42.61982,-1.11369,19.38779,0.00E+00,70,-0.417,1
466.0384,42.71928,-1.09852,19.33547,0.00E+00,70,-0.40069,1
467.036,42.81864,-1.08291,19.29878,0.00E+00,70,-0.39062,1
468.034,42.91814,-1.06721,19.27162,0.00E+00,70,-0.389,1
469.032,43.01778,-1.05334,19.23789,0.00E+00,70,-0.39488,1
470.029,43.11743,-1.0366,19.1922,0.00E+00,70,-0.40316,1
471.027,43.21691,-1.0205,19.15356,0.00E+00,70,-0.40703,1
472.025,43.31642,-1.00736,19.1036,0.00E+00,70,-0.40265,1
473.023,43.41612,-0.99181,19.05828,0.00E+00,70,-0.39171,1
474.02,43.51572,-0.97703,19.02498,0.00E+00,70,-0.38016,1
475.018,43.61547,-0.96218,18.9957,0.00E+00,70,-0.37367,1
476.016,43.71526,-0.94839,18.96247,0.00E+00,70,-0.37393,1
477.014,43.81517,-0.93425,18.91457,0.00E+00,70,-0.37806,1
478.011,43.91514,-0.92143,18.88739,0.00E+00,70,-0.38098,1
479.009,44.01522,-0.90795,18.837,0.00E+00,70,-0.37848,1
480.007,44.11549,-0.89484,18.799,0.00E+00,70,-0.36895,1
481.005,44.21574,-0.88332,18.76875,0.00E+00,70,-0.35381,1
482.002,44.31573,-0.87194,18.72083,0.00E+00,70,-0.33677,1
483,44.41568,-0.8601,18.69509,0.00E+00,70,-0.3225,1
483.998,44.51558,-0.84917,18.66955,0.00E+00,70,-0.31518,1
484.996,44.61563,-0.84091,18.63855,0.00E+00,70,-0.31661,1
485.993,44.71576,-0.83017,18.61188,0.00E+00,70,-0.32483,1
486.9911,44.816,-0.82129,18.57993,0.00E+00,70,-0.33426,1
487.989,44.91624,-0.81202,18.54,0.00E+00,70,-0.33801,1
488.9866,45.01639,-0.80389,18.49853,0.00E+00,70,-0.33139,1
489.984,45.11667,-0.79657,18.46358,0.00E+00,70,-0.3145,1
490.9821,45.21697,-0.78997,18.4348,0.00E+00,70,-0.29269,1
491.98,45.31731,-0.78257,18.40353,0.00E+00,70,-0.27417,1
492.978,45.41761,-0.77749,18.38639,0.00E+00,70,-0.26566,1
493.975,45.51819,-0.77147,18.37033,0.00E+00,70,-0.26845,1
494.973,45.61872,-0.76668,18.34024,0.00E+00,70,-0.27827,1
495.971,45.71922,-0.76344,18.30463,0.00E+00,70,-0.28967,1
496.969,45.81975,-0.76113,18.26965,0.00E+00,70,-0.30127,1
497.966,45.92036,-0.7588,18.24596,0.00E+00,70,-0.31653,1
498.964,46.02109,-0.758,18.22197,0.00E+00,70,-0.33941,1
499.962,46.12169,-0.75588,18.18445,0.00E+00,70,-0.36889,1
500.96,46.22233,-0.75678,18.15071,0.00E+00,70,-0.3973,1
501.957,46.32304,-0.759,18.10552,0.00E+00,70,-0.41345,1
502.955,46.42379,-0.76129,18.04229,0.00E+00,70,-0.40917,1
503.953,46.52469,-0.76329,17.99876,0.00E+00,70,-0.38482,1
504.951,46.62556,-0.76813,17.95404,0.00E+00,70,-0.34943,1
505.948,46.72623,-0.7724,17.93742,0.00E+00,70,-0.31469,1
506.946,46.82679,-0.77815,17.91253,0.00E+00,70,-0.28741,1
507.944,46.92746,-0.78461,17.88323,0.00E+00,70,-0.26683,1
508.942,47.02829,-0.79274,17.85522,0.00E+00,70,-0.24802,1
509.939,47.12919,-0.80046,17.82609,0.00E+00,70,-0.22741,1
510.937,47.23012,-0.80975,17.79874,0.00E+00,70,-0.20561,1
511.9348,47.33115,-0.82047,17.79239,0.00E+00,70,-0.18598,1
512.933,47.43222,-0.83271,17.77593,0.00E+00,70,-0.17162,1
513.9303,47.53337,-0.84675,17.75718,0.00E+00,70,-0.16422,1
514.928,47.63453,-0.85899,17.73575,0.00E+00,70,-0.16524,1
515.9258,47.7357,-0.87369,17.73125,0.00E+00,70,-0.17632,1
516.924,47.83697,-0.88963,17.71325,0.00E+00,70,-0.19717,1
517.921,47.9382,-0.9072,17.69594,0.00E+00,70,-0.22281,1
518.919,48.03946,-0.92576,17.67833,0.00E+00,70,-0.24413,1
519.917,48.14062,-0.94434,17.62998,0.00E+00,70,-0.25276,1
520.915,48.24172,-0.96364,17.59919,0.00E+00,70,-0.24703,1
521.912,48.34284,-0.9854,17.57397,0.00E+00,70,-0.23307,1
522.91,48.44395,-1.00548,17.56317,0.00E+00,70,-0.21977,1
523.908,48.54504,-1.027,17.54765,0.00E+00,70,-0.2121,1
524.906,48.64616,-1.04962,17.52817,0.00E+00,70,-0.20919,1
525.903,48.74726,-1.07306,17.48906,0.00E+00,70,-0.20827,1
526.901,48.84846,-1.09604,17.47579,0.00E+00,70,-0.20886,1
527.899,48.94976,-1.11954,17.46064,0.00E+00,70,-0.21236,1
528.897,49.05124,-1.14369,17.44278,0.00E+00,70,-0.21875,1
529.894,49.15252,-1.16863,17.41561,0.00E+00,70,-0.22544,1
530.892,49.25371,-1.19459,17.38269,0.00E+00,70,-0.23006,1
531.89,49.35484,-1.22029,17.36167,0.00E+00,70,-0.23295,1
532.888,49.45611,-1.2459,17.34743,0.00E+00,70,-0.2362,1
533.885,49.55742,-1.27281,17.3199,0.00E+00,70,-0.24032,1
534.883,49.65866,-1.297,17.29606,0.00E+00,70,-0.24278,1
535.881,49.75973,-1.32413,17.27079,0.00E+00,70,-0.23986,1
536.8785,49.86061,-1.34961,17.23399,0.00E+00,70,-0.23003,1
537.876,49.96146,-1.3763,17.2159,0.00E+00,70,-0.2155,1
538.874,50.0622,-1.40183,17.19739,0.00E+00,70,-0.20088,1
539.872,50.16287,-1.42759,17.17966,0.00E+00,70,-0.19028,1
540.8695,50.26362,-1.45225,17.16312,0.00E+00,70,-0.1851,1
541.867,50.36433,-1.47727,17.14718,0.00E+00,70,-0.18353,1
542.865,50.46514,-1.50247,17.12808,0.00E+00,70,-0.18145,1
543.863,50.56578,-1.52706,17.10594,0.00E+00,70,-0.17489,1
544.86,50.66634,-1.55181,17.08716,0.00E+00,70,-0.16476,1
545.858,50.7668,-1.57586,17.06305,0.00E+00,70,-0.16069,1
546.856,50.86746,-1.60073,17.04058,0.00E+00,70,-0.17777,1
547.854,50.96826,-1.62274,17.06835,0.00E+00,70,-0.22369,1
548.851,51.06894,-1.6468,17.08013,0.00E+00,70,-0.28624,1
549.849,51.1693,-1.67167,16.98987,0.00E+00,70,-0.33739,1
550.847,51.26951,-1.69512,16.92097,0.00E+00,70,-0.35385,1
551.845,51.36969,-1.71852,16.89005,0.00E+00,70,-0.33336,1
552.842,51.4698,-1.74158,16.86536,0.00E+00,70,-0.2927,1
553.84,51.56995,-1.76447,16.8445,0.00E+00,70,-0.25201,1
554.838,51.67038,-1.78731,16.82923,0.00E+00,70,-0.22213,1
555.836,51.77072,-1.80933,16.80356,0.00E+00,70,-0.2036,1
556.833,51.8707,-1.83033,16.78345,0.00E+00,70,-0.1922,1
557.831,51.97055,-1.85188,16.7708,0.00E+00,70,-0.18438,1
558.829,52.07057,-1.87333,16.74625,0.00E+00,70,-0.17896,1
559.827,52.17071,-1.893,16.72863,0.00E+00,70,-0.17623,1
560.824,52.27075,-1.91253,16.72389,0.00E+00,70,-0.17596,1
561.8222,52.37073,-1.93196,16.69918,0.00E+00,70,-0.17617,1
562.82,52.47054,-1.95103,16.67786,0.00E+00,70,-0.1739,1
563.8177,52.57035,-1.97026,16.65876,0.00E+00,70,-0.16749,1
564.815,52.6703,-1.98789,16.6453,0.00E+00,70,-0.15814,1
565.8132,52.77025,-2.00583,16.6246,0.00E+00,70,-0.14979,1
566.811,52.87007,-2.02304,16.61474,0.00E+00,70,-0.14738,1
567.809,52.96995,-2.03968,16.60849,0.00E+00,70,-0.15474,1
568.806,53.07,-2.05599,16.58769,0.00E+00,70,-0.17283,1
569.804,53.16996,-2.07258,16.58136,0.00E+00,70,-0.19782,1
570.802,53.26975,-2.0867,16.55512,0.00E+00,70,-0.22062,1
571.8,53.36932,-2.10292,16.53441,0.00E+00,70,-0.22944,1
572.797,53.46899,-2.11875,16.49084,0.00E+00,70,-0.21537,1
573.795,53.56883,-2.13199,16.45063,0.00E+00,70,-0.17837,1
574.793,53.66862,-2.14714,16.45868,0.00E+00,70,-0.12985,1
575.791,53.76823,-2.16065,16.42506,0.00E+00,70,-8.85E-02,1
576.788,53.86772,-2.17185,16.44529,0.00E+00,70,-7.06E-02,1
577.786,53.96724,-2.18355,16.4637,0.00E+00,70,-8.16E-02,1
578.784,54.06691,-2.19875,16.46346,0.00E+00,70,-0.11296,1
579.782,54.16664,-2.21094,16.41267,0.00E+00,70,-0.14831,1
580.779,54.26626,-2.2226,16.40391,0.00E+00,70,-0.17361,1
581.777,54.36581,-2.23445,16.38654,0.00E+00,70,-0.18308,1
582.775,54.4653,-2.24616,16.36233,0.00E+00,70,-0.17862,1
583.773,54.56471,-2.25823,16.33634,0.00E+00,70,-0.16685,1
584.77,54.664,-2.26854,16.32416,0.00E+00,70,-0.15654,1
585.768,54.76325,-2.27883,16.32033,0.00E+00,70,-0.15575,1
586.7659,54.86276,-2.28839,16.30799,0.00E+00,70,-0.16802,1
587.764,54.96253,-2.29601,16.29836,0.00E+00,70,-0.19008,1
588.7614,55.06241,-2.30596,16.27133,0.00E+00,70,-0.21348,1
589.759,55.16223,-2.31388,16.237,0.00E+00,70,-0.22987,1
590.7569,55.26203,-2.32098,16.21341,0.00E+00,70,-0.23578,1
591.755,55.36175,-2.32921,16.19034,0.00E+00,70,-0.23354,1
592.752,55.46155,-2.33532,16.16615,0.00E+00,70,-0.2286,1
593.75,55.56132,-2.34218,16.14614,0.00E+00,70,-0.2258,1
594.748,55.66105,-2.3479,16.13515,0.00E+00,70,-0.22723,1
595.746,55.76074,-2.35426,16.09678,0.00E+00,70,-0.23203,1
596.743,55.86041,-2.3594,16.07992,0.00E+00,70,-0.23641,1
597.741,55.95995,-2.36475,16.06073,0.00E+00,70,-0.23363,1
598.739,56.05945,-2.3681,16.0501,0.00E+00,70,-0.2165,1
599.737,56.15907,-2.37469,15.96814,0.00E+00,70,-0.18325,1
600.734,56.25877,-2.37557,15.97173,0.00E+00,70,-0.14232,1
601.732,56.35837,-2.37822,15.9846,0.00E+00,70,-0.10883,1
602.73,56.45789,-2.38044,15.98154,0.00E+00,70,-9.44E-02,1
603.728,56.55754,-2.38217,15.97149,0.00E+00,70,-0.10001,1
604.725,56.65724,-2.38296,15.96879,0.00E+00,70,-0.11787,1
605.723,56.75688,-2.38282,15.94484,0.00E+00,70,-0.1387,1
606.721,56.85665,-2.38228,15.92868,0.00E+00,70,-0.1583,1
607.719,56.95653,-2.38097,15.91108,0.00E+00,70,-0.17856,1
608.716,57.05625,-2.37979,15.89513,0.00E+00,70,-0.20297,1
609.714,57.15574,-2.37846,15.88168,0.00E+00,70,-0.22956,1
610.712,57.25518,-2.3777,15.86694,0.00E+00,70,-0.24753,1
611.7096,57.35478,-2.37612,15.84623,0.00E+00,70,-0.2431,1
612.707,57.45457,-2.37465,15.72931,0.00E+00,70,-0.21179,1
613.7051,57.55436,-2.3697,15.76599,0.00E+00,70,-0.16562,1
614.703,57.65418,-2.36465,15.76361,0.00E+00,70,-0.12556,1
615.7006,57.75393,-2.35978,15.75588,0.00E+00,70,-0.10671,1
616.698,57.85368,-2.35488,15.75298,0.00E+00,70,-0.10979,1
617.696,57.95351,-2.34881,15.74236,0.00E+00,70,-0.12498,1
618.694,58.05353,-2.34131,15.72123,0.00E+00,70,-0.14102,1
619.692,58.15342,-2.33627,15.69641,0.00E+00,70,-0.1518,1
620.689,58.25329,-2.3285,15.68828,0.00E+00,70,-0.15732,1
621.687,58.35319,-2.32413,15.67336,0.00E+00,70,-0.16045,1
622.685,58.45312,-2.31682,15.65715,0.00E+00,70,-0.1635,1
623.683,58.55292,-2.31012,15.64113,0.00E+00,70,-0.16725,1
624.68,58.65253,-2.30412,15.62622,0.00E+00,70,-0.1723,1
625.678,58.75214,-2.29662,15.59806,0.00E+00,70,-0.18031,1
626.676,58.85173,-2.28921,15.59037,0.00E+00,70,-0.192,1
627.674,58.95145,-2.28189,15.58211,0.00E+00,70,-0.20293,1
628.671,59.05127,-2.27393,15.5535,0.00E+00,70,-0.20251,1
629.669,59.15099,-2.26685,15.52573,0.00E+00,70,-0.18082,1
630.667,59.25062,-2.26093,15.46067,0.00E+00,70,-0.13881,1
631.665,59.35019,-2.24936,15.47067,0.00E+00,70,-9.12E-02,1
632.662,59.44967,-2.24088,15.50013,0.00E+00,70,-5.77E-02,1
633.66,59.54924,-2.23207,15.49631,0.00E+00,70,-4.92E-02,1
634.658,59.64881,-2.22434,15.48952,0.00E+00,70,-6.35E-02,1
635.656,59.74839,-2.21591,15.48279,0.00E+00,70,-8.95E-02,1
636.6533,59.84805,-2.2071,15.47348,0.00E+00,70,-0.11585,1
637.651,59.94776,-2.19804,15.45364,0.00E+00,70,-0.13489,1
638.6488,60.04772,-2.18898,15.43594,0.00E+00,70,-0.14281,1
639.647,60.14764,-2.17943,15.42396,0.00E+00,70,-0.139,1
640.6443,60.24742,-2.17085,15.39807,0.00E+00,70,-0.12606,1
641.642,60.34691,-2.16233,15.39574,0.00E+00,70,-0.1095,1
642.64,60.44636,-2.15398,15.37649,0.00E+00,70,-9.59E-02,1
643.638,60.54597,-2.14483,15.38134,0.00E+00,70,-9.01E-02,1
644.635,60.64565,-2.13627,15.38083,0.00E+00,70,-9.25E-02,1
645.633,60.74526,-2.12911,15.36383,0.00E+00,70,-9.97E-02,1
646.631,60.84482,-2.12035,15.3446,0.00E+00,70,-0.10726,1
647.629,60.94426,-2.11368,15.34023,0.00E+00,70,-0.11312,1
648.626,61.04393,-2.10534,15.33017,0.00E+00,70,-0.11745,1
649.624,61.14372,-2.09618,15.31644,0.00E+00,70,-0.12058,1
650.622,61.24355,-2.0881,15.30422,0.00E+00,70,-0.12204,1
651.62,61.34331,-2.08022,15.29005,0.00E+00,70,-0.12148,1
652.617,61.44286,-2.07163,15.27247,0.00E+00,70,-0.11985,1
653.615,61.54231,-2.06595,15.26732,0.00E+00,70,-0.1189,1
654.613,61.64171,-2.0575,15.26008,0.00E+00,70,-0.11923,1
655.611,61.74116,-2.04893,15.24633,0.00E+00,70,-0.1193,1
656.608,61.84076,-2.04391,15.22814,0.00E+00,70,-0.11667,1
657.606,61.94049,-2.03521,15.21524,0.00E+00,70,-0.11012,1
658.604,62.04018,-2.02966,15.20784,0.00E+00,70,-0.10069,1
659.602,62.13978,-2.02072,15.19717,0.00E+00,70,-9.08E-02,1
660.599,62.23941,-2.01442,15.1867,0.00E+00,70,-8.26E-02,1
661.597,62.33901,-2.00812,15.18574,0.00E+00,70,-7.67E-02,1
662.595,62.43864,-2.0004,15.17926,0.00E+00,70,-7.28E-02,1
663.5925,62.53841,-1.99373,15.16671,0.00E+00,70,-7.05E-02,1
664.59,62.63822,-1.98616,15.15656,0.00E+00,70,-7.08E-02,1
665.588,62.73806,-1.98063,15.15789,0.00E+00,70,-7.55E-02,1
666.586,62.83785,-1.97488,15.15672,0.00E+00,70,-8.40E-02,1
667.583,62.93752,-1.96823,15.14318,0.00E+00,70,-9.17E-02,1
668.581,63.03704,-1.96367,15.13086,0.00E+00,70,-9.26E-02,1
669.579,63.13655,-1.9588,15.10695,0.00E+00,70,-8.38E-02,1
670.577,63.23617,-1.95247,15.10275,0.00E+00,70,-6.93E-02,1
671.574,63.33583,-1.94792,15.09863,0.00E+00,70,-5.79E-02,1
672.572,63.43551,-1.94244,15.10352,0.00E+00,70,-5.84E-02,1
673.57,63.53512,-1.93726,15.10645,0.00E+00,70,-7.38E-02,1
674.568,63.63483,-1.93259,15.09686,0.00E+00,70,-9.96E-02,1
675.565,63.73483,-1.92636,15.08768,0.00E+00,70,-0.12702,1
676.563,63.83488,-1.92193,15.05702,0.00E+00,70,-0.14795,1
677.561,63.93468,-1.91465,15.04399,0.00E+00,70,-0.15829,1
678.559,64.03425,-1.90891,15.03002,0.00E+00,70,-0.15792,1
679.556,64.13384,-1.90484,15.00956,0.00E+00,70,-0.1483,1
680.554,64.23351,-1.89922,14.99261,0.00E+00,70,-0.13092,1
681.552,64.33308,-1.89567,14.98,0.00E+00,70,-0.10751,1
682.55,64.43263,-1.89122,14.97145,0.00E+00,70,-8.07E-02,1
683.547,64.53229,-1.88601,14.96262,0.00E+00,70,-5.47E-02,1
684.545,64.63207,-1.88209,14.95211,0.00E+00,70,-3.43E-02,1
685.543,64.73184,-1.87583,14.96953,0.00E+00,70,-2.28E-02,1
686.5407,64.8315,-1.87182,14.96851,0.00E+00,70,-2.00E-02,1
687.538,64.9311,-1.86648,14.96508,0.00E+00,70,-2.41E-02,1
688.5362,65.03065,-1.86495,14.95265,0.00E+00,70,-3.61E-02,1
689.534,65.13021,-1.85894,14.93613,0.00E+00,70,-5.90E-02,1
690.5317,65.22979,-1.85123,14.99354,0.00E+00,70,-8.99E-02,1
691.529,65.32924,-1.84953,14.96814,0.00E+00,70,-0.11356,1
692.527,65.4287,-1.8481,14.90218,0.00E+00,70,-0.10813,1
693.525,65.52824,-1.842,14.88253,0.00E+00,70,-6.34E-02,1
694.523,65.62799,-1.83821,14.87947,0.00E+00,70,5.55E-03,1
695.52,65.72786,-1.8335,14.86245,0.00E+00,70,6.22E-02,1
696.518,65.82774,-1.82572,14.93556,0.00E+00,70,7.20E-02,1
697.516,65.92759,-1.82098,14.9993,0.00E+00,70,2.59E-02,1
698.514,66.02723,-1.81805,14.96633,0.00E+00,70,-5.31E-02,1
699.511,66.12688,-1.81352,14.92721,0.00E+00,70,-0.12899,1
700.509,66.22655,-1.81049,14.89799,0.00E+00,70,-0.1765,1
701.507,66.32615,-1.80467,14.87417,0.00E+00,70,-0.19205,1
702.505,66.4255,-1.79984,14.85988,0.00E+00,70,-0.18692,1
703.502,66.52482,-1.7955,14.84919,0.00E+00,70,-0.17414,1
704.5,66.62417,-1.79164,14.82538,0.00E+00,70,-0.16247,1
705.498,66.72369,-1.78652,14.80531,0.00E+00,70,-0.15764,1
706.496,66.8233,-1.76802,14.79206,0.00E+00,70,-0.16277,1
707.493,66.92287,-1.76459,14.81074,0.00E+00,70,-0.17473,1
708.491,67.02231,-1.76293,14.77679,0.00E+00,70,-0.18302,1
709.489,67.12168,-1.758,14.73345,0.00E+00,70,-0.17753,1
710.487,67.22126,-1.75502,14.70202,0.00E+00,70,-0.15934,1
711.4844,67.32104,-1.74909,14.68815,0.00E+00,70,-0.14199,1
712.482,67.42095,-1.74214,14.72135,0.00E+00,70,-0.13843,1
713.4799,67.52066,-1.73878,14.72362,0.00E+00,70,-0.14674,1
714.478,67.62021,-1.7352,14.65925,0.00E+00,70,-0.1513,1
715.4754,67.71956,-1.73242,14.63668,0.00E+00,70,-0.13799,1
716.473,67.81911,-1.72764,14.62422,0.00E+00,70,-0.10603,1
717.471,67.9188,-1.72317,14.62416,0.00E+00,70,-6.62E-02,1
718.469,68.01846,-1.71801,14.62487,0.00E+00,70,-3.03E-02,1
719.466,68.118,-1.71405,14.62653,0.00E+00,70,-3.79E-03,1
720.464,68.21761,-1.70842,14.6268,0.00E+00,70,1.36E-02,1
721.462,68.31733,-1.7036,14.62753,0.00E+00,70,2.32E-02,1
722.46,68.41698,-1.70023,14.62856,0.00E+00,70,2.41E-02,1
723.457,68.51649,-1.69583,14.64336,0.00E+00,70,1.53E-02,1
724.455,68.61614,-1.69087,14.64979,0.00E+00,70,-1.38E-03,1
725.453,68.71597,-1.68663,14.64396,0.00E+00,70,-2.08E-02,1
726.451,68.81573,-1.68298,14.63318,0.00E+00,70,-3.72E-02,1
727.448,68.91537,-1.67891,14.62652,0.00E+00,70,-4.81E-02,1
728.446,69.01502,-1.67527,14.62274,0.00E+00,70,-5.57E-02,1
729.444,69.11457,-1.67064,14.62217,0.00E+00,70,-6.32E-02,1
730.442,69.21404,-1.6671,14.6128,0.00E+00,70,-7.24E-02,1
731.439,69.31363,-1.66319,14.6054,0.00E+00,70,-8.20E-02,1
732.437,69.41318,-1.65854,14.5988,0.00E+00,70,-8.90E-02,1
733.435,69.51287,-1.6535,14.58617,0.00E+00,70,-9.04E-02,1
734.433,69.61281,-1.65061,14.56929,0.00E+00,70,-8.58E-02,1
735.43,69.71298,-1.64685,14.56013,0.00E+00,70,-7.83E-02,1
736.4281,69.81292,-1.64382,14.56039,0.00E+00,70,-7.19E-02,1
737.426,69.91245,-1.64083,14.55814,0.00E+00,70,-6.80E-02,1
738.4236,70.01178,-1.63667,14.55147,0.00E+00,70,-6.28E-02,1
739.421,70.11106,-1.62966,14.5405,0.00E+00,70,-5.10E-02,1
740.4191,70.21035,-1.62671,14.52315,0.00E+00,70,-3.13E-02,1
741.417,70.30959,-1.6221,14.51527,0.00E+00,70,-9.78E-03,1
742.415,70.40887,-1.61802,14.53725,0.00E+00,70,3.75E-03,1
743.412,70.50828,-1.61494,14.54608,0.00E+00,70,2.90E-03,1
744.41,70.60784,-1.6112,14.54638,0.00E+00,70,-1.10E-02,1
745.408,70.70737,-1.60563,14.53818,0.00E+00,70,-3.07E-02,1
746.406,70.80699,-1.60058,14.53309,0.00E+00,70,-4.91E-02,1
747.403,70.90669,-1.5978,14.52499,0.00E+00,70,-6.22E-02,1
748.401,71.00633,-1.59312,14.51811,0.00E+00,70,-6.98E-02,1
749.399,71.10597,-1.5882,14.51009,0.00E+00,70,-7.35E-02,1
750.397,71.20578,-1.58372,14.50203,0.00E+00,70,-7.53E-02,1
751.394,71.30563,-1.57861,14.49397,0.00E+00,70,-7.77E-02,1
752.392,71.40537,-1.57518,14.48607,0.00E+00,70,-8.29E-02,1
753.39,71.50509,-1.57293,14.48346,0.00E+00,70,-9.20E-02,1
754.388,71.60489,-1.56753,14.47505,0.00E+00,70,-0.1044,1
755.385,71.70465,-1.56604,14.46131,0.00E+00,70,-0.11799,1
756.383,71.80418,-1.5611,14.44522,0.00E+00,70,-0.13218,1
757.381,71.90379,-1.55836,14.43201,0.00E+00,70,-0.1491,1
758.379,72.00357,-1.55356,14.41993,0.00E+00,70,-0.17075,1
759.376,72.10349,-1.55103,14.40794,0.00E+00,70,-0.19231,1
760.374,72.20315,-1.54798,14.39833,0.00E+00,70,-0.1993,1
761.3718,72.30282,-1.54376,14.38133,0.00E+00,70,-0.17609,1
762.37,72.40247,-1.54104,14.2551,0.00E+00,70,-0.12088,1
763.3673,72.50218,-1.53771,14.3075,0.00E+00,70,-5.24E-02,1
764.365,72.60179,-1.53448,14.33568,0.00E+00,70,1.55E-03,1
765.3628,72.70146,-1.53141,14.34368,0.00E+00,70,2.37E-02,1
766.361,72.80122,-1.52739,14.34767,0.00E+00,70,1.58E-02,1
767.358,72.90102,-1.52492,14.34496,0.00E+00,70,-7.87E-03,1
768.356,73.00077,-1.52453,14.34223,0.00E+00,70,-3.26E-02,1
769.354,73.10041,-1.52413,14.33143,0.00E+00,70,-5.10E-02,1
770.352,73.19995,-1.523,14.31938,0.00E+00,70,-6.29E-02,1
771.349,73.29931,-1.52177,14.31803,0.00E+00,70,-7.18E-02,1
772.347,73.39869,-1.51986,14.31675,0.00E+00,70,-8.01E-02,1
773.345,73.49811,-1.51735,14.31154,0.00E+00,70,-8.68E-02,1
774.343,73.59765,-1.51448,14.29019,0.00E+00,70,-8.88E-02,1
775.34,73.69725,-1.51088,14.27527,0.00E+00,70,-8.48E-02,1
776.338,73.79702,-1.50719,14.27086,0.00E+00,70,-7.74E-02,1
777.336,73.89688,-1.50214,14.26963,0.00E+00,70,-7.04E-02,1
778.334,73.99666,-1.50016,14.26443,0.00E+00,70,-6.52E-02,1
779.331,74.09629,-1.49815,14.25794,0.00E+00,70,-6.03E-02,1
780.329,74.19574,-1.49655,14.24149,0.00E+00,70,-5.35E-02,1
781.327,74.29525,-1.49324,14.24152,0.00E+00,70,-4.55E-02,1
782.325,74.39478,-1.49105,14.23603,0.00E+00,70,-3.99E-02,1
783.322,74.49441,-1.48718,14.23974,0.00E+00,70,-4.05E-02,1
784.32,74.59407,-1.48495,14.23883,0.00E+00,70,-4.92E-02,1
785.318,74.69372,-1.48166,14.23362,0.00E+00,70,-6.50E-02,1
786.3155,74.79336,-1.48049,14.2259,0.00E+00,70,-8.62E-02,1
787.313,74.893,-1.47749,14.21225,0.00E+00,70,-0.11066,1
788.311,74.99246,-1.4746,14.20412,0.00E+00,70,-0.13341,1
789.309,75.09184,-1.4729,14.19873,0.00E+00,70,-0.1436,1
790.3065,75.19124,-1.4707,14.20111,0.00E+00,70,-0.12844,1
791.304,75.29076,-1.46832,14.08744,0.00E+00,70,-8.45E-02,1
792.302,75.39039,-1.45352,14.11198,0.00E+00,70,-2.54E-02,1
793.3,75.49007,-1.44468,14.15864,0.00E+00,70,2.51E-02,1
794.297,75.58994,-1.43943,14.1646,0.00E+00,70,5.51E-02,1
795.295,75.68968,-1.43675,14.17523,0.00E+00,70,5.49E-02,1
796.293,75.78942,-1.4295,14.17557,0.00E+00,70,-6.56E-03,1
797.291,75.88892,-1.42755,14.16848,0.00E+00,70,-6.34E-02,1
797.79,75.93923,-1.42411,14.16675,0.00E+00,70,-8.88E-02,1