File: Wood/Calibration_Data/Aalto/Aalto_Wood_TGA_N2_10K_R2.csv
Time (s),Temperature (K),Mass (mg)
0,313.1,8.077
53.1606,314.1,8.071
70.1964,315.1,8.060
82.9776,316.1,8.050
93.8568,317.1,8.047
103.794,318.1,8.041
113.0922,319.1,8.038
121.8774,320.1,8.035
130.3074,321.1,8.032
138.4542,322.1,8.030
146.4006,323.1,8.028
154.2156,324.1,8.027
161.8614,325.1,8.025
169.3146,326.1,8.022
176.592,327.1,8.020
183.7278,328.1,8.020
190.7382,329.1,8.018
197.5986,330.1,8.017
204.3138,331.1,8.016
210.879,332.1,8.014
217.2888,333.1,8.013
223.5708,334.1,8.012
229.7412,335.1,8.010
235.8054,336.1,8.007
241.7844,337.1,8.006
247.6842,338.1,8.004
253.4862,339.1,8.003
259.197,340.1,8.002
264.8256,341.1,8.000
270.3906,342.1,7.999
275.9034,343.1,7.998
281.3736,344.1,7.996
286.794,345.1,7.994
292.1706,346.1,7.994
297.5184,347.1,7.992
302.8386,348.1,7.991
308.121,349.1,7.989
313.3578,350.1,7.988
318.5664,351.1,7.986
323.754,352.1,7.982
328.9296,353.1,7.981
334.0758,354.1,7.979
339.1956,355.1,7.977
344.2962,356.1,7.976
349.3746,357.1,7.975
354.4386,358.1,7.973
359.4714,359.1,7.972
364.491,360.1,7.970
369.4932,361.1,7.969
374.4894,362.1,7.968
379.4676,363.1,7.967
384.4326,364.1,7.966
389.3862,365.1,7.966
394.3362,366.1,7.964
399.2814,367.1,7.962
404.2122,368.1,7.961
409.1316,369.1,7.961
414.042,370.1,7.960
418.959,371.1,7.959
423.8856,372.1,7.959
428.811,373.1,7.958
433.7334,374.1,7.957
438.6444,375.1,7.956
443.5674,376.1,7.955
448.491,377.1,7.954
453.4314,378.1,7.954
458.37,379.1,7.953
463.3152,380.1,7.952
468.2628,381.1,7.952
473.2194,382.1,7.951
478.1904,383.1,7.951
483.1728,384.1,7.951
488.16,385.1,7.951
493.1484,386.1,7.950
498.138,387.1,7.949
503.1354,388.1,7.949
508.1382,389.1,7.949
513.1524,390.1,7.949
518.1834,391.1,7.949
523.2282,392.1,7.949
528.2802,393.1,7.949
533.3286,394.1,7.949
538.3854,395.1,7.948
543.4452,396.1,7.949
548.5242,397.1,7.949
553.6026,398.1,7.949
558.6936,399.1,7.949
563.7684,400.1,7.948
568.8516,401.1,7.947
573.9354,402.1,7.947
579.0504,403.1,7.947
584.1732,404.1,7.947
589.3128,405.1,7.947
594.4566,406.1,7.947
599.6142,407.1,7.947
604.7736,408.1,7.947
609.9354,409.1,7.947
615.0978,410.1,7.947
620.2698,411.1,7.947
625.458,412.1,7.948
630.6648,413.1,7.947
635.8818,414.1,7.945
641.1102,415.1,7.945
646.3476,416.1,7.945
651.6006,417.1,7.945
656.865,418.1,7.945
662.136,419.1,7.945
667.4112,420.1,7.944
672.6984,421.1,7.944
678.0036,422.1,7.944
683.325,423.1,7.944
688.662,424.1,7.944
694.005,425.1,7.944
699.3594,426.1,7.944
704.7276,427.1,7.944
710.1156,428.1,7.943
715.5192,429.1,7.943
720.9384,430.1,7.942
726.378,431.1,7.942
731.8296,432.1,7.941
737.283,433.1,7.941
742.734,434.1,7.941
748.1958,435.1,7.940
753.6876,436.1,7.939
759.1998,437.1,7.937
764.7276,438.1,7.936
770.2566,439.1,7.936
775.8036,440.1,7.936
781.3608,441.1,7.935
786.9276,442.1,7.935
792.5028,443.1,7.935
798.0876,444.1,7.933
803.6964,445.1,7.932
809.3196,446.1,7.930
814.953,447.1,7.929
820.5834,448.1,7.929
826.2204,449.1,7.927
831.8736,450.1,7.926
837.5508,451.1,7.925
843.2364,452.1,7.922
848.9154,453.1,7.919
854.589,454.1,7.918
860.2746,455.1,7.917
865.9698,456.1,7.916
871.6776,457.1,7.914
877.383,458.1,7.912
883.1046,459.1,7.910
888.8364,460.1,7.908
894.5892,461.1,7.906
900.3486,462.1,7.904
906.102,463.1,7.900
911.8488,464.1,7.898
917.5944,465.1,7.895
923.37,466.1,7.892
929.1636,467.1,7.889
934.9632,468.1,7.886
940.752,469.1,7.883
946.53,470.1,7.879
952.3212,471.1,7.876
958.1388,472.1,7.872
963.981,473.1,7.869
969.8286,474.1,7.865
975.6642,475.1,7.860
981.4956,476.1,7.856
987.3432,477.1,7.852
993.2136,478.1,7.849
999.099,479.1,7.845
1004.988,480.1,7.842
1010.88,481.1,7.838
1016.76,482.1,7.833
1022.66,483.1,7.829
1028.56,484.1,7.822
1034.47,485.1,7.817
1040.37,486.1,7.812
1046.28,487.1,7.807
1052.19,488.1,7.802
1058.118,489.1,7.798
1064.058,490.1,7.793
1069.99,491.1,7.789
1075.923,492.1,7.785
1081.85,493.1,7.779
1087.79,494.1,7.774
1093.73,495.1,7.768
1099.68,496.1,7.763
1105.65,497.1,7.756
1111.62,498.1,7.751
1117.59,499.1,7.746
1123.55,500.1,7.741
1129.51,501.1,7.735
1135.48,502.1,7.729
1141.46,503.1,7.723
1147.43,504.1,7.716
1153.41,505.1,7.710
1159.39,506.1,7.704
1165.37,507.1,7.697
1171.36,508.1,7.689
1177.35,509.1,7.683
1183.335,510.1,7.676
1189.329,511.1,7.669
1195.33,512.1,7.660
1201.33,513.1,7.652
1207.34,514.1,7.644
1213.36,515.1,7.635
1219.353,516.1,7.627
1225.344,517.1,7.618
1231.34,518.1,7.608
1237.353,519.1,7.598
1243.36,520.1,7.588
1249.36,521.1,7.579
1255.36,522.1,7.567
1261.38,523.1,7.556
1267.395,524.1,7.546
1273.42,525.1,7.534
1279.45,526.1,7.523
1285.47,527.1,7.511
1291.467,528.1,7.498
1297.46,529.1,7.486
1303.45,530.1,7.474
1309.44,531.1,7.461
1315.45,532.1,7.448
1321.48,533.1,7.435
1327.51,534.1,7.422
1333.545,535.1,7.407
1339.57,536.1,7.391
1345.59,537.1,7.376
1351.614,538.1,7.360
1357.64,539.1,7.344
1363.665,540.1,7.328
1369.69,541.1,7.312
1375.72,542.1,7.295
1381.74,543.1,7.279
1387.743,544.1,7.262
1393.75,545.1,7.245
1399.77,546.1,7.229
1405.81,547.1,7.209
1411.85,548.1,7.191
1417.89,549.1,7.170
1423.92,550.1,7.149
1429.959,551.1,7.130
1436,552.1,7.111
1442.05,553.1,7.089
1448.079,554.1,7.069
1454.11,555.1,7.049
1460.154,556.1,7.027
1466.199,557.1,7.005
1472.23,558.1,6.982
1478.27,559.1,6.960
1484.31,560.1,6.937
1490.37,561.1,6.913
1496.41,562.1,6.887
1502.43,563.1,6.864
1508.46,564.1,6.840
1514.49,565.1,6.816
1520.529,566.1,6.790
1526.57,567.1,6.763
1532.61,568.1,6.735
1538.655,569.1,6.709
1544.69,570.1,6.681
1550.73,571.1,6.649
1556.751,572.1,6.618
1562.79,573.1,6.588
1568.84,574.1,6.562
1574.868,575.1,6.529
1580.89,576.1,6.495
1586.91,577.1,6.468
1592.94,578.1,6.432
1598.98,579.1,6.400
1605.03,580.1,6.367
1611.08,581.1,6.330
1617.117,582.1,6.296
1623.16,583.1,6.261
1629.216,584.1,6.225
1635.27,585.1,6.188
1641.29,586.1,6.153
1647.31,587.1,6.116
1653.35,588.1,6.077
1659.4,589.1,6.037
1665.42,590.1,5.997
1671.44,591.1,5.956
1677.46,592.1,5.916
1683.49,593.1,5.874
1689.52,594.1,5.833
1695.57,595.1,5.791
1701.62,596.1,5.747
1707.66,597.1,5.701
1713.69,598.1,5.658
1719.72,599.1,5.613
1725.75,600.1,5.568
1731.77,601.1,5.524
1737.8,602.1,5.475
1743.84,603.1,5.427
1749.88,604.1,5.380
1755.92,605.1,5.333
1761.948,606.1,5.283
1767.981,607.1,5.233
1774.02,608.1,5.182
1780.07,609.1,5.131
1786.1,610.1,5.080
1792.12,611.1,5.029
1798.131,612.1,4.976
1804.15,613.1,4.925
1810.17,614.1,4.871
1816.19,615.1,4.817
1822.22,616.1,4.763
1828.25,617.1,4.708
1834.281,618.1,4.651
1840.31,619.1,4.594
1846.335,620.1,4.537
1852.34,621.1,4.480
1858.344,622.1,4.421
1864.38,623.1,4.360
1870.42,624.1,4.298
1876.46,625.1,4.236
1882.488,626.1,4.174
1888.53,627.1,4.108
1894.57,628.1,4.043
1900.61,629.1,3.977
1906.66,630.1,3.908
1912.7,631.1,3.839
1918.74,632.1,3.768
1924.776,633.1,3.695
1930.81,634.1,3.623
1936.85,635.1,3.549
1942.9,636.1,3.472
1948.96,637.1,3.395
1955.013,638.1,3.317
1961.06,639.1,3.239
1967.09,640.1,3.159
1973.13,641.1,3.080
1979.18,642.1,3.001
1985.22,643.1,2.921
1991.24,644.1,2.843
1997.253,645.1,2.766
2003.27,646.1,2.691
2009.29,647.1,2.619
2015.31,648.1,2.550
2021.32,649.1,2.482
2027.31,650.1,2.420
2033.29,651.1,2.362
2039.28,652.1,2.307
2045.26,653.1,2.259
2051.244,654.1,2.214
2057.23,655.1,2.175
2063.2,656.1,2.142
2069.15,657.1,2.116
2075.08,658.1,2.094
2081.061,659.1,2.073
2087.15,660.1,2.055
2093.31,661.1,2.041
2099.499,662.1,2.029
2105.7,663.1,2.020
2111.88,664.1,2.012
2118.012,665.1,2.004
2124.12,666.1,1.998
2130.22,667.1,1.990
2136.3,668.1,1.983
2142.36,669.1,1.975
2148.41,670.1,1.969
2154.447,671.1,1.963
2160.47,672.1,1.955
2166.49,673.1,1.949
2172.53,674.1,1.942
2178.57,675.1,1.936
2184.61,676.1,1.929
2190.66,677.1,1.923
2196.702,678.1,1.917
2202.76,679.1,1.911
2208.81,680.1,1.905
2214.855,681.1,1.899
2220.89,682.1,1.894
2226.91,683.1,1.888
2232.93,684.1,1.882
2238.95,685.1,1.877
2244.97,686.1,1.871
2251,687.1,1.865
2257.02,688.1,1.861
2263.03,689.1,1.856
2269.05,690.1,1.851
2275.08,691.1,1.846
2281.11,692.1,1.840
2287.14,693.1,1.835
2293.17,694.1,1.830
2299.2,695.1,1.826
2305.23,696.1,1.821
2311.27,697.1,1.815
2317.296,698.1,1.811
2323.33,699.1,1.806
2329.35,700.1,1.801
2335.38,701.1,1.796
2341.41,702.1,1.791
2347.434,703.1,1.786
2353.45,704.1,1.781
2359.46,705.1,1.776
2365.48,706.1,1.772
2371.51,707.1,1.766
2377.524,708.1,1.762
2383.54,709.1,1.756
2389.56,710.1,1.752
2395.593,711.1,1.748
2401.617,712.1,1.743
2407.65,713.1,1.739
2413.69,714.1,1.734
2419.731,715.1,1.730
2425.77,716.1,1.725
2431.8,717.1,1.721
2437.83,718.1,1.716
2443.86,719.1,1.712
2449.89,720.1,1.708
2455.92,721.1,1.704
2461.96,722.1,1.700
2467.992,723.1,1.697
2474.03,724.1,1.693
2480.06,725.1,1.689
2486.11,726.1,1.685
2492.16,727.1,1.681
2498.22,728.1,1.677
2504.26,729.1,1.673
2510.29,730.1,1.670
2516.31,731.1,1.666
2522.35,732.1,1.662
2528.39,733.1,1.659
2534.43,734.1,1.656
2540.47,735.1,1.651
2546.51,736.1,1.647
2552.55,737.1,1.645
2558.59,738.1,1.641
2564.64,739.1,1.637
2570.688,740.1,1.634
2576.75,741.1,1.631
2582.83,742.1,1.628
2588.904,743.1,1.625
2594.98,744.1,1.622
2601.06,745.1,1.619
2607.135,746.1,1.615
2613.2,747.1,1.612
2619.26,748.1,1.609
2625.31,749.1,1.606
2631.363,750.1,1.603
2637.39,751.1,1.599
2643.4,752.1,1.597
2649.39,753.1,1.595
2655.396,754.1,1.592
2661.4,755.1,1.590
2667.41,756.1,1.587
2673.4,757.1,1.585
2679.4,758.1,1.581
2685.393,759.1,1.579
2691.39,760.1,1.577
2697.381,761.1,1.574
2703.38,762.1,1.572
2709.37,763.1,1.569
2715.36,764.1,1.567
2721.36,765.1,1.564
2727.363,766.1,1.563
2733.38,767.1,1.560
2739.4,768.1,1.558
2745.42,769.1,1.556
2751.429,770.1,1.553
2757.43,771.1,1.551
2763.441,772.1,1.549
2769.46,773.1,1.545
2775.48,774.1,1.542
2781.5,775.1,1.537
2787.52,776.1,1.532
2793.522,777.1,1.529
2799.525,778.1,1.527
2805.53,779.1,1.525
2811.54,780.1,1.521
2817.57,781.1,1.520
2823.6,782.1,1.518
2829.63,783.1,1.515
2835.65,784.1,1.512
2841.66,785.1,1.511
2847.69,786.1,1.509
2853.72,787.1,1.507
2859.74,788.1,1.505
2865.75,789.1,1.504
2871.771,790.1,1.502
2877.79,791.1,1.501
2883.804,792.1,1.499
2889.82,793.1,1.496
2895.83,794.1,1.493
2901.84,795.1,1.490
2907.84,796.1,1.489
2913.84,797.1,1.487
2919.84,798.1,1.485
2925.85,799.1,1.483
2931.88,800.1,1.480
2937.906,801.1,1.477
2943.92,802.1,1.475
2949.92,803.1,1.473
2955.9,804.1,1.470
2961.89,805.1,1.468
2967.88,806.1,1.466
2973.89,807.1,1.464
2979.91,808.1,1.462
2985.92,809.1,1.461
2991.924,810.1,1.457
2997.94,811.1,1.455
3003.97,812.1,1.453
3009.99,813.1,1.450
3015.99,814.1,1.449
3021.99,815.1,1.447
3027.999,816.1,1.445
3034.01,817.1,1.443
3040.03,818.1,1.441
3046.04,819.1,1.438
3052.05,820.1,1.436
3058.05,821.1,1.434
3064.05,822.1,1.431
3070.07,823.1,1.428
3076.09,824.1,1.426
3082.1,825.1,1.424
3088.095,826.1,1.421
3094.09,827.1,1.419
3100.104,828.1,1.417
3106.12,829.1,1.415
3112.13,830.1,1.412
3118.14,831.1,1.409
3124.15,832.1,1.407
3130.155,833.1,1.404
3136.16,834.1,1.402
3142.179,835.1,1.400
3148.2,836.1,1.397
3154.23,837.1,1.395
3160.24,838.1,1.393
3166.25,839.1,1.392
3172.25,840.1,1.391
3178.254,841.1,1.390
3184.25,842.1,1.387
3190.26,843.1,1.386
3196.26,844.1,1.384
3202.27,845.1,1.383
3208.27,846.1,1.379
3214.27,847.1,1.375
3220.27,848.1,1.375
3226.254,849.1,1.371
3232.26,850.1,1.370
3238.27,851.1,1.370
3244.29,852.1,1.368
3250.31,853.1,1.366
3256.32,854.1,1.364
3262.32,855.1,1.362
3268.329,856.1,1.360
3274.35,857.1,1.358
3280.35,858.1,1.355
3286.35,859.1,1.354
3292.34,860.1,1.352
3298.33,861.1,1.349
3304.33,862.1,1.347
3310.33,863.1,1.343
3316.32,864.1,1.341
3322.31,865.1,1.339
3328.31,866.1,1.336
3334.3,867.1,1.335
3340.284,868.1,1.332
3346.28,869.1,1.329
3352.278,870.1,1.327
3358.275,871.1,1.325
3364.28,872.1,1.323
3370.29,873.1,1.316
3376.31,874.1,1.317
3382.33,875.1,1.317
3388.317,876.1,1.317
3394.31,877.1,1.315
3400.32,878.1,1.313
3406.33,879.1,1.310
3412.34,880.1,1.308
3418.34,881.1,1.306
3424.344,882.1,1.303
3430.34,883.1,1.301
3436.33,884.1,1.299
3442.32,885.1,1.296
3448.33,886.1,1.288
3454.33,887.1,1.290
3460.335,888.1,1.289
3466.33,889.1,1.288
3472.329,890.1,1.287
3478.33,891.1,1.285
3484.35,892.1,1.282
3490.35,893.1,1.280
3496.35,894.1,1.278
3502.34,895.1,1.277
3508.34,896.1,1.275
3514.33,897.1,1.273
3520.33,898.1,1.271
3526.34,899.1,1.270
3532.33,900.1,1.269
3538.33,901.1,1.267
3544.31,902.1,1.264
3550.3,903.1,1.263
3556.31,904.1,1.256
3562.317,905.1,1.257
3568.32,906.1,1.258
3574.33,907.1,1.257
3580.34,908.1,1.256
3586.37,909.1,1.254
3592.389,910.1,1.252
3598.392,911.1,1.250
3604.38,912.1,1.248
3610.37,913.1,1.246
3616.36,914.1,1.245
3622.359,915.1,1.243
3628.368,916.1,1.241
3634.37,917.1,1.240
3640.36,918.1,1.239
3646.35,919.1,1.237
3652.359,920.1,1.235
3658.36,921.1,1.234
3664.37,922.1,1.233
3670.37,923.1,1.231
3676.37,924.1,1.229
3682.36,925.1,1.227
3688.356,926.1,1.226
3694.35,927.1,1.224
3700.35,928.1,1.222
3706.34,929.1,1.221
3712.33,930.1,1.219
3718.33,931.1,1.218
3724.33,932.1,1.216
3730.33,933.1,1.214
3736.34,934.1,1.213
3742.353,935.1,1.212
3748.353,936.1,1.211
3754.35,937.1,1.209
3760.35,938.1,1.209
3766.356,939.1,1.207
3772.38,940.1,1.206
3778.4,941.1,1.204
3784.42,942.1,1.203
3790.42,943.1,1.202
3796.42,944.1,1.201
3802.413,945.1,1.200
3808.41,946.1,1.199
3814.41,947.1,1.197
3820.41,948.1,1.196
3826.4,949.1,1.196
3832.39,950.1,1.192
3838.383,951.1,1.191
3844.37,952.1,1.189
3850.37,953.1,1.186
3856.37,954.1,1.184
3862.36,955.1,1.182
3868.356,956.1,1.180
3874.34,957.1,1.178
3880.33,958.1,1.178
3886.31,959.1,1.178
3892.28,960.1,1.177
3898.25,961.1,1.176
3904.233,962.1,1.175
3910.22,963.1,1.174
3916.2,964.1,1.173
3922.19,965.1,1.173
3928.185,966.1,1.171
3934.18,967.1,1.170
3940.19,968.1,1.169
3946.191,969.1,1.167
3952.182,970.1,1.165
3958.16,971.1,1.164
3964.149,972.1,1.163
3970.14,973.1,1.161
3976.13,974.1,1.161
3982.12,975.1,1.160
3988.11,976.1,1.158
3994.1,977.1,1.157
4000.083,978.1,1.155
4006.06,979.1,1.154
4012.04,980.1,1.152
4018.02,981.1,1.150
4024.01,982.1,1.149
4030,983.1,1.147
4035.996,984.1,1.146
4041.99,985.1,1.145
4047.984,986.1,1.144
4053.98,987.1,1.143
4059.98,988.1,1.142
4065.98,989.1,1.141
4071.97,990.1,1.140
4077.96,991.1,1.138
4083.96,992.1,1.137
4089.95,993.1,1.136
4095.94,994.1,1.135
4101.92,995.1,1.133
4107.91,996.1,1.132
4113.91,997.1,1.133
4119.91,998.1,1.132
4125.9,999.1,1.131
4131.888,1000.1,1.129
4137.89,1001.1,1.128
4143.91,1002.1,1.127
4149.91,1003.1,1.126
4155.9,1004.1,1.125
4161.879,1005.1,1.124
4167.87,1006.1,1.123
4173.876,1007.1,1.122
4179.876,1008.1,1.121
4185.88,1009.1,1.120
4191.891,1010.1,1.119
4197.9,1011.1,1.117
4203.91,1012.1,1.116
4209.92,1013.1,1.115
4215.93,1014.1,1.114
4221.93,1015.1,1.114
4227.91,1016.1,1.114
4233.89,1017.1,1.114
4239.88,1018.1,1.113
4245.86,1019.1,1.112
4251.85,1020.1,1.111
4257.837,1021.1,1.109
4263.83,1022.1,1.108
4269.82,1023.1,1.108
4275.789,1024.1,1.107
4281.75,1025.1,1.106
4287.71,1026.1,1.104
4293.681,1027.1,1.103
4299.66,1028.1,1.102
4305.66,1029.1,1.101
4311.65,1030.1,1.100
4317.65,1031.1,1.098
4323.65,1032.1,1.097
4329.66,1033.1,1.096
4335.67,1034.1,1.095
4341.69,1035.1,1.087
4347.7,1036.1,1.086
4353.71,1037.1,1.090
4359.72,1038.1,1.090
4365.72,1039.1,1.090
4371.71,1040.1,1.089
4377.7,1041.1,1.088
4383.7,1042.1,1.088
4389.69,1043.1,1.087
4395.68,1044.1,1.085
4401.67,1045.1,1.084
4407.66,1046.1,1.083
4413.648,1047.1,1.081
4419.627,1048.1,1.080
4425.61,1049.1,1.079
4431.6,1050.1,1.078
4437.6,1051.1,1.077
4443.61,1052.1,1.077
4449.618,1053.1,1.076
4455.63,1054.1,1.076
4461.639,1055.1,1.075
4467.63,1056.1,1.073
4473.62,1057.1,1.073
4479.618,1058.1,1.072
4485.6,1059.1,1.071
4491.59,1060.1,1.070
4497.58,1061.1,1.070
4503.58,1062.1,1.069
4509.58,1063.1,1.067
4515.57,1064.1,1.060
4521.56,1065.1,1.058
4527.55,1066.1,1.062
4533.53,1067.1,1.063
4539.507,1068.1,1.063
4545.483,1069.1,1.062
4551.456,1070.1,1.061
4554.44,1070.6,1.061