File: Wood/Calibration_Data/Aalto/Aalto_Wood_STA_N2_10K_R2.csv
Time (s),Temperature (K),Mass (mg),,,,
0,313.129,8.0765,,,,
53.1606,314.129,8.07093,,,,
70.1964,315.129,8.05955,,,,
82.9776,316.129,8.05019,,,,
93.8568,317.129,8.04684,,,,
103.794,318.129,8.04095,,,,
113.0922,319.129,8.03848,,,,
121.8774,320.129,8.03499,,,,
130.3074,321.129,8.03237,,,,
138.4542,322.129,8.02956,,,,
146.4006,323.129,8.02754,,,,
154.2156,324.129,8.02671,,,,
161.8614,325.129,8.02533,,,,
169.3146,326.129,8.02162,,,,
176.592,327.129,8.02027,,,,
183.7278,328.129,8.01966,,,,
190.7382,329.129,8.01807,,,,
197.5986,330.129,8.01686,,,,
204.3138,331.129,8.01563,,,,
210.879,332.129,8.01397,,,,
217.2888,333.129,8.01299,,,,
223.5708,334.129,8.01184,,,,
229.7412,335.129,8.01004,,,,
235.8054,336.129,8.0074,,,,
241.7844,337.129,8.00556,,,,
247.6842,338.129,8.00382,,,,
253.4862,339.129,8.00271,,,,
259.197,340.129,8.00153,,,,
264.8256,341.129,7.99993,,,,
270.3906,342.129,7.99875,,,,
275.9034,343.129,7.99752,,,,
281.3736,344.129,7.99594,,,,
286.794,345.129,7.99417,,,,
292.1706,346.129,7.9938,,,,
297.5184,347.129,7.99245,,,,
302.8386,348.129,7.99094,,,,
308.121,349.129,7.98941,,,,
313.3578,350.129,7.98754,,,,
318.5664,351.129,7.98563,,,,
323.754,352.129,7.98234,,,,
328.9296,353.129,7.98072,,,,
334.0758,354.129,7.97918,,,,
339.1956,355.129,7.97746,,,,
344.2962,356.129,7.97623,,,,
349.3746,357.129,7.97469,,,,
354.4386,358.129,7.97319,,,,
359.4714,359.129,7.97204,,,,
364.491,360.129,7.9703,,,,
369.4932,361.129,7.96884,,,,
374.4894,362.129,7.96848,,,,
379.4676,363.129,7.96746,,,,
384.4326,364.129,7.96643,,,,
389.3862,365.129,7.96576,,,,
394.3362,366.129,7.96409,,,,
399.2814,367.129,7.96227,,,,
404.2122,368.129,7.96086,,,,
409.1316,369.129,7.96057,,,,
414.042,370.129,7.96009,,,,
418.959,371.129,7.9594,,,,
423.8856,372.129,7.95873,,,,
428.811,373.129,7.95783,,,,
433.7334,374.129,7.95701,,,,
438.6444,375.129,7.95618,,,,
443.5674,376.129,7.95517,,,,
448.491,377.129,7.95441,,,,
453.4314,378.129,7.95366,,,,
458.37,379.129,7.95301,,,,
463.3152,380.129,7.95234,,,,
468.2628,381.129,7.95156,,,,
473.2194,382.129,7.95119,,,,
478.1904,383.129,7.9512,,,,
483.1728,384.129,7.9512,,,,
488.16,385.129,7.95113,,,,
493.1484,386.129,7.94964,,,,
498.138,387.129,7.94878,,,,
503.1354,388.129,7.94919,,,,
508.1382,389.129,7.94862,,,,
513.1524,390.129,7.9485,,,,
518.1834,391.129,7.94867,,,,
523.2282,392.129,7.94881,,,,
528.2802,393.129,7.94879,,,,
533.3286,394.129,7.94872,,,,
538.3854,395.129,7.94824,,,,
543.4452,396.129,7.94865,,,,
548.5242,397.129,7.94861,,,,
553.6026,398.129,7.94875,,,,
558.6936,399.129,7.94868,,,,
563.7684,400.129,7.94773,,,,
568.8516,401.129,7.94699,,,,
573.9354,402.129,7.94686,,,,
579.0504,403.129,7.9474,,,,
584.1732,404.129,7.94732,,,,
589.3128,405.129,7.94707,,,,
594.4566,406.129,7.94676,,,,
599.6142,407.129,7.94658,,,,
604.7736,408.129,7.947,,,,
609.9354,409.129,7.94709,,,,
615.0978,410.129,7.9471,,,,
620.2698,411.129,7.94736,,,,
625.458,412.129,7.94761,,,,
630.6648,413.129,7.94658,,,,
635.8818,414.129,7.94492,,,,
641.1102,415.129,7.9447,,,,
646.3476,416.129,7.94469,,,,
651.6006,417.129,7.94483,,,,
656.865,418.129,7.94481,,,,
662.136,419.129,7.94471,,,,
667.4112,420.129,7.94443,,,,
672.6984,421.129,7.94437,,,,
678.0036,422.129,7.9441,,,,
683.325,423.129,7.94417,,,,
688.662,424.129,7.94431,,,,
694.005,425.129,7.94427,,,,
699.3594,426.129,7.94408,,,,
704.7276,427.129,7.94372,,,,
710.1156,428.129,7.94346,,,,
715.5192,429.129,7.94268,,,,
720.9384,430.129,7.94213,,,,
726.378,431.129,7.94177,,,,
731.8296,432.129,7.94131,,,,
737.283,433.129,7.94086,,,,
742.734,434.129,7.94068,,,,
748.1958,435.129,7.94015,,,,
753.6876,436.129,7.93887,,,,
759.1998,437.129,7.93735,,,,
764.7276,438.129,7.93632,,,,
770.2566,439.129,7.93606,,,,
775.8036,440.129,7.93574,,,,
781.3608,441.129,7.9354,,,,
786.9276,442.129,7.93517,,,,
792.5028,443.129,7.93479,,,,
798.0876,444.129,7.93348,,,,
803.6964,445.129,7.93187,,,,
809.3196,446.129,7.93031,,,,
814.953,447.129,7.92906,,,,
820.5834,448.129,7.92856,,,,
826.2204,449.129,7.9273,,,,
831.8736,450.129,7.92599,,,,
837.5508,451.129,7.92463,,,,
843.2364,452.129,7.92157,,,,
848.9154,453.129,7.91922,,,,
854.589,454.129,7.9182,,,,
860.2746,455.129,7.91693,,,,
865.9698,456.129,7.91571,,,,
871.6776,457.129,7.91414,,,,
877.383,458.129,7.91234,,,,
883.1046,459.129,7.90989,,,,
888.8364,460.129,7.90803,,,,
894.5892,461.129,7.90643,,,,
900.3486,462.129,7.90428,,,,
906.102,463.129,7.89983,,,,
911.8488,464.129,7.89777,,,,
917.5944,465.129,7.89499,,,,
923.37,466.129,7.89159,,,,
929.1636,467.129,7.88861,,,,
934.9632,468.129,7.88623,,,,
940.752,469.129,7.88343,,,,
946.53,470.129,7.87937,,,,
952.3212,471.129,7.8761,,,,
958.1388,472.129,7.87222,,,,
963.981,473.129,7.86857,,,,
969.8286,474.129,7.86481,,,,
975.6642,475.129,7.86047,,,,
981.4956,476.129,7.85645,,,,
987.3432,477.129,7.85248,,,,
993.2136,478.129,7.84905,,,,
999.099,479.129,7.84535,,,,
1004.988,480.129,7.84171,,,,
1010.88,481.129,7.8378,,,,
1016.76,482.129,7.83317,,,,
1022.66,483.129,7.82884,,,,
1028.56,484.129,7.82212,,,,
1034.47,485.129,7.81734,,,,
1040.37,486.129,7.81217,,,,
1046.28,487.129,7.8067,,,,
1052.19,488.129,7.80167,,,,
1058.118,489.129,7.79774,,,,
1064.058,490.129,7.7932,,,,
1069.99,491.129,7.78902,,,,
1075.923,492.129,7.7848,,,,
1081.85,493.129,7.77926,,,,
1087.79,494.129,7.77422,,,,
1093.73,495.129,7.76821,,,,
1099.68,496.129,7.76313,,,,
1105.65,497.129,7.75645,,,,
1111.62,498.129,7.75065,,,,
1117.59,499.129,7.74592,,,,
1123.55,500.129,7.74072,,,,
1129.51,501.129,7.73498,,,,
1135.48,502.129,7.72875,,,,
1141.46,503.129,7.72261,,,,
1147.43,504.129,7.71589,,,,
1153.41,505.129,7.70993,,,,
1159.39,506.129,7.70372,,,,
1165.37,507.129,7.69658,,,,
1171.36,508.129,7.68936,,,,
1177.35,509.129,7.68316,,,,
1183.335,510.129,7.67643,,,,
1189.329,511.129,7.66901,,,,
1195.33,512.129,7.66008,,,,
1201.33,513.129,7.65234,,,,
1207.34,514.129,7.64408,,,,
1213.36,515.129,7.63506,,,,
1219.353,516.129,7.62661,,,,
1225.344,517.129,7.6176,,,,
1231.34,518.129,7.60779,,,,
1237.353,519.129,7.59811,,,,
1243.36,520.129,7.58837,,,,
1249.36,521.129,7.57874,,,,
1255.36,522.129,7.56701,,,,
1261.38,523.129,7.5557,,,,
1267.395,524.129,7.54575,,,,
1273.42,525.129,7.53395,,,,
1279.45,526.129,7.52286,,,,
1285.47,527.129,7.5106,,,,
1291.467,528.129,7.49841,,,,
1297.46,529.129,7.48628,,,,
1303.45,530.129,7.47354,,,,
1309.44,531.129,7.4614,,,,
1315.45,532.129,7.44753,,,,
1321.48,533.129,7.43458,,,,
1327.51,534.129,7.42166,,,,
1333.545,535.129,7.40693,,,,
1339.57,536.129,7.39111,,,,
1345.59,537.129,7.37576,,,,
1351.614,538.129,7.36,,,,
1357.64,539.129,7.34395,,,,
1363.665,540.129,7.32778,,,,
1369.69,541.129,7.3121,,,,
1375.72,542.129,7.29542,,,,
1381.74,543.129,7.2787,,,,
1387.743,544.129,7.26193,,,,
1393.75,545.129,7.24523,,,,
1399.77,546.129,7.22936,,,,
1405.81,547.129,7.209369,,,,
1411.85,548.129,7.19132,,,,
1417.89,549.129,7.16976,,,,
1423.92,550.129,7.14943,,,,
1429.959,551.129,7.12978,,,,
1436,552.129,7.11082,,,,
1442.05,553.129,7.08933,,,,
1448.079,554.129,7.06915,,,,
1454.11,555.129,7.04864,,,,
1460.154,556.129,7.02666,,,,
1466.199,557.129,7.00513,,,,
1472.23,558.129,6.98247,,,,
1478.27,559.129,6.95958,,,,
1484.31,560.129,6.93691,,,,
1490.37,561.129,6.91281,,,,
1496.41,562.129,6.887,,,,
1502.43,563.129,6.86358,,,,
1508.46,564.129,6.83991,,,,
1514.49,565.129,6.81554,,,,
1520.529,566.129,6.79017,,,,
1526.57,567.129,6.76283,,,,
1532.61,568.129,6.73526,,,,
1538.655,569.129,6.70906,,,,
1544.69,570.129,6.6807,,,,
1550.73,571.129,6.64936,,,,
1556.751,572.129,6.61753,,,,
1562.79,573.129,6.58777,,,,
1568.84,574.129,6.56178,,,,
1574.868,575.129,6.52895,,,,
1580.89,576.129,6.49478,,,,
1586.91,577.129,6.46774,,,,
1592.94,578.129,6.43248,,,,
1598.98,579.129,6.39992,,,,
1605.03,580.129,6.36712,,,,
1611.08,581.129,6.32967,,,,
1617.117,582.129,6.29629,,,,
1623.16,583.129,6.26129,,,,
1629.216,584.129,6.22456,,,,
1635.27,585.129,6.18849,,,,
1641.29,586.129,6.15324,,,,
1647.31,587.129,6.11584,,,,
1653.35,588.129,6.07721,,,,
1659.4,589.129,6.03673,,,,
1665.42,590.129,5.99702,,,,
1671.44,591.129,5.95648,,,,
1677.46,592.129,5.91586,,,,
1683.49,593.129,5.87372,,,,
1689.52,594.129,5.83283,,,,
1695.57,595.129,5.79081,,,,
1701.62,596.129,5.74745,,,,
1707.66,597.129,5.7011,,,,
1713.69,598.129,5.65798,,,,
1719.72,599.129,5.6129,,,,
1725.75,600.129,5.56756,,,,
1731.77,601.129,5.52356,,,,
1737.8,602.129,5.47539,,,,
1743.84,603.129,5.42716,,,,
1749.88,604.129,5.38029,,,,
1755.92,605.129,5.33272,,,,
1761.948,606.129,5.2833,,,,
1767.981,607.129,5.23349,,,,
1774.02,608.129,5.18225,,,,
1780.07,609.129,5.13106,,,,
1786.1,610.129,5.08007,,,,
1792.12,611.129,5.02852,,,,
1798.131,612.129,4.97647,,,,
1804.15,613.129,4.92545,,,,
1810.17,614.129,4.8711,,,,
1816.19,615.129,4.81702,,,,
1822.22,616.129,4.7625,,,,
1828.25,617.129,4.70759,,,,
1834.281,618.129,4.6514,,,,
1840.31,619.129,4.59387,,,,
1846.335,620.129,4.537,,,,
1852.34,621.129,4.47993,,,,
1858.344,622.129,4.42095,,,,
1864.38,623.129,4.36009,,,,
1870.42,624.129,4.29812,,,,
1876.46,625.129,4.23616,,,,
1882.488,626.129,4.17437,,,,
1888.53,627.129,4.10793,,,,
1894.57,628.129,4.04261,,,,
1900.61,629.129,3.97696,,,,
1906.66,630.129,3.90778,,,,
1912.7,631.129,3.83885,,,,
1918.74,632.129,3.76804,,,,
1924.776,633.129,3.69543,,,,
1930.81,634.129,3.62265,,,,
1936.85,635.129,3.54895,,,,
1942.9,636.129,3.47157,,,,
1948.96,637.129,3.39525,,,,
1955.013,638.129,3.31695,,,,
1961.06,639.129,3.23865,,,,
1967.09,640.129,3.15894,,,,
1973.13,641.129,3.0796,,,,
1979.18,642.129,3.00115,,,,
1985.22,643.129,2.9214,,,,
1991.24,644.129,2.84253,,,,
1997.253,645.129,2.76599,,,,
2003.27,646.129,2.69134,,,,
2009.29,647.129,2.61943,,,,
2015.31,648.129,2.54968,,,,
2021.32,649.129,2.48186,,,,
2027.31,650.129,2.41978,,,,
2033.29,651.129,2.36188,,,,
2039.28,652.129,2.30728,,,,
2045.26,653.129,2.25857,,,,
2051.244,654.129,2.21402,,,,
2057.23,655.129,2.17479,,,,
2063.2,656.129,2.14197,,,,
2069.15,657.129,2.11635,,,,
2075.08,658.129,2.09433,,,,
2081.061,659.129,2.07331,,,,
2087.15,660.129,2.05494,,,,
2093.31,661.129,2.04125,,,,
2099.499,662.129,2.02884,,,,
2105.7,663.129,2.01967,,,,
2111.88,664.129,2.01177,,,,
2118.012,665.129,2.00429,,,,
2124.12,666.129,1.99787,,,,
2130.22,667.129,1.98994,,,,
2136.3,668.129,1.98278,,,,
2142.36,669.129,1.97484,,,,
2148.41,670.129,1.9686,,,,
2154.447,671.129,1.96263,,,,
2160.47,672.129,1.95514,,,,
2166.49,673.129,1.94925,,,,
2172.53,674.129,1.94216,,,,
2178.57,675.129,1.93571,,,,
2184.61,676.129,1.92922,,,,
2190.66,677.129,1.92345,,,,
2196.702,678.129,1.9174,,,,
2202.76,679.129,1.91095,,,,
2208.81,680.129,1.90524,,,,
2214.855,681.129,1.89899,,,,
2220.89,682.129,1.89389,,,,
2226.91,683.129,1.88775,,,,
2232.93,684.129,1.8823,,,,
2238.95,685.129,1.87702,,,,
2244.97,686.129,1.87066,,,,
2251,687.129,1.86506,,,,
2257.02,688.129,1.86084,,,,
2263.03,689.129,1.856,,,,
2269.05,690.129,1.85143,,,,
2275.08,691.129,1.84595,,,,
2281.11,692.129,1.84003,,,,
2287.14,693.129,1.83486,,,,
2293.17,694.129,1.83011,,,,
2299.2,695.129,1.82577,,,,
2305.23,696.129,1.82086,,,,
2311.27,697.129,1.81525,,,,
2317.296,698.129,1.81067,,,,
2323.33,699.129,1.80579,,,,
2329.35,700.129,1.801,,,,
2335.38,701.129,1.79566,,,,
2341.41,702.129,1.79105,,,,
2347.434,703.129,1.78593,,,,
2353.45,704.129,1.78141,,,,
2359.46,705.129,1.77578,,,,
2365.48,706.129,1.7717,,,,
2371.51,707.129,1.76615,,,,
2377.524,708.129,1.76153,,,,
2383.54,709.129,1.75641,,,,
2389.56,710.129,1.75245,,,,
2395.593,711.129,1.74822,,,,
2401.617,712.129,1.7431,,,,
2407.65,713.129,1.73862,,,,
2413.69,714.129,1.73374,,,,
2419.731,715.129,1.72984,,,,
2425.77,716.129,1.72488,,,,
2431.8,717.129,1.72053,,,,
2437.83,718.129,1.71599,,,,
2443.86,719.129,1.7123,,,,
2449.89,720.129,1.70821,,,,
2455.92,721.129,1.70402,,,,
2461.96,722.129,1.69973,,,,
2467.992,723.129,1.69666,,,,
2474.03,724.129,1.6928,,,,
2480.06,725.129,1.68864,,,,
2486.11,726.129,1.68507,,,,
2492.16,727.129,1.68107,,,,
2498.22,728.129,1.67741,,,,
2504.26,729.129,1.6731,,,,
2510.29,730.129,1.67003,,,,
2516.31,731.129,1.66605,,,,
2522.35,732.129,1.66157,,,,
2528.39,733.129,1.65866,,,,
2534.43,734.129,1.65561,,,,
2540.47,735.129,1.65127,,,,
2546.51,736.129,1.64747,,,,
2552.55,737.129,1.64458,,,,
2558.59,738.129,1.64053,,,,
2564.64,739.129,1.63727,,,,
2570.688,740.129,1.63444,,,,
2576.75,741.129,1.63074,,,,
2582.83,742.129,1.62845,,,,
2588.904,743.129,1.62526,,,,
2594.98,744.129,1.621909,,,,
2601.06,745.129,1.61877,,,,
2607.135,746.129,1.61501,,,,
2613.2,747.129,1.61192,,,,
2619.26,748.129,1.60937,,,,
2625.31,749.129,1.60626,,,,
2631.363,750.129,1.60335,,,,
2637.39,751.129,1.59949,,,,
2643.4,752.129,1.59725,,,,
2649.39,753.129,1.59492,,,,
2655.396,754.129,1.59239,,,,
2661.4,755.129,1.58956,,,,
2667.41,756.129,1.58701,,,,
2673.4,757.129,1.58477,,,,
2679.4,758.129,1.5813,,,,
2685.393,759.129,1.57934,,,,
2691.39,760.129,1.57715,,,,
2697.381,761.129,1.57427,,,,
2703.38,762.129,1.57186,,,,
2709.37,763.129,1.56885,,,,
2715.36,764.129,1.56677,,,,
2721.36,765.129,1.56444,,,,
2727.363,766.129,1.56311,,,,
2733.38,767.129,1.55976,,,,
2739.4,768.129,1.55804,,,,
2745.42,769.129,1.5556,,,,
2751.429,770.129,1.55283,,,,
2757.43,771.129,1.55082,,,,
2763.441,772.129,1.54856,,,,
2769.46,773.129,1.54511,,,,
2775.48,774.129,1.54202,,,,
2781.5,775.129,1.53746,,,,
2787.52,776.129,1.53228,,,,
2793.522,777.129,1.52922,,,,
2799.525,778.129,1.5269,,,,
2805.53,779.129,1.52465,,,,
2811.54,780.129,1.52133,,,,
2817.57,781.129,1.51981,,,,
2823.6,782.129,1.51777,,,,
2829.63,783.129,1.51493,,,,
2835.65,784.129,1.51232,,,,
2841.66,785.129,1.51077,,,,
2847.69,786.129,1.50866,,,,
2853.72,787.129,1.50655,,,,
2859.74,788.129,1.50548,,,,
2865.75,789.129,1.50398,,,,
2871.771,790.129,1.50223,,,,
2877.79,791.129,1.50058,,,,
2883.804,792.129,1.49874,,,,
2889.82,793.129,1.49596,,,,
2895.83,794.129,1.49303,,,,
2901.84,795.129,1.48952,,,,
2907.84,796.129,1.48856,,,,
2913.84,797.129,1.48691,,,,
2919.84,798.129,1.48474,,,,
2925.85,799.129,1.48261,,,,
2931.88,800.129,1.48003,,,,
2937.906,801.129,1.47705,,,,
2943.92,802.129,1.47486,,,,
2949.92,803.129,1.47281,,,,
2955.9,804.129,1.4705,,,,
2961.89,805.129,1.46842,,,,
2967.88,806.129,1.46625,,,,
2973.89,807.129,1.46409,,,,
2979.91,808.129,1.46193,,,,
2985.92,809.129,1.46053,,,,
2991.924,810.129,1.45718,,,,
2997.94,811.129,1.4553,,,,
3003.97,812.129,1.45269,,,,
3009.99,813.129,1.45045,,,,
3015.99,814.129,1.44872,,,,
3021.99,815.129,1.4469,,,,
3027.999,816.129,1.4451,,,,
3034.01,817.129,1.44263,,,,
3040.03,818.129,1.44059,,,,
3046.04,819.129,1.43796,,,,
3052.05,820.129,1.43552,,,,
3058.05,821.129,1.43359,,,,
3064.05,822.129,1.43056,,,,
3070.07,823.129,1.42809,,,,
3076.09,824.129,1.42594,,,,
3082.1,825.129,1.4238,,,,
3088.095,826.129,1.42075,,,,
3094.09,827.129,1.41864,,,,
3100.104,828.129,1.41663,,,,
3106.12,829.129,1.41474,,,,
3112.13,830.129,1.41183,,,,
3118.14,831.129,1.40935,,,,
3124.15,832.129,1.40684,,,,
3130.155,833.129,1.40381,,,,
3136.16,834.129,1.40183,,,,
3142.179,835.129,1.39954,,,,
3148.2,836.129,1.39735,,,,
3154.23,837.129,1.39513,,,,
3160.24,838.129,1.39326,,,,
3166.25,839.129,1.39162,,,,
3172.25,840.129,1.3908,,,,
3178.254,841.129,1.39004,,,,
3184.25,842.129,1.38731,,,,
3190.26,843.129,1.38636,,,,
3196.26,844.129,1.38444,,,,
3202.27,845.129,1.38275,,,,
3208.27,846.129,1.37854,,,,
3214.27,847.129,1.37507,,,,
3220.27,848.129,1.37457,,,,
3226.254,849.129,1.37055,,,,
3232.26,850.129,1.37046,,,,
3238.27,851.129,1.37015,,,,
3244.29,852.129,1.36788,,,,
3250.31,853.129,1.36555,,,,
3256.32,854.129,1.36394,,,,
3262.32,855.129,1.36244,,,,
3268.329,856.129,1.36013,,,,
3274.35,857.129,1.35777,,,,
3280.35,858.129,1.35502,,,,
3286.35,859.129,1.35388,,,,
3292.34,860.129,1.35161,,,,
3298.33,861.129,1.34933,,,,
3304.33,862.129,1.34707,,,,
3310.33,863.129,1.34335,,,,
3316.32,864.129,1.34126,,,,
3322.31,865.129,1.33916,,,,
3328.31,866.129,1.33615,,,,
3334.3,867.129,1.33497,,,,
3340.284,868.129,1.33238,,,,
3346.28,869.129,1.32941,,,,
3352.278,870.129,1.32713,,,,
3358.275,871.129,1.32531,,,,
3364.28,872.129,1.32328,,,,
3370.29,873.129,1.31556,,,,
3376.31,874.129,1.31651,,,,
3382.33,875.129,1.31704,,,,
3388.317,876.129,1.3165,,,,
3394.31,877.129,1.31509,,,,
3400.32,878.129,1.31305,,,,
3406.33,879.129,1.31027,,,,
3412.34,880.129,1.30834,,,,
3418.34,881.129,1.30602,,,,
3424.344,882.129,1.30292,,,,
3430.34,883.129,1.30104,,,,
3436.33,884.129,1.29926,,,,
3442.32,885.129,1.29567,,,,
3448.33,886.129,1.28799,,,,
3454.33,887.129,1.29022,,,,
3460.335,888.129,1.28879,,,,
3466.33,889.129,1.28803,,,,
3472.329,890.129,1.2869,,,,
3478.33,891.129,1.28455,,,,
3484.35,892.129,1.28183,,,,
3490.35,893.129,1.28029,,,,
3496.35,894.129,1.27836,,,,
3502.34,895.129,1.27691,,,,
3508.34,896.129,1.27533,,,,
3514.33,897.129,1.27334,,,,
3520.33,898.129,1.27144,,,,
3526.34,899.129,1.27006,,,,
3532.33,900.129,1.26853,,,,
3538.33,901.129,1.26708,,,,
3544.31,902.129,1.26447,,,,
3550.3,903.129,1.26304,,,,
3556.31,904.129,1.25617,,,,
3562.317,905.129,1.25716,,,,
3568.32,906.129,1.25829,,,,
3574.33,907.129,1.25701,,,,
3580.34,908.129,1.25558,,,,
3586.37,909.129,1.25355,,,,
3592.389,910.129,1.25183,,,,
3598.392,911.129,1.25022,,,,
3604.38,912.129,1.24811,,,,
3610.37,913.129,1.24552,,,,
3616.36,914.129,1.24465,,,,
3622.359,915.129,1.24297,,,,
3628.368,916.129,1.24146,,,,
3634.37,917.129,1.24049,,,,
3640.36,918.129,1.23857,,,,
3646.35,919.129,1.23677,,,,
3652.359,920.129,1.23539,,,,
3658.36,921.129,1.23414,,,,
3664.37,922.129,1.23276,,,,
3670.37,923.129,1.23137,,,,
3676.37,924.129,1.22896,,,,
3682.36,925.129,1.22712,,,,
3688.356,926.129,1.22572,,,,
3694.35,927.129,1.22365,,,,
3700.35,928.129,1.22181,,,,
3706.34,929.129,1.22062,,,,
3712.33,930.129,1.21925,,,,
3718.33,931.129,1.2176,,,,
3724.33,932.129,1.2158,,,,
3730.33,933.129,1.21404,,,,
3736.34,934.129,1.2127,,,,
3742.353,935.129,1.21173,,,,
3748.353,936.129,1.21066,,,,
3754.35,937.129,1.20917,,,,
3760.35,938.129,1.20872,,,,
3766.356,939.129,1.20654,,,,
3772.38,940.129,1.20564,,,,
3778.4,941.129,1.20431,,,,
3784.42,942.129,1.20325,,,,
3790.42,943.129,1.20176,,,,
3796.42,944.129,1.20098,,,,
3802.413,945.129,1.19989,,,,
3808.41,946.129,1.19882,,,,
3814.41,947.129,1.19702,,,,
3820.41,948.129,1.19623,,,,
3826.4,949.129,1.19554,,,,
3832.39,950.129,1.19234,,,,
3838.383,951.129,1.1905,,,,
3844.37,952.129,1.18854,,,,
3850.37,953.129,1.18643,,,,
3856.37,954.129,1.18448,,,,
3862.36,955.129,1.18239,,,,
3868.356,956.129,1.17972,,,,
3874.34,957.129,1.17843,,,,
3880.33,958.129,1.17805,,,,
3886.31,959.129,1.17793,,,,
3892.28,960.129,1.17672,,,,
3898.25,961.129,1.17617,,,,
3904.233,962.129,1.17496,,,,
3910.22,963.129,1.17403,,,,
3916.2,964.129,1.17347,,,,
3922.19,965.129,1.17263,,,,
3928.185,966.129,1.17122,,,,
3934.18,967.129,1.16993,,,,
3940.19,968.129,1.16861,,,,
3946.191,969.129,1.16687,,,,
3952.182,970.129,1.16545,,,,
3958.16,971.129,1.16437,,,,
3964.149,972.129,1.16306,,,,
3970.14,973.129,1.1611,,,,
3976.13,974.129,1.16059,,,,
3982.12,975.129,1.15959,,,,
3988.11,976.129,1.15828,,,,
3994.1,977.129,1.15677,,,,
4000.083,978.129,1.15511,,,,
4006.06,979.129,1.1536,,,,
4012.04,980.129,1.15232,,,,
4018.02,981.129,1.15022,,,,
4024.01,982.129,1.14909,,,,
4030,983.129,1.14738,,,,
4035.996,984.129,1.14617,,,,
4041.99,985.129,1.14534,,,,
4047.984,986.129,1.14433,,,,
4053.98,987.129,1.14325,,,,
4059.98,988.129,1.14202,,,,
4065.98,989.129,1.14093,,,,
4071.97,990.129,1.14023,,,,
4077.96,991.129,1.13829,,,,
4083.96,992.129,1.13701,,,,
4089.95,993.129,1.13598,,,,
4095.94,994.129,1.13458,,,,
4101.92,995.129,1.13339,,,,
4107.91,996.129,1.13239,,,,
4113.91,997.129,1.13251,,,,
4119.91,998.129,1.13153,,,,
4125.9,999.129,1.13071,,,,
4131.888,1000.129,1.12917,,,,
4137.89,1001.129,1.12817,,,,
4143.91,1002.129,1.12711,,,,
4149.91,1003.129,1.12603,,,,
4155.9,1004.129,1.12498,,,,
4161.879,1005.129,1.12405,,,,
4167.87,1006.129,1.12319,,,,
4173.876,1007.129,1.12224,,,,
4179.876,1008.129,1.12087,,,,
4185.88,1009.129,1.12001,,,,
4191.891,1010.129,1.11876,,,,
4197.9,1011.129,1.11654,,,,
4203.91,1012.129,1.11572,,,,
4209.92,1013.129,1.11514,,,,
4215.93,1014.129,1.11423,,,,
4221.93,1015.129,1.11381,,,,
4227.91,1016.129,1.11388,,,,
4233.89,1017.129,1.11364,,,,
4239.88,1018.129,1.11314,,,,
4245.86,1019.129,1.11206,,,,
4251.85,1020.129,1.11062,,,,
4257.837,1021.129,1.10934,,,,
4263.83,1022.129,1.10833,,,,
4269.82,1023.129,1.10782,,,,
4275.789,1024.129,1.10695,,,,
4281.75,1025.129,1.10561,,,,
4287.71,1026.129,1.10417,,,,
4293.681,1027.129,1.10321,,,,
4299.66,1028.129,1.10217,,,,
4305.66,1029.129,1.10086,,,,
4311.65,1030.129,1.09964,,,,
4317.65,1031.129,1.09822,,,,
4323.65,1032.129,1.0974,,,,
4329.66,1033.129,1.09602,,,,
4335.67,1034.129,1.09486,,,,
4341.69,1035.129,1.08746,,,,
4347.7,1036.129,1.08569,,,,
4353.71,1037.129,1.08992,,,,
4359.72,1038.129,1.09014,,,,
4365.72,1039.129,1.08959,,,,
4371.71,1040.129,1.08908,,,,
4377.7,1041.129,1.08825,,,,
4383.7,1042.129,1.0882,,,,
4389.69,1043.129,1.08675,,,,
4395.68,1044.129,1.08506,,,,
4401.67,1045.129,1.08415,,,,
4407.66,1046.129,1.08264,,,,
4413.648,1047.129,1.08145,,,,
4419.627,1048.129,1.07982,,,,
4425.61,1049.129,1.07871,,,,
4431.6,1050.129,1.07768,,,,
4437.6,1051.129,1.07687,,,,
4443.61,1052.129,1.07676,,,,
4449.618,1053.129,1.07599,,,,
4455.63,1054.129,1.07559,,,,
4461.639,1055.129,1.07472,,,,
4467.63,1056.129,1.07301,,,,
4473.62,1057.129,1.07297,,,,
4479.618,1058.129,1.07222,,,,
4485.6,1059.129,1.0713,,,,
4491.59,1060.129,1.07043,,,,
4497.58,1061.129,1.06952,,,,
4503.58,1062.129,1.06857,,,,
4509.58,1063.129,1.06708,,,,
4515.57,1064.129,1.05984,,,,
4521.56,1065.129,1.05811,,,,
4527.55,1066.129,1.06155,,,,
4533.53,1067.129,1.06255,,,,
4539.507,1068.129,1.0627,,,,
4545.483,1069.129,1.06202,,,,
4551.456,1070.129,1.06139,,,,
4554.44,1070.629,1.0614,,,,