File: Non-charring/PMMA/UMET/UMET_TGA_N2_2.csv
Time,Temperature,Mass
[s],[K],[mg]
0,313.115,4.8446
0.25,313.615,4.8446
0.5,314.115,4.8446
0.75,314.615,4.8446
1,315.115,4.8446
1.25,315.615,4.8446
1.5,316.115,4.8446
1.75,316.615,4.8446
2,317.115,4.8446
2.25,317.615,4.8446
2.5,318.115,4.8446
2.75,318.615,4.8446
3,319.115,4.8446
3.25,319.615,4.8446
3.5,320.115,4.8446
3.75,320.615,4.8446
4,321.115,4.8446
4.25,321.615,4.8446
4.5,322.115,4.8446
4.75,322.615,4.8446
5,323.115,4.8446
5.25,323.615,4.8446
5.5,324.115,4.8446
5.75,324.615,4.8446
6,325.115,4.8446
6.25,325.615,4.8446
6.5,326.115,4.8446
6.75,326.615,4.8446
7,327.115,4.8446
7.25,327.615,4.8446
7.5,328.115,4.8446
7.75,328.615,4.8446
8,329.115,4.8446
8.25,329.615,4.8446
8.5,330.115,4.8446
8.75,330.615,4.8446
9,331.115,4.8446
9.25,331.615,4.8446
9.5,332.115,4.8446
9.75,332.615,4.8446
10,333.115,4.8446
10.25,333.615,4.8446
10.5,334.115,4.8446
10.75,334.615,4.8446
11,335.115,4.8446
11.25,335.615,4.8446
11.5,336.115,4.8446
11.75,336.615,4.8446
12,337.115,4.8446
12.25,337.615,4.8446
12.5,338.115,4.8446
12.75,338.615,4.8446
13,339.115,4.8446
13.25,339.615,4.8446
13.5,340.115,4.8446
13.75,340.615,4.8446
14,341.115,4.8446
14.25,341.615,4.8446
14.5,342.115,4.8446
14.75,342.615,4.8446
15,343.115,4.8446
15.25,343.615,4.8446
15.5,344.115,4.8446
15.75,344.615,4.8446
16,345.115,4.8446
16.25,345.615,4.8446
16.5,346.115,4.8446
16.75,346.615,4.8446
17,347.115,4.8446
17.25,347.615,4.8446
17.5,348.115,4.8446
17.75,348.615,4.8446
18,349.115,4.8446
18.25,349.615,4.8446
18.5,350.115,4.8446
18.75,350.615,4.8446
19,351.115,4.8446
19.25,351.615,4.8446
19.5,352.115,4.8446
19.75,352.615,4.8446
20,353.115,4.8446
20.25,353.615,4.8446
20.5,354.115,4.8446
20.75,354.615,4.8446
21,355.115,4.8446
21.25,355.615,4.8446
21.5,356.115,4.8446
21.75,356.615,4.8446
22,357.115,4.8446
22.25,357.615,4.8446
22.5,358.115,4.8446
22.75,358.615,4.8446
23,359.115,4.8446
23.25,359.615,4.8446
23.5,360.115,4.8446
23.75,360.615,4.8446
24,361.115,4.8446
24.25,361.615,4.8446
24.5,362.115,4.8446
24.75,362.615,4.8446
25,363.115,4.8446
25.25,363.615,4.8446
25.5,364.115,4.8446
25.75,364.615,4.8446
26,365.115,4.8446
26.25,365.615,4.8446
26.5,366.115,4.8446
26.75,366.615,4.8446
27,367.115,4.8446
27.25,367.615,4.8446
27.5,368.115,4.8446
27.75,368.615,4.8446
28,369.115,4.8446
28.25,369.615,4.8446
28.5,370.115,4.8446
28.75,370.615,4.8446
29,371.115,4.8446
29.25,371.615,4.8446
29.5,372.115,4.8446
29.75,372.615,4.8446
30,373.115,4.8446
30.25,373.615,4.8446
30.5,374.115,4.8446
30.75,374.615,4.8446
31,375.115,4.8446
31.25,375.615,4.8446
31.5,376.115,4.8446
31.75,376.615,4.8446
32,377.115,4.8446
32.25,377.615,4.8446
32.5,378.115,4.8446
32.75,378.615,4.8446
33,379.115,4.8446
33.25,379.615,4.8446
33.5,380.115,4.8446
33.75,380.615,4.8446
34,381.115,4.8446
34.25,381.615,4.8446
34.5,382.115,4.8446
34.75,382.615,4.8446
35,383.115,4.8446
35.25,383.615,4.8446
35.5,384.115,4.8446
35.75,384.615,4.8446
36,385.115,4.8446
36.25,385.615,4.8446
36.5,386.115,4.8446
36.75,386.615,4.8446
37,387.115,4.8446
37.25,387.615,4.8446
37.5,388.115,4.8446
37.75,388.615,4.8446
38,389.115,4.8446
38.25,389.615,4.8446
38.5,390.115,4.8446
38.75,390.615,4.8446
39,391.115,4.8446
39.25,391.615,4.8446
39.5,392.115,4.8446
39.75,392.615,4.8446
40,393.115,4.8446
40.25,393.615,4.8446
40.5,394.115,4.8446
40.75,394.615,4.8443
41,395.115,4.8438
41.25,395.615,4.84408
41.5,396.115,4.8436
41.75,396.615,4.8434
42,397.115,4.8433
42.25,397.615,4.8425
42.5,398.115,4.8417
42.75,398.615,4.84222
43,399.115,4.84238
43.25,399.615,4.84201
43.5,400.115,4.84235
43.75,400.615,4.8424
44,401.115,4.84212
44.25,401.615,4.84191
44.5,402.115,4.84268
44.75,402.615,4.84173
45,403.115,4.84161
45.25,403.615,4.84136
45.5,404.115,4.8417
45.75,404.615,4.84168
46,405.115,4.84138
46.25,405.615,4.8414
46.5,406.115,4.84102
46.75,406.615,4.84109
47,407.115,4.8417
47.25,407.615,4.8415
47.5,408.115,4.84199
47.75,408.615,4.84046
48,409.115,4.8417
48.25,409.615,4.84209
48.5,410.115,4.8417
48.75,410.615,4.8419
49,411.115,4.8419
49.25,411.615,4.8418
49.5,412.115,4.84091
49.75,412.615,4.84111
50,413.115,4.8402
50.25,413.615,4.8401
50.5,414.115,4.8403
50.75,414.615,4.8399
51,415.115,4.83999
51.25,415.615,4.83949
51.5,416.115,4.83929
51.75,416.615,4.8388
52,417.115,4.83836
52.25,417.615,4.83764
52.5,418.115,4.83707
52.75,418.615,4.83709
53,419.115,4.8372
53.25,419.615,4.83771
53.5,420.115,4.83554
53.75,420.615,4.8358
54,421.115,4.8363
54.25,421.615,4.83568
54.5,422.115,4.83544
54.75,422.615,4.8357
55,423.115,4.83656
55.25,423.615,4.83691
55.5,424.115,4.83599
55.75,424.615,4.8354
56,425.115,4.8353
56.25,425.615,4.8345
56.5,426.115,4.83491
56.75,426.615,4.83478
57,427.115,4.83329
57.25,427.615,4.8329
57.5,428.115,4.8332
57.75,428.615,4.83372
58,429.115,4.83172
58.25,429.615,4.83048
58.5,430.115,4.8304
58.75,430.615,4.83009
59,431.115,4.82993
59.25,431.615,4.829
59.5,432.115,4.82913
59.75,432.615,4.8281
60,433.115,4.82833
60.25,433.615,4.82739
60.5,434.115,4.82808
60.75,434.615,4.82641
61,435.115,4.8256
61.25,435.615,4.82431
61.5,436.115,4.8235
61.75,436.615,4.82268
62,437.115,4.82134
62.25,437.615,4.8205
62.5,438.115,4.81925
62.75,438.615,4.81808
63,439.115,4.81644
63.25,439.615,4.814
63.5,440.115,4.81388
63.75,440.615,4.81188
64,441.115,4.8099
64.25,441.615,4.80812
64.5,442.115,4.80741
64.75,442.615,4.80589
65,443.115,4.8041
65.25,443.615,4.80255
65.5,444.115,4.80139
65.75,444.615,4.8003
66,445.115,4.7989
66.25,445.615,4.7967
66.5,446.115,4.79521
66.75,446.615,4.79391
67,447.115,4.79257
67.25,447.615,4.7908
67.5,448.115,4.78986
67.75,448.615,4.78662
68,449.115,4.78519
68.25,449.615,4.78364
68.5,450.115,4.78232
68.75,450.615,4.7811
69,451.115,4.77969
69.25,451.615,4.77798
69.5,452.115,4.77718
69.75,452.615,4.77508
70,453.115,4.77331
70.25,453.615,4.77187
70.5,454.115,4.7708
70.75,454.615,4.7682
71,455.115,4.7677
71.25,455.615,4.76651
71.5,456.115,4.76527
71.75,456.615,4.76334
72,457.115,4.76069
72.25,457.615,4.7592
72.5,458.115,4.75759
72.75,458.615,4.75678
73,459.115,4.75569
73.25,459.615,4.7551
73.5,460.115,4.75431
73.75,460.615,4.75241
74,461.115,4.75115
74.25,461.615,4.7498
74.5,462.115,4.74881
74.75,462.615,4.74751
75,463.115,4.7457
75.25,463.615,4.74475
75.5,464.115,4.7435
75.75,464.615,4.74259
76,465.115,4.74154
76.25,465.615,4.7403
76.5,466.115,4.73937
76.75,466.615,4.7384
77,467.115,4.73809
77.25,467.615,4.73651
77.5,468.115,4.73508
77.75,468.615,4.73439
78,469.115,4.73386
78.25,469.615,4.73289
78.5,470.115,4.73201
78.75,470.615,4.7313
79,471.115,4.7285
79.25,471.615,4.72741
79.5,472.115,4.72821
79.75,472.615,4.7277
80,473.115,4.72653
80.25,473.615,4.7271
80.5,474.115,4.7271
80.75,474.615,4.72711
81,475.115,4.72601
81.25,475.615,4.72559
81.5,476.115,4.7249
81.75,476.615,4.7243
82,477.115,4.72391
82.25,477.615,4.7235
82.5,478.115,4.72189
82.75,478.615,4.7223
83,479.115,4.72191
83.25,479.615,4.721
83.5,480.115,4.7215
83.75,480.615,4.7226
84,481.115,4.7224
84.25,481.615,4.72341
84.5,482.115,4.72371
84.75,482.615,4.7237
85,483.115,4.7235
85.25,483.615,4.7234
85.5,484.115,4.72258
85.75,484.615,4.722
86,485.115,4.7221
86.25,485.615,4.7224
86.5,486.115,4.72169
86.75,486.615,4.72089
87,487.115,4.7209
87.25,487.615,4.7206
87.5,488.115,4.71941
87.75,488.615,4.7181
88,489.115,4.71841
88.25,489.615,4.71849
88.5,490.115,4.7184
88.75,490.615,4.71831
89,491.115,4.7175
89.25,491.615,4.71751
89.5,492.115,4.71688
89.75,492.615,4.71639
90,493.115,4.71671
90.25,493.615,4.7165
90.5,494.115,4.71773
90.75,494.615,4.7169
91,495.115,4.71687
91.25,495.615,4.7176
91.5,496.115,4.71642
91.75,496.615,4.7157
92,497.115,4.7144
92.25,497.615,4.71409
92.5,498.115,4.7149
92.75,498.615,4.7151
93,499.115,4.7146
93.25,499.615,4.71362
93.5,500.115,4.71356
93.75,500.615,4.71331
94,501.115,4.71356
94.25,501.615,4.7123
94.5,502.115,4.71261
94.75,502.615,4.71289
95,503.115,4.7132
95.25,503.615,4.71308
95.5,504.115,4.71208
95.75,504.615,4.71162
96,505.115,4.71171
96.25,505.615,4.71185
96.5,506.115,4.71169
96.75,506.615,4.71159
97,507.115,4.71191
97.25,507.615,4.7124
97.5,508.115,4.71119
97.75,508.615,4.7101
98,509.115,4.70954
98.25,509.615,4.7101
98.5,510.115,4.7112
98.75,510.615,4.7103
99,511.115,4.70918
99.25,511.615,4.70787
99.5,512.115,4.7072
99.75,512.615,4.7069
100,513.115,4.70746
100.25,513.615,4.70609
100.5,514.115,4.70521
100.75,514.615,4.7046
101,515.115,4.70401
101.25,515.615,4.7036
101.5,516.115,4.70419
101.75,516.615,4.70371
102,517.115,4.70278
102.25,517.615,4.7029
102.5,518.115,4.70109
102.75,518.615,4.7007
103,519.115,4.69999
103.25,519.615,4.69886
103.5,520.115,4.69791
103.75,520.615,4.69589
104,521.115,4.69529
104.25,521.615,4.69419
104.5,522.115,4.69126
104.75,522.615,4.69116
105,523.115,4.69041
105.25,523.615,4.68999
105.5,524.115,4.68971
105.75,524.615,4.6891
106,525.115,4.6878
106.25,525.615,4.68729
106.5,526.115,4.68671
106.75,526.615,4.68527
107,527.115,4.68489
107.25,527.615,4.68341
107.5,528.115,4.68299
107.75,528.615,4.68221
108,529.115,4.6813
108.25,529.615,4.68004
108.5,530.115,4.6794
108.75,530.615,4.67806
109,531.115,4.6764
109.25,531.615,4.67551
109.5,532.115,4.6746
109.75,532.615,4.67435
110,533.115,4.6724
110.25,533.615,4.67135
110.5,534.115,4.6699
110.75,534.615,4.66783
111,535.115,4.66699
111.25,535.615,4.66528
111.5,536.115,4.66394
111.75,536.615,4.6626
112,537.115,4.66005
112.25,537.615,4.65803
112.5,538.115,4.6577
112.75,538.615,4.65488
113,539.115,4.6545
113.25,539.615,4.65308
113.5,540.115,4.65109
113.75,540.615,4.64837
114,541.115,4.64681
114.25,541.615,4.64548
114.5,542.115,4.6438
114.75,542.615,4.641
115,543.115,4.63958
115.25,543.615,4.63741
115.5,544.115,4.63397
115.75,544.615,4.63215
116,545.115,4.63006
116.25,545.615,4.62738
116.5,546.115,4.62483
116.75,546.615,4.62227
117,547.115,4.6202
117.25,547.615,4.61803
117.5,548.115,4.61542
117.75,548.615,4.61251
118,549.115,4.61005
118.25,549.615,4.608
118.5,550.115,4.60554
118.75,550.615,4.60302
119,551.115,4.60028
119.25,551.615,4.59749
119.5,552.115,4.59441
119.75,552.615,4.59203
120,553.115,4.58917
120.25,553.615,4.58626
120.5,554.115,4.5836
120.75,554.615,4.5805
121,555.115,4.57733
121.25,555.615,4.57427
121.5,556.115,4.57088
121.75,556.615,4.56772
122,557.115,4.56533
122.25,557.615,4.56219
122.5,558.115,4.55834
122.75,558.615,4.555
123,559.115,4.55181
123.25,559.615,4.54871
123.5,560.115,4.54528
123.75,560.615,4.54145
124,561.115,4.53779
124.25,561.615,4.53407
124.5,562.115,4.52977
124.75,562.615,4.52594
125,563.115,4.52231
125.25,563.615,4.51805
125.5,564.115,4.51383
125.75,564.615,4.51001
126,565.115,4.50553
126.25,565.615,4.50004
126.5,566.115,4.49518
126.75,566.615,4.49031
127,567.115,4.48577
127.25,567.615,4.48092
127.5,568.115,4.47558
127.75,568.615,4.4693
128,569.115,4.4639
128.25,569.615,4.45831
128.5,570.115,4.45161
128.75,570.615,4.44556
129,571.115,4.43926
129.25,571.615,4.43238
129.5,572.115,4.42621
129.75,572.615,4.41789
130,573.115,4.41187
130.25,573.615,4.40332
130.5,574.115,4.39512
130.75,574.615,4.38708
131,575.115,4.37878
131.25,575.615,4.37024
131.5,576.115,4.36185
131.75,576.615,4.35229
132,577.115,4.34169
132.25,577.615,4.33381
132.5,578.115,4.32317
132.75,578.615,4.3132
133,579.115,4.30259
133.25,579.615,4.29161
133.5,580.115,4.28014
133.75,580.615,4.27049
134,581.115,4.25662
134.25,581.615,4.24445
134.5,582.115,4.23019
134.75,582.615,4.21768
135,583.115,4.20382
135.25,583.615,4.18967
135.5,584.115,4.17616
135.75,584.615,4.16092
136,585.115,4.14596
136.25,585.615,4.12988
136.5,586.115,4.11425
136.75,586.615,4.09656
137,587.115,4.07808
137.25,587.615,4.05865
137.5,588.115,4.04068
137.75,588.615,4.0213
138,589.115,4.00071
138.25,589.615,3.98149
138.5,590.115,3.96044
138.75,590.615,3.93893
139,591.115,3.91656
139.25,591.615,3.8939
139.5,592.115,3.87089
139.75,592.615,3.84762
140,593.115,3.82299
140.25,593.615,3.79822
140.5,594.115,3.77159
140.75,594.615,3.74549
141,595.115,3.71844
141.25,595.615,3.68922
141.5,596.115,3.66187
141.75,596.615,3.63277
142,597.115,3.6019
142.25,597.615,3.57259
142.5,598.115,3.54048
142.75,598.615,3.50799
143,599.115,3.47549
143.25,599.615,3.4417
143.5,600.115,3.40743
143.75,600.615,3.37181
144,601.115,3.33551
144.25,601.615,3.30017
144.5,602.115,3.26381
144.75,602.615,3.22663
145,603.115,3.18639
145.25,603.615,3.14789
145.5,604.115,3.1083
145.75,604.615,3.06916
146,605.115,3.02877
146.25,605.615,2.98714
146.5,606.115,2.94569
146.75,606.615,2.90298
147,607.115,2.86082
147.25,607.615,2.81658
147.5,608.115,2.77389
147.75,608.615,2.72772
148,609.115,2.68374
148.25,609.615,2.63853
148.5,610.115,2.59394
148.75,610.615,2.54673
149,611.115,2.50092
149.25,611.615,2.45672
149.5,612.115,2.40944
149.75,612.615,2.36278
150,613.115,2.31898
150.25,613.615,2.27376
150.5,614.115,2.22859
150.75,614.615,2.18446
151,615.115,2.13977
151.25,615.615,2.09466
151.5,616.115,2.05046
151.75,616.615,2.00713
152,617.115,1.96433
152.25,617.615,1.92086
152.5,618.115,1.87861
152.75,618.615,1.83618
153,619.115,1.7928
153.25,619.615,1.75113
153.5,620.115,1.71021
153.75,620.615,1.66802
154,621.115,1.62689
154.25,621.615,1.58483
154.5,622.115,1.54113
154.75,622.615,1.50006
155,623.115,1.45566
155.25,623.615,1.41419
155.5,624.115,1.37388
155.75,624.615,1.33215
156,625.115,1.29063
156.25,625.615,1.25236
156.5,626.115,1.21389
156.75,626.615,1.17439
157,627.115,1.13562
157.25,627.615,1.09783
157.5,628.115,1.05937
157.75,628.615,1.02352
158,629.115,0.986564
158.25,629.615,0.950043
158.5,630.115,0.915983
158.75,630.615,0.882708
159,631.115,0.848419
159.25,631.615,0.817402
159.5,632.115,0.785451
159.75,632.615,0.755826
160,633.115,0.724266
160.25,633.615,0.695554
160.5,634.115,0.66749
160.75,634.615,0.641195
161,635.115,0.614098
161.25,635.615,0.587569
161.5,636.115,0.562366
161.75,636.615,0.538739
162,637.115,0.516564
162.25,637.615,0.493314
162.5,638.115,0.473325
162.75,638.615,0.452845
163,639.115,0.432993
163.25,639.615,0.412543
163.5,640.115,0.394955
163.75,640.615,0.378429
164,641.115,0.361512
164.25,641.615,0.345472
164.5,642.115,0.330147
164.75,642.615,0.313258
165,643.115,0.298664
165.25,643.615,0.285035
165.5,644.115,0.271593
165.75,644.615,0.258677
166,645.115,0.247381
166.25,645.615,0.236256
166.5,646.115,0.224222
166.75,646.615,0.214523
167,647.115,0.204067
167.25,647.615,0.194269
167.5,648.115,0.185025
167.75,648.615,0.178203
168,649.115,0.169178
168.25,649.615,0.161198
168.5,650.115,0.153554
168.75,650.615,0.145107
169,651.115,0.140887
169.25,651.615,0.134707
169.5,652.115,0.128107
169.75,652.615,0.122556
170,653.115,0.117169
170.25,653.615,0.111765
170.5,654.115,0.108252
170.75,654.615,0.102927
171,655.115,0.09815741
171.25,655.615,0.093385
171.5,656.115,0.0903106
171.75,656.615,0.086698
172,657.115,0.08295893
172.25,657.615,0.0796026
172.5,658.115,0.076894
172.75,658.615,0.0740032
173,659.115,0.069397
173.25,659.615,0.0683878
173.5,660.115,0.0657025
173.75,660.615,0.0634444
174,661.115,0.0614087
174.25,661.615,0.0593003
174.5,662.115,0.0562744
174.75,662.615,0.0544911
175,663.115,0.0529607
175.25,663.615,0.0511895
175.5,664.115,0.0484891
175.75,664.615,0.0471573
176,665.115,0.045298
176.25,665.615,0.04326906
176.5,666.115,0.0417915
176.75,666.615,0.0417435
177,667.115,0.0406016
177.25,667.615,0.0401956
177.5,668.115,0.040199
177.75,668.615,0.0392776
178,669.115,0.03799862
178.25,669.615,0.0378039
178.5,670.115,0.0354063
178.75,670.615,0.0345139
179,671.115,0.0338051
179.25,671.615,0.0329365
179.5,672.115,0.0325068
179.75,672.615,0.031501
180,673.115,0.0308005
180.25,673.615,0.0308044
180.5,674.115,0.0304968
180.75,674.615,0.0303984
181,675.115,0.0289135
181.25,675.615,0.028898
181.5,676.115,0.0298098
181.75,676.615,0.029898
182,677.115,0.0296964
182.25,677.615,0.0300748
182.5,678.115,0.0296126
182.75,678.615,0.0300157
183,679.115,0.0298994
183.25,679.615,0.0295026
183.5,680.115,0.029897
183.75,680.615,0.0297628
184,681.115,0.02989312
184.25,681.615,0.0300942
184.5,682.115,0.0300971
184.75,682.615,0.0291984
185,683.115,0.0294745
185.25,683.615,0.0293093
185.5,684.115,0.0292982
185.75,684.615,0.029398
186,685.115,0.0298951
186.25,685.615,0.0295981
186.5,686.115,0.0293961
186.75,686.615,0.0298016
187,687.115,0.0286955
187.25,687.615,0.0283031
187.5,688.115,0.0286984
187.75,688.615,0.028789
188,689.115,0.028104
188.25,689.615,0.0281922
188.5,690.115,0.0285972
188.75,690.615,0.0287004
189,691.115,0.0283942
189.25,691.615,0.0284969
189.5,692.115,0.0285982
189.75,692.615,0.0281985
190,693.115,0.0282067
190.25,693.615,0.0279102
190.5,694.115,0.0273458
190.75,694.615,0.0281592
191,695.115,0.0278928
191.25,695.615,0.0270038
191.5,696.115,0.027559
191.75,696.615,0.0280982
192,697.115,0.0276055
192.25,697.615,0.0270188
192.5,698.115,0.0263096
192.75,698.615,0.02682891
193,699.115,0.0268769
193.25,699.615,0.0269059
193.5,700.115,0.0257684
193.75,700.615,0.0262471
194,701.115,0.0275498
194.25,701.615,0.0283981
194.5,702.115,0.028198
194.75,702.615,0.028198
195,703.115,0.0285957
195.25,703.615,0.0284024
195.5,704.115,0.0272935
195.75,704.615,0.0273265
196,705.115,0.0284722
196.25,705.615,0.0277973
196.5,706.115,0.0268977
196.75,706.615,0.0278158
197,707.115,0.0279456
197.25,707.615,0.0281035
197.5,708.115,0.0275982
197.75,708.615,0.02820187
198,709.115,0.0279926
198.25,709.615,0.0284693
198.5,710.115,0.0286035
198.75,710.615,0.0291248
199,711.115,0.0306203
199.25,711.615,0.0290734
199.5,712.115,0.0284344
199.75,712.615,0.0296969
200,713.115,0.0288259
200.25,713.615,0.028898
200.5,714.115,0.02959663
200.75,714.615,0.0288946
201,715.115,0.0287978
201.25,715.615,0.029197
201.5,716.115,0.0290976
201.75,716.615,0.0296853
202,717.115,0.0287018
202.25,717.615,0.02839953
202.5,718.115,0.0258009
202.75,718.615,0.0266075
203,719.115,0.0268982
203.25,719.615,0.0265857
203.5,720.115,0.0275977
203.75,720.615,0.0274917
204,721.115,0.02749795
204.25,721.615,0.0285982
204.5,722.115,0.0254729
204.75,722.615,0.02660073
205,723.115,0.0270963
205.25,723.615,0.0273008
205.5,724.115,0
205.75,724.615,0
206,725.115,0
206.25,725.615,0
206.5,726.115,0
206.75,726.615,0
207,727.115,0
207.25,727.615,0
207.5,728.115,0
207.75,728.615,0
208,729.115,0
208.25,729.615,0
208.5,730.115,0
208.75,730.615,0
209,731.115,0
209.25,731.615,0
209.5,732.115,0
209.75,732.615,0
210,733.115,0
210.25,733.615,0
210.5,734.115,0
210.75,734.615,0
211,735.115,0
211.25,735.615,0
211.5,736.115,0
211.75,736.615,0
212,737.115,0
212.25,737.615,0
212.5,738.115,0
212.75,738.615,0
213,739.115,0
213.25,739.615,0
213.5,740.115,0
213.75,740.615,0
214,741.115,0
214.25,741.615,0
214.5,742.115,0
214.75,742.615,0
215,743.115,0
215.25,743.615,0
215.5,744.115,0
215.75,744.615,0
216,745.115,0
216.25,745.615,0
216.5,746.115,0
216.75,746.615,0
217,747.115,0
217.25,747.615,0
217.5,748.115,0
217.75,748.615,0
218,749.115,0
218.25,749.615,0
218.5,750.115,0
218.75,750.615,0
219,751.115,0
219.25,751.615,0
219.5,752.115,0
219.75,752.615,0
220,753.115,0
220.25,753.615,0
220.5,754.115,0
220.75,754.615,0
221,755.115,0
221.25,755.615,0
221.5,756.115,0
221.75,756.615,0
222,757.115,0
222.25,757.615,0
222.5,758.115,0
222.75,758.615,0
223,759.115,0
223.25,759.615,0
223.5,760.115,0
223.75,760.615,0
224,761.115,0
224.25,761.615,0
224.5,762.115,0
224.75,762.615,0
225,763.115,0
225.25,763.615,0
225.5,764.115,0
225.75,764.615,0
226,765.115,0
226.25,765.615,0
226.5,766.115,0
226.75,766.615,0
227,767.115,0
227.25,767.615,0
227.5,768.115,0
227.75,768.615,0
228,769.115,0
228.25,769.615,0
228.5,770.115,0
228.75,770.615,0
229,771.115,0
229.25,771.615,0
229.5,772.115,0
229.75,772.615,0
230,773.115,0
230.25,773.615,0