File: Non-charring/PMMA/UMET/UMET_TGA_N2_6.csv
Time,Temperature,Mass
[s],[K],[mg]
0,313.115,5.9802
0.01,313.615,5.9802
0.02,314.115,5.9802
0.03,314.615,5.9802
0.04,315.115,5.9802
0.05,315.615,5.9802
0.06,316.115,5.9802
0.07,316.615,5.9802
0.08,317.115,5.9802
0.09,317.615,5.9802
0.1,318.115,5.9802
0.11,318.615,5.9802
0.12,319.115,5.9802
0.13,319.615,5.9802
0.14,320.115,5.9802
0.15,320.615,5.9802
0.16,321.115,5.9802
0.17,321.615,5.9802
0.18,322.115,5.9802
0.19,322.615,5.9802
0.2,323.115,5.9802
0.21,323.615,5.9802
0.22,324.115,5.9802
0.23,324.615,5.9802
0.24,325.115,5.9802
0.25,325.615,5.9802
0.26,326.115,5.9802
0.27,326.615,5.9802
0.28,327.115,5.9802
0.29,327.615,5.9802
0.3,328.115,5.9802
0.31,328.615,5.9802
0.32,329.115,5.9802
0.33,329.615,5.9802
0.34,330.115,5.9802
0.35,330.615,5.9802
0.36,331.115,5.9802
0.37,331.615,5.9802
0.38,332.115,5.9802
0.39,332.615,5.9802
0.4,333.115,5.9802
0.41,333.615,5.9802
0.42,334.115,5.9802
0.43,334.615,5.9802
0.44,335.115,5.9802
0.45,335.615,5.9802
0.46,336.115,5.9802
0.47,336.615,5.9802
0.48,337.115,5.9802
0.49,337.615,5.9802
0.5,338.115,5.9802
0.51,338.615,5.9802
0.52,339.115,5.9802
0.53,339.615,5.9802
0.54,340.115,5.9802
0.55,340.615,5.9802
0.56,341.115,5.9802
0.57,341.615,5.9802
0.58,342.115,5.9802
0.59,342.615,5.9802
0.6,343.115,5.9802
0.61,343.615,5.9802
0.62,344.115,5.9802
0.63,344.615,5.9802
0.64,345.115,5.9802
0.65,345.615,5.9802
0.66,346.115,5.9802
0.67,346.615,5.9802
0.68,347.115,5.9802
0.69,347.615,5.9802
0.7,348.115,5.9802
0.71,348.615,5.9802
0.72,349.115,5.9802
0.73,349.615,5.9802
0.74,350.115,5.9802
0.75,350.615,5.9802
0.76,351.115,5.9802
0.77,351.615,5.9802
0.78,352.115,5.9802
0.79,352.615,5.9802
0.8,353.115,5.9802
0.81,353.615,5.9802
0.82,354.115,5.9802
0.83,354.615,5.9802
0.84,355.115,5.9802
0.85,355.615,5.9802
0.86,356.115,5.9802
0.87,356.615,5.9802
0.88,357.115,5.9802
0.89,357.615,5.9802
0.9,358.115,5.9802
0.91,358.615,5.9802
0.92,359.115,5.9802
0.93,359.615,5.9802
0.94,360.115,5.9802
0.95,360.615,5.9802
0.96,361.115,5.9802
0.97,361.615,5.9802
0.98,362.115,5.9802
0.99,362.615,5.9802
1,363.115,5.9802
1.01,363.615,5.9802
1.02,364.115,5.9802
1.03,364.615,5.9802
1.04,365.115,5.9802
1.05,365.615,5.9802
1.06,366.115,5.9802
1.07,366.615,5.9802
1.08,367.115,5.9802
1.09,367.615,5.9802
1.1,368.115,5.9802
1.11,368.615,5.9802
1.12,369.115,5.9802
1.13,369.615,5.9802
1.14,370.115,5.9802
1.15,370.615,5.9802
1.16,371.115,5.9802
1.17,371.615,5.9802
1.18,372.115,5.9802
1.19,372.615,5.9802
1.2,373.115,5.9802
1.21,373.615,5.9802
1.22,374.115,5.9802
1.23,374.615,5.9802
1.24,375.115,5.9802
1.25,375.615,5.9802
1.26,376.115,5.9802
1.27,376.615,5.9802
1.28,377.115,5.9802
1.29,377.615,5.9802
1.3,378.115,5.9802
1.31,378.615,5.9802
1.32,379.115,5.9802
1.33,379.615,5.9802
1.34,380.115,5.9802
1.35,380.615,5.9802
1.36,381.115,5.9802
1.37,381.615,5.9802
1.38,382.115,5.9802
1.39,382.615,5.9802
1.4,383.115,5.9802
1.41,383.615,5.9802
1.42,384.115,5.9802
1.43,384.615,5.9802
1.44,385.115,5.9802
1.45,385.615,5.9802
1.46,386.115,5.9802
1.47,386.615,5.9802
1.48,387.115,5.9802
1.49,387.615,5.9802
1.5,388.115,5.9802
1.51,388.615,5.9802
1.52,389.115,5.9802
1.53,389.615,5.9802
1.54,390.115,5.9802
1.55,390.615,5.9802
1.56,391.115,5.9802
1.57,391.615,5.9802
1.58,392.115,5.9802
1.59,392.615,5.9802
1.6,393.115,5.9802
1.61,393.615,5.9802
1.62,394.115,5.9802
1.63,394.615,5.9802
1.64,395.115,5.9802
1.65,395.615,5.9802
1.66,396.115,5.9802
1.67,396.615,5.9802
1.68,397.115,5.9802
1.69,397.615,5.9802
1.7,398.115,5.9802
1.71,398.615,5.9802
1.72,399.115,5.9802
1.73,399.615,5.9802
1.74,400.115,5.9802
1.75,400.615,5.9802
1.76,401.115,5.9802
1.77,401.615,5.9802
1.78,402.115,5.9802
1.79,402.615,5.9802
1.8,403.115,5.9802
1.81,403.615,5.9802
1.82,404.115,5.9802
1.83,404.615,5.9802
1.84,405.115,5.9802
1.85,405.615,5.9802
1.86,406.115,5.9802
1.87,406.615,5.9802
1.88,407.115,5.9802
1.89,407.615,5.9802
1.9,408.115,5.9802
1.91,408.615,5.9802
1.92,409.115,5.9802
1.93,409.615,5.9802
1.94,410.115,5.9802
1.95,410.615,5.9802
1.96,411.115,5.9802
1.97,411.615,5.9802
1.98,412.115,5.9802
1.99,412.615,5.9802
2,413.115,5.9802
2.01,413.615,5.9802
2.02,414.115,5.9802
2.03,414.615,5.9802
2.04,415.115,5.9802
2.05,415.615,5.9802
2.06,416.115,5.9802
2.07,416.615,5.9802
2.08,417.115,5.9802
2.09,417.615,5.9802
2.1,418.115,5.9802
2.11,418.615,5.9802
2.12,419.115,5.9802
2.13,419.615,5.9802
2.14,420.115,5.9802
2.15,420.615,5.9802
2.16,421.115,5.9802
2.17,421.615,5.9802
2.18,422.115,5.9802
2.19,422.615,5.9802
2.2,423.115,5.9802
2.21,423.615,5.9802
2.22,424.115,5.9802
2.23,424.615,5.9802
2.24,425.115,5.9802
2.25,425.615,5.9802
2.26,426.115,5.9802
2.27,426.615,5.9802
2.28,427.115,5.9802
2.29,427.615,5.9802
2.3,428.115,5.9802
2.31,428.615,5.9802
2.32,429.115,5.9802
2.33,429.615,5.9802
2.34,430.115,5.9802
2.35,430.615,5.9802
2.36,431.115,5.9802
2.37,431.615,5.9802
2.38,432.115,5.9802
2.39,432.615,5.9802
2.4,433.115,5.9802
2.41,433.615,5.9802
2.42,434.115,5.9802
2.43,434.615,5.9802
2.44,435.115,5.9802
2.45,435.615,5.9802
2.46,436.115,5.97982
2.47,436.615,5.97895
2.48,437.115,5.9783
2.49,437.615,5.97808
2.5,438.115,5.97759
2.51,438.615,5.97735
2.52,439.115,5.97699
2.53,439.615,5.97686
2.54,440.115,5.97648
2.55,440.615,5.97634
2.56,441.115,5.97616
2.57,441.615,5.97583
2.58,442.115,5.97557
2.59,442.615,5.9755
2.6,443.115,5.97552
2.61,443.615,5.9756
2.62,444.115,5.97577
2.63,444.615,5.97607
2.64,445.115,5.97646
2.65,445.615,5.97692
2.66,446.115,5.97722
2.67,446.615,5.97753
2.68,447.115,5.97792
2.69,447.615,5.97799
2.7,448.115,5.97799
2.71,448.615,5.97802
2.72,449.115,5.97762
2.73,449.615,5.97715
2.74,450.115,5.97659
2.75,450.615,5.97594
2.76,451.115,5.97503
2.77,451.615,5.97443
2.78,452.115,5.97338
2.79,452.615,5.97271
2.8,453.115,5.97217
2.81,453.615,5.97161
2.82,454.115,5.97084
2.83,454.615,5.9702
2.84,455.115,5.96944
2.85,455.615,5.96869
2.86,456.115,5.96804
2.87,456.615,5.96739
2.88,457.115,5.96662
2.89,457.615,5.96598
2.9,458.115,5.9652
2.91,458.615,5.96468
2.92,459.115,5.96407
2.93,459.615,5.96348
2.94,460.115,5.9631
2.95,460.615,5.96258
2.96,461.115,5.96216
2.97,461.615,5.96188
2.98,462.115,5.9612
2.99,462.615,5.96057
3,463.115,5.95985
3.01,463.615,5.95906
3.02,464.115,5.95828
3.03,464.615,5.95732
3.04,465.115,5.95621
3.05,465.615,5.95531
3.06,466.115,5.95415
3.07,466.615,5.9531
3.08,467.115,5.9518
3.09,467.615,5.95079
3.1,468.115,5.94935
3.11,468.615,5.94828
3.12,469.115,5.94697
3.13,469.615,5.94589
3.14,470.115,5.94464
3.15,470.615,5.94379
3.16,471.115,5.9426
3.17,471.615,5.94179
3.18,472.115,5.94075
3.19,472.615,5.94002
3.2,473.115,5.93927
3.21,473.615,5.93863
3.22,474.115,5.93777
3.23,474.615,5.93702
3.24,475.115,5.93612
3.25,475.615,5.9351
3.26,476.115,5.93387
3.27,476.615,5.9329
3.28,477.115,5.93163
3.29,477.615,5.93059
3.3,478.115,5.92927
3.31,478.615,5.92831
3.32,479.115,5.92706
3.33,479.615,5.92635
3.34,480.115,5.92527
3.35,480.615,5.92454
3.36,481.115,5.92362
3.37,481.615,5.92272
3.38,482.115,5.92167
3.39,482.615,5.92049
3.4,483.115,5.91912
3.41,483.615,5.91788
3.42,484.115,5.91628
3.43,484.615,5.9151
3.44,485.115,5.91374
3.45,485.615,5.9125
3.46,486.115,5.91121
3.47,486.615,5.91022
3.48,487.115,5.90918
3.49,487.615,5.90844
3.5,488.115,5.90747
3.51,488.615,5.90685
3.52,489.115,5.90576
3.53,489.615,5.90516
3.54,490.115,5.90387
3.55,490.615,5.90296
3.56,491.115,5.90168
3.57,491.615,5.90065
3.58,492.115,5.89929
3.59,492.615,5.89815
3.6,493.115,5.89675
3.61,493.615,5.89546
3.62,494.115,5.89398
3.63,494.615,5.89276
3.64,495.115,5.89134
3.65,495.615,5.89016
3.66,496.115,5.88879
3.67,496.615,5.88777
3.68,497.115,5.8866
3.69,497.615,5.88578
3.7,498.115,5.88482
3.71,498.615,5.88409
3.72,499.115,5.88323
3.73,499.615,5.88239
3.74,500.115,5.88097
3.75,500.615,5.87979
3.76,501.115,5.87811
3.77,501.615,5.87668
3.78,502.115,5.87508
3.79,502.615,5.8742
3.8,503.115,5.87305
3.81,503.615,5.8724
3.82,504.115,5.87175
3.83,504.615,5.8712
3.84,505.115,5.87075
3.85,505.615,5.8703
3.86,506.115,5.86965
3.87,506.615,5.8691
3.88,507.115,5.86867
3.89,507.615,5.86801
3.9,508.115,5.86743
3.91,508.615,5.86721
3.92,509.115,5.86647
3.93,509.615,5.86612
3.94,510.115,5.86556
3.95,510.615,5.86502
3.96,511.115,5.86452
3.97,511.615,5.86392
3.98,512.115,5.86333
3.99,512.615,5.86263
4,513.115,5.86182
4.01,513.615,5.86103
4.02,514.115,5.86028
4.03,514.615,5.85953
4.04,515.115,5.85878
4.05,515.615,5.85803
4.06,516.115,5.85727
4.07,516.615,5.85654
4.08,517.115,5.8553
4.09,517.615,5.85444
4.1,518.115,5.85339
4.11,518.615,5.85235
4.12,519.115,5.85123
4.13,519.615,5.85015
4.14,520.115,5.84928
4.15,520.615,5.84844
4.16,521.115,5.84761
4.17,521.615,5.84692
4.18,522.115,5.84632
4.19,522.615,5.84581
4.2,523.115,5.84546
4.21,523.615,5.84511
4.22,524.115,5.84474
4.23,524.615,5.84451
4.24,525.115,5.84407
4.25,525.615,5.84361
4.26,526.115,5.84351
4.27,526.615,5.84292
4.28,527.115,5.84248
4.29,527.615,5.84193
4.3,528.115,5.84128
4.31,528.615,5.84063
4.32,529.115,5.83994
4.33,529.615,5.83905
4.34,530.115,5.83804
4.35,530.615,5.83703
4.36,531.115,5.83612
4.37,531.615,5.83533
4.38,532.115,5.83446
4.39,532.615,5.83372
4.4,533.115,5.83306
4.41,533.615,5.83251
4.42,534.115,5.83206
4.43,534.615,5.83161
4.44,535.115,5.8312
4.45,535.615,5.8309
4.46,536.115,5.83099
4.47,536.615,5.8308
4.48,537.115,5.831
4.49,537.615,5.8312
4.5,538.115,5.83119
4.51,538.615,5.8312
4.52,539.115,5.83125
4.53,539.615,5.8313
4.54,540.115,5.83129
4.55,540.615,5.8313
4.56,541.115,5.83129
4.57,541.615,5.8314
4.58,542.115,5.83136
4.59,542.615,5.8312
4.6,543.115,5.83113
4.61,543.615,5.83082
4.62,544.115,5.83039
4.63,544.615,5.82997
4.64,545.115,5.82923
4.65,545.615,5.82858
4.66,546.115,5.82765
4.67,546.615,5.82669
4.68,547.115,5.8258
4.69,547.615,5.82482
4.7,548.115,5.82379
4.71,548.615,5.82289
4.72,549.115,5.82194
4.73,549.615,5.82106
4.74,550.115,5.82019
4.75,550.615,5.81953
4.76,551.115,5.81906
4.77,551.615,5.81852
4.78,552.115,5.81819
4.79,552.615,5.81801
4.8,553.115,5.81783
4.81,553.615,5.81741
4.82,554.115,5.81728
4.83,554.615,5.81681
4.84,555.115,5.81641
4.85,555.615,5.8159
4.86,556.115,5.81545
4.87,556.615,5.81499
4.88,557.115,5.81466
4.89,557.615,5.81408
4.9,558.115,5.8137
4.91,558.615,5.81308
4.92,559.115,5.81268
4.93,559.615,5.81206
4.94,560.115,5.81142
4.95,560.615,5.81075
4.96,561.115,5.80988
4.97,561.615,5.80893
4.98,562.115,5.8078
4.99,562.615,5.80659
5,563.115,5.80532
5.01,563.615,5.80408
5.02,564.115,5.8028
5.03,564.615,5.80157
5.04,565.115,5.80046
5.05,565.615,5.79928
5.06,566.115,5.79816
5.07,566.615,5.79699
5.08,567.115,5.79568
5.09,567.615,5.79438
5.1,568.115,5.79301
5.11,568.615,5.79193
5.12,569.115,5.79061
5.13,569.615,5.78938
5.14,570.115,5.78816
5.15,570.615,5.78698
5.16,571.115,5.78592
5.17,571.615,5.7851
5.18,572.115,5.78416
5.19,572.615,5.78374
5.2,573.115,5.78305
5.21,573.615,5.78243
5.22,574.115,5.78152
5.23,574.615,5.78034
5.24,575.115,5.77887
5.25,575.615,5.7776
5.26,576.115,5.77554
5.27,576.615,5.77384
5.28,577.115,5.77172
5.29,577.615,5.76992
5.3,578.115,5.76777
5.31,578.615,5.76599
5.32,579.115,5.76395
5.33,579.615,5.76235
5.34,580.115,5.76045
5.35,580.615,5.75897
5.36,581.115,5.75667
5.37,581.615,5.75572
5.38,582.115,5.75329
5.39,582.615,5.7515
5.4,583.115,5.74951
5.41,583.615,5.74774
5.42,584.115,5.74554
5.43,584.615,5.74337
5.44,585.115,5.74103
5.45,585.615,5.73893
5.46,586.115,5.73651
5.47,586.615,5.73426
5.48,587.115,5.73181
5.49,587.615,5.72953
5.5,588.115,5.72711
5.51,588.615,5.72488
5.52,589.115,5.72209
5.53,589.615,5.71952
5.54,590.115,5.71347
5.55,590.615,5.70054
5.56,591.115,5.69265
5.57,591.615,5.68928
5.58,592.115,5.68553
5.59,592.615,5.68385
5.6,593.115,5.68152
5.61,593.615,5.67948
5.62,594.115,5.67709
5.63,594.615,5.67476
5.64,595.115,5.67266
5.65,595.615,5.67054
5.66,596.115,5.66833
5.67,596.615,5.66213
5.68,597.115,5.65424
5.69,597.615,5.65105
5.7,598.115,5.64758
5.71,598.615,5.6438
5.72,599.115,5.63983
5.73,599.615,5.63562
5.74,600.115,5.6318
5.75,600.615,5.6278
5.76,601.115,5.62378
5.77,601.615,5.61953
5.78,602.115,5.61566
5.79,602.615,5.61143
5.8,603.115,5.60723
5.81,603.615,5.60298
5.82,604.115,5.59881
5.83,604.615,5.59461
5.84,605.115,5.58984
5.85,605.615,5.58488
5.86,606.115,5.57913
5.87,606.615,5.57355
5.88,607.115,5.56726
5.89,607.615,5.56115
5.9,608.115,5.55443
5.91,608.615,5.54721
5.92,609.115,5.53967
5.93,609.615,5.53196
5.94,610.115,5.5236
5.95,610.615,5.51506
5.96,611.115,5.50612
5.97,611.615,5.497
5.98,612.115,5.48724
5.99,612.615,5.4772
6,613.115,5.46692
6.01,613.615,5.4565
6.02,614.115,5.44586
6.03,614.615,5.43515
6.04,615.115,5.42464
6.05,615.615,5.41368
6.06,616.115,5.4022
6.07,616.615,5.39116
6.08,617.115,5.37961
6.09,617.615,5.3677
6.1,618.115,5.35538
6.11,618.615,5.34254
6.12,619.115,5.32931
6.13,619.615,5.31558
6.14,620.115,5.30109
6.15,620.615,5.28625
6.16,621.115,5.27031
6.17,621.615,5.25417
6.18,622.115,5.23712
6.19,622.615,5.21918
6.2,623.115,5.20107
6.21,623.615,5.18257
6.22,624.115,5.16393
6.23,624.615,5.14483
6.24,625.115,5.12552
6.25,625.615,5.10612
6.26,626.115,5.08626
6.27,626.615,5.06634
6.28,627.115,5.04582
6.29,627.615,5.02513
6.3,628.115,5.00413
6.31,628.615,4.98251
6.32,629.115,4.96042
6.33,629.615,4.93761
6.34,630.115,4.914
6.35,630.615,4.88974
6.36,631.115,4.86431
6.37,631.615,4.83747
6.38,632.115,4.8094
6.39,632.615,4.78042
6.4,633.115,4.75021
6.41,633.615,4.71922
6.42,634.115,4.68768
6.43,634.615,4.65535
6.44,635.115,4.62299
6.45,635.615,4.58993
6.46,636.115,4.55693
6.47,636.615,4.52362
6.48,637.115,4.49028
6.49,637.615,4.4565
6.5,638.115,4.42069
6.51,638.615,4.39467
6.52,639.115,4.24085
6.53,639.615,4.21448
6.54,640.115,4.17439
6.55,640.615,4.13762
6.56,641.115,4.09689
6.57,641.615,4.0585
6.58,642.115,4.01684
6.59,642.615,3.97436
6.6,643.115,3.92915
6.61,643.615,3.88469
6.62,644.115,3.83942
6.63,644.615,3.79325
6.64,645.115,3.74723
6.65,645.615,3.69884
6.66,646.115,3.64013
6.67,646.615,3.59181
6.68,647.115,3.54376
6.69,647.615,3.49272
6.7,648.115,3.44217
6.71,648.615,3.39176
6.72,649.115,3.34012
6.73,649.615,3.2891
6.74,650.115,3.23554
6.75,650.615,3.18228
6.76,651.115,3.12904
6.77,651.615,3.07528
6.78,652.115,3.02042
6.79,652.615,2.96557
6.8,653.115,2.91005
6.81,653.615,2.85386
6.82,654.115,2.80059
6.83,654.615,2.74729
6.84,655.115,2.69681
6.85,655.615,2.64649
6.86,656.115,2.5941
6.87,656.615,2.54228
6.88,657.115,2.48991
6.89,657.615,2.43697
6.9,658.115,2.38278
6.91,658.615,2.32964
6.92,659.115,2.27728
6.93,659.615,2.22394
6.94,660.115,2.17232
6.95,660.615,2.12091
6.96,661.115,2.07139
6.97,661.615,2.02147
6.98,662.115,1.97182
6.99,662.615,1.92305
7,663.115,1.87533
7.01,663.615,1.82841
7.02,664.115,1.78057
7.03,664.615,1.73406
7.04,665.115,1.68858
7.05,665.615,1.64235
7.06,666.115,1.59641
7.07,666.615,1.55063
7.08,667.115,1.50792
7.09,667.615,1.4635
7.1,668.115,1.42119
7.11,668.615,1.37606
7.12,669.115,1.33334
7.13,669.615,1.2909
7.14,670.115,1.24911
7.15,670.615,1.20651
7.16,671.115,1.16731
7.17,671.615,1.12661
7.18,672.115,1.0878
7.19,672.615,1.04853
7.2,673.115,1.00946
7.21,673.615,0.972748
7.22,674.115,0.935721
7.23,674.615,0.900521
7.24,675.115,0.86587
7.25,675.615,0.830463
7.26,676.115,0.79639
7.27,676.615,0.763008
7.28,677.115,0.729504
7.29,677.615,0.695994
7.3,678.115,0.663762
7.31,678.615,0.633496
7.32,679.115,0.606101
7.33,679.615,0.57925
7.34,680.115,0.55337
7.35,680.615,0.530705
7.36,681.115,0.505338
7.37,681.615,0.483902
7.38,682.115,0.461892
7.39,682.615,0.441452
7.4,683.115,0.422361
7.41,683.615,0.403389
7.42,684.115,0.385473
7.43,684.615,0.368206
7.44,685.115,0.349832
7.45,685.615,0.332484
7.46,686.115,0.316714
7.47,686.615,0.302122
7.48,687.115,0.28789
7.49,687.615,0.273906
7.5,688.115,0.260712
7.51,688.615,0.248231
7.52,689.115,0.237035
7.53,689.615,0.226422
7.54,690.115,0.215649
7.55,690.615,0.205194
7.56,691.115,0.197471
7.57,691.615,0.187942
7.58,692.115,0.179893
7.59,692.615,0.169772
7.6,693.115,0.16083
7.61,693.615,0.1533407
7.62,694.115,0.145572
7.63,694.615,0.138307
7.64,695.115,0.132715
7.65,695.615,0.126978
7.66,696.115,0.121731
7.67,696.615,0.115667
7.68,697.115,0.10988
7.69,697.615,0.103514
7.7,698.115,0.09783069
7.71,698.615,0.0931667
7.72,699.115,0.0885315
7.73,699.615,0.0847795
7.74,700.115,0.0810885
7.75,700.615,0.0776403
7.76,701.115,0.0752166
7.77,701.615,0.0716512
7.78,702.115,0.0699157
7.79,702.615,0.06776045
7.8,703.115,0.066757
7.81,703.615,0.0664119
7.82,704.115,0.0644761
7.83,704.615,0.0625965
7.84,705.115,0.0610919
7.85,705.615,0.0601249
7.86,706.115,0.0587393
7.87,706.615,0.0572592
7.88,707.115,0.0563155
7.89,707.615,0.055464
7.9,708.115,0.0549796
7.91,708.615,0.0542548
7.92,709.115,0.0533482
7.93,709.615,0.0521473
7.94,710.115,0.05075934
7.95,710.615,0.0490915
7.96,711.115,0.0473052
7.97,711.615,0.044882
7.98,712.115,0.0434868
7.99,712.615,0.0418949
8,713.115,0.0399304
8.01,713.615,0.0389879
8.02,714.115,0.0384957
8.03,714.615,0.0381854
8.04,715.115,0.0382093
8.05,715.615,0.0383773
8.06,716.115,0.0384084
8.07,716.615,0.0386554
8.08,717.115,0.0387427
8.09,717.615,0.0390256
8.1,718.115,0.0389987
8.11,718.615,0.0387463
8.12,719.115,0.0387236
8.13,719.615,0.0384826
8.14,720.115,0.0380694
8.15,720.615,0.0377608
8.16,721.115,0.0372859
8.17,721.615,0.0368488
8.18,722.115,0.0362873
8.19,722.615,0.0359261
8.2,723.115,0.0354046
8.21,723.615,0.0350057
8.22,724.115,0
8.23,724.615,0
8.24,725.115,0
8.25,725.615,0
8.26,726.115,0
8.27,726.615,0
8.28,727.115,0
8.29,727.615,0
8.3,728.115,0
8.31,728.615,0
8.32,729.115,0
8.33,729.615,0
8.34,730.115,0
8.35,730.615,0
8.36,731.115,0
8.37,731.615,0
8.38,732.115,0
8.39,732.615,0
8.4,733.115,0
8.41,733.615,0
8.42,734.115,0
8.43,734.615,0
8.44,735.115,0
8.45,735.615,0
8.46,736.115,0
8.47,736.615,0
8.48,737.115,0
8.49,737.615,0
8.5,738.115,0
8.51,738.615,0
8.52,739.115,0
8.53,739.615,0
8.54,740.115,0
8.55,740.615,0
8.56,741.115,0
8.57,741.615,0
8.58,742.115,0
8.59,742.615,0
8.6,743.115,0
8.61,743.615,0
8.62,744.115,0
8.63,744.615,0
8.64,745.115,0
8.65,745.615,0
8.66,746.115,0
8.67,746.615,0
8.68,747.115,0
8.69,747.615,0
8.7,748.115,0
8.71,748.615,0
8.72,749.115,0
8.73,749.615,0
8.74,750.115,0
8.75,750.615,0
8.76,751.115,0
8.77,751.615,0
8.78,752.115,0
8.79,752.615,0
8.8,753.115,0
8.81,753.615,0
8.82,754.115,0
8.83,754.615,0
8.84,755.115,0
8.85,755.615,0
8.86,756.115,0
8.87,756.615,0
8.88,757.115,0
8.89,757.615,0
8.9,758.115,0
8.91,758.615,0
8.92,759.115,0
8.93,759.615,0
8.94,760.115,0
8.95,760.615,0
8.96,761.115,0
8.97,761.615,0
8.98,762.115,0
8.99,762.615,0
9,763.115,0
9.01,763.615,0
9.02,764.115,0
9.03,764.615,0
9.04,765.115,0
9.05,765.615,0
9.06,766.115,0
9.07,766.615,0
9.08,767.115,0
9.09,767.615,0
9.1,768.115,0
9.11,768.615,0
9.12,769.115,0
9.13,769.615,0
9.14,770.115,0
9.15,770.615,0
9.16,771.115,0
9.17,771.615,0
9.18,772.115,0
9.19,772.615,0
9.2,773.115,0
9.21,773.615,0