File: Non-charring/PMMA/UMET/UMET_TGA_N2_3.csv
Time,Temperature,Mass
[s],[K],[mg]
0,313.115,4.0931
0.1,313.615,4.0931
0.2,314.115,4.0931
0.3,314.615,4.0931
0.4,315.115,4.0931
0.5,315.615,4.0931
0.6,316.115,4.0931
0.7,316.615,4.0931
0.8,317.115,4.0931
0.9,317.615,4.0931
1,318.115,4.0931
1.1,318.615,4.0931
1.2,319.115,4.0931
1.3,319.615,4.0931
1.4,320.115,4.0931
1.5,320.615,4.0931
1.6,321.115,4.0931
1.7,321.615,4.0931
1.8,322.115,4.0931
1.9,322.615,4.0931
2,323.115,4.0931
2.1,323.615,4.0931
2.2,324.115,4.0931
2.3,324.615,4.0931
2.4,325.115,4.0931
2.5,325.615,4.0931
2.6,326.115,4.0931
2.7,326.615,4.0931
2.8,327.115,4.0931
2.9,327.615,4.0931
3,328.115,4.0931
3.1,328.615,4.0931
3.2,329.115,4.0931
3.3,329.615,4.0931
3.4,330.115,4.0931
3.5,330.615,4.0931
3.6,331.115,4.0931
3.7,331.615,4.0931
3.8,332.115,4.0931
3.9,332.615,4.0931
4,333.115,4.0931
4.1,333.615,4.0931
4.2,334.115,4.0931
4.3,334.615,4.0931
4.4,335.115,4.0931
4.5,335.615,4.0931
4.6,336.115,4.0931
4.7,336.615,4.0931
4.8,337.115,4.0931
4.9,337.615,4.0931
5,338.115,4.0931
5.1,338.615,4.0931
5.2,339.115,4.0931
5.3,339.615,4.0931
5.4,340.115,4.0931
5.5,340.615,4.0931
5.6,341.115,4.0931
5.7,341.615,4.0931
5.8,342.115,4.0931
5.9,342.615,4.0931
6,343.115,4.0931
6.1,343.615,4.0931
6.2,344.115,4.0931
6.3,344.615,4.0931
6.4,345.115,4.0931
6.5,345.615,4.0931
6.6,346.115,4.0931
6.7,346.615,4.0931
6.8,347.115,4.0931
6.9,347.615,4.0931
7,348.115,4.0931
7.1,348.615,4.0931
7.2,349.115,4.0931
7.3,349.615,4.0931
7.4,350.115,4.0931
7.5,350.615,4.0931
7.6,351.115,4.0931
7.7,351.615,4.0931
7.8,352.115,4.0931
7.9,352.615,4.0931
8,353.115,4.0931
8.1,353.615,4.0931
8.2,354.115,4.0931
8.3,354.615,4.0931
8.4,355.115,4.0931
8.5,355.615,4.0931
8.6,356.115,4.0931
8.7,356.615,4.0931
8.8,357.115,4.0931
8.9,357.615,4.0931
9,358.115,4.0931
9.1,358.615,4.0931
9.2,359.115,4.0931
9.3,359.615,4.0931
9.4,360.115,4.0931
9.5,360.615,4.0931
9.6,361.115,4.0931
9.7,361.615,4.0931
9.8,362.115,4.0931
9.9,362.615,4.0931
10,363.115,4.0931
10.1,363.615,4.0931
10.2,364.115,4.0931
10.3,364.615,4.0931
10.4,365.115,4.0931
10.5,365.615,4.0931
10.6,366.115,4.0931
10.7,366.615,4.0931
10.8,367.115,4.0931
10.9,367.615,4.0931
11,368.115,4.0931
11.1,368.615,4.0931
11.2,369.115,4.0931
11.3,369.615,4.0931
11.4,370.115,4.0931
11.5,370.615,4.0931
11.6,371.115,4.0931
11.7,371.615,4.0931
11.8,372.115,4.0931
11.9,372.615,4.0931
12,373.115,4.0931
12.1,373.615,4.0931
12.2,374.115,4.0931
12.3,374.615,4.0931
12.4,375.115,4.0931
12.5,375.615,4.0931
12.6,376.115,4.0931
12.7,376.615,4.0931
12.8,377.115,4.0931
12.9,377.615,4.0931
13,378.115,4.0931
13.1,378.615,4.0931
13.2,379.115,4.0931
13.3,379.615,4.0931
13.4,380.115,4.0931
13.5,380.615,4.0931
13.6,381.115,4.0931
13.7,381.615,4.0931
13.8,382.115,4.0931
13.9,382.615,4.0931
14,383.115,4.0931
14.1,383.615,4.0931
14.2,384.115,4.0931
14.3,384.615,4.0931
14.4,385.115,4.0931
14.5,385.615,4.0931
14.6,386.115,4.0931
14.7,386.615,4.0931
14.8,387.115,4.0931
14.9,387.615,4.0931
15,388.115,4.0931
15.1,388.615,4.0931
15.2,389.115,4.0931
15.3,389.615,4.0931
15.4,390.115,4.0931
15.5,390.615,4.0931
15.6,391.115,4.0931
15.7,391.615,4.0931
15.8,392.115,4.0931
15.9,392.615,4.0931
16,393.115,4.0931
16.1,393.615,4.0931
16.2,394.115,4.0931
16.3,394.615,4.0931
16.4,395.115,4.0931
16.5,395.615,4.0931
16.6,396.115,4.0931
16.7,396.615,4.0931
16.8,397.115,4.0931
16.9,397.615,4.0931
17,398.115,4.0931
17.1,398.615,4.0931
17.2,399.115,4.0931
17.3,399.615,4.0931
17.4,400.115,4.0931
17.5,400.615,4.0931
17.6,401.115,4.0931
17.7,401.615,4.0931
17.8,402.115,4.0931
17.9,402.615,4.0931
18,403.115,4.0931
18.1,403.615,4.0931
18.2,404.115,4.0931
18.3,404.615,4.0931
18.4,405.115,4.0931
18.5,405.615,4.0931
18.6,406.115,4.0931
18.7,406.615,4.0931
18.8,407.115,4.0931
18.9,407.615,4.0931
19,408.115,4.0931
19.1,408.615,4.0931
19.2,409.115,4.0931
19.3,409.615,4.0931
19.4,410.115,4.0931
19.5,410.615,4.0931
19.6,411.115,4.0931
19.7,411.615,4.0931
19.8,412.115,4.0931
19.9,412.615,4.0931
20,413.115,4.0931
20.1,413.615,4.0931
20.2,414.115,4.0931
20.3,414.615,4.0931
20.4,415.115,4.0931
20.5,415.615,4.0931
20.6,416.115,4.0931
20.7,416.615,4.0931
20.8,417.115,4.0931
20.9,417.615,4.0931
21,418.115,4.0931
21.1,418.615,4.0931
21.2,419.115,4.0931
21.3,419.615,4.0931
21.4,420.115,4.0931
21.5,420.615,4.0931
21.6,421.115,4.0931
21.7,421.615,4.0931
21.8,422.115,4.0931
21.9,422.615,4.0931
22,423.115,4.0931
22.1,423.615,4.0931
22.2,424.115,4.0931
22.3,424.615,4.0931
22.4,425.115,4.0931
22.5,425.615,4.0931
22.6,426.115,4.0931
22.7,426.615,4.0931
22.8,427.115,4.0931
22.9,427.615,4.0931
23,428.115,4.0931
23.1,428.615,4.0931
23.2,429.115,4.0931
23.3,429.615,4.0931
23.4,430.115,4.0931
23.5,430.615,4.0931
23.6,431.115,4.0931
23.7,431.615,4.0931
23.8,432.115,4.0931
23.9,432.615,4.0931
24,433.115,4.0931
24.1,433.615,4.0931
24.2,434.115,4.0931
24.3,434.615,4.0931
24.4,435.115,4.0931
24.5,435.615,4.0931
24.6,436.115,4.0931
24.7,436.615,4.0931
24.8,437.115,4.0931
24.9,437.615,4.0931
25,438.115,4.0931
25.1,438.615,4.0931
25.2,439.115,4.0931
25.3,439.615,4.0929
25.4,440.115,4.0919
25.5,440.615,4.09111
25.6,441.115,4.0901
25.7,441.615,4.0888
25.8,442.115,4.08881
25.9,442.615,4.0885
26,443.115,4.08849
26.1,443.615,4.08719
26.2,444.115,4.08653
26.3,444.615,4.0829
26.4,445.115,4.08404
26.5,445.615,4.08426
26.6,446.115,4.08325
26.7,446.615,4.08244
26.8,447.115,4.08106
26.9,447.615,4.07763
27,448.115,4.0784
27.1,448.615,4.07664
27.2,449.115,4.07397
27.3,449.615,4.07369
27.4,450.115,4.07245
27.5,450.615,4.07162
27.6,451.115,4.0713
27.7,451.615,4.06899
27.8,452.115,4.0674
27.9,452.615,4.06647
28,453.115,4.06526
28.1,453.615,4.0628
28.2,454.115,4.0615
28.3,454.615,4.0603
28.4,455.115,4.05929
28.5,455.615,4.05799
28.6,456.115,4.0573
28.7,456.615,4.05499
28.8,457.115,4.0536
28.9,457.615,4.05217
29,458.115,4.05044
29.1,458.615,4.04965
29.2,459.115,4.04767
29.3,459.615,4.04647
29.4,460.115,4.04649
29.5,460.615,4.0452
29.6,461.115,4.04337
29.7,461.615,4.0418
29.8,462.115,4.03883
29.9,462.615,4.0384
30,463.115,4.0382
30.1,463.615,4.03719
30.2,464.115,4.03575
30.3,464.615,4.0353
30.4,465.115,4.0343
30.5,465.615,4.03388
30.6,466.115,4.03259
30.7,466.615,4.03189
30.8,467.115,4.031
30.9,467.615,4.03012
31,468.115,4.02841
31.1,468.615,4.02689
31.2,469.115,4.0259
31.3,469.615,4.02609
31.4,470.115,4.02355
31.5,470.615,4.02208
31.6,471.115,4.02266
31.7,471.615,4.02176
31.8,472.115,4.02
31.9,472.615,4.01955
32,473.115,4.01804
32.1,473.615,4.01698
32.2,474.115,4.0164
32.3,474.615,4.01623
32.4,475.115,4.01516
32.5,475.615,4.0138
32.6,476.115,4.01563
32.7,476.615,4.01352
32.8,477.115,4.01208
32.9,477.615,4.01151
33,478.115,4.0112
33.1,478.615,4.0106
33.2,479.115,4.0097
33.3,479.615,4.00871
33.4,480.115,4.0078
33.5,480.615,4.00761
33.6,481.115,4.00704
33.7,481.615,4.00775
33.8,482.115,4.00719
33.9,482.615,4.0061
34,483.115,4.00438
34.1,483.615,4.002
34.2,484.115,4.0016
34.3,484.615,4.0052
34.4,485.115,4.00429
34.5,485.615,4.00185
34.6,486.115,4.0011
34.7,486.615,4.001
34.8,487.115,4.00038
34.9,487.615,3.99999
35,488.115,3.9998
35.1,488.615,3.99989
35.2,489.115,3.9995
35.3,489.615,3.999
35.4,490.115,3.99861
35.5,490.615,3.99792
35.6,491.115,3.99791
35.7,491.615,3.99741
35.8,492.115,3.99709
35.9,492.615,3.99791
36,493.115,3.9974
36.1,493.615,3.9974
36.2,494.115,3.9956
36.3,494.615,3.996
36.4,495.115,3.9952
36.5,495.615,3.9956
36.6,496.115,3.9953
36.7,496.615,3.9942
36.8,497.115,3.99379
36.9,497.615,3.9929
37,498.115,3.9938
37.1,498.615,3.9932
37.2,499.115,3.9928
37.3,499.615,3.9925
37.4,500.115,3.99418
37.5,500.615,3.9934
37.6,501.115,3.99201
37.7,501.615,3.99121
37.8,502.115,3.99279
37.9,502.615,3.99179
38,503.115,3.9913
38.1,503.615,3.9917
38.2,504.115,3.9905
38.3,504.615,3.98971
38.4,505.115,3.9925
38.5,505.615,3.99088
38.6,506.115,3.98867
38.7,506.615,3.9884
38.8,507.115,3.98809
38.9,507.615,3.9877
39,508.115,3.989
39.1,508.615,3.9895
39.2,509.115,3.9886
39.3,509.615,3.98779
39.4,510.115,3.9878
39.5,510.615,3.98782
39.6,511.115,3.98779
39.7,511.615,3.9882
39.8,512.115,3.9884
39.9,512.615,3.98779
40,513.115,3.9878
40.1,513.615,3.9877
40.2,514.115,3.9869
40.3,514.615,3.989
40.4,515.115,3.9897
40.5,515.615,3.98729
40.6,516.115,3.98508
40.7,516.615,3.98401
40.8,517.115,3.984
40.9,517.615,3.9833
41,518.115,3.9832
41.1,518.615,3.9845
41.2,519.115,3.98531
41.3,519.615,3.985
41.4,520.115,3.98388
41.5,520.615,3.98239
41.6,521.115,3.98119
41.7,521.615,3.98069
41.8,522.115,3.9803
41.9,522.615,3.9808
42,523.115,3.9803
42.1,523.615,3.97959
42.2,524.115,3.9787
42.3,524.615,3.9789
42.4,525.115,3.97928
42.5,525.615,3.9803
42.6,526.115,3.97981
42.7,526.615,3.97903
42.8,527.115,3.97854
42.9,527.615,3.97721
43,528.115,3.9783
43.1,528.615,3.97479
43.2,529.115,3.9759
43.3,529.615,3.97771
43.4,530.115,3.9758
43.5,530.615,3.97601
43.6,531.115,3.97521
43.7,531.615,3.975
43.8,532.115,3.97331
43.9,532.615,3.97081
44,533.115,3.9716
44.1,533.615,3.97084
44.2,534.115,3.97019
44.3,534.615,3.9701
44.4,535.115,3.9702
44.5,535.615,3.96873
44.6,536.115,3.9666
44.7,536.615,3.96659
44.8,537.115,3.96727
44.9,537.615,3.96608
45,538.115,3.96542
45.1,538.615,3.96388
45.2,539.115,3.96382
45.3,539.615,3.96229
45.4,540.115,3.96179
45.5,540.615,3.95972
45.6,541.115,3.9596
45.7,541.615,3.958
45.8,542.115,3.9572
45.9,542.615,3.9575
46,543.115,3.95779
46.1,543.615,3.954
46.2,544.115,3.95416
46.3,544.615,3.95178
46.4,545.115,3.9508
46.5,545.615,3.9504
46.6,546.115,3.9493
46.7,546.615,3.9488
46.8,547.115,3.94712
46.9,547.615,3.94551
47,548.115,3.944
47.1,548.615,3.9429
47.2,549.115,3.9431
47.3,549.615,3.94041
47.4,550.115,3.9393
47.5,550.615,3.9373
47.6,551.115,3.93529
47.7,551.615,3.93449
47.8,552.115,3.93375
47.9,552.615,3.93239
48,553.115,3.93047
48.1,553.615,3.92926
48.2,554.115,3.92799
48.3,554.615,3.92369
48.4,555.115,3.9228
48.5,555.615,3.92109
48.6,556.115,3.91919
48.7,556.615,3.91669
48.8,557.115,3.91513
48.9,557.615,3.91159
49,558.115,3.90961
49.1,558.615,3.9095
49.2,559.115,3.90779
49.3,559.615,3.90475
49.4,560.115,3.8991
49.5,560.615,3.89792
49.6,561.115,3.89757
49.7,561.615,3.89631
49.8,562.115,3.89294
49.9,562.615,3.88889
50,563.115,3.88714
50.1,563.615,3.88622
50.2,564.115,3.88467
50.3,564.615,3.88377
50.4,565.115,3.88109
50.5,565.615,3.87709
50.6,566.115,3.87299
50.7,566.615,3.8716
50.8,567.115,3.8713
50.9,567.615,3.87091
51,568.115,3.86682
51.1,568.615,3.86372
51.2,569.115,3.86205
51.3,569.615,3.85672
51.4,570.115,3.85507
51.5,570.615,3.85346
51.6,571.115,3.8498
51.7,571.615,3.84822
51.8,572.115,3.84528
51.9,572.615,3.83881
52,573.115,3.8366
52.1,573.615,3.83464
52.2,574.115,3.83194
52.3,574.615,3.82719
52.4,575.115,3.82446
52.5,575.615,3.82066
52.6,576.115,3.81612
52.7,576.615,3.81113
52.8,577.115,3.80873
52.9,577.615,3.81028
53,578.115,3.80596
53.1,578.615,3.79809
53.2,579.115,3.79288
53.3,579.615,3.7909
53.4,580.115,3.78708
53.5,580.615,3.78253
53.6,581.115,3.77602
53.7,581.615,3.77198
53.8,582.115,3.76599
53.9,582.615,3.76277
54,583.115,3.75798
54.1,583.615,3.74978
54.2,584.115,3.74629
54.3,584.615,3.74012
54.4,585.115,3.73196
54.5,585.615,3.7277
54.6,586.115,3.71869
54.7,586.615,3.71128
54.8,587.115,3.70497
54.9,587.615,3.69686
55,588.115,3.68837
55.1,588.615,3.68115
55.2,589.115,3.67489
55.3,589.615,3.66533
55.4,590.115,3.65789
55.5,590.615,3.64993
55.6,591.115,3.64084
55.7,591.615,3.63066
55.8,592.115,3.62105
55.9,592.615,3.61031
56,593.115,3.59921
56.1,593.615,3.58841
56.2,594.115,3.57652
56.3,594.615,3.56484
56.4,595.115,3.55364
56.5,595.615,3.54073
56.6,596.115,3.52705
56.7,596.615,3.51304
56.8,597.115,3.49932
56.9,597.615,3.48572
57,598.115,3.47485
57.1,598.615,3.45862
57.2,599.115,3.44137
57.3,599.615,3.42504
57.4,600.115,3.4083
57.5,600.615,3.39026
57.6,601.115,3.3723
57.7,601.615,3.35514
57.8,602.115,3.33486
57.9,602.615,3.31672
58,603.115,3.29826
58.1,603.615,3.27853
58.2,604.115,3.25893
58.3,604.615,3.23617
58.4,605.115,3.21761
58.5,605.615,3.19324
58.6,606.115,3.1695
58.7,606.615,3.14659
58.8,607.115,3.12137
58.9,607.615,3.08774
59,608.115,3.06887
59.1,608.615,3.034
59.2,609.115,3.01181
59.3,609.615,2.98007
59.4,610.115,2.96001
59.5,610.615,2.92042
59.6,611.115,2.89825
59.7,611.615,2.86111
59.8,612.115,2.84081
59.9,612.615,2.80515
60,613.115,2.77571
60.1,613.615,2.73636
60.2,614.115,2.70323
60.3,614.615,2.6719
60.4,615.115,2.63763
60.5,615.615,2.60234
60.6,616.115,2.56884
60.7,616.615,2.5348
60.8,617.115,2.50037
60.9,617.615,2.46147
61,618.115,2.42584
61.1,618.615,2.39068
61.2,619.115,2.35029
61.3,619.615,2.31046
61.4,620.115,2.27476
61.5,620.615,2.23783
61.6,621.115,2.19425
61.7,621.615,2.159
61.8,622.115,2.11338
61.9,622.615,2.07923
62,623.115,2.04072
62.1,623.615,2.00088
62.2,624.115,1.96432
62.3,624.615,1.92357
62.4,625.115,1.88455
62.5,625.615,1.84485
62.6,626.115,1.80271
62.7,626.615,1.76259
62.8,627.115,1.72673
62.9,627.615,1.68916
63,628.115,1.65185
63.1,628.615,1.61604
63.2,629.115,1.57507
63.3,629.615,1.53846
63.4,630.115,1.50144
63.5,630.615,1.46628
63.6,631.115,1.4269
63.7,631.615,1.39202
63.8,632.115,1.35523
63.9,632.615,1.31611
64,633.115,1.28177
64.1,633.615,1.24836
64.2,634.115,1.21148
64.3,634.615,1.17687
64.4,635.115,1.14738
64.5,635.615,1.11156
64.6,636.115,1.07628
64.7,636.615,1.03874
64.8,637.115,1.01612
64.9,637.615,0.977595
65,638.115,0.942651
65.1,638.615,0.908035
65.2,639.115,0.882354
65.3,639.615,0.858902
65.4,640.115,0.82314
65.5,640.615,0.789147
65.6,641.115,0.769353
65.7,641.615,0.731462
65.8,642.115,0.708647
65.9,642.615,0.678411
66,643.115,0.657141
66.1,643.615,0.624194
66.2,644.115,0.604181
66.3,644.615,0.581533
66.4,645.115,0.544912
66.5,645.615,0.525594
66.6,646.115,0.509266
66.7,646.615,0.476495
66.8,647.115,0.459505
66.9,647.615,0.439444
67,648.115,0.419508
67.1,648.615,0.401789
67.2,649.115,0.381825
67.3,649.615,0.362254
67.4,650.115,0.343991
67.5,650.615,0.324684
67.6,651.115,0.31185
67.7,651.615,0.296119
67.8,652.115,0.279465
67.9,652.615,0.263285
68,653.115,0.250834
68.1,653.615,0.237918
68.2,654.115,0.225337
68.3,654.615,0.211509
68.4,655.115,0.196868
68.5,655.615,0.18613
68.6,656.115,0.176328
68.7,656.615,0.163545
68.8,657.115,0.153334
68.9,657.615,0.144538
69,658.115,0.136872
69.1,658.615,0.124576
69.2,659.115,0.113574
69.3,659.615,0.106132
69.4,660.115,0.0994758
69.5,660.615,0.0937938
69.6,661.115,0.0859842
69.7,661.615,0.0793488
69.8,662.115,0.0702703
69.9,662.615,0.0679528
70,663.115,0.0588543
70.1,663.615,0.0545553
70.2,664.115,0.0503656
70.3,664.615,0.0461382
70.4,665.115,0.0388513
70.5,665.615,0.0367912
70.6,666.115,0.0327014
70.7,666.615,0.0251451
70.8,667.115,0.0216533
70.9,667.615,0.0212894
71,668.115,0.0191168
71.1,668.615,0.0136165
71.2,669.115,0.0107816
71.3,669.615,0.005632515
71.4,670.115,0.00379095
71.5,670.615,0.002661774
71.6,671.115,0
71.7,671.615,0
71.8,672.115,0
71.9,672.615,0
72,673.115,0
72.1,673.615,0
72.2,674.115,0
72.3,674.615,0
72.4,675.115,0
72.5,675.615,0
72.6,676.115,0
72.7,676.615,0
72.8,677.115,0
72.9,677.615,0
73,678.115,0
73.1,678.615,0
73.2,679.115,0
73.3,679.615,0
73.4,680.115,0
73.5,680.615,0
73.6,681.115,0
73.7,681.615,0
73.8,682.115,0
73.9,682.615,0
74,683.115,0
74.1,683.615,0
74.2,684.115,0
74.3,684.615,0
74.4,685.115,0
74.5,685.615,0
74.6,686.115,0
74.7,686.615,0
74.8,687.115,0
74.9,687.615,0
75,688.115,0
75.1,688.615,0
75.2,689.115,0
75.3,689.615,0
75.4,690.115,0
75.5,690.615,0
75.6,691.115,0
75.7,691.615,0
75.8,692.115,0
75.9,692.615,0
76,693.115,0
76.1,693.615,0
76.2,694.115,0
76.3,694.615,0
76.4,695.115,0
76.5,695.615,0
76.6,696.115,0
76.7,696.615,0
76.8,697.115,0
76.9,697.615,0
77,698.115,0
77.1,698.615,0
77.2,699.115,0
77.3,699.615,0
77.4,700.115,0
77.5,700.615,0
77.6,701.115,0
77.7,701.615,0
77.8,702.115,0
77.9,702.615,0
78,703.115,0
78.1,703.615,0
78.2,704.115,0
78.3,704.615,0
78.4,705.115,0
78.5,705.615,0
78.6,706.115,0
78.7,706.615,0
78.8,707.115,0
78.9,707.615,0
79,708.115,0
79.1,708.615,0
79.2,709.115,0
79.3,709.615,0
79.4,710.115,0
79.5,710.615,0
79.6,711.115,0
79.7,711.615,0
79.8,712.115,0
79.9,712.615,0
80,713.115,0
80.1,713.615,0
80.2,714.115,0
80.3,714.615,0
80.4,715.115,0
80.5,715.615,0
80.6,716.115,0
80.7,716.615,0
80.8,717.115,0
80.9,717.615,0
81,718.115,0
81.1,718.615,0
81.2,719.115,0
81.3,719.615,0
81.4,720.115,0
81.5,720.615,0
81.6,721.115,0
81.7,721.615,0
81.8,722.115,0
81.9,722.615,0
82,723.115,0
82.1,723.615,0
82.2,724.115,0
82.3,724.615,0
82.4,725.115,0
82.5,725.615,0
82.6,726.115,0
82.7,726.615,0
82.8,727.115,0
82.9,727.615,0
83,728.115,0
83.1,728.615,0
83.2,729.115,0
83.3,729.615,0
83.4,730.115,0
83.5,730.615,0
83.6,731.115,0
83.7,731.615,0
83.8,732.115,0
83.9,732.615,0
84,733.115,0
84.1,733.615,0
84.2,734.115,0
84.3,734.615,0
84.4,735.115,0
84.5,735.615,0
84.6,736.115,0
84.7,736.615,0
84.8,737.115,0
84.9,737.615,0
85,738.115,0
85.1,738.615,0
85.2,739.115,0
85.3,739.615,0
85.4,740.115,0
85.5,740.615,0
85.6,741.115,0
85.7,741.615,0
85.8,742.115,0
85.9,742.615,0
86,743.115,0
86.1,743.615,0
86.2,744.115,0
86.3,744.615,0
86.4,745.115,0
86.5,745.615,0
86.6,746.115,0
86.7,746.615,0
86.8,747.115,0
86.9,747.615,0
87,748.115,0
87.1,748.615,0
87.2,749.115,0
87.3,749.615,0
87.4,750.115,0
87.5,750.615,0
87.6,751.115,0
87.7,751.615,0
87.8,752.115,0
87.9,752.615,0
88,753.115,0
88.1,753.615,0
88.2,754.115,0
88.3,754.615,0
88.4,755.115,0
88.5,755.615,0
88.6,756.115,0
88.7,756.615,0
88.8,757.115,0
88.9,757.615,0
89,758.115,0
89.1,758.615,0
89.2,759.115,0
89.3,759.615,0
89.4,760.115,0
89.5,760.615,0
89.6,761.115,0
89.7,761.615,0
89.8,762.115,0
89.9,762.615,0
90,763.115,0
90.1,763.615,0
90.2,764.115,0
90.3,764.615,0
90.4,765.115,0
90.5,765.615,0
90.6,766.115,0
90.7,766.615,0
90.8,767.115,0
90.9,767.615,0
91,768.115,0
91.1,768.615,0
91.2,769.115,0
91.3,769.615,0
91.4,770.115,0
91.5,770.615,0
91.6,771.115,0
91.7,771.615,0
91.8,772.115,0
91.9,772.615,0
92,773.115,0
92.1,773.615,0