File: Non-charring/PMMA/UMET/UMET_TGA_N2_4.csv
Time,Temperature,Mass
[s],[K],[mg]
0,313.115,5.3388
0.05,313.615,5.3388
0.1,314.115,5.3388
0.15,314.615,5.3388
0.2,315.115,5.3388
0.25,315.615,5.3388
0.3,316.115,5.3388
0.35,316.615,5.3388
0.4,317.115,5.3388
0.45,317.615,5.3388
0.5,318.115,5.32813
0.55,318.615,5.328
0.6,319.115,5.32792
0.65,319.615,5.32798
0.7,320.115,5.32778
0.75,320.615,5.32773
0.8,321.115,5.32772
0.85,321.615,5.32761
0.9,322.115,5.32747
0.95,322.615,5.32752
1,323.115,5.32739
1.05,323.615,5.3274
1.1,324.115,5.3272
1.15,324.615,5.32708
1.2,325.115,5.32704
1.25,325.615,5.3272
1.3,326.115,5.32731
1.35,326.615,5.32723
1.4,327.115,5.3272
1.45,327.615,5.3269
1.5,328.115,5.327
1.55,328.615,5.3269
1.6,329.115,5.3268
1.65,329.615,5.3268
1.7,330.115,5.3268
1.75,330.615,5.3267
1.8,331.115,5.3267
1.85,331.615,5.3265
1.9,332.115,5.32631
1.95,332.615,5.3262
2,333.115,5.3261
2.05,333.615,5.32589
2.1,334.115,5.3257
2.15,334.615,5.3256
2.2,335.115,5.32547
2.25,335.615,5.32553
2.3,336.115,5.32539
2.35,336.615,5.32557
2.4,337.115,5.32563
2.45,337.615,5.32549
2.5,338.115,5.3253
2.55,338.615,5.32479
2.6,339.115,5.3247
2.65,339.615,5.32458
2.7,340.115,5.32452
2.75,340.615,5.3247
2.8,341.115,5.3246
2.85,341.615,5.32439
2.9,342.115,5.3241
2.95,342.615,5.32398
3,343.115,5.3238
3.05,343.615,5.32381
3.1,344.115,5.3237
3.15,344.615,5.3235
3.2,345.115,5.32351
3.25,345.615,5.32348
3.3,346.115,5.3234
3.35,346.615,5.32351
3.4,347.115,5.32329
3.45,347.615,5.32324
3.5,348.115,5.3232
3.55,348.615,5.32321
3.6,349.115,5.32307
3.65,349.615,5.32287
3.7,350.115,5.32287
3.75,350.615,5.32277
3.8,351.115,5.32264
3.85,351.615,5.32268
3.9,352.115,5.32259
3.95,352.615,5.3226
4,353.115,5.32241
4.05,353.615,5.3225
4.1,354.115,5.32229
4.15,354.615,5.32239
4.2,355.115,5.3224
4.25,355.615,5.32229
4.3,356.115,5.3222
4.35,356.615,5.3223
4.4,357.115,5.3224
4.45,357.615,5.3223
4.5,358.115,5.3223
4.55,358.615,5.3221
4.6,359.115,5.3222
4.65,359.615,5.32221
4.7,360.115,5.32229
4.75,360.615,5.32246
4.8,361.115,5.32232
4.85,361.615,5.32246
4.9,362.115,5.32229
4.95,362.615,5.32231
5,363.115,5.32228
5.05,363.615,5.3223
5.1,364.115,5.3223
5.15,364.615,5.32226
5.2,365.115,5.3222
5.25,365.615,5.32218
5.3,366.115,5.32209
5.35,366.615,5.32209
5.4,367.115,5.32198
5.45,367.615,5.32211
5.5,368.115,5.32201
5.55,368.615,5.32208
5.6,369.115,5.32206
5.65,369.615,5.32191
5.7,370.115,5.3218
5.75,370.615,5.32149
5.8,371.115,5.3216
5.85,371.615,5.3215
5.9,372.115,5.3216
5.95,372.615,5.3215
6,373.115,5.3213
6.05,373.615,5.321
6.1,374.115,5.321
6.15,374.615,5.321
6.2,375.115,5.3211
6.25,375.615,5.3209
6.3,376.115,5.321
6.35,376.615,5.3209
6.4,377.115,5.3209
6.45,377.615,5.3211
6.5,378.115,5.3211
6.55,378.615,5.3211
6.6,379.115,5.32079
6.65,379.615,5.3208
6.7,380.115,5.32091
6.75,380.615,5.3207
6.8,381.115,5.32079
6.85,381.615,5.3209
6.9,382.115,5.3207
6.95,382.615,5.3207
7,383.115,5.3205
7.05,383.615,5.3203
7.1,384.115,5.3202
7.15,384.615,5.32
7.2,385.115,5.3199
7.25,385.615,5.3198
7.3,386.115,5.3196
7.35,386.615,5.3194
7.4,387.115,5.3194
7.45,387.615,5.3193
7.5,388.115,5.3192
7.55,388.615,5.319
7.6,389.115,5.319
7.65,389.615,5.3188
7.7,390.115,5.3187
7.75,390.615,5.31851
7.8,391.115,5.3185
7.85,391.615,5.31822
7.9,392.115,5.318
7.95,392.615,5.31781
8,393.115,5.31731
8.05,393.615,5.3172
8.1,394.115,5.317
8.15,394.615,5.3168
8.2,395.115,5.31671
8.25,395.615,5.3165
8.3,396.115,5.3163
8.35,396.615,5.3162
8.4,397.115,5.3164
8.45,397.615,5.3163
8.5,398.115,5.3161
8.55,398.615,5.316
8.6,399.115,5.316
8.65,399.615,5.3159
8.7,400.115,5.3159
8.75,400.615,5.3158
8.8,401.115,5.31571
8.85,401.615,5.3155
8.9,402.115,5.3153
8.95,402.615,5.3152
9,403.115,5.31521
9.05,403.615,5.3148
9.1,404.115,5.31491
9.15,404.615,5.3147
9.2,405.115,5.3145
9.25,405.615,5.31418
9.3,406.115,5.3141
9.35,406.615,5.31401
9.4,407.115,5.31361
9.45,407.615,5.3133
9.5,408.115,5.31324
9.55,408.615,5.31318
9.6,409.115,5.31288
9.65,409.615,5.31261
9.7,410.115,5.31218
9.75,410.615,5.3121
9.8,411.115,5.31192
9.85,411.615,5.31167
9.9,412.115,5.31171
9.95,412.615,5.3115
10,413.115,5.31121
10.05,413.615,5.31081
10.1,414.115,5.3105
10.15,414.615,5.3106
10.2,415.115,5.3104
10.25,415.615,5.31009
10.3,416.115,5.30962
10.35,416.615,5.3091
10.4,417.115,5.3084
10.45,417.615,5.30812
10.5,418.115,5.3077
10.55,418.615,5.30739
10.6,419.115,5.30701
10.65,419.615,5.3068
10.7,420.115,5.30669
10.75,420.615,5.3063
10.8,421.115,5.3062
10.85,421.615,5.30589
10.9,422.115,5.30531
10.95,422.615,5.30512
11,423.115,5.3047
11.05,423.615,5.30452
11.1,424.115,5.30399
11.15,424.615,5.3037
11.2,425.115,5.30341
11.25,425.615,5.30322
11.3,426.115,5.30269
11.35,426.615,5.3024
11.4,427.115,5.3022
11.45,427.615,5.30199
11.5,428.115,5.30173
11.55,428.615,5.30165
11.6,429.115,5.30142
11.65,429.615,5.3011
11.7,430.115,5.30092
11.75,430.615,5.30061
11.8,431.115,5.3002
11.85,431.615,5.2999
11.9,432.115,5.2996
11.95,432.615,5.29921
12,433.115,5.29876
12.05,433.615,5.29829
12.1,434.115,5.2981
12.15,434.615,5.29768
12.2,435.115,5.29718
12.25,435.615,5.2967
12.3,436.115,5.29596
12.35,436.615,5.29566
12.4,437.115,5.29501
12.45,437.615,5.29452
12.5,438.115,5.2939
12.55,438.615,5.29331
12.6,439.115,5.2929
12.65,439.615,5.29236
12.7,440.115,5.29231
12.75,440.615,5.29199
12.8,441.115,5.29141
12.85,441.615,5.29091
12.9,442.115,5.29026
12.95,442.615,5.28968
13,443.115,5.28884
13.05,443.615,5.28802
13.1,444.115,5.28731
13.15,444.615,5.28676
13.2,445.115,5.28583
13.25,445.615,5.28506
13.3,446.115,5.28427
13.35,446.615,5.28334
13.4,447.115,5.28253
13.45,447.615,5.28153
13.5,448.115,5.28086
13.55,448.615,5.28006
13.6,449.115,5.27897
13.65,449.615,5.27791
13.7,450.115,5.277
13.75,450.615,5.27588
13.8,451.115,5.27475
13.85,451.615,5.2736
13.9,452.115,5.27257
13.95,452.615,5.27122
14,453.115,5.2696
14.05,453.615,5.26819
14.1,454.115,5.26691
14.15,454.615,5.2656
14.2,455.115,5.26428
14.25,455.615,5.26272
14.3,456.115,5.26128
14.35,456.615,5.25958
14.4,457.115,5.25826
14.45,457.615,5.25676
14.5,458.115,5.25585
14.55,458.615,5.25469
14.6,459.115,5.25306
14.65,459.615,5.25102
14.7,460.115,5.2493
14.75,460.615,5.24682
14.8,461.115,5.24446
14.85,461.615,5.24232
14.9,462.115,5.24079
14.95,462.615,5.23924
15,463.115,5.23767
15.05,463.615,5.23647
15.1,464.115,5.23479
15.15,464.615,5.23325
15.2,465.115,5.23158
15.25,465.615,5.23017
15.3,466.115,5.22866
15.35,466.615,5.2272
15.4,467.115,5.22549
15.45,467.615,5.22398
15.5,468.115,5.2225
15.55,468.615,5.22079
15.6,469.115,5.21929
15.65,469.615,5.2178
15.7,470.115,5.21638
15.75,470.615,5.21509
15.8,471.115,5.21339
15.85,471.615,5.21208
15.9,472.115,5.21039
15.95,472.615,5.2093
16,473.115,5.20798
16.05,473.615,5.2067
16.1,474.115,5.20549
16.15,474.615,5.2043
16.2,475.115,5.20267
16.25,475.615,5.20139
16.3,476.115,5.2002
16.35,476.615,5.19909
16.4,477.115,5.19775
16.45,477.615,5.19628
16.5,478.115,5.1954
16.55,478.615,5.19428
16.6,479.115,5.19328
16.65,479.615,5.19238
16.7,480.115,5.1912
16.75,480.615,5.19019
16.8,481.115,5.18899
16.85,481.615,5.18778
16.9,482.115,5.1865
16.95,482.615,5.18539
17,483.115,5.18418
17.05,483.615,5.1832
17.1,484.115,5.18219
17.15,484.615,5.18118
17.2,485.115,5.17999
17.25,485.615,5.17917
17.3,486.115,5.17807
17.35,486.615,5.17699
17.4,487.115,5.17589
17.45,487.615,5.17509
17.5,488.115,5.17418
17.55,488.615,5.1733
17.6,489.115,5.1725
17.65,489.615,5.1713
17.7,490.115,5.1704
17.75,490.615,5.1699
17.8,491.115,5.16921
17.85,491.615,5.1684
17.9,492.115,5.16771
17.95,492.615,5.16691
18,493.115,5.16602
18.05,493.615,5.1653
18.1,494.115,5.16471
18.15,494.615,5.1641
18.2,495.115,5.1636
18.25,495.615,5.1628
18.3,496.115,5.1623
18.35,496.615,5.1618
18.4,497.115,5.16118
18.45,497.615,5.16049
18.5,498.115,5.15989
18.55,498.615,5.15939
18.6,499.115,5.15899
18.65,499.615,5.1584
18.7,500.115,5.15818
18.75,500.615,5.15779
18.8,501.115,5.1573
18.85,501.615,5.1568
18.9,502.115,5.15649
18.95,502.615,5.1558
19,503.115,5.155393
19.05,503.615,5.155
19.1,504.115,5.1549
19.15,504.615,5.1545
19.2,505.115,5.15419
19.25,505.615,5.15381
19.3,506.115,5.15338
19.35,506.615,5.1531
19.4,507.115,5.15299
19.45,507.615,5.15249
19.5,508.115,5.1521
19.55,508.615,5.1517
19.6,509.115,5.1515
19.65,509.615,5.1511
19.7,510.115,5.1507
19.75,510.615,5.1504
19.8,511.115,5.1502
19.85,511.615,5.1497
19.9,512.115,5.1493
19.95,512.615,5.1492
20,513.115,5.1489
20.05,513.615,5.1484
20.1,514.115,5.1482
20.15,514.615,5.1478
20.2,515.115,5.1475
20.25,515.615,5.1471
20.3,516.115,5.1467
20.35,516.615,5.1466
20.4,517.115,5.1464
20.45,517.615,5.1461
20.5,518.115,5.1458
20.55,518.615,5.1456
20.6,519.115,5.1453
20.65,519.615,5.14479
20.7,520.115,5.14449
20.75,520.615,5.14411
20.8,521.115,5.14378
20.85,521.615,5.14338
20.9,522.115,5.1433
20.95,522.615,5.1431
21,523.115,5.1429
21.05,523.615,5.1425
21.1,524.115,5.14239
21.15,524.615,5.14219
21.2,525.115,5.14178
21.25,525.615,5.1413
21.3,526.115,5.141
21.35,526.615,5.14065
21.4,527.115,5.14028
21.45,527.615,5.13978
21.5,528.115,5.13934
21.55,528.615,5.13867
21.6,529.115,5.1384
21.65,529.615,5.13799
21.7,530.115,5.13759
21.75,530.615,5.13709
21.8,531.115,5.13648
21.85,531.615,5.1361
21.9,532.115,5.13569
21.95,532.615,5.13518
22,533.115,5.1347
22.05,533.615,5.13429
22.1,534.115,5.13379
22.15,534.615,5.13286
22.2,535.115,5.1322
22.25,535.615,5.13149
22.3,536.115,5.13089
22.35,536.615,5.1304
22.4,537.115,5.12969
22.45,537.615,5.1292
22.5,538.115,5.1287
22.55,538.615,5.1281
22.6,539.115,5.1277
22.65,539.615,5.12691
22.7,540.115,5.12641
22.75,540.615,5.12562
22.8,541.115,5.125
22.85,541.615,5.1244
22.9,542.115,5.1237
22.95,542.615,5.1231
23,543.115,5.12249
23.05,543.615,5.1217
23.1,544.115,5.12079
23.15,544.615,5.1202
23.2,545.115,5.1195
23.25,545.615,5.11849
23.3,546.115,5.1177
23.35,546.615,5.11678
23.4,547.115,5.11588
23.45,547.615,5.11487
23.5,548.115,5.11369
23.55,548.615,5.1127
23.6,549.115,5.11189
23.65,549.615,5.11068
23.7,550.115,5.10958
23.75,550.615,5.1086
23.8,551.115,5.10728
23.85,551.615,5.10629
23.9,552.115,5.10508
23.95,552.615,5.1041
24,553.115,5.10266
24.05,553.615,5.10149
24.1,554.115,5.10007
24.15,554.615,5.09849
24.2,555.115,5.09735
24.25,555.615,5.0958
24.3,556.115,5.09435
24.35,556.615,5.09297
24.4,557.115,5.09144
24.45,557.615,5.08971
24.5,558.115,5.08817
24.55,558.615,5.0863
24.6,559.115,5.08456
24.65,559.615,5.08246
24.7,560.115,5.08016
24.75,560.615,5.07792
24.8,561.115,5.07577
24.85,561.615,5.07364
24.9,562.115,5.07124
24.95,562.615,5.06927
25,563.115,5.06767
25.05,563.615,5.06564
25.1,564.115,5.06352
25.15,564.615,5.06117
25.2,565.115,5.05874
25.25,565.615,5.05687
25.3,566.115,5.05469
25.35,566.615,5.05236
25.4,567.115,5.05006
25.45,567.615,5.04786
25.5,568.115,5.04587
25.55,568.615,5.04317
25.6,569.115,5.04066
25.65,569.615,5.03817
25.7,570.115,5.03547
25.75,570.615,5.03305
25.8,571.115,5.03058
25.85,571.615,5.02796
25.9,572.115,5.02556
25.95,572.615,5.02256
26,573.115,5.01966
26.05,573.615,5.01667
26.1,574.115,5.01363
26.15,574.615,5.01103
26.2,575.115,5.0082
26.25,575.615,5.00545
26.3,576.115,5.00251
26.35,576.615,4.99946
26.4,577.115,4.99636
26.45,577.615,4.99345
26.5,578.115,4.98991
26.55,578.615,4.98661
26.6,579.115,4.98348
26.65,579.615,4.98012
26.7,580.115,4.97659
26.75,580.615,4.97294
26.8,581.115,4.96939
26.85,581.615,4.96604
26.9,582.115,4.9621
26.95,582.615,4.95836
27,583.115,4.95455
27.05,583.615,4.95049
27.1,584.115,4.94657
27.15,584.615,4.94264
27.2,585.115,4.93857
27.25,585.615,4.93406
27.3,586.115,4.92929
27.35,586.615,4.92451
27.4,587.115,4.91922
27.45,587.615,4.91419
27.5,588.115,4.90896
27.55,588.615,4.90374
27.6,589.115,4.89808
27.65,589.615,4.89215
27.7,590.115,4.88605
27.75,590.615,4.88002
27.8,591.115,4.87361
27.85,591.615,4.86743
27.9,592.115,4.8608
27.95,592.615,4.8539
28,593.115,4.84679
28.05,593.615,4.83921
28.1,594.115,4.83114
28.15,594.615,4.82335
28.2,595.115,4.81496
28.25,595.615,4.8067
28.3,596.115,4.79755
28.35,596.615,4.78845
28.4,597.115,4.77941
28.45,597.615,4.76984
28.5,598.115,4.7591
28.55,598.615,4.74886
28.6,599.115,4.73762
28.65,599.615,4.72639
28.7,600.115,4.71362
28.75,600.615,4.70174
28.8,601.115,4.68911
28.85,601.615,4.67618
28.9,602.115,4.65049
28.95,602.615,4.64044
29,603.115,4.62835
29.05,603.615,4.6109
29.1,604.115,4.58922
29.15,604.615,4.57852
29.2,605.115,4.55473
29.25,605.615,4.53708
29.3,606.115,4.51867
29.35,606.615,4.50043
29.4,607.115,4.48124
29.45,607.615,4.46192
29.5,608.115,4.44167
29.55,608.615,4.42103
29.6,609.115,4.39918
29.65,609.615,4.37722
29.7,610.115,4.35469
29.75,610.615,4.33102
29.8,611.115,4.30744
29.85,611.615,4.28214
29.9,612.115,4.25689
29.95,612.615,4.23044
30,613.115,4.20236
30.05,613.615,4.17546
30.1,614.115,4.14775
30.15,614.615,4.11904
30.2,615.115,4.08914
30.25,615.615,4.05899
30.3,616.115,4.02781
30.35,616.615,3.99592
30.4,617.115,3.96385
30.45,617.615,3.93093
30.5,618.115,3.89721
30.55,618.615,3.86243
30.6,619.115,3.82708
30.65,619.615,3.79131
30.7,620.115,3.75422
30.75,620.615,3.71685
30.8,621.115,3.67882
30.85,621.615,3.64049
30.9,622.115,3.6008
30.95,622.615,3.56094
31,623.115,3.51991
31.05,623.615,3.4781
31.1,624.115,3.43502
31.15,624.615,3.39212
31.2,625.115,3.34911
31.25,625.615,3.30532
31.3,626.115,3.26065
31.35,626.615,3.2121
31.4,627.115,3.16642
31.45,627.615,3.11995
31.5,628.115,3.07325
31.55,628.615,3.02563
31.6,629.115,2.978
31.65,629.615,2.92934
31.7,630.115,2.87995
31.75,630.615,2.8304
31.8,631.115,2.78099
31.85,631.615,2.73064
31.9,632.115,2.68101
31.95,632.615,2.63107
32,633.115,2.58022
32.05,633.615,2.5306
32.1,634.115,2.48074
32.15,634.615,2.43084
32.2,635.115,2.38107
32.25,635.615,2.33139
32.3,636.115,2.28219
32.35,636.615,2.23317
32.4,637.115,2.18335
32.45,637.615,2.13372
32.5,638.115,2.08517
32.55,638.615,2.03572
32.6,639.115,1.98636
32.65,639.615,1.93787
32.7,640.115,1.89034
32.75,640.615,1.84351
32.8,641.115,1.79708
32.85,641.615,1.75153
32.9,642.115,1.70568
32.95,642.615,1.65986
33,643.115,1.61483
33.05,643.615,1.57009
33.1,644.115,1.52689
33.15,644.615,1.48412
33.2,645.115,1.44205
33.25,645.615,1.40101
33.3,646.115,1.35408
33.35,646.615,1.31206
33.4,647.115,1.27119
33.45,647.615,1.22906
33.5,648.115,1.18811
33.55,648.615,1.14765
33.6,649.115,1.10768
33.65,649.615,1.06901
33.7,650.115,1.0314
33.75,650.615,0.993558
33.8,651.115,0.956285
33.85,651.615,0.920291
33.9,652.115,0.88464
33.95,652.615,0.849612
34,653.115,0.815484
34.05,653.615,0.781923
34.1,654.115,0.749229
34.15,654.615,0.71811
34.2,655.115,0.687387
34.25,655.615,0.657536
34.3,656.115,0.62947
34.35,656.615,0.601685
34.4,657.115,0.575135
34.45,657.615,0.549022
34.5,658.115,0.5241794
34.55,658.615,0.500427
34.6,659.115,0.477483
34.65,659.615,0.454901
34.7,660.115,0.433702
34.75,660.615,0.412826
34.8,661.115,0.393192
34.85,661.615,0.374133
34.9,662.115,0.355844
34.95,662.615,0.338388
35,663.115,0.325187
35.05,663.615,0.313597
35.1,664.115,0.293588
35.15,664.615,0.283066
35.2,665.115,0.271436
35.25,665.615,0.259458
35.3,666.115,0.237425
35.35,666.615,0.228517
35.4,667.115,0.218543
35.45,667.615,0.208636
35.5,668.115,0.198075
35.55,668.615,0.18726
35.6,669.115,0.176826
35.65,669.615,0.166754
35.7,670.115,0.157327
35.75,670.615,0.148572
35.8,671.115,0.139776
35.85,671.615,0.131514
35.9,672.115,0.12374
35.95,672.615,0.116158
36,673.115,0.109007
36.05,673.615,0.102704
36.1,674.115,0.0965944
36.15,674.615,0.0909982
36.2,675.115,0.084943
36.25,675.615,0.07981506
36.3,676.115,0.074795
36.35,676.615,0.0699554
36.4,677.115,0.0652449
36.45,677.615,0.0611399
36.5,678.115,0.0568401
36.55,678.615,0.05323
36.6,679.115,0.049842
36.65,679.615,0.0465928
36.7,680.115,0.043319
36.75,680.615,0.040167
36.8,681.115,0.0370614
36.85,681.615,0.0337973
36.9,682.115,0.0310489
36.95,682.615,0.02864106
37,683.115,0.0263705
37.05,683.615,0.0241282
37.1,684.115,0.02254682
37.15,684.615,0.0210439
37.2,685.115,0.01962009
37.25,685.615,0.0182128
37.3,686.115,0.0169518
37.35,686.615,0.015513
37.4,687.115,0.0141526
37.45,687.615,0.0127234
37.5,688.115,0.0112499
37.55,688.615,0.0100097
37.6,689.115,0.008742285
37.65,689.615,0.007702821
37.7,690.115,0.006550708
37.75,690.615,0.005804343
37.8,691.115,0.004900166
37.85,691.615,0
37.9,692.115,0
37.95,692.615,0
38,693.115,0
38.05,693.615,0
38.1,694.115,0
38.15,694.615,0
38.2,695.115,0
38.25,695.615,0
38.3,696.115,0
38.35,696.615,0
38.4,697.115,0
38.45,697.615,0
38.5,698.115,0
38.55,698.615,0
38.6,699.115,0
38.65,699.615,0
38.7,700.115,0
38.75,700.615,0
38.8,701.115,0
38.85,701.615,0
38.9,702.115,0
38.95,702.615,0
39,703.115,0
39.05,703.615,0
39.1,704.115,0
39.15,704.615,0
39.2,705.115,0
39.25,705.615,0
39.3,706.115,0
39.35,706.615,0
39.4,707.115,0
39.45,707.615,0
39.5,708.115,0
39.55,708.615,0
39.6,709.115,0
39.65,709.615,0
39.7,710.115,0
39.75,710.615,0
39.8,711.115,0
39.85,711.615,0
39.9,712.115,0
39.95,712.615,0
40,713.115,0
40.05,713.615,0
40.1,714.115,0
40.15,714.615,0
40.2,715.115,0
40.25,715.615,0
40.3,716.115,0
40.35,716.615,0
40.4,717.115,0
40.45,717.615,0
40.5,718.115,0
40.55,718.615,0
40.6,719.115,0
40.65,719.615,0
40.7,720.115,0
40.75,720.615,0
40.8,721.115,0
40.85,721.615,0
40.9,722.115,0
40.95,722.615,0
41,723.115,0
41.05,723.615,0
41.1,724.115,0
41.15,724.615,0
41.2,725.115,0
41.25,725.615,0
41.3,726.115,0
41.35,726.615,0
41.4,727.115,0
41.45,727.615,0
41.5,728.115,0
41.55,728.615,0
41.6,729.115,0
41.65,729.615,0
41.7,730.115,0
41.75,730.615,0
41.8,731.115,0
41.85,731.615,0
41.9,732.115,0
41.95,732.615,0
42,733.115,0
42.05,733.615,0
42.1,734.115,0
42.15,734.615,0
42.2,735.115,0
42.25,735.615,0
42.3,736.115,0
42.35,736.615,0
42.4,737.115,0
42.45,737.615,0
42.5,738.115,0
42.55,738.615,0
42.6,739.115,0
42.65,739.615,0
42.7,740.115,0
42.75,740.615,0
42.8,741.115,0
42.85,741.615,0
42.9,742.115,0
42.95,742.615,0
43,743.115,0
43.05,743.615,0
43.1,744.115,0
43.15,744.615,0
43.2,745.115,0
43.25,745.615,0
43.3,746.115,0
43.35,746.615,0
43.4,747.115,0
43.45,747.615,0
43.5,748.115,0
43.55,748.615,0
43.6,749.115,0
43.65,749.615,0
43.7,750.115,0
43.75,750.615,0
43.8,751.115,0
43.85,751.615,0
43.9,752.115,0
43.95,752.615,0
44,753.115,0
44.05,753.615,0
44.1,754.115,0
44.15,754.615,0
44.2,755.115,0
44.25,755.615,0
44.3,756.115,0
44.35,756.615,0
44.4,757.115,0
44.45,757.615,0
44.5,758.115,0
44.55,758.615,0
44.6,759.115,0
44.65,759.615,0
44.7,760.115,0
44.75,760.615,0
44.8,761.115,0
44.85,761.615,0
44.9,762.115,0
44.95,762.615,0
45,763.115,0
45.05,763.615,0
45.1,764.115,0
45.15,764.615,0
45.2,765.115,0
45.25,765.615,0
45.3,766.115,0
45.35,766.615,0
45.4,767.115,0
45.45,767.615,0
45.5,768.115,0
45.55,768.615,0
45.6,769.115,0
45.65,769.615,0
45.7,770.115,0
45.75,770.615,0
45.8,771.115,0
45.85,771.615,0
45.9,772.115,0
45.95,772.615,0
46,773.115,0
46.05,773.615,0