File: Non-charring/PMMA/UMET/UMET_TGA_N2_1.csv
Time,Temperature,Mass
[s],[K],[mg]
0,313.115,4.3361
0.5,313.615,4.3361
1,314.115,4.3361
1.5,314.615,4.3361
2,315.115,4.3361
2.5,315.615,4.33592
3,316.115,4.3352
3.5,316.615,4.33454
4,317.115,4.33303
4.5,317.615,4.33319
5,318.115,4.33308
5.5,318.615,4.33299
6,319.115,4.3314
6.5,319.615,4.33107
7,320.115,4.33071
7.5,320.615,4.33111
8,321.115,4.33031
8.5,321.615,4.32989
9,322.115,4.33037
9.5,322.615,4.32911
10,323.115,4.3293
10.5,323.615,4.32907
11,324.115,4.3283
11.5,324.615,4.32823
12,325.115,4.3287
12.5,325.615,4.3298
13,326.115,4.3286
13.5,326.615,4.3293
14,327.115,4.32827
14.5,327.615,4.3283
15,328.115,4.32819
15.5,328.615,4.32951
16,329.115,4.32928
16.5,329.615,4.3296
17,330.115,4.3273
17.5,330.615,4.3263
18,331.115,4.32682
18.5,331.615,4.32685
19,332.115,4.32671
19.5,332.615,4.32649
20,333.115,4.32668
20.5,333.615,4.32553
21,334.115,4.3237
21.5,334.615,4.32341
22,335.115,4.32451
22.5,335.615,4.32299
23,336.115,4.32393
23.5,336.615,4.32341
24,337.115,4.32389
24.5,337.615,4.3235
25,338.115,4.32173
25.5,338.615,4.32174
26,339.115,4.32187
26.5,339.615,4.3214
27,340.115,4.32191
27.5,340.615,4.3222
28,341.115,4.32127
28.5,341.615,4.3217
29,342.115,4.32336
29.5,342.615,4.3223
30,343.115,4.32228
30.5,343.615,4.32231
31,344.115,4.32231
31.5,344.615,4.32102
32,345.115,4.32216
32.5,345.615,4.32257
33,346.115,4.32225
33.5,346.615,4.32271
34,347.115,4.32071
34.5,347.615,4.32199
35,348.115,4.32128
35.5,348.615,4.3216
36,349.115,4.32191
36.5,349.615,4.323
37,350.115,4.32372
37.5,350.615,4.32219
38,351.115,4.3218
38.5,351.615,4.32259
39,352.115,4.32279
39.5,352.615,4.3213
40,353.115,4.32089
40.5,353.615,4.3215
41,354.115,4.3219
41.5,354.615,4.3217
42,355.115,4.32161
42.5,355.615,4.3213
43,356.115,4.3214
43.5,356.615,4.32009
44,357.115,4.32009
44.5,357.615,4.3201
45,358.115,4.31964
45.5,358.615,4.31962
46,359.115,4.32002
46.5,359.615,4.32056
47,360.115,4.32109
47.5,360.615,4.3203
48,361.115,4.31991
48.5,361.615,4.3191
49,362.115,4.3194
49.5,362.615,4.32038
50,363.115,4.32171
50.5,363.615,4.32124
51,364.115,4.31951
51.5,364.615,4.32021
52,365.115,4.32051
52.5,365.615,4.3206
53,366.115,4.32059
53.5,366.615,4.32041
54,367.115,4.32046
54.5,367.615,4.32069
55,368.115,4.3207
55.5,368.615,4.32029
56,369.115,4.32059
56.5,369.615,4.3212
57,370.115,4.32038
57.5,370.615,4.32035
58,371.115,4.31986
58.5,371.615,4.31934
59,372.115,4.31987
59.5,372.615,4.3194
60,373.115,4.31948
60.5,373.615,4.31905
61,374.115,4.31821
61.5,374.615,4.31911
62,375.115,4.31827
62.5,375.615,4.31782
63,376.115,4.31849
63.5,376.615,4.31712
64,377.115,4.31716
64.5,377.615,4.31604
65,378.115,4.31473
65.5,378.615,4.31496
66,379.115,4.31468
66.5,379.615,4.31443
67,380.115,4.31502
67.5,380.615,4.31619
68,381.115,4.31661
68.5,381.615,4.31584
69,382.115,4.31556
69.5,382.615,4.31549
70,383.115,4.31602
70.5,383.615,4.3171
71,384.115,4.31675
71.5,384.615,4.31738
72,385.115,4.31771
72.5,385.615,4.31669
73,386.115,4.31658
73.5,386.615,4.31705
74,387.115,4.3163
74.5,387.615,4.31737
75,388.115,4.31777
75.5,388.615,4.31648
76,389.115,4.3168
76.5,389.615,4.31718
77,390.115,4.31701
77.5,390.615,4.31809
78,391.115,4.31499
78.5,391.615,4.31439
79,392.115,4.3145
79.5,392.615,4.31469
80,393.115,4.31506
80.5,393.615,4.31499
81,394.115,4.31549
81.5,394.615,4.31423
82,395.115,4.31483
82.5,395.615,4.31331
83,396.115,4.31452
83.5,396.615,4.31434
84,397.115,4.31485
84.5,397.615,4.31501
85,398.115,4.31435
85.5,398.615,4.31447
86,399.115,4.31379
86.5,399.615,4.3142
87,400.115,4.31411
87.5,400.615,4.31509
88,401.115,4.31368
88.5,401.615,4.31334
89,402.115,4.31291
89.5,402.615,4.31283
90,403.115,4.31417
90.5,403.615,4.3141
91,404.115,4.31457
91.5,404.615,4.31419
92,405.115,4.31291
92.5,405.615,4.31291
93,406.115,4.31472
93.5,406.615,4.31562
94,407.115,4.31521
94.5,407.615,4.31488
95,408.115,4.31266
95.5,408.615,4.31251
96,409.115,4.3121
96.5,409.615,4.31179
97,410.115,4.31168
97.5,410.615,4.31212
98,411.115,4.31171
98.5,411.615,4.31345
99,412.115,4.31216
99.5,412.615,4.31191
100,413.115,4.31126
100.5,413.615,4.31072
101,414.115,4.31123
101.5,414.615,4.31061
102,415.115,4.31049
102.5,415.615,4.31044
103,416.115,4.30935
103.5,416.615,4.30999
104,417.115,4.30947
104.5,417.615,4.3097
105,418.115,4.31032
105.5,418.615,4.31069
106,419.115,4.31037
106.5,419.615,4.30985
107,420.115,4.3081
107.5,420.615,4.30734
108,421.115,4.30719
108.5,421.615,4.30598
109,422.115,4.30581
109.5,422.615,4.3058
110,423.115,4.30527
110.5,423.615,4.30499
111,424.115,4.3048
111.5,424.615,4.30466
112,425.115,4.3044
112.5,425.615,4.30485
113,426.115,4.30418
113.5,426.615,4.30389
114,427.115,4.3029
114.5,427.615,4.30332
115,428.115,4.30248
115.5,428.615,4.30271
116,429.115,4.30091
116.5,429.615,4.30023
117,430.115,4.3005
117.5,430.615,4.29975
118,431.115,4.29993
118.5,431.615,4.29798
119,432.115,4.2976
119.5,432.615,4.29788
120,433.115,4.29592
120.5,433.615,4.2952
121,434.115,4.2935
121.5,434.615,4.29218
122,435.115,4.29211
122.5,435.615,4.2901
123,436.115,4.28971
123.5,436.615,4.28731
124,437.115,4.2863
124.5,437.615,4.28522
125,438.115,4.28481
125.5,438.615,4.28462
126,439.115,4.28183
126.5,439.615,4.28154
127,440.115,4.2801
127.5,440.615,4.279
128,441.115,4.27679
128.5,441.615,4.2762
129,442.115,4.27381
129.5,442.615,4.27347
130,443.115,4.27278
130.5,443.615,4.27081
131,444.115,4.26848
131.5,444.615,4.26959
132,445.115,4.26833
132.5,445.615,4.26739
133,446.115,4.26495
133.5,446.615,4.26415
134,447.115,4.26267
134.5,447.615,4.25977
135,448.115,4.25839
135.5,448.615,4.25567
136,449.115,4.2547
136.5,449.615,4.25481
137,450.115,4.25233
137.5,450.615,4.25088
138,451.115,4.25029
138.5,451.615,4.2488
139,452.115,4.24789
139.5,452.615,4.2476
140,453.115,4.2459
140.5,453.615,4.2451
141,454.115,4.24478
141.5,454.615,4.2431
142,455.115,4.2426
142.5,455.615,4.24098
143,456.115,4.2403
143.5,456.615,4.24038
144,457.115,4.23953
144.5,457.615,4.23919
145,458.115,4.23864
145.5,458.615,4.23859
146,459.115,4.2384
146.5,459.615,4.23855
147,460.115,4.23726
147.5,460.615,4.23663
148,461.115,4.23581
148.5,461.615,4.2356
149,462.115,4.23441
149.5,462.615,4.23436
150,463.115,4.23217
150.5,463.615,4.23302
151,464.115,4.2305
151.5,464.615,4.23041
152,465.115,4.22976
152.5,465.615,4.2287
153,466.115,4.22806
153.5,466.615,4.22873
154,467.115,4.22807
154.5,467.615,4.2272
155,468.115,4.22678
155.5,468.615,4.22749
156,469.115,4.22637
156.5,469.615,4.2261
157,470.115,4.2266
157.5,470.615,4.22584
158,471.115,4.22641
158.5,471.615,4.2254
159,472.115,4.22561
159.5,472.615,4.22577
160,473.115,4.22497
160.5,473.615,4.22454
161,474.115,4.22488
161.5,474.615,4.22393
162,475.115,4.22396
162.5,475.615,4.22427
163,476.115,4.22266
163.5,476.615,4.22291
164,477.115,4.2226
164.5,477.615,4.22292
165,478.115,4.22331
165.5,478.615,4.2227
166,479.115,4.22406
166.5,479.615,4.22351
167,480.115,4.22379
167.5,480.615,4.22541
168,481.115,4.22469
168.5,481.615,4.22492
169,482.115,4.22497
169.5,482.615,4.22497
170,483.115,4.22484
170.5,483.615,4.22501
171,484.115,4.2246
171.5,484.615,4.22395
172,485.115,4.22402
172.5,485.615,4.22298
173,486.115,4.22241
173.5,486.615,4.22177
174,487.115,4.22249
174.5,487.615,4.22185
175,488.115,4.22012
175.5,488.615,4.2206
176,489.115,4.22024
176.5,489.615,4.2201
177,490.115,4.21929
177.5,490.615,4.21982
178,491.115,4.2193
178.5,491.615,4.21882
179,492.115,4.21902
179.5,492.615,4.22001
180,493.115,4.22079
180.5,493.615,4.22111
181,494.115,4.22082
181.5,494.615,4.21928
182,495.115,4.21906
182.5,495.615,4.2191
183,496.115,4.2192
183.5,496.615,4.21868
184,497.115,4.21889
184.5,497.615,4.2192
185,498.115,4.21891
185.5,498.615,4.21843
186,499.115,4.21782
186.5,499.615,4.21558
187,500.115,4.2156
187.5,500.615,4.216
188,501.115,4.2164
188.5,501.615,4.21552
189,502.115,4.21681
189.5,502.615,4.21636
190,503.115,4.2167
190.5,503.615,4.21638
191,504.115,4.2159
191.5,504.615,4.21629
192,505.115,4.21621
192.5,505.615,4.2149
193,506.115,4.21381
193.5,506.615,4.2137
194,507.115,4.21426
194.5,507.615,4.21356
195,508.115,4.21253
195.5,508.615,4.21279
196,509.115,4.21366
196.5,509.615,4.21347
197,510.115,4.21219
197.5,510.615,4.21212
198,511.115,4.21199
198.5,511.615,4.21149
199,512.115,4.20874
199.5,512.615,4.20859
200,513.115,4.20813
200.5,513.615,4.20695
201,514.115,4.20616
201.5,514.615,4.20585
202,515.115,4.2049
202.5,515.615,4.204
203,516.115,4.20318
203.5,516.615,4.2033
204,517.115,4.20237
204.5,517.615,4.20195
205,518.115,4.20044
205.5,518.615,4.2001
206,519.115,4.20031
206.5,519.615,4.19903
207,520.115,4.1982
207.5,520.615,4.19665
208,521.115,4.19628
208.5,521.615,4.1956
209,522.115,4.19471
209.5,522.615,4.19328
210,523.115,4.19157
210.5,523.615,4.19044
211,524.115,4.18999
211.5,524.615,4.19039
212,525.115,4.18902
212.5,525.615,4.18699
213,526.115,4.18426
213.5,526.615,4.18279
214,527.115,4.18108
214.5,527.615,4.1803
215,528.115,4.1802
215.5,528.615,4.17882
216,529.115,4.17734
216.5,529.615,4.17611
217,530.115,4.17351
217.5,530.615,4.17211
218,531.115,4.16967
218.5,531.615,4.1688
219,532.115,4.16701
219.5,532.615,4.16629
220,533.115,4.16556
220.5,533.615,4.16362
221,534.115,4.16072
221.5,534.615,4.15888
222,535.115,4.1569
222.5,535.615,4.15517
223,536.115,4.15358
223.5,536.615,4.15146
224,537.115,4.1498
224.5,537.615,4.14801
225,538.115,4.14644
225.5,538.615,4.14421
226,539.115,4.1415
226.5,539.615,4.13971
227,540.115,4.1363
227.5,540.615,4.1333
228,541.115,4.13132
228.5,541.615,4.1299
229,542.115,4.1268
229.5,542.615,4.12359
230,543.115,4.12277
230.5,543.615,4.1208
231,544.115,4.11809
231.5,544.615,4.11549
232,545.115,4.11342
232.5,545.615,4.11275
233,546.115,4.1102
233.5,546.615,4.10741
234,547.115,4.1047
234.5,547.615,4.10117
235,548.115,4.09773
235.5,548.615,4.09534
236,549.115,4.09219
236.5,549.615,4.08932
237,550.115,4.08625
237.5,550.615,4.08425
238,551.115,4.08053
238.5,551.615,4.07589
239,552.115,4.07309
239.5,552.615,4.06899
240,553.115,4.06598
240.5,553.615,4.06359
241,554.115,4.06068
241.5,554.615,4.05658
242,555.115,4.05318
242.5,555.615,4.04842
243,556.115,4.04428
243.5,556.615,4.04146
244,557.115,4.03656
244.5,557.615,4.03311
245,558.115,4.02958
245.5,558.615,4.02481
246,559.115,4.02057
246.5,559.615,4.01558
247,560.115,4.01233
247.5,560.615,4.00624
248,561.115,4.00006
248.5,561.615,3.99356
249,562.115,3.98726
249.5,562.615,3.98295
250,563.115,3.97607
250.5,563.615,3.97135
251,564.115,3.96554
251.5,564.615,3.95895
252,565.115,3.95212
252.5,565.615,3.94526
253,566.115,3.93837
253.5,566.615,3.93271
254,567.115,3.92563
254.5,567.615,3.91808
255,568.115,3.90888
255.5,568.615,3.9006
256,569.115,3.89374
256.5,569.615,3.88432
257,570.115,3.87562
257.5,570.615,3.86578
258,571.115,3.85566
258.5,571.615,3.8464
259,572.115,3.83614
259.5,572.615,3.82623
260,573.115,3.81468
260.5,573.615,3.80425
261,574.115,3.78999
261.5,574.615,3.77863
262,575.115,3.76668
262.5,575.615,3.75458
263,576.115,3.74273
263.5,576.615,3.72877
264,577.115,3.71644
264.5,577.615,3.7026
265,578.115,3.68832
265.5,578.615,3.67266
266,579.115,3.65632
266.5,579.615,3.64236
267,580.115,3.62523
267.5,580.615,3.60803
268,581.115,3.59034
268.5,581.615,3.5727
269,582.115,3.5518
269.5,582.615,3.53179
270,583.115,3.51102
270.5,583.615,3.4902
271,584.115,3.47086
271.5,584.615,3.44973
272,585.115,3.42663
272.5,585.615,3.40415
273,586.115,3.38082
273.5,586.615,3.3556
274,587.115,3.33088
274.5,587.615,3.30573
275,588.115,3.2798
275.5,588.615,3.25331
276,589.115,3.2265
276.5,589.615,3.19946
277,590.115,3.1705
277.5,590.615,3.14209
278,591.115,3.1135
278.5,591.615,3.08205
279,592.115,3.05223
279.5,592.615,3.02084
280,593.115,2.98813
280.5,593.615,2.95586
281,594.115,2.92036
281.5,594.615,2.88702
282,595.115,2.85223
282.5,595.615,2.81624
283,596.115,2.78024
283.5,596.615,2.7439
284,597.115,2.7071
284.5,597.615,2.66926
285,598.115,2.6308
285.5,598.615,2.59214
286,599.115,2.55404
286.5,599.615,2.51396
287,600.115,2.47424
287.5,600.615,2.43413
288,601.115,2.39434
288.5,601.615,2.35464
289,602.115,2.31472
289.5,602.615,2.27371
290,603.115,2.2319
290.5,603.615,2.19079
291,604.115,2.1502
291.5,604.615,2.10946
292,605.115,2.0703
292.5,605.615,2.02926
293,606.115,1.98897
293.5,606.615,1.94763
294,607.115,1.906
294.5,607.615,1.86497
295,608.115,1.8242
295.5,608.615,1.7848
296,609.115,1.7444
296.5,609.615,1.70562
297,610.115,1.66399
297.5,610.615,1.62488
298,611.115,1.58534
298.5,611.615,1.54509
299,612.115,1.50612
299.5,612.615,1.46639
300,613.115,1.42675
300.5,613.615,1.38873
301,614.115,1.34867
301.5,614.615,1.30935
302,615.115,1.26905
302.5,615.615,1.23002
303,616.115,1.19028
303.5,616.615,1.15192
304,617.115,1.11497
304.5,617.615,1.07787
305,618.115,1.04034
305.5,618.615,1.00401
306,619.115,0.968797
306.5,619.615,0.934283
307,620.115,0.900997
307.5,620.615,0.867665
308,621.115,0.834969
308.5,621.615,0.802576
309,622.115,0.772615
309.5,622.615,0.743003
310,623.115,0.714415
310.5,623.615,0.687135
311,624.115,0.659105
311.5,624.615,0.632777
312,625.115,0.605875
312.5,625.615,0.581625
313,626.115,0.55631
313.5,626.615,0.532507
314,627.115,0.509511
314.5,627.615,0.487754
315,628.115,0.466102
315.5,628.615,0.446122
316,629.115,0.426788
316.5,629.615,0.40717
317,630.115,0.39089
317.5,630.615,0.372534
318,631.115,0.356714
318.5,631.615,0.339773
319,632.115,0.325171
319.5,632.615,0.310797
320,633.115,0.296297
320.5,633.615,0.281718
321,634.115,0.268719
321.5,634.615,0.256045
322,635.115,0.244338
322.5,635.615,0.231247
323,636.115,0.220166
323.5,636.615,0.20885
324,637.115,0.198866
324.5,637.615,0.18886
325,638.115,0.179945
325.5,638.615,0.171324
326,639.115,0.162834
326.5,639.615,0.154947
327,640.115,0.145449
327.5,640.615,0.137891
328,641.115,0.131007
328.5,641.615,0.123597
329,642.115,0.116839
329.5,642.615,0.110803
330,643.115,0.105049
330.5,643.615,0.100138
331,644.115,0.0941966
331.5,644.615,0.0889495
332,645.115,0.0847764
332.5,645.615,0.0804824
333,646.115,0.0764853
333.5,646.615,0.0728985
334,647.115,0.06914822
334.5,647.615,0.0661966
335,648.115,0.0620938
335.5,648.615,0.0592957
336,649.115,0.0557731
336.5,649.615,0.0524807
337,650.115,0.0503235
337.5,650.615,0.0486359
338,651.115,0.0462922
338.5,651.615,0.0433315
339,652.115,0.0415711
339.5,652.615,0.0410911
340,653.115,0.0369288
340.5,653.615,0.0356367
341,654.115,0.0343762
341.5,654.615,0.0316479
342,655.115,0.02951193
342.5,655.615,0.0283052
343,656.115,0.0271713
343.5,656.615,0.0257877
344,657.115,0.0250804
344.5,657.615,0.0246455
345,658.115,0.0232966
345.5,658.615,0.02259455
346,659.115,0.02230143
346.5,659.615,0.0218964
347,660.115,0.0212807
347.5,660.615,0.0210882
348,661.115,0.0201325
348.5,661.615,0.0219086
349,662.115,0.0213895
349.5,662.615,0.0201108
350,663.115,0.0195216
350.5,663.615,0.0206112
351,664.115,0.0200787
351.5,664.615,0.018392
352,665.115,0.018555
352.5,665.615,0.0178886
353,666.115,0.0173973
353.5,666.615,0.0172924
354,667.115,0.0180967
354.5,667.615,0.0173964
355,668.115,0.0174081
355.5,668.615,0.01689
356,669.115,0.0169442
356.5,669.615,0.0165882
357,670.115,0.0164529
357.5,670.615,0.0156893
358,671.115,0.015407
358.5,671.615,0.0152848
359,672.115,0.0149899
359.5,672.615,0.0138981
360,673.115,0.0132737
360.5,673.615,0.0132056
361,674.115,0.0129177
361.5,674.615,0.0131349
362,675.115,0.0136466
362.5,675.615,0.0139978
363,676.115,0.0152405
363.5,676.615,0.0155536
364,677.115,0.0162066
364.5,677.615,0.0177052
365,678.115,0.0181453
365.5,678.615,0.01738039
366,679.115,0.0174489
366.5,679.615,0.0167634
367,680.115,0.0180928
367.5,680.615,0.0182121
368,681.115,0.0177039
368.5,681.615,0.0166476
369,682.115,0.01659252
369.5,682.615,0.0168115
370,683.115,0.0187584
370.5,683.615,0.0189934
371,684.115,0.0188954
371.5,684.615,0.0198216
372,685.115,0.018686
372.5,685.615,0.019205
373,686.115,0.019094
373.5,686.615,0.0191777
374,687.115,0.0187588
374.5,687.615,0.01799785
375,688.115,0.0179081
375.5,688.615,0.0182394
376,689.115,0.0183842
376.5,689.615,0.019094
377,690.115,0.0192167
377.5,690.615,0.0192068
378,691.115,0.01888545
378.5,691.615,0.0178734
379,692.115,0.0176115
379.5,692.615,0.018183
380,693.115,0.018598
380.5,693.615,0.0183968
381,694.115,0.0189735
381.5,694.615,0.0187749
382,695.115,0.0177459
382.5,695.615,0.0181986
383,696.115,0.0179007
383.5,696.615,0.0193841
384,697.115,0.0202006
384.5,697.615,0.0187961
385,698.115,0.0179315
385.5,698.615,0.018715
386,699.115,0.0199912
386.5,699.615,0.01969977
387,700.115,0.01998812
387.5,700.615,0.0199001
388,701.115,0.0196074
388.5,701.615,0.0201173
389,702.115,0.0197258
389.5,702.615,0.01951245
390,703.115,0.0191664
390.5,703.615,0.0200172
391,704.115,0.0187172
391.5,704.615,0.0198546
392,705.115,0.019636
392.5,705.615,0.0201004
393,706.115,0.0202032
393.5,706.615,0.01989923
394,707.115,0.0207964
394.5,707.615,0.0202153
395,708.115,0.0197704
395.5,708.615,0.0200501
396,709.115,0.0214156
396.5,709.615,0.0217967
397,710.115,0.0210062
397.5,710.615,0.0207899
398,711.115,0.02168527
398.5,711.615,0.0220972
399,712.115,0.0223968
399.5,712.615,0.021419
400,713.115,0.0214988
400.5,713.615,0.0213956
401,714.115,0.0212651
401.5,714.615,0.020299
402,715.115,0.0207955
402.5,715.615,0.0206893
403,716.115,0.021207
403.5,716.615,0.0209156
404,717.115,0.0209941
404.5,717.615,0.0213965
405,718.115,0.0223942
405.5,718.615,0.0226592
406,719.115,0.0210305
406.5,719.615,0.0206997
407,720.115,0.0211337
407.5,720.615,0.0217
408,721.115,0.0213783
408.5,721.615,0.0213722
409,722.115,0.0217854
409.5,722.615,0.0216059
410,723.115,0.0217
410.5,723.615,0.0220109
411,724.115,0
411.5,724.615,0
412,725.115,0
412.5,725.615,0
413,726.115,0
413.5,726.615,0
414,727.115,0
414.5,727.615,0
415,728.115,0
415.5,728.615,0
416,729.115,0
416.5,729.615,0
417,730.115,0
417.5,730.615,0
418,731.115,0
418.5,731.615,0
419,732.115,0
419.5,732.615,0
420,733.115,0
420.5,733.615,0
421,734.115,0
421.5,734.615,0
422,735.115,0
422.5,735.615,0
423,736.115,0
423.5,736.615,0
424,737.115,0
424.5,737.615,0
425,738.115,0
425.5,738.615,0
426,739.115,0
426.5,739.615,0
427,740.115,0
427.5,740.615,0
428,741.115,0
428.5,741.615,0
429,742.115,0
429.5,742.615,0
430,743.115,0
430.5,743.615,0
431,744.115,0
431.5,744.615,0
432,745.115,0
432.5,745.615,0
433,746.115,0
433.5,746.615,0
434,747.115,0
434.5,747.615,0
435,748.115,0
435.5,748.615,0
436,749.115,0
436.5,749.615,0
437,750.115,0
437.5,750.615,0
438,751.115,0
438.5,751.615,0
439,752.115,0
439.5,752.615,0
440,753.115,0
440.5,753.615,0
441,754.115,0
441.5,754.615,0
442,755.115,0
442.5,755.615,0
443,756.115,0
443.5,756.615,0
444,757.115,0
444.5,757.615,0
445,758.115,0
445.5,758.615,0
446,759.115,0
446.5,759.615,0
447,760.115,0
447.5,760.615,0
448,761.115,0
448.5,761.615,0
449,762.115,0
449.5,762.615,0
450,763.115,0
450.5,763.615,0
451,764.115,0
451.5,764.615,0
452,765.115,0
452.5,765.615,0
453,766.115,0
453.5,766.615,0
454,767.115,0
454.5,767.615,0
455,768.115,0
455.5,768.615,0
456,769.115,0
456.5,769.615,0
457,770.115,0
457.5,770.615,0
458,771.115,0
458.5,771.615,0
459,772.115,0
459.5,772.615,0
460,773.115,0
460.5,773.615,0