File: Non-charring/PMMA/UMET/UMET_DSC_N2_20K_1.csv
[s],[k],[mW/mg]
0,273.15,0
5,312.088,-0.0435144
10,310.47,-0.171069
15,307.829,-0.446764
20,305.142,-0.588609
25,302.619,-0.584562
30,300.049,-0.575831
35,297.573,-0.565485
40,295.175,-0.543487
45,292.722,-0.50386
50,290.362,-0.472954
55,288.093,-0.450651
60,285.777,-0.433781
65,283.548,-0.42072
70,281.406,-0.413335
75,279.22,-0.407505
80,277.118,-0.40293
85,275.097,-0.398259
90,273.034,-0.393325
95,271.054,-0.387859
100,269.15,-0.381314
105,267.207,-0.375787
110,265.34,-0.369837
115,263.546,-0.363727
120,261.716,-0.356827
125,259.958,-0.350338
130,258.269,-0.344119
135,256.547,-0.337654
140,254.891,-0.331772
145,253.302,-0.324026
150,251.681,-0.317974
155,250.124,-0.311559
160,248.628,-0.305224
165,247.103,-0.298894
170,245.639,-0.293015
175,244.232,-0.28748
180,242.797,-0.281118
185,241.42,-0.275233
190,240.097,-0.269446
195,238.747,-0.263892
200,237.451,-0.258401
205,236.207,-0.252675
210,234.937,-0.247674
215,233.719,-0.243188
220,232.548,-0.23768
225,231.354,-0.232929
230,230.207,-0.227907
235,229.106,-0.223483
240,227.983,-0.218712
245,226.904,-0.214505
250,225.868,-0.209909
255,224.813,-0.205487
260,223.798,-0.20094
265,222.824,-0.19696
270,221.831,-0.192662
275,220.877,-0.187269
280,219.96,-0.183833
285,219.026,-0.179906
290,218.129,-0.176353
295,217.268,-0.172634
300,216.389,-0.168704
305,215.544,-0.165226
310,214.734,-0.161862
315,213.907,-0.158257
320,213.114,-0.154743
325,212.352,-0.151503
330,211.574,-0.148217
335,210.828,-0.144789
340,210.11,-0.141791
345,209.38,-0.138573
350,208.677,-0.135548
355,208.003,-0.132647
360,207.315,-0.129766
365,206.654,-0.12695
370,206.019,-0.124211
375,205.373,-0.121474
380,204.753,-0.118761
385,204.156,-0.11626
390,203.547,-0.113316
395,202.963,-0.110867
400,202.402,-0.108234
405,201.83,-0.105836
410,201.281,-0.10344
415,200.753,-0.101266
420,200.215,-0.098914
425,199.698,-0.0965612
430,199.203,-0.0943754
435,198.696,-0.0922314
440,198.21,-0.0901328
445,197.744,-0.0880503
450,197.268,-0.0860369
455,196.811,-0.084034
460,196.372,-0.0821362
465,195.918,-0.0800782
470,195.469,-0.0784025
475,195.037,-0.0772056
480,194.6,-0.076034
485,194.183,-0.0747072
490,193.786,-0.073072
495,193.46,-0.0738399
500,193.357,-0.0473491
505,193.311,-0.0277246
510,193.288,-0.0166493
515,193.272,-0.0134828
520,193.26,-0.0110836
525,193.25,-0.00891194
530,193.241,-0.00701874
535,193.233,-0.00531509
540,193.227,-0.00401286
545,193.221,-0.00283164
550,193.217,-0.00179716
555,193.213,-0.00089985
560,193.21,2.89123E-05
565,193.207,0.000706983
570,193.205,0.00134233
575,193.203,0.00188382
580,193.201,0.0023196
585,193.2,0.00267349
590,193.2,0.00296958
595,193.198,0.00332615
600,193.198,0.003711
605,193.197,0.00395442
610,193.197,0.00416806
615,193.196,0.00436208
620,193.196,0.00463061
625,193.195,0.00482494
630,193.195,0.00504908
635,193.194,0.00525773
640,193.194,0.00542141
645,193.193,0.00552968
650,193.194,0.00574548
655,193.194,0.00579794
660,193.193,0.00592596
665,193.193,0.00590128
670,193.193,0.00596624
675,193.193,0.00599991
680,193.193,0.0061246
685,193.193,0.00622653
690,193.192,0.00633212
695,193.192,0.00638305
700,193.192,0.0063109
705,193.193,0.00632782
710,193.192,0.00638117
715,193.193,0.00643097
720,193.192,0.00640736
725,193.192,0.00649811
730,193.192,0.00660645
735,193.192,0.00656458
740,193.192,0.00674139
745,193.192,0.00671194
750,193.193,0.00672264
755,193.193,0.00664336
760,193.193,0.00668022
765,193.193,0.00670963
770,193.192,0.00673836
775,193.193,0.0067058
780,193.192,0.00671172
785,193.192,0.00670522
790,193.191,0.00665967
795,193.192,0.00667499
800,193.192,0.00673417
805,193.192,0.00679223
810,193.192,0.00667907
815,193.192,0.00674572
820,193.192,0.0067562
825,193.191,0.00674759
830,193.192,0.00678182
835,193.192,0.00677389
840,193.192,0.00679383
845,193.192,0.00683383
850,193.192,0.00680788
855,193.192,0.00683868
860,193.192,0.00696849
865,193.192,0.00698749
870,193.192,0.00697779
875,193.192,0.00695052
880,193.192,0.00697214
885,193.192,0.00705274
890,193.192,0.00707127
895,193.192,0.00697842
900,193.192,0.00695709
905,193.191,0.00694398
910,193.191,0.00703275
915,193.192,0.00703136
920,193.191,0.00703619
925,193.192,0.00706991
930,193.192,0.00701983
935,193.191,0.0068551
940,193.191,0.0068194
945,193.192,0.00685232
950,193.192,0.00686044
955,193.191,0.00689862
960,193.192,0.00691443
965,193.192,0.00690849
970,193.192,0.00693701
975,193.191,0.00693548
980,193.192,0.00689737
985,193.191,0.0069212
990,193.191,0.00688127
995,193.192,0.00684576
1000,193.192,0.00683231
1005,193.191,0.00685658
1010,193.19,0.00679513
1015,193.189,0.00676844
1020,193.189,0.00680333
1025,193.189,0.00680897
1030,193.189,0.00692147
1035,193.19,0.00699857
1040,193.189,0.00698893
1045,193.19,0.00688909
1050,193.191,0.0069687
1055,193.191,0.00698033
1060,193.192,0.00707463
1065,193.191,0.007006
1070,193.191,0.00704987
1075,193.191,0.00702158
1080,193.191,0.00703063
1085,193.19,0.00707985
1090,193.19,0.00704674
1095,193.19,0.00706024
1100,193.191,0.00707424
1105,193.191,0.00711751
1110,193.325,-0.0188553
1115,194.39,0.0444771
1120,195.854,0.185917
1125,197.485,0.229028
1130,199.113,0.245696
1135,200.717,0.249521
1140,202.391,0.251582
1145,204.035,0.253213
1150,205.649,0.254815
1155,207.33,0.256404
1160,208.983,0.257904
1165,210.602,0.259584
1170,212.289,0.261003
1175,213.946,0.262479
1180,215.572,0.264001
1185,217.264,0.265696
1190,218.925,0.26737
1195,220.554,0.269251
1200,222.25,0.271126
1205,223.914,0.273038
1210,225.545,0.275047
1215,227.243,0.277164
1220,228.908,0.279146
1225,230.541,0.281409
1230,232.241,0.283721
1235,233.907,0.285963
1240,235.54,0.288291
1245,237.241,0.290735
1250,238.908,0.293136
1255,240.543,0.295534
1260,242.244,0.298061
1265,243.913,0.300993
1270,245.547,0.303501
1275,247.248,0.306127
1280,248.916,0.309062
1285,250.55,0.312045
1290,252.252,0.315028
1295,253.919,0.31788
1300,255.554,0.320915
1305,257.255,0.323875
1310,258.923,0.326704
1315,260.557,0.329546
1320,262.259,0.332735
1325,263.926,0.336229
1330,265.561,0.339144
1335,267.262,0.342654
1340,268.93,0.346117
1345,270.565,0.349428
1350,272.266,0.352922
1355,273.935,0.356564
1360,275.568,0.360043
1365,277.269,0.363537
1370,278.937,0.367345
1375,280.57,0.371334
1380,282.271,0.374973
1385,283.937,0.379329
1390,285.572,0.383464
1395,287.272,0.38726
1400,288.941,0.391366
1405,290.577,0.395187
1410,292.278,0.399233
1415,293.945,0.402962
1420,295.58,0.406832
1425,297.281,0.410985
1430,298.95,0.414896
1435,300.585,0.418762
1440,302.286,0.422708
1445,303.953,0.426604
1450,305.588,0.430463
1455,307.289,0.434686
1460,308.957,0.438335
1465,310.59,0.442245
1470,312.292,0.445964
1475,313.959,0.449416
1480,315.593,0.451773
1485,317.297,0.454207
1490,318.966,0.456611
1495,320.602,0.458635
1500,322.304,0.4607
1505,323.973,0.462722
1510,325.608,0.464613
1515,327.309,0.466605
1520,328.977,0.468427
1525,330.613,0.470078
1530,332.314,0.471916
1535,333.982,0.473631
1540,335.617,0.475278
1545,337.319,0.476937
1550,338.988,0.47857
1555,340.623,0.480102
1560,342.324,0.481682
1565,343.993,0.483175
1570,345.628,0.484703
1575,347.33,0.48617
1580,349.001,0.487713
1585,350.637,0.489271
1590,352.338,0.490502
1595,354.005,0.491841
1600,355.639,0.492951
1605,357.342,0.49434
1610,359.012,0.495859
1615,360.648,0.497269
1620,362.351,0.498688
1625,364.021,0.499999
1630,365.657,0.50132
1635,367.359,0.50275
1640,369.029,0.504106
1645,370.666,0.505866
1650,372.368,0.507421
1655,374.035,0.508895
1660,375.668,0.51036
1665,377.368,0.512189
1670,379.034,0.514296
1675,380.668,0.516512
1680,382.369,0.519317
1685,384.037,0.52245
1690,385.671,0.5259
1695,387.373,0.530349
1700,389.041,0.535713
1705,390.676,0.543463
1710,392.377,0.551369
1715,394.044,0.561285
1720,395.677,0.572462
1725,397.376,0.585826
1730,399.043,0.598942
1735,400.675,0.610858
1740,402.374,0.618461
1745,404.041,0.623228
1750,405.676,0.625496
1755,407.378,0.626436
1760,409.048,0.626268
1765,410.685,0.625976
1770,412.388,0.625934
1775,414.055,0.626046
1780,415.689,0.626305
1785,417.39,0.626892
1790,419.057,0.62752
1795,420.692,0.62851
1800,422.394,0.629669
1805,424.062,0.630885
1810,425.697,0.632041
1815,427.397,0.63319
1820,429.064,0.634543
1825,430.698,0.635975
1830,432.287,0.655017
1835,432.939,0.451602
1840,433.051,0.190599
1845,433.083,0.108985
1850,433.097,0.0884097
1855,433.109,0.0845469
1860,433.122,0.0826796
1865,433.134,0.0811679
1870,433.145,0.0797407
1875,433.155,0.0781065
1880,433.163,0.0765959
1885,433.171,0.0751906
1890,433.176,0.0737614
1895,433.18,0.0724189
1900,433.185,0.0712134
1905,433.187,0.0700391
1910,433.189,0.0690175
1915,433.191,0.0682088
1920,433.192,0.0673739
1925,433.193,0.06673
1930,433.194,0.0661018
1935,433.195,0.0655473
1940,433.194,0.0651177
1945,433.195,0.0646337
1950,433.197,0.0643173
1955,433.198,0.0639621
1960,433.199,0.0635239
1965,433.2,0.0630291
1970,433.199,0.0624629
1975,433.199,0.0619857
1980,433.199,0.0616485
1985,433.198,0.0613899
1990,433.197,0.0610499
1995,433.195,0.0607597
2000,433.194,0.060565
2005,433.195,0.0604832
2010,433.196,0.0604315
2015,433.196,0.0603352
2020,433.195,0.0602656
2025,433.196,0.0600805
2030,433.197,0.0599222
2035,433.197,0.059685
2040,433.196,0.0595355
2045,433.196,0.0593119
2050,433.195,0.0591501
2055,433.194,0.058933
2060,433.194,0.0587925
2065,433.191,0.0586778
2070,433.19,0.0583132
2075,433.191,0.0582302
2080,433.192,0.0582912
2085,433.193,0.0583254
2090,433.194,0.0582245
2095,433.195,0.0580987
2100,433.195,0.0579654
2105,433.195,0.0578059
2110,433.195,0.0575526
2115,433.194,0.0574196
2120,433.195,0.057432
2125,433.195,0.0573365
2130,433.196,0.0572381
2135,433.196,0.0571581
2140,433.196,0.0569728
2145,433.195,0.0567855
2150,433.195,0.0566044
2155,433.194,0.0564242
2160,433.194,0.0563825
2165,433.194,0.0564119
2170,433.193,0.0564124
2175,433.193,0.0563427
2180,433.193,0.0563667
2185,433.194,0.0563549
2190,433.195,0.0563964
2195,433.196,0.0563253
2200,433.196,0.056275
2205,433.196,0.0561001
2210,433.195,0.0559215
2215,433.195,0.0557484
2220,433.195,0.0556439
2225,433.196,0.0556037
2230,433.196,0.0555506
2235,433.196,0.0554997
2240,433.196,0.0554452
2245,433.197,0.0552388
2250,433.198,0.0552196
2255,433.198,0.0550395
2260,433.198,0.0548072
2265,433.197,0.054601
2270,433.196,0.0544622
2275,433.196,0.0542974
2280,433.196,0.0542248
2285,433.196,0.0542005
2290,433.196,0.0541173
2295,433.195,0.0540527
2300,433.195,0.0539547
2305,433.195,0.05403
2310,433.195,0.0540554
2315,433.195,0.0539422
2320,433.194,0.0538654
2325,433.195,0.0537815
2330,433.195,0.0537749
2335,433.195,0.0537072
2340,433.195,0.0536421
2345,433.194,0.0534995
2350,433.194,0.0534025
2355,433.194,0.0533278
2360,433.195,0.0532254
2365,433.195,0.0531804
2370,433.196,0.053161
2375,433.195,0.0531242
2380,433.194,0.0529619
2385,433.194,0.0528543
2390,433.194,0.0528657
2395,433.193,0.0528172
2400,433.193,0.0528194
2405,433.193,0.0528864
2410,433.193,0.05289
2415,433.193,0.0529351
2420,433.194,0.0528513
2425,433.193,0.0528271
2430,433.102,0.0642333
2435,432.139,-0.195948
2440,430.677,-0.429488
2445,429.039,-0.487556
2450,427.403,-0.499543
2455,425.793,-0.502809
2460,424.113,-0.50461
2465,422.464,-0.505846
2470,420.845,-0.507179
2475,419.159,-0.50874
2480,417.503,-0.509934
2485,415.879,-0.511078
2490,414.187,-0.51219
2495,412.526,-0.513047
2500,410.899,-0.513669
2505,409.204,-0.513961
2510,407.541,-0.514088
2515,405.911,-0.513868
2520,404.215,-0.513271
2525,402.549,-0.512371
2530,400.918,-0.510767
2535,399.219,-0.507473
2540,397.554,-0.503819
2545,395.921,-0.497964
2550,394.222,-0.490288
2555,392.556,-0.482155
2560,390.923,-0.475354
2565,389.222,-0.468324
2570,387.556,-0.4617
2575,385.924,-0.454203
2580,384.225,-0.44903
2585,382.559,-0.443779
2590,380.926,-0.439028
2595,379.227,-0.434744
2600,377.562,-0.430455
2605,375.93,-0.426455
2610,374.231,-0.422408
2615,372.566,-0.418838
2620,370.934,-0.415782
2625,369.235,-0.412647
2630,367.57,-0.40987
2635,365.938,-0.407382
2640,364.24,-0.404706
2645,362.575,-0.402457
2650,360.943,-0.400378
2655,359.244,-0.398036
2660,357.577,-0.396002
2665,355.946,-0.393978
2670,354.248,-0.392021
2675,352.582,-0.38998
2680,350.95,-0.388335
2685,349.25,-0.386665
2690,347.584,-0.384884
2695,345.952,-0.383158
2700,344.253,-0.381348
2705,342.588,-0.379659
2710,340.955,-0.37849
2715,339.256,-0.37736
2720,337.591,-0.375876
2725,335.958,-0.374276
2730,334.259,-0.372424
2735,332.594,-0.370582
2740,330.962,-0.368885
2745,329.263,-0.367091
2750,327.597,-0.365543
2755,325.964,-0.36416
2760,324.265,-0.362831
2765,322.599,-0.361419
2770,320.967,-0.360113
2775,319.268,-0.358604
2780,317.604,-0.357151
2785,315.972,-0.355554
2790,314.272,-0.354366
2795,312.607,-0.353244
2800,310.975,-0.352112
2805,309.277,-0.351067
2810,307.611,-0.35003
2815,305.978,-0.349042
2820,304.279,-0.347941
2825,302.614,-0.346988
2830,300.982,-0.345849
2835,299.283,-0.344645
2840,297.618,-0.343286
2845,295.985,-0.342391
2850,294.285,-0.341316
2855,292.619,-0.340289
2860,290.986,-0.339302
2865,289.287,-0.338346
2870,287.621,-0.337311
2875,285.988,-0.33633
2880,284.289,-0.335455
2885,282.623,-0.334479
2890,280.991,-0.33352
2895,279.293,-0.332627
2900,277.627,-0.33185
2905,275.995,-0.330949
2910,274.295,-0.329986
2915,272.63,-0.329145
2920,270.999,-0.328102
2925,269.301,-0.327073
2930,267.636,-0.326298
2935,266.005,-0.325309
2940,264.305,-0.3245
2945,262.64,-0.323877
2950,261.008,-0.323109
2955,259.309,-0.322491
2960,257.643,-0.321936
2965,256.013,-0.321443
2970,254.337,-0.3208
2975,252.727,-0.318244
2980,251.181,-0.313898
2985,249.607,-0.30839
2990,248.097,-0.301151
2995,246.647,-0.295227
3000,245.17,-0.288277
3005,243.753,-0.282256
3010,242.391,-0.27685
3015,241.003,-0.271159
3020,239.671,-0.265374
3025,238.392,-0.260278
3030,237.086,-0.255277
3035,235.833,-0.249736
3040,234.629,-0.244752
3045,233.402,-0.240137
3050,232.222,-0.235136
3055,231.089,-0.230285
3060,229.935,-0.224765
3065,228.825,-0.219184
3070,227.759,-0.215334
3075,226.672,-0.210644
3080,225.629,-0.206827
3085,224.626,-0.202967
3090,223.603,-0.198759
3095,222.621,-0.194617
3100,221.679,-0.190742
3105,220.717,-0.186469
3110,219.792,-0.182367
3115,218.904,-0.178752
3120,217.998,-0.175084
3125,217.129,-0.171461
3130,216.293,-0.167931
3135,215.442,-0.164011
3140,214.624,-0.160436
3145,213.837,-0.157199
3150,213.035,-0.153948
3155,212.265,-0.150778
3160,211.526,-0.147642
3165,210.771,-0.14432
3170,210.047,-0.141248
3175,209.351,-0.138259
3180,208.641,-0.135284
3185,207.959,-0.13241
3190,207.304,-0.129518
3195,206.636,-0.126704
3200,205.994,-0.124005
3205,205.378,-0.121301
3210,204.75,-0.118652
3215,204.146,-0.115964
3220,203.567,-0.113453
3225,202.974,-0.110822
3230,202.407,-0.108411
3235,201.861,-0.106105
3240,201.304,-0.103709
3245,200.77,-0.101457
3250,200.257,-0.0992281
3255,199.733,-0.0970019
3260,199.23,-0.0948748
3265,198.746,-0.0928166
3270,198.255,-0.0905834
3275,197.781,-0.0884516
3280,197.326,-0.086563
3285,196.863,-0.0844412
3290,196.417,-0.0824985
3295,195.99,-0.0805989
3300,195.553,-0.0787659
3305,195.133,-0.0769392
3310,194.728,-0.0750904
3315,194.303,-0.0732272
3320,193.876,-0.071729
3325,193.453,-0.0710506
3330,193.192,-0.0801618
3335,193.146,-0.0369351
3340,193.143,-0.0207242
3345,193.153,-0.0111154
3350,193.164,-0.00875792
3355,193.173,-0.00692492
3360,193.18,-0.00524661
3365,193.185,-0.00389879
3370,193.189,-0.00282872
3375,193.192,-0.0018031
3380,193.194,-0.000972068
3385,193.197,-0.000217928
3390,193.197,0.000399606
3395,193.198,0.000873686
3400,193.199,0.00134125
3405,193.2,0.00178501
3410,193.2,0.0021683
3415,193.2,0.00251162
3420,193.199,0.0027514
3425,193.2,0.00299099
3430,193.2,0.00324613
3435,193.2,0.00342903
3440,193.199,0.00359853
3445,193.2,0.00382901
3450,193.199,0.00397566
3455,193.198,0.00414288
3460,193.199,0.00427926
3465,193.199,0.00430455
3470,193.199,0.00453224
3475,193.199,0.00470996
3480,193.199,0.00476175
3485,193.199,0.00484376
3490,193.199,0.00495083
3495,193.199,0.00519728
3500,193.199,0.00528847
3505,193.198,0.00533482
3510,193.199,0.00534306
3515,193.199,0.00547079
3520,193.199,0.00552601
3525,193.198,0.00559831
3530,193.198,0.00557734
3535,193.198,0.00559864
3540,193.198,0.005697
3545,193.198,0.00577024
3550,193.198,0.00588577
3555,193.198,0.00596116
3560,193.198,0.00604241
3565,193.198,0.00609936
3570,193.197,0.00612237
3575,193.197,0.0061505
3580,193.197,0.00606286
3585,193.197,0.00608814
3590,193.197,0.00617577
3595,193.197,0.00622483
3600,193.197,0.0062849
3605,193.197,0.00634488
3610,193.197,0.00636974
3615,193.197,0.00636313
3620,193.197,0.00640593
3625,193.198,0.00648523
3630,193.197,0.00652586
3635,193.198,0.00666532
3640,193.197,0.00671326
3645,193.197,0.00659857
3650,193.197,0.0065791
3655,193.198,0.00665675
3660,193.197,0.00667575
3665,193.197,0.00667048
3670,193.196,0.00668002
3675,193.197,0.00660312
3680,193.197,0.00666779
3685,193.197,0.00667499
3690,193.196,0.00668348
3695,193.197,0.00669327
3700,193.196,0.0067723
3705,193.197,0.00683183
3710,193.196,0.00681666
3715,193.197,0.00692456
3720,193.196,0.00690561
3725,193.196,0.00692408
3730,193.195,0.00688457
3735,193.196,0.00692473
3740,193.196,0.0068748
3745,193.196,0.00694265
3750,193.196,0.00693491
3755,193.196,0.006976
3760,193.196,0.00695803
3765,193.196,0.0069428
3770,193.196,0.00695613
3775,193.195,0.00683586
3780,193.196,0.00689182
3785,193.195,0.0068651
3790,193.195,0.0069185
3795,193.195,0.00700324
3800,193.195,0.00705457
3805,193.195,0.00715575
3810,193.194,0.007218
3815,193.195,0.00721715
3820,193.195,0.00724985
3825,193.195,0.00721618
3830,193.195,0.00723219
3835,193.194,0.00727356
3840,193.195,0.00734982
3845,193.196,0.00742517
3850,193.195,0.00733353
3855,193.195,0.00741329
3860,193.195,0.00740909
3865,193.195,0.00739102
3870,193.194,0.007477
3875,193.195,0.00744565
3880,193.195,0.00746587
3885,193.194,0.00754946
3890,193.194,0.00753453
3895,193.195,0.00746644
3900,193.195,0.00749675
3905,193.194,0.00751552
3910,193.195,0.00750076
3915,193.251,0.00380994
3920,194.112,0.00814529
3925,195.546,0.17039
3930,197.16,0.222979
3935,198.786,0.242885
3940,200.389,0.247397
3945,202.062,0.249483
3950,203.704,0.251179
3955,205.317,0.252698
3960,206.997,0.254187
3965,208.647,0.255493
3970,210.267,0.256785
3975,211.954,0.258211
3980,213.61,0.259653
3985,215.235,0.26097
3990,216.928,0.262528
3995,218.587,0.264064
4000,220.215,0.265504
4005,221.91,0.267308
4010,223.574,0.269027
4015,225.204,0.270759
4020,226.902,0.272615
4025,228.567,0.274562
4030,230.199,0.276462
4035,231.899,0.278512
4040,233.566,0.280641
4045,235.199,0.282708
4050,236.899,0.284728
4055,238.568,0.286859
4060,240.201,0.289031
4065,241.901,0.291131
4070,243.569,0.293209
4075,245.203,0.29574
4080,246.905,0.29804
4085,248.572,0.300615
4090,250.206,0.30313
4095,251.908,0.305695
4100,253.576,0.308098
4105,255.21,0.310468
4110,256.912,0.312884
4115,258.58,0.315182
4120,260.216,0.317418
4125,261.918,0.319815
4130,263.585,0.32194
4135,265.221,0.324372
4140,266.922,0.326756
4145,268.591,0.329072
4150,270.227,0.331496
4155,271.929,0.333895
4160,273.597,0.336055
4165,275.231,0.338292
4170,276.933,0.340604
4175,278.601,0.343016
4180,280.236,0.345492
4185,281.937,0.348039
4190,283.605,0.350574
4195,285.24,0.353164
4200,286.941,0.355891
4205,288.61,0.358535
4210,290.244,0.361238
4215,291.948,0.363859
4220,293.616,0.366503
4225,295.251,0.368799
4230,296.953,0.371328
4235,298.622,0.373769
4240,300.257,0.376488
4245,301.959,0.378903
4250,303.628,0.381334
4255,305.264,0.383705
4260,306.965,0.386056
4265,308.634,0.388389
4270,310.268,0.390914
4275,311.971,0.393219
4280,313.639,0.395437
4285,315.274,0.397701
4290,316.976,0.400061
4295,318.644,0.402374
4300,320.279,0.404719
4305,321.98,0.407056
4310,323.648,0.409377
4315,325.284,0.411751
4320,326.986,0.414124
4325,328.655,0.416348
4330,330.289,0.418604
4335,331.991,0.420947
4340,333.659,0.423121
4345,335.294,0.425222
4350,336.995,0.427544
4355,338.664,0.429951
4360,340.299,0.432174
4365,342,0.434491
4370,343.668,0.436814
4375,345.303,0.439165
4380,347.005,0.441592
4385,348.673,0.444106
4390,350.307,0.446501
4395,352.009,0.449005
4400,353.677,0.451405
4405,355.312,0.453734
4410,357.013,0.456272
4415,358.681,0.458759
4420,360.316,0.461388
4425,362.018,0.463914
4430,363.686,0.466651
4435,365.322,0.469018
4440,367.025,0.471624
4445,368.691,0.474221
4450,370.325,0.47676
4455,372.026,0.479507
4460,373.694,0.482078
4465,375.329,0.485171
4470,377.032,0.488592
4475,378.7,0.492068
4480,380.335,0.495653
4485,382.037,0.499621
4490,383.705,0.503559
4495,385.339,0.508405
4500,387.041,0.514329
4505,388.709,0.521165
4510,390.344,0.529335
4515,392.045,0.538186
4520,393.711,0.54886
4525,395.344,0.561095
4530,397.044,0.573502
4535,398.71,0.587593
4540,400.342,0.599256
4545,402.042,0.609906
4550,403.709,0.616835
4555,405.341,0.61933
4560,407.043,0.62104
4565,408.71,0.621914
4570,410.347,0.622414
4575,412.05,0.623334
4580,413.718,0.624262
4585,415.352,0.625062
4590,417.054,0.626126
4595,418.723,0.627287
4600,420.359,0.628374
4605,422.07,0.630413
4610,423.738,0.632166
4615,425.37,0.633121
4620,427.069,0.634146
4625,428.735,0.635472
4630,430.369,0.63681
4635,432.024,0.641791
4640,432.889,0.521976
4645,433.043,0.22072
4650,433.084,0.116815
4655,433.097,0.090549
4660,433.11,0.084713
4665,433.123,0.0826667
4670,433.135,0.0813081
4675,433.146,0.0798265
4680,433.156,0.0783062
4685,433.164,0.0768714
4690,433.171,0.0754141
4695,433.177,0.0740062
4700,433.182,0.0728319
4705,433.185,0.0716753
4710,433.188,0.0704653
4715,433.191,0.0694772
4720,433.193,0.0686546
4725,433.194,0.0677518
4730,433.195,0.0669972
4735,433.197,0.0664305
4740,433.197,0.0658214
4745,433.198,0.0652117
4750,433.198,0.0646824
4755,433.198,0.0640095
4760,433.198,0.0636315
4765,433.199,0.0632723
4770,433.198,0.0629059
4775,433.198,0.0625185
4780,433.197,0.0622786
4785,433.197,0.0620173
4790,433.197,0.0617916
4795,433.198,0.0616121
4800,433.198,0.0614156
4805,433.199,0.0612275
4810,433.199,0.0610488
4815,433.2,0.0608606
4820,433.199,0.0604969
4825,433.199,0.060218
4830,433.199,0.0599677
4835,433.199,0.0597017
4840,433.199,0.0594828
4845,433.199,0.0592909
4850,433.199,0.0590479
4855,433.198,0.0587963
4860,433.197,0.0586599
4865,433.197,0.0585654
4870,433.197,0.0584878
4875,433.196,0.0584444
4880,433.196,0.0582817
4885,433.196,0.0582195
4890,433.196,0.0581529
4895,433.196,0.058051
4900,433.196,0.0579034
4905,433.196,0.0578147
4910,433.195,0.0577047
4915,433.196,0.0575775
4920,433.196,0.0574528
4925,433.196,0.0573963
4930,433.196,0.0572714
4935,433.196,0.0571515
4940,433.196,0.0570141
4945,433.196,0.0567737
4950,433.196,0.0567378
4955,433.195,0.0566472
4960,433.195,0.056541
4965,433.195,0.0564654
4970,433.194,0.0563948
4975,433.195,0.056323
4980,433.194,0.0563663
4985,433.195,0.0563262
4990,433.195,0.0562612
4995,433.196,0.0562325
5000,433.195,0.0561557
5005,433.194,0.0560847
5010,433.194,0.0560476
5015,433.194,0.0559429
5020,433.194,0.0559876
5025,433.194,0.0558913
5030,433.194,0.0558155
5035,433.194,0.055771
5040,433.194,0.0556719
5045,433.194,0.0556206
5050,433.193,0.0555718
5055,433.193,0.0554779
5060,433.194,0.0554665
5065,433.194,0.0554874
5070,433.193,0.0554315
5075,433.193,0.0553468
5080,433.193,0.0553395
5085,433.193,0.0553543
5090,433.193,0.0554038
5095,433.194,0.0553409
5100,433.195,0.0554323
5105,433.195,0.0553215
5110,433.193,0.0551316
5115,433.193,0.054995
5120,433.193,0.0549916
5125,433.194,0.0551029
5130,433.194,0.0550514
5135,433.193,0.0550386
5140,433.193,0.0549717
5145,433.192,0.0549158
5150,433.193,0.0549072
5155,433.194,0.0549334
5160,433.194,0.0550103
5165,433.194,0.0549687
5170,433.194,0.0549347
5175,433.193,0.0548555
5180,433.193,0.0548342
5185,433.193,0.0548502
5190,433.193,0.054757
5195,433.194,0.0548861
5200,433.194,0.0548772
5205,433.193,0.054813
5210,433.193,0.0547197
5215,433.194,0.0547237
5220,433.194,0.0548579
5225,433.195,0.0548995
5230,433.194,0.0547831
5235,433.16,0.0554258
5240,432.404,-0.104467
5245,430.987,-0.406693
5250,429.36,-0.478758
5255,427.725,-0.498773
5260,426.115,-0.50087
5265,424.436,-0.502836
5270,422.787,-0.50418
5275,421.169,-0.505478
5280,419.483,-0.506948
5285,417.828,-0.508218
5290,416.204,-0.509328
5295,414.512,-0.510411
5300,412.851,-0.511259
5305,411.224,-0.511891
5310,409.528,-0.512239
5315,407.867,-0.512383
5320,406.237,-0.512224
5325,404.54,-0.511849
5330,402.875,-0.510856
5335,401.244,-0.50942
5340,399.546,-0.506338
5345,397.881,-0.50245
5350,396.249,-0.497769
5355,394.55,-0.489836
5360,392.884,-0.482117
5365,391.251,-0.474364
5370,389.55,-0.467486
5375,387.884,-0.460637
5380,386.252,-0.4544
5385,384.552,-0.44871
5390,382.886,-0.443286
5395,381.253,-0.438391
5400,379.554,-0.434038
5405,377.888,-0.429626
5410,376.256,-0.425625
5415,374.556,-0.421755
5420,372.891,-0.418194
5425,371.259,-0.415034
5430,369.559,-0.411804
5435,367.894,-0.408943
5440,366.262,-0.406158
5445,364.564,-0.403688
5450,362.898,-0.401258
5455,361.265,-0.399064
5460,359.567,-0.396842
5465,357.901,-0.394851
5470,356.269,-0.39288
5475,354.57,-0.390804
5480,352.904,-0.388731
5485,351.272,-0.38704
5490,349.572,-0.385285
5495,347.907,-0.383526
5500,346.275,-0.381753
5505,344.576,-0.379892
5510,342.91,-0.37821
5515,341.279,-0.376958
5520,339.58,-0.375952
5525,337.916,-0.374561
5530,336.283,-0.373075
5535,334.584,-0.371504
5540,332.918,-0.369815
5545,331.286,-0.368177
5550,329.587,-0.366633
5555,327.921,-0.365091
5560,326.288,-0.3634
5565,324.589,-0.361957
5570,322.924,-0.360778
5575,321.292,-0.359714
5580,319.593,-0.358325
5585,317.928,-0.357066
5590,316.297,-0.355935
5595,314.598,-0.354775
5600,312.932,-0.353648
5605,311.299,-0.352768
5610,309.601,-0.351648
5615,307.935,-0.350763
5620,306.303,-0.349785
5625,304.604,-0.348916
5630,302.939,-0.348033
5635,301.307,-0.34722
5640,299.609,-0.346186
5645,297.943,-0.345069
5650,296.311,-0.343955
5655,294.612,-0.342824
5660,292.946,-0.341769
5665,291.314,-0.340766
5670,289.615,-0.339632
5675,287.949,-0.338522
5680,286.317,-0.337449
5685,284.619,-0.336182
5690,282.954,-0.335155
5695,281.322,-0.334153
5700,279.626,-0.332994
5705,277.96,-0.331906
5710,276.328,-0.330888
5715,274.63,-0.329689
5720,272.965,-0.328537
5725,271.334,-0.32746
5730,269.636,-0.326335
5735,267.97,-0.325473
5740,266.338,-0.324688
5745,264.638,-0.323869
5750,262.972,-0.323216
5755,261.339,-0.322522
5760,259.639,-0.32166
5765,257.971,-0.321068
5770,256.339,-0.320458
5775,254.658,-0.319865
5780,253.04,-0.317983
5785,251.489,-0.313136
5790,249.907,-0.306268
5795,248.391,-0.300799
5800,246.936,-0.295197
5805,245.453,-0.289114
5810,244.029,-0.282419
5815,242.662,-0.277148
5820,241.268,-0.272211
5825,239.931,-0.266302
5830,238.645,-0.260908
5835,237.334,-0.255632
5840,236.076,-0.25007
5845,234.868,-0.245157
5850,233.635,-0.240202
5855,232.451,-0.235516
5860,231.314,-0.230544
5865,230.154,-0.225965
5870,229.041,-0.221577
5875,227.971,-0.216602
5880,226.88,-0.211984
5885,225.832,-0.207533
5890,224.825,-0.203339
5895,223.799,-0.198694
5900,222.812,-0.19455
5905,221.866,-0.190638
5910,220.899,-0.186613
5915,219.971,-0.182898
5920,219.08,-0.179272
5925,218.171,-0.175395
5930,217.297,-0.171302
5935,216.459,-0.16804
5940,215.604,-0.164572
5945,214.782,-0.160776
5950,213.993,-0.157593
5955,213.188,-0.154116
5960,212.415,-0.15083
5965,211.672,-0.147575
5970,210.914,-0.144374
5975,210.187,-0.141434
5980,209.489,-0.138336
5985,208.776,-0.135426
5990,208.091,-0.132477
5995,207.434,-0.129748
6000,206.763,-0.126983
6005,206.118,-0.124251
6010,205.5,-0.121546
6015,204.869,-0.118803
6020,204.262,-0.116065
6025,203.681,-0.113571
6030,203.087,-0.110983
6035,202.517,-0.108541
6040,201.969,-0.106154
6045,201.41,-0.103787
6050,200.873,-0.101453
6055,200.358,-0.099269
6060,199.832,-0.0971375
6065,199.327,-0.0947488
6070,198.842,-0.092713
6075,198.348,-0.0907325
6080,197.873,-0.0886136
6085,197.416,-0.0866074
6090,196.95,-0.0847418
6095,196.503,-0.0827659
6100,196.074,-0.0808607
6105,195.636,-0.0788833
6110,195.216,-0.077032
6114;194.883;-0.0755312,,