File: Non-charring/PMMA/UMET/UMET_DSC_N2_1.csv
Time,Temp,Heat Flow
[s],[k],[mW/mg]
0,,
5.899998,38.714,-0.0282396
11.80002,36.334,-0.333671
17.7,33.14,-0.580452
23.59998,30.087,-0.582043
29.50002,27.111,-0.572306
35.4,24.193,-0.551887
41.29998,21.319,-0.534786
47.20002,18.503,-0.532635
53.1,15.746,-0.51027
58.99998,13.05,-0.475134
64.9002,10.416,-0.456481
70.8,7.841,-0.444244
76.6998,5.324,-0.433836
82.6002,2.865,-0.422599
88.5,0.462,-0.413457
94.3998,-1.886,-0.403777
100.3002,-4.179,-0.394894
106.2,-6.42,-0.385303
112.0998,-8.608,-0.376434
118.0002,-10.745,-0.367779
123.9,-12.833,-0.359274
129.7998,-14.871,-0.35066
135.7002,-16.861,-0.343282
141.6,-18.804,-0.335543
147.4998,-20.701,-0.327994
153.4002,-22.554,-0.321406
159.3,-24.363,-0.313587
165.1998,-26.128,-0.30679
171.1002,-27.851,-0.29821
177,-29.533,-0.291207
182.8998,-31.175,-0.283588
188.8002,-32.778,-0.276268
194.7,-34.344,-0.269704
200.5998,-35.872,-0.263199
206.5002,-37.363,-0.256448
212.4,-38.819,-0.250423
218.2998,-40.24,-0.244331
224.2002,-41.628,-0.23868
230.1,-42.983,-0.233151
235.9998,-44.305,-0.227418
241.9002,-45.596,-0.22216
247.8,-46.856,-0.216631
253.6998,-48.086,-0.211563
259.6002,-49.287,-0.206359
265.5,-50.46,-0.201139
271.3998,-51.603,-0.196304
277.3002,-52.721,-0.191662
283.2,-53.811,-0.18715
289.0998,-54.876,-0.18253
295.0002,-55.915,-0.178001
300.9,-56.93,-0.17357
306.7998,-57.92,-0.169263
312.7002,-58.886,-0.165057
318.6,-59.83,-0.160772
324.4998,-60.751,-0.156805
330.4002,-61.65,-0.152724
336.3,-62.527,-0.148824
342.1998,-63.384,-0.145162
348.1002,-64.22,-0.141424
354,-65.037,-0.137957
359.8998,-65.834,-0.134528
365.8002,-66.612,-0.131068
371.7,-67.371,-0.127688
377.5998,-68.112,-0.12431
383.5002,-68.836,-0.121163
389.4,-69.543,-0.118104
395.2998,-70.232,-0.114866
401.2002,-70.905,-0.111859
407.1,-71.563,-0.108959
412.9998,-72.204,-0.106255
418.9002,-72.83,-0.103454
424.8,-73.441,-0.100734
430.6998,-74.039,-0.0981758
436.6002,-74.621,-0.0956142
442.5,-75.189,-0.092985
448.3998,-75.745,-0.0904542
454.3002,-76.286,-0.0880249
460.2,-76.815,-0.0857799
466.0998,-77.343,-0.0831954
472.0002,-77.871,-0.0817732
477.9,-78.385,-0.0804315
483.7998,-78.884,-0.0787823
489.7002,-79.365,-0.0767867
495.6,-79.721,-0.0764778
501.4998,-79.82,-0.0366298
507.4002,-79.858,-0.0218383
513.3,-79.879,-0.0161726
519.1998,-79.895,-0.0134011
525.1002,-79.908,-0.0108883
531,-79.918,-0.00873742
536.8998,-79.928,-0.00699061
542.8002,-79.934,-0.00544632
548.7,-79.94,-0.00420798
554.5998,-79.944,-0.00318987
560.5002,-79.948,-0.00217169
566.4,-79.951,-0.00147847
572.2998,-79.953,-0.000748964
578.2002,-79.955,-0.000143669
584.1,-79.956,0.000435553
589.9998,-79.957,0.00087576
595.9002,-79.958,0.00114018
601.8,-79.96,0.0014217
607.698,-79.96,0.00173082
613.602,-79.961,0.00204949
619.5,-79.961,0.00227754
625.398,-79.962,0.0025163
631.302,-79.961,0.00277713
637.2,-79.962,0.0029759
643.098,-79.963,0.00315429
649.002,-79.963,0.00337464
654.9,-79.963,0.00354182
660.798,-79.962,0.00361084
666.702,-79.962,0.00374054
672.6,-79.963,0.00387809
678.498,-79.963,0.00395572
684.402,-79.963,0.00404561
690.3,-79.964,0.00408106
696.198,-79.963,0.00415927
702.102,-79.963,0.00417973
708,-79.963,0.00411296
713.898,-79.963,0.00421609
719.802,-79.963,0.00424736
725.7,-79.963,0.00424885
731.598,-79.963,0.00430803
737.502,-79.963,0.00435693
743.4,-79.963,0.0045294
749.298,-79.963,0.00457585
755.202,-79.963,0.00461873
761.1,-79.963,0.00467312
766.998,-79.963,0.00461494
772.902,-79.963,0.00457796
778.8,-79.963,0.00457632
784.698,-79.963,0.00466638
790.602,-79.963,0.00470357
796.5,-79.963,0.00466153
802.398,-79.963,0.00468545
808.302,-79.963,0.00470813
814.2,-79.963,0.00466601
820.098,-79.963,0.00471348
826.002,-79.963,0.00472368
831.9,-79.964,0.00464634
837.798,-79.963,0.00478628
843.702,-79.963,0.00478619
849.6,-79.963,0.00478102
855.498,-79.963,0.00477474
861.402,-79.963,0.0048651
867.3,-79.963,0.00481697
873.198,-79.963,0.00482105
879.102,-79.963,0.00478152
885,-79.963,0.00479181
890.898,-79.964,0.00492842
896.802,-79.963,0.00491705
902.7,-79.963,0.00501427
908.598,-79.963,0.0049788
914.502,-79.963,0.0050169
920.4,-79.963,0.00491083
926.298,-79.963,0.00493567
932.202,-79.964,0.00495584
938.1,-79.963,0.00498778
943.998,-79.963,0.00504206
949.902,-79.963,0.00501254
955.8,-79.964,0.0050608
961.698,-79.963,0.00505722
967.602,-79.964,0.00507702
973.5,-79.964,0.00506014
979.398,-79.963,0.00509507
985.302,-79.964,0.00518329
991.2,-79.963,0.00519937
997.098,-79.963,0.00520555
1003.002,-79.964,0.00515882
1008.9,-79.964,0.00520419
1014.798,-79.964,0.00522512
1020.702,-79.964,0.0051796
1026.6,-79.963,0.00519031
1032.498,-79.963,0.00527828
1038.402,-79.963,0.00525588
1044.3,-79.963,0.0054197
1050.198,-79.964,0.00538228
1056.102,-79.964,0.0052882
1062,-79.964,0.00532196
1067.898,-79.964,0.00532916
1073.802,-79.963,0.00528927
1079.7,-79.964,0.00535282
1085.598,-79.964,0.0053561
1091.502,-79.963,0.00544998
1097.4,-79.963,0.00545491
1103.298,-79.963,0.00549527
1109.202,-79.925,0.0038928
1115.1,-79.33,0.0462666
1120.998,-78.44,0.105711
1126.902,-77.486,0.122999
1132.8,-76.519,0.126691
1138.698,-75.55,0.128849
1144.602,-74.578,0.130962
1150.5,-73.605,0.132855
1156.398,-72.631,0.134398
1162.302,-71.654,0.135856
1168.2,-70.677,0.137176
1174.098,-69.7,0.138325
1180.002,-68.721,0.139277
1185.9,-67.741,0.140365
1191.798,-66.761,0.141244
1197.702,-65.78,0.142126
1203.6,-64.798,0.143027
1209.498,-63.816,0.143934
1215.402,-62.834,0.144739
1221.3,-61.852,0.14547
1227.198,-60.868,0.146378
1233.102,-59.886,0.147086
1239,-58.903,0.147871
1244.898,-57.92,0.148603
1250.802,-56.936,0.149504
1256.7,-55.953,0.150384
1262.598,-54.97,0.151143
1268.502,-53.986,0.151803
1274.4,-53.003,0.152372
1280.298,-52.019,0.152914
1286.202,-51.036,0.153654
1292.1,-50.053,0.154239
1297.998,-49.068,0.154941
1303.902,-48.085,0.155556
1309.8,-47.101,0.156198
1315.698,-46.117,0.156773
1321.602,-45.134,0.157417
1327.5,-44.15,0.158096
1333.398,-43.166,0.158628
1339.302,-42.182,0.159309
1345.2,-41.199,0.159891
1351.098,-40.215,0.160498
1357.002,-39.231,0.161152
1362.9,-38.248,0.161746
1368.798,-37.263,0.162356
1374.702,-36.279,0.162991
1380.6,-35.295,0.163576
1386.498,-34.311,0.16402
1392.402,-33.327,0.164518
1398.3,-32.343,0.165249
1404.198,-31.359,0.166053
1410.102,-30.376,0.166884
1416,-29.392,0.167753
1421.898,-28.407,0.168693
1427.802,-27.423,0.169556
1433.7,-26.439,0.170409
1439.598,-25.456,0.1712
1445.502,-24.472,0.171941
1451.4,-23.488,0.172848
1457.298,-22.506,0.173612
1463.202,-21.522,0.174542
1469.1,-20.538,0.175304
1474.998,-19.554,0.176076
1480.902,-18.571,0.176775
1486.8,-17.587,0.177417
1492.698,-16.602,0.17811
1498.602,-15.618,0.1786
1504.5,-14.636,0.178916
1510.398,-13.652,0.179252
1516.302,-12.669,0.18044
1522.2,-11.686,0.182086
1528.098,-10.702,0.183759
1534.002,-9.718,0.185257
1539.9,-8.736,0.186655
1545.798,-7.752,0.187603
1551.702,-6.769,0.188427
1557.6,-5.785,0.189374
1563.498,-4.802,0.190529
1569.402,-3.818,0.191643
1575.3,-2.835,0.192904
1581.198,-1.851,0.194285
1587.102,-0.868,0.195697
1593,0.116,0.197148
1598.898,1.1,0.198582
1604.802,2.083,0.200089
1610.7,3.066,0.201649
1616.598,4.05,0.203094
1622.502,5.033,0.204675
1628.4,6.018,0.206387
1634.298,7.002,0.208081
1640.202,7.986,0.209883
1646.1,8.97,0.211561
1651.998,9.953,0.213181
1657.902,10.937,0.214876
1663.8,11.92,0.21645
1669.698,12.903,0.218061
1675.602,13.887,0.219627
1681.5,14.871,0.221235
1687.398,15.853,0.222652
1693.302,16.835,0.224435
1699.2,17.818,0.226136
1705.098,18.801,0.227895
1711.002,19.784,0.22964
1716.9,20.768,0.23129
1722.798,21.753,0.233063
1728.702,22.737,0.234601
1734.6,23.72,0.236084
1740.498,24.704,0.237483
1746.402,25.687,0.238831
1752.3,26.671,0.240059
1758.198,27.654,0.24137
1764.102,28.637,0.242357
1770,29.62,0.243547
1775.898,30.603,0.244814
1781.802,31.587,0.246149
1787.7,32.57,0.24695
1793.598,33.554,0.247595
1799.502,34.538,0.247964
1805.4,35.523,0.2483
1811.298,36.507,0.248319
1817.202,37.491,0.248416
1823.1,38.476,0.248485
1828.998,39.46,0.248502
1834.902,40.443,0.248526
1840.8,41.427,0.248348
1846.698,42.411,0.248391
1852.602,43.395,0.248418
1858.5,44.38,0.248458
1864.398,45.364,0.248485
1870.302,46.349,0.248565
1876.2,47.332,0.248609
1882.098,48.317,0.248575
1888.002,49.301,0.248654
1893.9,50.285,0.248605
1899.798,51.269,0.248591
1905.702,52.253,0.248547
1911.6,53.237,0.248512
1917.498,54.221,0.248417
1923.402,55.205,0.248494
1929.3,56.189,0.248533
1935.198,57.173,0.248499
1941.102,58.156,0.248504
1947,59.14,0.248494
1952.898,60.125,0.248564
1958.802,61.109,0.24862
1964.7,62.094,0.248595
1970.598,63.077,0.248576
1976.502,64.061,0.248661
1982.4,65.045,0.248706
1988.298,66.029,0.248707
1994.202,67.012,0.248759
2000.1,67.996,0.248815
2005.998,68.979,0.248844
2011.902,69.963,0.248854
2017.8,70.947,0.248981
2023.698,71.931,0.249043
2029.602,72.916,0.249281
2035.5,73.9,0.249519
2041.398,74.883,0.249685
2047.302,75.867,0.249861
2053.2,76.851,0.250049
2059.098,77.835,0.250274
2065.002,78.819,0.250567
2070.9,79.804,0.250848
2076.798,80.788,0.251149
2082.702,81.771,0.251422
2088.6,82.755,0.2517
2094.498,83.739,0.251999
2100.402,84.723,0.252237
2106.3,85.706,0.25264
2112.198,86.69,0.253057
2118.102,87.674,0.253439
2124,88.657,0.253917
2129.898,89.641,0.254232
2135.802,90.625,0.254832
2141.7,91.61,0.255062
2147.598,92.594,0.255669
2153.502,93.578,0.256203
2159.4,94.561,0.256665
2165.298,95.544,0.257257
2171.202,96.528,0.257831
2177.1,97.513,0.258734
2182.998,98.496,0.259334
2188.902,99.479,0.259888
2194.8,100.463,0.260527
2200.698,101.447,0.261194
2206.602,102.431,0.261823
2212.5,103.416,0.262675
2218.398,104.4,0.26363
2224.302,105.385,0.264614
2230.2,106.369,0.26572
2236.098,107.353,0.266908
2242.002,108.336,0.267909
2247.9,109.32,0.269139
2253.798,110.303,0.270416
2259.702,111.286,0.271677
2265.6,112.272,0.273434
2271.498,113.254,0.274926
2277.402,114.236,0.276524
2283.3,115.219,0.278445
2289.198,116.202,0.280471
2295.102,117.186,0.282694
2301,118.17,0.285174
2306.898,119.154,0.287876
2312.802,120.137,0.290669
2318.7,121.119,0.293853
2324.598,122.103,0.297139
2330.502,123.086,0.30089
2336.4,124.069,0.30481
2342.298,125.051,0.308832
2348.202,126.034,0.313153
2354.1,127.016,0.317194
2359.998,127.999,0.320953
2365.902,128.984,0.324307
2371.8,129.968,0.326788
2377.698,130.953,0.328171
2383.602,131.937,0.32868
2389.5,132.921,0.328503
2395.398,133.904,0.328053
2401.302,134.887,0.327761
2407.2,135.871,0.327621
2413.098,136.855,0.32762
2419.002,137.839,0.327888
2424.9,138.823,0.328058
2430.798,139.806,0.328381
2436.702,140.791,0.328734
2442.6,141.775,0.329187
2448.498,142.759,0.329567
2454.402,143.742,0.329965
2460.3,144.725,0.330446
2466.198,145.708,0.330846
2472.102,146.692,0.331306
2478,147.675,0.331743
2483.898,148.659,0.332309
2489.802,149.642,0.332833
2495.7,150.625,0.333285
2501.598,151.609,0.333766
2507.502,152.594,0.334408
2513.4,153.579,0.335022
2519.298,154.563,0.335557
2525.202,155.546,0.335911
2531.1,156.529,0.336243
2536.998,157.512,0.336737
2542.902,158.497,0.337182
2548.8,159.458,0.33831
2554.698,159.921,0.234608
2560.602,159.983,0.101596
2566.5,159.996,0.0744542
2572.398,160.003,0.0703274
2578.302,160.011,0.0686682
2584.2,160.017,0.067335
2590.098,160.023,0.0660982
2596.002,160.028,0.0650441
2601.9,160.033,0.0641942
2607.798,160.037,0.0633417
2613.702,160.041,0.0625078
2619.6,160.043,0.0617002
2625.498,160.045,0.0609658
2631.402,160.045,0.0602777
2637.3,160.046,0.0597779
2643.198,160.047,0.0593167
2649.102,160.049,0.0589053
2655,160.049,0.0583772
2660.898,160.049,0.0578984
2666.802,160.05,0.0574554
2672.7,160.05,0.0571116
2678.598,160.05,0.0568018
2684.502,160.049,0.0563404
2690.4,160.049,0.056109
2696.298,160.048,0.0559232
2702.202,160.049,0.0557568
2708.1,160.048,0.0556735
2713.998,160.048,0.0554476
2719.902,160.048,0.0552831
2725.8,160.047,0.0551966
2731.698,160.047,0.0550796
2737.602,160.047,0.0550261
2743.5,160.048,0.0548444
2749.398,160.048,0.0546228
2755.302,160.047,0.0544283
2761.2,160.046,0.0542299
2767.098,160.046,0.0541258
2773.002,160.046,0.0539713
2778.9,160.046,0.0539389
2784.798,160.046,0.0538847
2790.702,160.046,0.0537529
2796.6,160.046,0.0534722
2802.498,160.046,0.0533471
2808.402,160.047,0.0532128
2814.3,160.046,0.0530549
2820.198,160.047,0.0529152
2826.102,160.046,0.052871
2832,160.045,0.0528188
2837.898,160.046,0.0527508
2843.802,160.046,0.052682
2849.7,160.046,0.0525714
2855.598,160.046,0.0524532
2861.502,160.046,0.0522831
2867.4,160.045,0.0522083
2873.298,160.046,0.0521492
2879.202,160.046,0.0520573
2885.1,160.046,0.0520129
2890.998,160.045,0.0519328
2896.902,160.045,0.0518798
2902.8,160.045,0.0518711
2908.698,160.045,0.0518571
2914.602,160.045,0.0517653
2920.5,160.045,0.0516045
2926.398,160.045,0.0515828
2932.302,160.046,0.0515661
2938.2,160.047,0.0516153
2944.098,160.047,0.0514249
2950.002,160.047,0.0512712
2955.9,160.047,0.0511768
2961.798,160.046,0.0510461
2967.702,160.046,0.0510296
2973.6,160.046,0.0508799
2979.498,160.046,0.0509373
2985.402,160.046,0.0508559
2991.3,160.046,0.0506982
2997.198,160.046,0.0506116
3003.102,160.046,0.0504528
3009,160.046,0.0504588
3014.898,160.046,0.0504281
3020.802,160.046,0.0503142
3026.7,160.046,0.0502942
3032.598,160.045,0.0502604
3038.502,160.045,0.0501369
3044.4,160.044,0.0501182
3050.298,160.045,0.0501609
3056.202,160.045,0.0502101
3062.1,160.045,0.0502097
3067.998,160.045,0.0501396
3073.902,160.046,0.050188
3079.8,160.046,0.050152
3085.698,160.046,0.0501956
3091.602,160.046,0.0500532
3097.5,160.046,0.0499482
3103.398,160.046,0.0498312
3109.302,160.045,0.0498266
3115.2,160.045,0.0497311
3121.098,160.045,0.0497794
3127.002,160.044,0.0497053
3132.9,160.046,0.0496792
3138.798,160.046,0.0497695
3144.702,160.046,0.0496846
3150.6,159.969,0.0553908
3156.498,159.293,-0.145339
3162.402,158.369,-0.206345
3168.3,157.406,-0.216534
3174.198,156.435,-0.218618
3180.102,155.463,-0.219775
3186,154.489,-0.220843
3191.898,153.513,-0.221873
3197.802,152.537,-0.222548
3203.7,151.558,-0.223345
3209.598,150.58,-0.224005
3215.502,149.6,-0.224491
3221.4,148.62,-0.225019
3227.298,147.639,-0.225481
3233.202,146.659,-0.22592
3239.1,145.677,-0.226189
3244.998,144.696,-0.226492
3250.902,143.714,-0.226786
3256.8,142.731,-0.227056
3262.698,141.749,-0.227084
3268.602,140.767,-0.227132
3274.5,139.785,-0.227272
3280.398,138.803,-0.227345
3286.302,137.82,-0.227506
3292.2,136.836,-0.22758
3298.098,135.852,-0.227646
3304.002,134.868,-0.227621
3309.9,133.885,-0.227346
3315.798,132.902,-0.227047
3321.702,131.92,-0.226827
3327.6,130.936,-0.226431
3333.498,129.954,-0.225898
3339.402,128.971,-0.225385
3345.3,127.987,-0.22469
3351.198,127.005,-0.223732
3357.102,126.021,-0.222713
3363,125.038,-0.221438
3368.898,124.056,-0.219759
3374.802,123.074,-0.217974
3380.7,122.091,-0.21616
3386.598,121.107,-0.214133
3392.502,120.124,-0.212058
3398.4,119.14,-0.209901
3404.298,118.157,-0.207797
3410.202,117.174,-0.205623
3416.1,116.191,-0.20347
3421.998,115.208,-0.201353
3427.902,114.224,-0.199402
3433.8,113.241,-0.197493
3439.698,112.257,-0.195769
3445.602,111.275,-0.193913
3451.5,110.291,-0.192354
3457.398,109.309,-0.190952
3463.302,108.325,-0.189604
3469.2,107.342,-0.188426
3475.098,106.36,-0.187109
3481.002,105.377,-0.185815
3486.9,104.393,-0.184648
3492.798,103.41,-0.183459
3498.702,102.426,-0.182222
3504.6,101.443,-0.181197
3510.498,100.46,-0.18006
3516.402,99.477,-0.179091
3522.3,98.495,-0.178204
3528.198,97.513,-0.17738
3534.102,96.529,-0.176676
3540,95.546,-0.175957
3545.898,94.563,-0.175319
3551.802,93.58,-0.174673
3557.7,92.598,-0.174094
3563.598,91.616,-0.17363
3569.502,90.632,-0.17309
3575.4,89.649,-0.172722
3581.298,88.665,-0.172263
3587.202,87.682,-0.171569
3593.1,86.7,-0.170991
3598.998,85.717,-0.170549
3604.902,84.734,-0.170057
3610.8,83.751,-0.169512
3616.698,82.768,-0.169034
3622.602,81.786,-0.168452
3628.5,80.803,-0.168057
3634.398,79.821,-0.167652
3640.302,78.838,-0.167099
3646.2,77.855,-0.166858
3652.098,76.872,-0.166517
3658.002,75.889,-0.166252
3663.9,74.907,-0.165808
3669.798,73.924,-0.165328
3675.702,72.942,-0.164961
3681.6,71.96,-0.164788
3687.498,70.976,-0.164528
3693.402,69.994,-0.164192
3699.3,69.011,-0.164188
3705.198,68.028,-0.164228
3711.102,67.045,-0.164336
3717,66.062,-0.164287
3722.898,65.078,-0.164001
3728.802,64.096,-0.163738
3734.7,63.113,-0.163417
3740.598,62.13,-0.162833
3746.502,61.147,-0.162355
3752.4,60.164,-0.162105
3758.298,59.181,-0.161943
3764.202,58.198,-0.161669
3770.1,57.215,-0.161486
3775.998,56.232,-0.161327
3781.902,55.25,-0.161145
3787.8,54.267,-0.160994
3793.698,53.284,-0.160849
3799.602,52.301,-0.160816
3805.5,51.318,-0.160767
3811.398,50.335,-0.160748
3817.302,49.353,-0.160418
3823.2,48.369,-0.160439
3829.098,47.386,-0.160296
3835.002,46.403,-0.160244
3840.9,45.421,-0.16016
3846.798,44.437,-0.16014
3852.702,43.454,-0.160126
3858.6,42.471,-0.160155
3864.498,41.489,-0.160069
3870.402,40.506,-0.159958
3876.3,39.524,-0.160012
3882.198,38.54,-0.159949
3888.102,37.557,-0.159879
3894,36.575,-0.159927
3899.898,35.592,-0.159871
3905.802,34.61,-0.159806
3911.7,33.627,-0.159722
3917.598,32.645,-0.159545
3923.502,31.662,-0.159403
3929.4,30.68,-0.159192
3935.298,29.698,-0.158795
3941.202,28.715,-0.158448
3947.1,27.732,-0.158219
3952.998,26.75,-0.157957
3958.902,25.769,-0.157642
3964.8,24.786,-0.157321
3970.698,23.803,-0.157036
3976.602,22.82,-0.156895
3982.5,21.836,-0.156652
3988.398,20.853,-0.156352
3994.302,19.869,-0.156335
4000.2,18.885,-0.156003
4006.098,17.902,-0.155752
4012.002,16.918,-0.155664
4017.9,15.935,-0.155345
4023.798,14.952,-0.155179
4029.702,13.969,-0.155016
4035.6,12.986,-0.154858
4041.498,12.003,-0.154651
4047.402,11.021,-0.154398
4053.3,10.038,-0.154153
4059.198,9.055,-0.153876
4065.102,8.072,-0.153693
4071,7.089,-0.153449
4076.898,6.106,-0.15312
4082.802,5.124,-0.152954
4088.7,4.141,-0.152701
4094.598,3.158,-0.152391
4100.502,2.176,-0.152127
4106.4,1.191,-0.151935
4112.298,0.208,-0.151687
4118.202,-0.775,-0.151443
4124.1,-1.758,-0.151249
4129.998,-2.74,-0.151175
4135.902,-3.723,-0.151056
4141.8,-4.706,-0.150954
4147.698,-5.69,-0.150778
4153.602,-6.672,-0.150723
4159.5,-7.655,-0.150546
4165.398,-8.639,-0.15047
4171.302,-9.622,-0.150263
4177.2,-10.605,-0.150163
4183.098,-11.589,-0.149964
4189.002,-12.572,-0.149981
4194.9,-13.555,-0.14996
4200.798,-14.537,-0.14996
4206.702,-15.521,-0.149943
4212.6,-16.504,-0.149947
4218.498,-17.487,-0.149964
4224.402,-18.471,-0.150032
4230.3,-19.454,-0.150053
4236.198,-20.437,-0.150053
4242.102,-21.42,-0.150086
4248,-22.404,-0.150138
4253.898,-23.387,-0.150076
4259.802,-24.37,-0.150105
4265.7,-25.353,-0.150174
4271.598,-26.338,-0.150221
4277.502,-27.32,-0.150324
4283.4,-28.304,-0.150338
4289.298,-29.287,-0.150274
4295.202,-30.271,-0.150391
4301.1,-31.254,-0.15034
4306.998,-32.237,-0.150321
4312.902,-33.221,-0.149969
4318.8,-34.203,-0.150115
4324.698,-35.187,-0.150281
4330.602,-36.17,-0.150321
4336.5,-37.153,-0.150308
4342.398,-38.137,-0.150207
4348.302,-39.121,-0.150262
4354.2,-40.105,-0.15046
4360.098,-41.088,-0.150525
4366.002,-42.072,-0.150574
4371.9,-43.056,-0.150622
4377.798,-44.04,-0.15072
4383.702,-45.024,-0.150796
4389.6,-46.008,-0.150823
4395.498,-46.992,-0.150861
4401.402,-47.976,-0.150998
4407.3,-48.96,-0.150757
4413.198,-49.944,-0.150909
4419.102,-50.927,-0.150937
4425,-51.911,-0.150996
4430.898,-52.895,-0.15099
4436.802,-53.878,-0.151047
4442.7,-54.862,-0.151201
4448.598,-55.845,-0.15129
4454.502,-56.829,-0.151431
4460.4,-57.812,-0.151532
4466.298,-58.78,-0.1515
4472.202,-59.725,-0.150326
4478.1,-60.646,-0.1485
4483.998,-61.546,-0.146002
4489.902,-62.422,-0.143245
4495.8,-63.277,-0.140259
4501.698,-64.112,-0.137256
4507.602,-64.925,-0.134026
4513.5,-65.72,-0.130955
4519.398,-66.496,-0.127975
4525.302,-67.252,-0.124718
4531.2,-67.991,-0.120893
4537.098,-68.713,-0.118233
4543.002,-69.416,-0.115627
4548.9,-70.104,-0.113031
4554.798,-70.775,-0.110317
4560.702,-71.43,-0.107757
4566.6,-72.07,-0.105071
4572.498,-72.694,-0.102606
4578.402,-73.303,-0.100018
4584.3,-73.899,-0.0973732
4590.198,-74.48,-0.0949654
4596.102,-75.047,-0.0925565
4602,-75.602,-0.0900014
4607.898,-76.142,-0.0878478
4613.802,-76.67,-0.085554
4619.7,-77.185,-0.0834352
4625.598,-77.689,-0.0813535
4631.502,-78.182,-0.0790552
4637.4,-78.67,-0.0770764
4643.298,-79.16,-0.075471
4649.202,-79.658,-0.0742778
4655.1,-80.002,-0.0802459
4660.998,-80.048,-0.0313478
4666.902,-80.036,-0.0159201
4672.8,-80.018,-0.011157
4678.698,-80.001,-0.00889599
4684.602,-79.989,-0.00709324
4690.5,-79.979,-0.00551534
4696.398,-79.972,-0.00435264
4702.302,-79.967,-0.00336561
4708.2,-79.963,-0.00257111
4714.098,-79.96,-0.00201892
4720.002,-79.958,-0.00150696
4725.9,-79.956,-0.00103574
4731.798,-79.955,-0.000614206
4737.702,-79.955,-0.000382724
4743.6,-79.955,3.09344E-05
4749.498,-79.954,0.000371157
4755.402,-79.953,0.000614836
4761.3,-79.953,0.00086985
4767.198,-79.953,0.00104756
4773.102,-79.953,0.00123584
4779,-79.953,0.00144791
4784.898,-79.954,0.00159248
4790.802,-79.954,0.00165878
4796.7,-79.953,0.00199395
4802.598,-79.954,0.00213216
4808.502,-79.953,0.00223946
4814.4,-79.954,0.00232706
4820.298,-79.954,0.00248715
4826.202,-79.954,0.00252902
4832.1,-79.954,0.00262961
4837.998,-79.954,0.00264081
4843.902,-79.954,0.00271251
4849.8,-79.955,0.00282041
4855.698,-79.954,0.00282027
4861.602,-79.955,0.00288485
4867.5,-79.955,0.00294422
4873.398,-79.955,0.00307655
4879.302,-79.955,0.00313063
4885.2,-79.955,0.00330761
4891.098,-79.956,0.00339326
4897.002,-79.955,0.00347307
4902.9,-79.955,0.00341937
4908.798,-79.955,0.00333212
4914.702,-79.956,0.00330606
4920.6,-79.955,0.00339568
4926.498,-79.955,0.00344002
4932.402,-79.955,0.00343165
4938.3,-79.955,0.00341413
4944.198,-79.954,0.00338022
4950.102,-79.955,0.00338553
4956,-79.955,0.00339089
4961.898,-79.955,0.00342079
4967.802,-79.955,0.00358014
4973.7,-79.955,0.00377164
4979.598,-79.955,0.00380133
4985.502,-79.956,0.00383629
4991.4,-79.955,0.0038806
4997.298,-79.955,0.00393917
5003.202,-79.955,0.00390047
5009.1,-79.955,0.00389499
5014.998,-79.956,0.00387192
5020.902,-79.956,0.00403014
5026.8,-79.955,0.00406095
5032.698,-79.956,0.00413446
5038.602,-79.956,0.00401044
5044.5,-79.956,0.00400192
5050.398,-79.955,0.00400834
5056.302,-79.955,0.00404517
5062.2,-79.956,0.00403155
5068.098,-79.955,0.00404802
5074.002,-79.955,0.00406543
5079.9,-79.956,0.00399936
5085.798,-79.956,0.00404835
5091.702,-79.956,0.00410119
5097.6,-79.956,0.00423618
5103.498,-79.956,0.00424947
5109.402,-79.956,0.00423823
5115.3,-79.956,0.00428843
5121.198,-79.956,0.00440573
5127.102,-79.956,0.00431514
5133,-79.956,0.0043315
5138.898,-79.956,0.00436621
5144.802,-79.956,0.00424606
5150.7,-79.957,0.00434026
5156.598,-79.956,0.00437391
5162.502,-79.956,0.00436875
5168.4,-79.956,0.00440395
5174.298,-79.957,0.00447719
5180.202,-79.956,0.00451497
5186.1,-79.957,0.00441686
5191.998,-79.956,0.00439368
5197.902,-79.956,0.00445174
5203.8,-79.956,0.00451808
5209.698,-79.956,0.00443922
5215.602,-79.957,0.00448627
5221.5,-79.957,0.0043911
5227.398,-79.957,0.00435304
5233.302,-79.957,0.00443453
5239.2,-79.957,0.00438514
5245.098,-79.949,0.00447824
5251.002,-79.516,0.010472
5256.9,-78.652,0.0974975
5262.798,-77.705,0.117703
5268.702,-76.742,0.123184
5274.6,-75.772,0.12558
5280.498,-74.802,0.12765
5286.402,-73.83,0.129655
5292.3,-72.856,0.131415
5298.198,-71.881,0.132975
5304.102,-70.905,0.134507
5310,-69.926,0.135766
5315.898,-68.949,0.136741
5321.802,-67.969,0.137708
5327.7,-66.99,0.138641
5333.598,-66.009,0.139559
5339.502,-65.029,0.140289
5345.4,-64.047,0.141126
5351.298,-63.065,0.141849
5357.202,-62.083,0.142805
5363.1,-61.101,0.143594
5368.998,-60.118,0.144453
5374.902,-59.135,0.145115
5380.8,-58.152,0.145905
5386.698,-57.17,0.146658
5392.602,-56.186,0.147434
5398.5,-55.203,0.14796
5404.398,-54.221,0.148602
5410.302,-53.237,0.14921
5416.2,-52.254,0.149816
5422.098,-51.27,0.150412
5428.002,-50.286,0.150924
5433.9,-49.303,0.151514
5439.798,-48.32,0.15202
5445.702,-47.336,0.152402
5451.6,-46.352,0.152954
5457.498,-45.369,0.153588
5463.402,-44.385,0.154082
5469.3,-43.402,0.154614
5475.198,-42.418,0.155232
5481.102,-41.434,0.155798
5487,-40.45,0.156279
5492.898,-39.466,0.156875
5498.802,-38.483,0.157278
5504.7,-37.499,0.157817
5510.598,-36.516,0.158173
5516.502,-35.533,0.158573
5522.4,-34.549,0.159001
5528.298,-33.566,0.159475
5534.202,-32.581,0.160233
5540.1,-31.598,0.160959
5545.998,-30.614,0.161695
5551.902,-29.631,0.162384
5557.8,-28.646,0.163014
5563.698,-27.663,0.163648
5569.602,-26.679,0.164251
5575.5,-25.695,0.164966
5581.398,-24.712,0.165682
5587.302,-23.728,0.166236
5593.2,-22.745,0.166848
5599.098,-21.761,0.167633
5605.002,-20.777,0.168341
5610.9,-19.792,0.16897
5616.798,-18.809,0.169491
5622.702,-17.826,0.17003
5628.6,-16.842,0.170519
5634.498,-15.857,0.17102
5640.402,-14.874,0.171535
5646.3,-13.891,0.172132
5652.198,-12.907,0.172589
5658.102,-11.923,0.173211
5664,-10.94,0.17378
5669.898,-9.956,0.174335
5675.802,-8.973,0.174856
5681.7,-7.989,0.175517
5687.598,-7.006,0.176184
5693.502,-6.022,0.176762
5699.4,-5.038,0.17749
5705.298,-4.054,0.178079
5711.202,-3.071,0.178756
5717.1,-2.086,0.179419
5722.998,-1.104,0.180006
5728.902,-0.12,0.180663
5734.8,0.864,0.181351
5740.698,1.847,0.182064
5746.602,2.832,0.18297
5752.5,3.816,0.183701
5758.398,4.801,0.18442
5764.302,5.784,0.185113
5770.2,6.768,0.185995
5776.098,7.752,0.18672
5782.002,8.736,0.187634
5787.9,9.72,0.188327
5793.798,10.704,0.189081
5799.702,11.688,0.189833
5805.6,12.672,0.190645
5811.498,13.656,0.191377
5817.402,14.639,0.192093
5823.3,15.623,0.192847
5829.198,16.607,0.193483
5835.102,17.591,0.194297
5841,18.574,0.194956
5846.898,19.559,0.195672
5852.802,20.542,0.196408
5858.7,21.526,0.197172
5864.598,22.51,0.197882
5870.502,23.493,0.198632
5876.4,24.477,0.199486
5882.298,25.461,0.200239
5888.202,26.444,0.20089
5894.1,27.428,0.201618
5899.998,28.412,0.202326
5905.902,29.396,0.203093
5911.8,30.381,0.203772
5917.698,31.365,0.204515
5923.602,32.348,0.205119
5929.5,33.332,0.205843
5935.398,34.316,0.206622
5941.302,35.3,0.207417
5947.2,36.284,0.208167
5953.098,37.268,0.208805
5959.002,38.252,0.209536
5964.9,39.235,0.210192
5970.798,40.221,0.2109
5976.702,41.204,0.211605
5982.6,42.188,0.212197
5988.498,43.172,0.212864
5994.402,44.156,0.213624
6000.3,45.141,0.214203
6006.18,46.125,0.2149
6012.12,47.108,0.215439
6018,48.092,0.216232
6023.88,49.075,0.216898
6029.82,50.06,0.21747
6035.7,51.044,0.218126
6041.58,52.028,0.218806
6047.52,53.011,0.21949
6053.4,53.995,0.220168
6059.28,54.979,0.220766
6065.22,55.963,0.221315
6071.1,56.946,0.22197
6076.98,57.93,0.222602
6082.92,58.913,0.22318
6088.8,59.898,0.223949
6094.68,60.882,0.224611
6100.62,61.866,0.225226
6106.5,62.849,0.225824
6112.38,63.833,0.226602
6118.32,64.817,0.227407
6124.2,65.8,0.228088
6130.08,66.784,0.228833
6136.02,67.768,0.229529
6141.9,68.752,0.230214
6147.78,69.735,0.230803
6153.72,70.719,0.231591
6159.6,71.703,0.2323
6165.48,72.686,0.233015
6171.42,73.67,0.23367
6177.3,74.654,0.234454
6183.18,75.637,0.235297
6189.12,76.621,0.236106
6195,77.605,0.236798
6200.88,78.59,0.237659
6206.82,79.574,0.238525
6212.7,80.559,0.239423
6218.58,81.542,0.240248
6224.52,82.527,0.24099
6230.4,83.511,0.241875
6236.28,84.495,0.242583
6242.22,85.478,0.243427
6248.1,86.462,0.244199
6253.98,87.446,0.245137
6259.92,88.429,0.246007
6265.8,89.413,0.24693
6271.68,90.396,0.247844
6277.62,91.38,0.248624
6283.5,92.364,0.249461
6289.38,93.348,0.250397
6295.32,94.331,0.251143
6301.2,95.315,0.251952
6307.08,96.298,0.252782
6313.02,97.281,0.253717
6318.9,98.264,0.254641
6324.78,99.248,0.255554
6330.72,100.232,0.256424
6336.6,101.216,0.257365
6342.48,102.199,0.258315
6348.42,103.182,0.259258
6354.3,104.166,0.260318
6360.18,105.15,0.261391
6366.12,106.134,0.262785
6372,107.118,0.264103
6377.88,108.101,0.265473
6383.82,109.086,0.266761
6389.7,110.071,0.268263
6395.58,111.055,0.269816
6401.52,112.04,0.271394
6407.4,113.023,0.272997
6413.28,114.006,0.274703
6419.22,114.99,0.276522
6425.1,115.974,0.278523
6430.98,116.957,0.280599
6436.92,117.94,0.28285
6442.8,118.924,0.285332
6448.68,119.908,0.28797
6454.62,120.89,0.290773
6460.5,121.872,0.29375
6466.38,122.855,0.297072
6472.32,123.837,0.300731
6478.2,124.82,0.304465
6484.08,125.803,0.308676
6490.02,126.787,0.312443
6495.9,127.77,0.31622
6501.78,128.753,0.319535
6507.72,129.736,0.322348
6513.6,130.72,0.324338
6519.48,131.705,0.325782
6525.42,132.689,0.326373
6531.3,133.673,0.326746
6537.18,134.657,0.326889
6543.12,135.639,0.326999
6549,136.622,0.327191
6554.88,137.606,0.327509
6560.82,138.59,0.327953
6566.7,139.573,0.328344
6572.58,140.557,0.32884
6578.52,141.541,0.329297
6584.4,142.525,0.329813
6590.28,143.509,0.330369
6596.22,144.492,0.330805
6602.1,145.476,0.331099
6607.98,146.458,0.331536
6613.92,147.441,0.332038
6619.8,148.425,0.332574
6625.68,149.41,0.333255
6631.62,150.394,0.333922
6637.5,151.378,0.334339
6643.38,152.362,0.334752
6649.32,153.346,0.335129
6655.2,154.328,0.335694
6661.08,155.313,0.336229
6667.02,156.297,0.336657
6672.9,157.28,0.337092
6678.78,158.264,0.337566
6684.72,159.244,0.337922
6690.6,159.878,0.287165
6696.48,159.979,0.117594
6702.42,159.997,0.0777244
6708.3,160.003,0.0708383
6714.18,160.011,0.0689279
6720.12,160.018,0.0675545
6726,160.023,0.0663342
6731.88,160.028,0.0653278
6737.82,160.032,0.0644166
6743.7,160.036,0.063604
6749.58,160.039,0.0628184
6755.52,160.041,0.0621157
6761.4,160.043,0.0615028
6767.28,160.045,0.0609842
6773.22,160.046,0.0605085
6779.1,160.046,0.0599237
6784.98,160.046,0.0594718
6790.92,160.047,0.0592625
6796.8,160.047,0.0589811
6802.68,160.047,0.0586482
6808.62,160.048,0.0584107
6814.5,160.047,0.0581729
6820.38,160.048,0.0579547
6826.32,160.048,0.05773
6832.2,160.047,0.0574384
6838.08,160.047,0.0572789
6844.02,160.047,0.0569984
6849.9,160.046,0.0568443
6855.78,160.046,0.0567984
6861.72,160.046,0.0566867
6867.6,160.046,0.0565952
6873.48,160.047,0.0564942
6879.42,160.047,0.0563654
6885.3,160.047,0.0561933
6891.18,160.048,0.0560092
6897.12,160.048,0.055961
6903,160.048,0.0557112
6908.88,160.048,0.0555057
6914.82,160.048,0.0552977
6920.7,160.048,0.05512
6926.58,160.048,0.0551353
6932.52,160.048,0.0549511
6938.4,160.047,0.0548871
6944.28,160.047,0.0548521
6950.22,160.046,0.0547334
6956.1,160.047,0.0545563
6961.98,160.047,0.0544238
6967.92,160.046,0.0542574
6973.8,160.046,0.0541715
6979.68,160.046,0.0540126
6985.62,160.046,0.0539298
6991.5,160.046,0.0538755
6997.38,160.046,0.0538913
7003.32,160.046,0.0537322
7009.2,160.046,0.0536658
7015.08,160.046,0.0535871
7021.02,160.046,0.0536042
7026.9,160.046,0.0535301
7032.78,160.047,0.0534398
7038.72,160.046,0.0533692
7044.6,160.046,0.0532864
7050.48,160.045,0.0530826
7056.42,160.046,0.0529915
7062.3,160.045,0.0529226
7068.18,160.046,0.0529341
7074.12,160.046,0.0528838
7080,160.046,0.0527708
7085.88,160.046,0.052586
7091.82,160.046,0.0524972
7097.7,160.046,0.0524629
7103.58,160.047,0.0524486
7109.52,160.047,0.0524152
7115.4,160.047,0.0523867
7121.28,160.047,0.0522385
7127.22,160.046,0.0521675
7133.1,160.047,0.0521248
7138.98,160.047,0.0521033
7144.92,160.046,0.0520399
7150.8,160.046,0.0519874
7156.68,160.045,0.0519678
7162.62,160.045,0.0519551
7168.5,160.046,0.0520097
7174.38,160.045,0.05204
7180.32,160.046,0.0521495
7186.2,160.046,0.0521699
7192.08,160.046,0.0521142
7198.02,160.046,0.0520629
7203.9,160.045,0.0519242
7209.78,160.045,0.0518739
7215.72,160.045,0.0517861
7221.6,160.045,0.0516637
7227.48,160.045,0.0516899
7233.42,160.045,0.0516874
7239.3,160.045,0.0516862
7245.18,160.046,0.0517019
7251.12,160.046,0.0516919
7257,160.046,0.0516172
7262.88,160.045,0.051506
7268.82,160.046,0.0515029
7274.7,160.046,0.0514585
7280.58,160.047,0.0514211
7286.52,160.025,0.0522058
7292.4,159.498,-0.095233
7298.28,158.597,-0.199945
7304.22,157.636,-0.214424
7310.1,156.666,-0.216314
7315.98,155.693,-0.217487
7321.92,154.72,-0.218479
7327.8,153.745,-0.219491
7333.68,152.769,-0.220438
7339.62,151.791,-0.221115
7345.5,150.812,-0.22186
7351.38,149.833,-0.222416
7357.32,148.853,-0.222957
7363.2,147.872,-0.22336
7369.08,146.891,-0.223605
7375.02,145.91,-0.223969
7380.9,144.927,-0.224271
7386.78,143.945,-0.224549
7392.72,142.962,-0.2245
7398.6,141.98,-0.224534
7404.48,140.998,-0.224532
7410.42,140.015,-0.224572
7416.3,139.033,-0.224596
7422.18,138.05,-0.224594
7428.12,137.068,-0.224523
7434,136.086,-0.224429
7439.88,135.103,-0.224372
7445.82,134.121,-0.224337
7451.7,133.138,-0.224289
7457.58,132.155,-0.224035
7463.52,131.172,-0.223768
7469.4,130.189,-0.223413
7475.28,129.205,-0.222871
7481.22,128.222,-0.222228
7487.1,127.238,-0.221334
7492.98,126.256,-0.220253
7498.92,125.273,-0.218881
7504.8,124.29,-0.217319
7510.68,123.306,-0.215541
7516.62,122.322,-0.21366
7522.5,121.339,-0.211614
7528.38,120.355,-0.209357
7534.32,119.372,-0.207177
7540.2,118.39,-0.204684
7546.08,117.408,-0.202466
7552.02,116.424,-0.200617
7557.9,115.442,-0.198579
7563.78,114.459,-0.196649
7569.72,113.476,-0.194811
7575.6,112.493,-0.193095
7581.48,111.511,-0.191319
7587.42,110.527,-0.189813
7593.3,109.544,-0.188398
7599.18,108.561,-0.186983
7605.12,107.578,-0.185591
7611,106.596,-0.184354
7616.88,105.612,-0.18321
7622.82,104.629,-0.182203
7628.7,103.646,-0.181093
7634.58,102.663,-0.180189
7640.52,101.68,-0.179213
7646.4,100.696,-0.178486
7652.28,99.713,-0.177419
7658.22,98.728,-0.176623
7664.1,97.746,-0.175862
7669.98,96.763,-0.175013
7675.92,95.781,-0.174247
7681.8,94.798,-0.173549
7687.68,93.814,-0.172928
7693.62,92.832,-0.172325
7699.5,91.849,-0.171802
7705.38,90.866,-0.171302
7711.32,89.884,-0.170669
7717.2,88.901,-0.170176
7723.08,87.918,-0.169752
7729.02,86.935,-0.169228
7734.9,85.952,-0.16879
7740.78,84.969,-0.168361
7746.72,83.986,-0.167756
7752.6,83.004,-0.16748
7758.48,82.022,-0.167118
7764.42,81.038,-0.16669
7770.3,80.055,-0.166483
7776.18,79.072,-0.166096
7782.12,78.089,-0.165789
7788,77.107,-0.165338
7793.88,76.124,-0.165027
7799.82,75.142,-0.164727
7805.7,74.16,-0.164537
7811.58,73.177,-0.164325
7817.52,72.193,-0.164135
7823.4,71.21,-0.163931
7829.28,70.227,-0.163683
7835.22,69.244,-0.163514
7841.1,68.261,-0.163496
7846.98,67.278,-0.163545
7852.92,66.295,-0.16365
7858.8,65.313,-0.163543
7864.68,64.33,-0.163392
7870.62,63.347,-0.163245
7876.5,62.364,-0.163047
7882.38,61.381,-0.162723
7888.32,60.399,-0.162503
7894.2,59.416,-0.162271
7900.08,58.433,-0.162162
7906.02,57.45,-0.161949
7911.9,56.467,-0.161654
7917.78,55.484,-0.16158
7923.72,54.501,-0.161522
7929.6,53.517,-0.161491
7935.48,52.535,-0.161439
7941.42,51.551,-0.161402
7947.3,50.57,-0.161092
7953.18,49.586,-0.161227
7959.12,48.602,-0.161152
7965,47.62,-0.161138
7970.88,46.638,-0.161097
7976.82,45.655,-0.161069
7982.7,44.672,-0.160876
7988.58,43.689,-0.160892
7994.52,42.707,-0.160842
8000.4,41.724,-0.160748
8006.28,40.741,-0.160653
8012.22,39.759,-0.160428
8018.1,38.776,-0.160198
8023.98,37.794,-0.160132
8029.92,36.811,-0.159945
8035.8,35.829,-0.159887
8041.68,34.846,-0.159726
8047.62,33.863,-0.159442
8053.5,32.881,-0.159244
8059.38,31.899,-0.159008
8065.32,30.917,-0.158604
8071.2,29.934,-0.158299
8077.08,28.952,-0.158033
8083.02,27.969,-0.157832
8088.9,26.986,-0.157597
8094.78,26.004,-0.157382
8100.72,25.021,-0.156954
8106.6,24.037,-0.156764
8112.48,23.054,-0.156529
8118.42,22.071,-0.156177
8124.3,21.089,-0.155933
8130.18,20.104,-0.155639
8136.12,19.122,-0.155377
8142,18.138,-0.155184
8147.88,17.155,-0.154902
8153.82,16.172,-0.154729
8159.7,15.189,-0.154492
8165.58,14.206,-0.154294
8171.52,13.224,-0.154059
8177.4,12.241,-0.153678
8183.28,11.258,-0.153481
8189.22,10.275,-0.153185
8195.1,9.292,-0.152907
8200.98,8.309,-0.152824
8206.92,7.324,-0.15264
8212.8,6.34,-0.152478
8218.68,5.357,-0.152217
8224.62,4.372,-0.152051
8230.5,3.39,-0.151763
8236.38,2.408,-0.151427
8242.32,1.425,-0.151198
8248.2,0.443,-0.15075
8254.08,-0.54,-0.150637
8260.02,-1.523,-0.150475
8265.9,-2.505,-0.150177
8271.78,-3.489,-0.150145
8277.72,-4.472,-0.150056
8283.6,-5.456,-0.150049
8289.48,-6.439,-0.149772
8295.42,-7.422,-0.149543
8301.3,-8.404,-0.149454
8307.18,-9.387,-0.149328
8313.12,-10.371,-0.149271
8319,-11.354,-0.14923
8324.88,-12.337,-0.149026
8330.82,-13.321,-0.149058
8336.7,-14.304,-0.148949
8342.58,-15.287,-0.148979
8348.52,-16.27,-0.148979
8354.4,-17.254,-0.148978
8360.28,-18.237,-0.148874
8366.22,-19.22,-0.148794
8372.1,-20.203,-0.148699
8377.98,-21.186,-0.14889
8383.92,-22.17,-0.148968
8389.8,-23.152,-0.148921
8395.68,-24.136,-0.148974
8401.62,-25.119,-0.148955
8407.5,-26.103,-0.148921
8413.38,-27.086,-0.148991
8419.32,-28.069,-0.148974
8425.2,-29.053,-0.148855
8431.08,-30.036,-0.148817
8437.02,-31.019,-0.148774
8442.9,-32.003,-0.148808
8448.78,-32.987,-0.148691
8454.72,-33.97,-0.148703
8460.6,-34.953,-0.148679
8466.48,-35.937,-0.1488
8472.42,-36.92,-0.148867
8478.3,-37.904,-0.148699
8484.18,-38.887,-0.148773
8490.12,-39.871,-0.14875
8496,-40.855,-0.148718
8501.88,-41.838,-0.148792
8507.82,-42.822,-0.148783
8513.7,-43.805,-0.148895
8519.58,-44.789,-0.148918
8525.52,-45.773,-0.148922
8531.4,-46.757,-0.149086
8537.28,-47.74,-0.149228
8543.22,-48.724,-0.14917
8549.1,-49.707,-0.149188
8554.98,-50.692,-0.149227
8560.92,-51.676,-0.149336
8566.8,-52.659,-0.149421
8572.68,-53.643,-0.14957
8578.62,-54.627,-0.149626
8584.5,-55.61,-0.14974
8590.38,-56.594,-0.149719
8596.32,-57.578,-0.149783
8602.2,-58.551,-0.149793
8608.08,-59.502,-0.149115
8614.02,-60.43,-0.147197
8619.9,-61.333,-0.144854
8625.78,-62.215,-0.142069
8631.72,-63.076,-0.139208
8637.6,-63.915,-0.136221
8643.48,-64.733,-0.132779
8649.42,-65.532,-0.12991
8655.3,-66.312,-0.126144
8661.18,-67.074,-0.123447
8667.12,-67.816,-0.120606
8673,-68.542,-0.11784
8678.88,-69.25,-0.115025
8684.82,-69.941,-0.112194
8690.7,-70.616,-0.10939
8696.58,-71.275,-0.106687
8702.52,-71.918,-0.104037
8708.4,-72.546,-0.101407
8714.28,-73.16,-0.0988306
8720.22,-73.759,-0.0962734
8726.1,-74.343,-0.0936726
8731.98,-74.914,-0.0912956
8737.92,-75.471,-0.0888919
8743.8,-76.015,-0.0865697
8749.68,-76.546,-0.0844448
8755.62,-77.064,-0.0821828
8761.5,-77.57,-0.0799361
8767.38,-78.066,-0.0778667
8773.32,-78.556,-0.075796
8779.2,-79.044,
8779.92,,