File: Non-charring/PMMA/UMET/UMET_TGA_N2_5.csv
Time,Temperature,Mass
[s],[K],[mg]
0,313.115,3.9289
0.025,313.615,3.9289
0.05,314.115,3.9289
0.075,314.615,3.9289
0.1,315.115,3.9289
0.125,315.615,3.9289
0.15,316.115,3.9289
0.175,316.615,3.9289
0.2,317.115,3.9289
0.225,317.615,3.9289
0.25,318.115,3.9289
0.275,318.615,3.9289
0.3,319.115,3.9289
0.325,319.615,3.9289
0.35,320.115,3.9289
0.375,320.615,3.9289
0.4,321.115,3.9289
0.425,321.615,3.9289
0.45,322.115,3.9289
0.475,322.615,3.9289
0.5,323.115,3.9289
0.525,323.615,3.9289
0.55,324.115,3.9289
0.575,324.615,3.9289
0.6,325.115,3.9289
0.625,325.615,3.9289
0.65,326.115,3.9289
0.675,326.615,3.9289
0.7,327.115,3.9289
0.725,327.615,3.9289
0.75,328.115,3.9289
0.775,328.615,3.9289
0.8,329.115,3.9289
0.825,329.615,3.9289
0.85,330.115,3.9289
0.875,330.615,3.9289
0.9,331.115,3.9289
0.925,331.615,3.9289
0.95,332.115,3.9289
0.975,332.615,3.9289
1,333.115,3.9289
1.025,333.615,3.9289
1.05,334.115,3.9289
1.075,334.615,3.9289
1.1,335.115,3.9289
1.125,335.615,3.9289
1.15,336.115,3.9289
1.175,336.615,3.9289
1.2,337.115,3.9289
1.225,337.615,3.9289
1.25,338.115,3.9289
1.275,338.615,3.9289
1.3,339.115,3.9289
1.325,339.615,3.9289
1.35,340.115,3.9289
1.375,340.615,3.9289
1.4,341.115,3.9289
1.425,341.615,3.9289
1.45,342.115,3.9289
1.475,342.615,3.9289
1.5,343.115,3.9289
1.525,343.615,3.9289
1.55,344.115,3.9289
1.575,344.615,3.9289
1.6,345.115,3.9289
1.625,345.615,3.9289
1.65,346.115,3.9289
1.675,346.615,3.9289
1.7,347.115,3.9289
1.725,347.615,3.9289
1.75,348.115,3.9289
1.775,348.615,3.9289
1.8,349.115,3.9289
1.825,349.615,3.9289
1.85,350.115,3.9289
1.875,350.615,3.9289
1.9,351.115,3.9289
1.925,351.615,3.9289
1.95,352.115,3.9289
1.975,352.615,3.9289
2,353.115,3.9289
2.025,353.615,3.9289
2.05,354.115,3.9289
2.075,354.615,3.9289
2.1,355.115,3.9289
2.125,355.615,3.9289
2.15,356.115,3.9289
2.175,356.615,3.9289
2.2,357.115,3.9289
2.225,357.615,3.9289
2.25,358.115,3.9289
2.275,358.615,3.9289
2.3,359.115,3.9289
2.325,359.615,3.9289
2.35,360.115,3.9289
2.375,360.615,3.9289
2.4,361.115,3.9289
2.425,361.615,3.9289
2.45,362.115,3.9289
2.475,362.615,3.9289
2.5,363.115,3.9289
2.525,363.615,3.9289
2.55,364.115,3.9289
2.575,364.615,3.9289
2.6,365.115,3.9289
2.625,365.615,3.9289
2.65,366.115,3.9289
2.675,366.615,3.9289
2.7,367.115,3.9289
2.725,367.615,3.9289
2.75,368.115,3.9289
2.775,368.615,3.9289
2.8,369.115,3.9289
2.825,369.615,3.9289
2.85,370.115,3.9289
2.875,370.615,3.9289
2.9,371.115,3.9289
2.925,371.615,3.9289
2.95,372.115,3.9289
2.975,372.615,3.9289
3,373.115,3.9289
3.025,373.615,3.9289
3.05,374.115,3.9289
3.075,374.615,3.9289
3.1,375.115,3.9289
3.125,375.615,3.9289
3.15,376.115,3.9289
3.175,376.615,3.9289
3.2,377.115,3.9289
3.225,377.615,3.9289
3.25,378.115,3.9289
3.275,378.615,3.9289
3.3,379.115,3.9289
3.325,379.615,3.9289
3.35,380.115,3.9289
3.375,380.615,3.9289
3.4,381.115,3.9289
3.425,381.615,3.9289
3.45,382.115,3.9289
3.475,382.615,3.9289
3.5,383.115,3.9289
3.525,383.615,3.9289
3.55,384.115,3.9289
3.575,384.615,3.9289
3.6,385.115,3.9289
3.625,385.615,3.9289
3.65,386.115,3.9289
3.675,386.615,3.9289
3.7,387.115,3.9289
3.725,387.615,3.9289
3.75,388.115,3.9289
3.775,388.615,3.9289
3.8,389.115,3.9289
3.825,389.615,3.9289
3.85,390.115,3.9289
3.875,390.615,3.9289
3.9,391.115,3.9289
3.925,391.615,3.9289
3.95,392.115,3.9289
3.975,392.615,3.9289
4,393.115,3.9289
4.025,393.615,3.9289
4.05,394.115,3.9289
4.075,394.615,3.9289
4.1,395.115,3.9289
4.125,395.615,3.9289
4.15,396.115,3.9289
4.175,396.615,3.9289
4.2,397.115,3.9289
4.225,397.615,3.9289
4.25,398.115,3.9289
4.275,398.615,3.9289
4.3,399.115,3.9289
4.325,399.615,3.9289
4.35,400.115,3.9289
4.375,400.615,3.9289
4.4,401.115,3.9289
4.425,401.615,3.9289
4.45,402.115,3.9289
4.475,402.615,3.9289
4.5,403.115,3.9289
4.525,403.615,3.9289
4.55,404.115,3.9289
4.575,404.615,3.9289
4.6,405.115,3.9289
4.625,405.615,3.9289
4.65,406.115,3.9289
4.675,406.615,3.9289
4.7,407.115,3.9289
4.725,407.615,3.9289
4.75,408.115,3.9289
4.775,408.615,3.9289
4.8,409.115,3.9289
4.825,409.615,3.9289
4.85,410.115,3.9289
4.875,410.615,3.9289
4.9,411.115,3.9289
4.925,411.615,3.9289
4.95,412.115,3.9289
4.975,412.615,3.9289
5,413.115,3.9289
5.025,413.615,3.9289
5.05,414.115,3.9289
5.075,414.615,3.9289
5.1,415.115,3.9289
5.125,415.615,3.9289
5.15,416.115,3.9289
5.175,416.615,3.9289
5.2,417.115,3.9289
5.225,417.615,3.9289
5.25,418.115,3.9289
5.275,418.615,3.9289
5.3,419.115,3.9289
5.325,419.615,3.9289
5.35,420.115,3.9289
5.375,420.615,3.9289
5.4,421.115,3.9289
5.425,421.615,3.9289
5.45,422.115,3.9289
5.475,422.615,3.9289
5.5,423.115,3.9289
5.525,423.615,3.9289
5.55,424.115,3.9289
5.575,424.615,3.9289
5.6,425.115,3.9289
5.625,425.615,3.9289
5.65,426.115,3.9289
5.675,426.615,3.9289
5.7,427.115,3.9289
5.725,427.615,3.9289
5.75,428.115,3.9289
5.775,428.615,3.9289
5.8,429.115,3.9289
5.825,429.615,3.9289
5.85,430.115,3.9289
5.875,430.615,3.9289
5.9,431.115,3.9289
5.925,431.615,3.9289
5.95,432.115,3.9289
5.975,432.615,3.9289
6,433.115,3.9289
6.025,433.615,3.9289
6.05,434.115,3.9289
6.075,434.615,3.9289
6.1,435.115,3.9289
6.125,435.615,3.9289
6.15,436.115,3.9289
6.175,436.615,3.92838
6.2,437.115,3.92788
6.225,437.615,3.92759
6.25,438.115,3.92721
6.275,438.615,3.9272
6.3,439.115,3.92719
6.325,439.615,3.92744
6.35,440.115,3.92801
6.375,440.615,3.92813
6.4,441.115,3.92802
6.425,441.615,3.92756
6.45,442.115,3.9264
6.475,442.615,3.92527
6.5,443.115,3.92454
6.525,443.615,3.92396
6.55,444.115,3.92369
6.575,444.615,3.92319
6.6,445.115,3.92279
6.625,445.615,3.9226
6.65,446.115,3.9227
6.675,446.615,3.92292
6.7,447.115,3.9233
6.725,447.615,3.9237
6.75,448.115,3.924
6.775,448.615,3.9242
6.8,449.115,3.9246
6.825,449.615,3.92438
6.85,450.115,3.9241
6.875,450.615,3.92339
6.9,451.115,3.92269
6.925,451.615,3.922
6.95,452.115,3.92118
6.975,452.615,3.92016
7,453.115,3.91909
7.025,453.615,3.9177
7.05,454.115,3.91658
7.075,454.615,3.91499
7.1,455.115,3.9137
7.125,455.615,3.91216
7.15,456.115,3.91049
7.175,456.615,3.90939
7.2,457.115,3.90829
7.225,457.615,3.90749
7.25,458.115,3.9068
7.275,458.615,3.90731
7.3,459.115,3.90833
7.325,459.615,3.91
7.35,460.115,3.9107
7.375,460.615,3.91039
7.4,461.115,3.90908
7.425,461.615,3.90759
7.45,462.115,3.90599
7.475,462.615,3.90378
7.5,463.115,3.90109
7.525,463.615,3.89818
7.55,464.115,3.89527
7.575,464.615,3.89308
7.6,465.115,3.89169
7.625,465.615,3.89111
7.65,466.115,3.89078
7.675,466.615,3.88999
7.7,467.115,3.89021
7.725,467.615,3.89072
7.75,468.115,3.89141
7.775,468.615,3.89099
7.8,469.115,3.8903
7.825,469.615,3.8893
7.85,470.115,3.8883
7.875,470.615,3.8872
7.9,471.115,3.8858
7.925,471.615,3.88441
7.95,472.115,3.88311
7.975,472.615,3.88221
8,473.115,3.882
8.025,473.615,3.88119
8.05,474.115,3.88071
8.075,474.615,3.88029
8.1,475.115,3.8803
8.125,475.615,3.88042
8.15,476.115,3.87933
8.175,476.615,3.87736
8.2,477.115,3.87475
8.225,477.615,3.87235
8.25,478.115,3.87043
8.275,478.615,3.86913
8.3,479.115,3.86773
8.325,479.615,3.86651
8.35,480.115,3.86521
8.375,480.615,3.8647
8.4,481.115,3.8644
8.425,481.615,3.86401
8.45,482.115,3.8632
8.475,482.615,3.86251
8.5,483.115,3.8621
8.525,483.615,3.8619
8.55,484.115,3.8619
8.575,484.615,3.8621
8.6,485.115,3.8617
8.625,485.615,3.861
8.65,486.115,3.8592
8.675,486.615,3.85749
8.7,487.115,3.85559
8.725,487.615,3.85489
8.75,488.115,3.8543
8.775,488.615,3.8542
8.8,489.115,3.8538
8.825,489.615,3.8533
8.85,490.115,3.8527
8.875,490.615,3.8519
8.9,491.115,3.8512
8.925,491.615,3.8507
8.95,492.115,3.8503
8.975,492.615,3.8501
9,493.115,3.85
9.025,493.615,3.8496
9.05,494.115,3.8491
9.075,494.615,3.8484
9.1,495.115,3.8477
9.125,495.615,3.8463
9.15,496.115,3.84469
9.175,496.615,3.84265
9.2,497.115,3.84118
9.225,497.615,3.84017
9.25,498.115,3.83929
9.275,498.615,3.83859
9.3,499.115,3.83809
9.325,499.615,3.83791
9.35,500.115,3.8377
9.375,500.615,3.83759
9.4,501.115,3.8374
9.425,501.615,3.8375
9.45,502.115,3.8374
9.475,502.615,3.8372
9.5,503.115,3.8366
9.525,503.615,3.8359
9.55,504.115,3.8349
9.575,504.615,3.83341
9.6,505.115,3.83261
9.625,505.615,3.8318
9.65,506.115,3.83179
9.675,506.615,3.83218
9.7,507.115,3.83248
9.725,507.615,3.83288
9.75,508.115,3.83261
9.775,508.615,3.83182
9.8,509.115,3.83103
9.825,509.615,3.82984
9.85,510.115,3.82833
9.875,510.615,3.82613
9.9,511.115,3.82471
9.925,511.615,3.82429
9.95,512.115,3.8245
9.975,512.615,3.8245
10,513.115,3.82509
10.025,513.615,3.8259
10.05,514.115,3.82687
10.075,514.615,3.8276
10.1,515.115,3.8282
10.125,515.615,3.82853
10.15,516.115,3.82684
10.175,516.615,3.82475
10.2,517.115,3.82257
10.225,517.615,3.81987
10.25,518.115,3.81866
10.275,518.615,3.82027
10.3,519.115,3.8213
10.325,519.615,3.82013
10.35,520.115,3.82015
10.375,520.615,3.82205
10.4,521.115,3.82415
10.425,521.615,3.82479
10.45,522.115,3.8244
10.475,522.615,3.82401
10.5,523.115,3.8233
10.525,523.615,3.8232
10.55,524.115,3.82349
10.575,524.615,3.82322
10.6,525.115,3.82253
10.625,525.615,3.82165
10.65,526.115,3.82073
10.675,526.615,3.81925
10.7,527.115,3.81768
10.725,527.615,3.8167
10.75,528.115,3.81598
10.775,528.615,3.81619
10.8,529.115,3.81683
10.825,529.615,3.81811
10.85,530.115,3.81883
10.875,530.615,3.81879
10.9,531.115,3.81863
10.925,531.615,3.81811
10.95,532.115,3.81779
10.975,532.615,3.81802
11,533.115,3.81762
11.025,533.615,3.81682
11.05,534.115,3.81561
11.075,534.615,3.8145
11.1,535.115,3.8142
11.125,535.615,3.8145
11.15,536.115,3.8146
11.175,536.615,3.8147
11.2,537.115,3.81521
11.225,537.615,3.8166
11.25,538.115,3.81833
11.275,538.615,3.82142
11.3,539.115,3.8227
11.325,539.615,3.82199
11.35,540.115,3.81994
11.375,540.615,3.81682
11.4,541.115,3.8138
11.425,541.615,3.80953
11.45,542.115,3.80522
11.475,542.615,3.80258
11.5,543.115,3.80158
11.525,543.615,3.80208
11.55,544.115,3.80308
11.575,544.615,3.80448
11.6,545.115,3.8052
11.625,545.615,3.80564
11.65,546.115,3.80609
11.675,546.615,3.80582
11.7,547.115,3.80412
11.725,547.615,3.80169
11.75,548.115,3.79953
11.775,548.615,3.79837
11.8,549.115,3.79811
11.825,549.615,3.79938
11.85,550.115,3.80298
11.875,550.615,3.80492
11.9,551.115,3.80445
11.925,551.615,3.8031
11.95,552.115,3.80375
11.975,552.615,3.80544
12,553.115,3.80609
12.025,553.615,3.80513
12.05,554.115,3.80212
12.075,554.615,3.79933
12.1,555.115,3.79883
12.125,555.615,3.80003
12.15,556.115,3.8009
12.175,556.615,3.80091
12.2,557.115,3.79987
12.225,557.615,3.79817
12.25,558.115,3.79633
12.275,558.615,3.79413
12.3,559.115,3.79217
12.325,559.615,3.79139
12.35,560.115,3.79067
12.375,560.615,3.78977
12.4,561.115,3.7891
12.425,561.615,3.78858
12.45,562.115,3.78731
12.475,562.615,3.78521
12.5,563.115,3.78368
12.525,563.615,3.78279
12.55,564.115,3.78234
12.575,564.615,3.78206
12.6,565.115,3.78092
12.625,565.615,3.77945
12.65,566.115,3.77733
12.675,566.615,3.77606
12.7,567.115,3.7752
12.725,567.615,3.77437
12.75,568.115,3.77331
12.775,568.615,3.77141
12.8,569.115,3.76897
12.825,569.615,3.76681
12.85,570.115,3.76492
12.875,570.615,3.76311
12.9,571.115,3.76068
12.925,571.615,3.7578
12.95,572.115,3.75557
12.975,572.615,3.75365
13,573.115,3.75233
13.025,573.615,3.75126
13.05,574.115,3.75051
13.075,574.615,3.75013
13.1,575.115,3.75021
13.125,575.615,3.75022
13.15,576.115,3.75041
13.175,576.615,3.74937
13.2,577.115,3.74756
13.225,577.615,3.74563
13.25,578.115,3.74323
13.275,578.615,3.7398
13.3,579.115,3.73601
13.325,579.615,3.73284
13.35,580.115,3.73061
13.375,580.615,3.72929
13.4,581.115,3.72721
13.425,581.615,3.72548
13.45,582.115,3.7229
13.475,582.615,3.71996
13.5,583.115,3.71709
13.525,583.615,3.71542
13.55,584.115,3.71391
13.575,584.615,3.71183
13.6,585.115,3.70945
13.625,585.615,3.70686
13.65,586.115,3.7042
13.675,586.615,3.7018
13.7,587.115,3.69963
13.725,587.615,3.69802
13.75,588.115,3.69661
13.775,588.615,3.69533
13.8,589.115,3.69375
13.825,589.615,3.69227
13.85,590.115,3.68997
13.875,590.615,3.68717
13.9,591.115,3.68375
13.925,591.615,3.68057
13.95,592.115,3.67664
13.975,592.615,3.67249
14,593.115,3.66879
14.025,593.615,3.66491
14.05,594.115,3.66101
14.075,594.615,3.65674
14.1,595.115,3.65285
14.125,595.615,3.64951
14.15,596.115,3.6463
14.175,596.615,3.64288
14.2,597.115,3.63896
14.225,597.615,3.63438
14.25,598.115,3.62975
14.275,598.615,3.62489
14.3,599.115,3.62055
14.325,599.615,3.61628
14.35,600.115,3.61157
14.375,600.615,3.60626
14.4,601.115,3.60068
14.425,601.615,3.59087
14.45,602.115,3.57523
14.475,602.615,3.57187
14.5,603.115,3.56738
14.525,603.615,3.56225
14.55,604.115,3.55638
14.575,604.615,3.55015
14.6,605.115,3.54184
14.625,605.615,3.53098
14.65,606.115,3.51289
14.675,606.615,3.50792
14.7,607.115,3.49995
14.725,607.615,3.48802
14.75,608.115,3.48002
14.775,608.615,3.47207
14.8,609.115,3.46341
14.825,609.615,3.45252
14.85,610.115,3.44131
14.875,610.615,3.42922
14.9,611.115,3.41947
14.925,611.615,3.40854
14.95,612.115,3.39759
14.975,612.615,3.38535
15,613.115,3.3748
15.025,613.615,3.36308
15.05,614.115,3.35279
15.075,614.615,3.3399
15.1,615.115,3.32838
15.125,615.615,3.3137
15.15,616.115,3.29924
15.175,616.615,3.28207
15.2,617.115,3.26657
15.225,617.615,3.2502
15.25,618.115,3.23581
15.275,618.615,3.21811
15.3,619.115,3.19807
15.325,619.615,3.18019
15.35,620.115,3.16091
15.375,620.615,3.14282
15.4,621.115,3.12278
15.425,621.615,3.10328
15.45,622.115,3.08151
15.475,622.615,3.06101
15.5,623.115,3.03937
15.525,623.615,3.01848
15.55,624.115,2.99534
15.575,624.615,2.97406
15.6,625.115,2.95171
15.625,625.615,2.93018
15.65,626.115,2.90556
15.675,626.615,2.88053
15.7,627.115,2.8532
15.725,627.615,2.82728
15.75,628.115,2.80014
15.775,628.615,2.77463
15.8,629.115,2.74867
15.825,629.615,2.72344
15.85,630.115,2.69502
15.875,630.615,2.66485
15.9,631.115,2.63146
15.925,631.615,2.60136
15.95,632.115,2.57168
15.975,632.615,2.54037
16,633.115,2.5101
16.025,633.615,2.47998
16.05,634.115,2.45078
16.075,634.615,2.41914
16.1,635.115,2.38492
16.125,635.615,2.35176
16.15,636.115,2.31853
16.175,636.615,2.28666
16.2,637.115,2.25343
16.225,637.615,2.21899
16.25,638.115,2.1814
16.275,638.615,2.14279
16.3,639.115,2.10547
16.325,639.615,2.07017
16.35,640.115,2.03617
16.375,640.615,2.00126
16.4,641.115,1.96768
16.425,641.615,1.92907
16.45,642.115,1.88983
16.475,642.615,1.84979
16.5,643.115,1.81708
16.525,643.615,1.78161
16.55,644.115,1.74327
16.575,644.615,1.71001
16.6,645.115,1.67257
16.625,645.615,1.63992
16.65,646.115,1.60253
16.675,646.615,1.57039
16.7,647.115,1.53402
16.725,647.615,1.50092
16.75,648.115,1.46274
16.775,648.615,1.42931
16.8,649.115,1.39293
16.825,649.615,1.36061
16.85,650.115,1.32575
16.875,650.615,1.29325
16.9,651.115,1.25908
16.925,651.615,1.22633
16.95,652.115,1.19264
16.975,652.615,1.15972
17,653.115,1.12799
17.025,653.615,1.09636
17.05,654.115,1.0662
17.075,654.615,1.03402
17.1,655.115,1.00387
17.125,655.615,0.971961
17.15,656.115,0.942998
17.175,656.615,0.911782
17.2,657.115,0.884146
17.225,657.615,0.853741
17.25,658.115,0.823741
17.275,658.615,0.79886
17.3,659.115,0.771094
17.325,659.615,0.745994
17.35,660.115,0.717326
17.375,660.615,0.691156
17.4,661.115,0.662255
17.425,661.615,0.640257
17.45,662.115,0.616265
17.475,662.615,0.595238
17.5,663.115,0.570937
17.525,663.615,0.549755
17.55,664.115,0.526672
17.575,664.615,0.507394
17.6,665.115,0.486144
17.625,665.615,0.466825
17.65,666.115,0.446465
17.675,666.615,0.428056
17.7,667.115,0.409202
17.725,667.615,0.392507
17.75,668.115,0.375611
17.775,668.615,0.360043
17.8,669.115,0.344309
17.825,669.615,0.330238
17.85,670.115,0.316889
17.875,670.615,0.30295
17.9,671.115,0.290049
17.925,671.615,0.277912
17.95,672.115,0.266182
17.975,672.615,0.254985
18,673.115,0.242598
18.025,673.615,0.231624
18.05,674.115,0.220333
18.075,674.615,0.210112
18.1,675.115,0.200121
18.125,675.615,0.192031
18.15,676.115,0.1874
18.175,676.615,0.183314
18.2,677.115,0.179123
18.225,677.615,0.17394
18.25,678.115,0.167288
18.275,678.615,0.154827
18.3,679.115,0.137723
18.325,679.615,0.134983
18.35,680.115,0.133608
18.375,680.615,0.133232
18.4,681.115,0.130568
18.425,681.615,0.125689
18.45,682.115,0.121217
18.475,682.615,0.117658
18.5,683.115,0.113828
18.525,683.615,0.109143
18.55,684.115,0.104264
18.575,684.615,0.0991835
18.6,685.115,0.0938378
18.625,685.615,0.0890772
18.65,686.115,0.0850465
18.675,686.615,0.08195489
18.7,687.115,0.07933392
18.725,687.615,0.0768697
18.75,688.115,0.0731255
18.775,688.615,0.0688166
18.8,689.115,0.0638324
18.825,689.615,0.0605719
18.85,690.115,0.057303
18.875,690.615,0.0546408
18.9,691.115,0.052406
18.925,691.615,0.051599
18.95,692.115,0.0506011
18.975,692.615,0.04888416
19,693.115,0.0474918
19.025,693.615,0.0467822
19.05,694.115,0.04598581
19.075,694.615,0.0450484
19.1,695.115,0.0438053
19.125,695.615,0.0439279
19.15,696.115,0.04516742
19.175,696.615,0.0462974
19.2,697.115,0.0468345
19.225,697.615,0.04704622
19.25,698.115,0.0466926
19.275,698.615,0.045954
19.3,699.115,0.0445506
19.325,699.615,0.0428702
19.35,700.115,0.0413847
19.375,700.615,0.0402975
19.4,701.115,0.0395998
19.425,701.615,0.0392878
19.45,702.115,0.0388399
19.475,702.615,0.037888
19.5,703.115,0.0367847
19.525,703.615,0.0359726
19.55,704.115,0.0352587
19.575,704.615,0.034601
19.6,705.115,0.03373275
19.625,705.615,0.0325957
19.65,706.115,0.0310281
19.675,706.615,0.0290845
19.7,707.115,0.02782722
19.725,707.615,0.02741
19.75,708.115,0.0276591
19.775,708.615,0.02830301
19.8,709.115,0.0282307
19.825,709.615,0.027529
19.85,710.115,0.02642146
19.875,710.615,0.02539916
19.9,711.115,0.0252601
19.925,711.615,0.02577
19.95,712.115,0.0269287
19.975,712.615,0.027861
20,713.115,0.0286975
20.025,713.615,0.0289749
20.05,714.115,0.0292711
20.075,714.615,0.0296923
20.1,715.115,0.0302058
20.125,715.615,0.0304989
20.15,716.115,0.0300156
20.175,716.615,0.02960544
20.2,717.115,0.0290082
20.225,717.615,0.0282071
20.25,718.115,0.0276033
20.275,718.615,0.0267916
20.3,719.115,0.0263936
20.325,719.615,0.0264941
20.35,720.115,0.0266969
20.375,720.615,0.02719231
20.4,721.115,0.0275919
20.425,721.615,0.0272882
20.45,722.115,0.0270913
20.475,722.615,0.0266949
20.5,723.115,0.0265987
20.525,723.615,0.026181
20.55,724.115,0
20.575,724.615,0
20.6,725.115,0
20.625,725.615,0
20.65,726.115,0
20.675,726.615,0
20.7,727.115,0
20.725,727.615,0
20.75,728.115,0
20.775,728.615,0
20.8,729.115,0
20.825,729.615,0
20.85,730.115,0
20.875,730.615,0
20.9,731.115,0
20.925,731.615,0
20.95,732.115,0
20.975,732.615,0
21,733.115,0
21.025,733.615,0
21.05,734.115,0
21.075,734.615,0
21.1,735.115,0
21.125,735.615,0
21.15,736.115,0
21.175,736.615,0
21.2,737.115,0
21.225,737.615,0
21.25,738.115,0
21.275,738.615,0
21.3,739.115,0
21.325,739.615,0
21.35,740.115,0
21.375,740.615,0
21.4,741.115,0
21.425,741.615,0
21.45,742.115,0
21.475,742.615,0
21.5,743.115,0
21.525,743.615,0
21.55,744.115,0
21.575,744.615,0
21.6,745.115,0
21.625,745.615,0
21.65,746.115,0
21.675,746.615,0
21.7,747.115,0
21.725,747.615,0
21.75,748.115,0
21.775,748.615,0
21.8,749.115,0
21.825,749.615,0
21.85,750.115,0
21.875,750.615,0
21.9,751.115,0
21.925,751.615,0
21.95,752.115,0
21.975,752.615,0
22,753.115,0
22.025,753.615,0
22.05,754.115,0
22.075,754.615,0
22.1,755.115,0
22.125,755.615,0
22.15,756.115,0
22.175,756.615,0
22.2,757.115,0
22.225,757.615,0
22.25,758.115,0
22.275,758.615,0
22.3,759.115,0
22.325,759.615,0
22.35,760.115,0
22.375,760.615,0
22.4,761.115,0
22.425,761.615,0
22.45,762.115,0
22.475,762.615,0
22.5,763.115,0
22.525,763.615,0
22.55,764.115,0
22.575,764.615,0
22.6,765.115,0
22.625,765.615,0
22.65,766.115,0
22.675,766.615,0
22.7,767.115,0
22.725,767.615,0
22.75,768.115,0
22.775,768.615,0
22.8,769.115,0
22.825,769.615,0
22.85,770.115,0
22.875,770.615,0
22.9,771.115,0
22.925,771.615,0
22.95,772.115,0
22.975,772.615,0
23,773.115,0
23.025,773.615,0