File: Non-charring/PMMA/UMET/UMET_TGA_N2_7.csv
Time,Temperature,Mass
[s],[K],[mg]
0,313.115,5.3644
0.005,313.615,5.35634
0.01,314.115,5.3549
0.015,314.615,5.3544
0.02,315.115,5.3535
0.025,315.615,5.3528
0.03,316.115,5.35375
0.035,316.615,5.35387
0.04,317.115,5.354
0.045,317.615,5.35431
0.05,318.115,5.35443
0.055,318.615,5.35449
0.06,319.115,5.3545
0.065,319.615,5.3544
0.07,320.115,5.35451
0.075,320.615,5.35449
0.08,321.115,5.35452
0.085,321.615,5.3546
0.09,322.115,5.35477
0.095,322.615,5.3546
0.1,323.115,5.3546
0.105,323.615,5.3546
0.11,324.115,5.3546
0.115,324.615,5.3546
0.12,325.115,5.35472
0.125,325.615,5.3546
0.13,326.115,5.3546
0.135,326.615,5.35468
0.14,327.115,5.3546
0.145,327.615,5.3548
0.15,328.115,5.35462
0.155,328.615,5.3546
0.16,329.115,5.35456
0.165,329.615,5.35447
0.17,330.115,5.35471
0.175,330.615,5.3546
0.18,331.115,5.3546
0.185,331.615,5.3547
0.19,332.115,5.35461
0.195,332.615,5.3548
0.2,333.115,5.35458
0.205,333.615,5.35489
0.21,334.115,5.3545
0.215,334.615,5.35469
0.22,335.115,5.3548
0.225,335.615,5.35475
0.23,336.115,5.35472
0.235,336.615,5.35469
0.24,337.115,5.35466
0.245,337.615,5.35489
0.25,338.115,5.35477
0.255,338.615,5.35451
0.26,339.115,5.35462
0.265,339.615,5.3549
0.27,340.115,5.3546
0.275,340.615,5.35463
0.28,341.115,5.35484
0.285,341.615,5.35471
0.29,342.115,5.35486
0.295,342.615,5.3546
0.3,343.115,5.355
0.305,343.615,5.35461
0.31,344.115,5.35489
0.315,344.615,5.35482
0.32,345.115,5.35494
0.325,345.615,5.35481
0.33,346.115,5.35485
0.335,346.615,5.35497
0.34,347.115,5.35473
0.345,347.615,5.3549
0.35,348.115,5.35471
0.355,348.615,5.35497
0.36,349.115,5.35496
0.365,349.615,5.35506
0.37,350.115,5.3549
0.375,350.615,5.35491
0.38,351.115,5.35495
0.385,351.615,5.35486
0.39,352.115,5.355
0.395,352.615,5.35489
0.4,353.115,5.35473
0.405,353.615,5.355
0.41,354.115,5.35501
0.415,354.615,5.3548
0.42,355.115,5.35466
0.425,355.615,5.35486
0.43,356.115,5.35491
0.435,356.615,5.35479
0.44,357.115,5.35473
0.445,357.615,5.35472
0.45,358.115,5.35449
0.455,358.615,5.35456
0.46,359.115,5.35473
0.465,359.615,5.3545
0.47,360.115,5.35437
0.475,360.615,5.35453
0.48,361.115,5.3544
0.485,361.615,5.35444
0.49,362.115,5.35463
0.495,362.615,5.35427
0.5,363.115,5.35442
0.505,363.615,5.3544
0.51,364.115,5.35427
0.515,364.615,5.35447
0.52,365.115,5.35444
0.525,365.615,5.35428
0.53,366.115,5.35441
0.535,366.615,5.35433
0.54,367.115,5.35423
0.545,367.615,5.35425
0.55,368.115,5.35408
0.555,368.615,5.35436
0.56,369.115,5.35438
0.565,369.615,5.35417
0.57,370.115,5.3543
0.575,370.615,5.35432
0.58,371.115,5.3544
0.585,371.615,5.3544
0.59,372.115,5.3544
0.595,372.615,5.3544
0.6,373.115,5.35445
0.605,373.615,5.3544
0.61,374.115,5.35429
0.615,374.615,5.3543
0.62,375.115,5.35422
0.625,375.615,5.35439
0.63,376.115,5.3544
0.635,376.615,5.3544
0.64,377.115,5.3544
0.645,377.615,5.3544
0.65,378.115,5.3544
0.655,378.615,5.3544
0.66,379.115,5.35428
0.665,379.615,5.3544
0.67,380.115,5.3544
0.675,380.615,5.3544
0.68,381.115,5.3544
0.685,381.615,5.3544
0.69,382.115,5.3544
0.695,382.615,5.3544
0.7,383.115,5.3544
0.705,383.615,5.3544
0.71,384.115,5.3544
0.715,384.615,5.35441
0.72,385.115,5.3543
0.725,385.615,5.3543
0.73,386.115,5.3543
0.735,386.615,5.3543
0.74,387.115,5.3543
0.745,387.615,5.3543
0.75,388.115,5.35426
0.755,388.615,5.3542
0.76,389.115,5.3542
0.765,389.615,5.3542
0.77,390.115,5.3542
0.775,390.615,5.35411
0.78,391.115,5.354
0.785,391.615,5.35399
0.79,392.115,5.35411
0.795,392.615,5.3541
0.8,393.115,5.3541
0.805,393.615,5.3541
0.81,394.115,5.35399
0.815,394.615,5.35399
0.82,395.115,5.3541
0.825,395.615,5.3541
0.83,396.115,5.354
0.835,396.615,5.35399
0.84,397.115,5.35411
0.845,397.615,5.354
0.85,398.115,5.354
0.855,398.615,5.35401
0.86,399.115,5.35397
0.865,399.615,5.354
0.87,400.115,5.35396
0.875,400.615,5.35401
0.88,401.115,5.354
0.885,401.615,5.3539
0.89,402.115,5.354
0.895,402.615,5.35395
0.9,403.115,5.3539
0.905,403.615,5.35401
0.91,404.115,5.3538
0.915,404.615,5.35402
0.92,405.115,5.35392
0.925,405.615,5.35392
0.93,406.115,5.35389
0.935,406.615,5.3539
0.94,407.115,5.35379
0.945,407.615,5.3537
0.95,408.115,5.35364
0.955,408.615,5.3537
0.96,409.115,5.35358
0.965,409.615,5.35372
0.97,410.115,5.35374
0.975,410.615,5.35359
0.98,411.115,5.35368
0.985,411.615,5.35357
0.99,412.115,5.35379
0.995,412.615,5.3539
1,413.115,5.3536
1.005,413.615,5.35364
1.01,414.115,5.3536
1.015,414.615,5.35361
1.02,415.115,5.35378
1.025,415.615,5.35349
1.03,416.115,5.35349
1.035,416.615,5.35359
1.04,417.115,5.3534
1.045,417.615,5.35336
1.05,418.115,5.35334
1.055,418.615,5.35329
1.06,419.115,5.35339
1.065,419.615,5.35327
1.07,420.115,5.35317
1.075,420.615,5.35337
1.08,421.115,5.35327
1.085,421.615,5.35313
1.09,422.115,5.35303
1.095,422.615,5.353
1.1,423.115,5.3532
1.105,423.615,5.353
1.11,424.115,5.353
1.115,424.615,5.35298
1.12,425.115,5.3526
1.125,425.615,5.35279
1.13,426.115,5.3528
1.135,426.615,5.35256
1.14,427.115,5.35251
1.145,427.615,5.35248
1.15,428.115,5.35219
1.155,428.615,5.35224
1.16,429.115,5.35198
1.165,429.615,5.35201
1.17,430.115,5.35192
1.175,430.615,5.3516
1.18,431.115,5.35181
1.185,431.615,5.35169
1.19,432.115,5.35118
1.195,432.615,5.3512
1.2,433.115,5.3513
1.205,433.615,5.35077
1.21,434.115,5.35055
1.215,434.615,5.3507
1.22,435.115,5.3504
1.225,435.615,5.35025
1.23,436.115,5.34991
1.235,436.615,5.34957
1.24,437.115,5.34959
1.245,437.615,5.34948
1.25,438.115,5.3493
1.255,438.615,5.34909
1.26,439.115,5.34875
1.265,439.615,5.34848
1.27,440.115,5.34849
1.275,440.615,5.34813
1.28,441.115,5.348
1.285,441.615,5.34788
1.29,442.115,5.34752
1.295,442.615,5.34717
1.3,443.115,5.34717
1.305,443.615,5.34681
1.31,444.115,5.34647
1.315,444.615,5.34644
1.32,445.115,5.34601
1.325,445.615,5.34581
1.33,446.115,5.34554
1.335,446.615,5.34541
1.34,447.115,5.345
1.345,447.615,5.3447
1.35,448.115,5.34461
1.355,448.615,5.3444
1.36,449.115,5.34404
1.365,449.615,5.34369
1.37,450.115,5.34349
1.375,450.615,5.3432
1.38,451.115,5.34301
1.385,451.615,5.34266
1.39,452.115,5.34217
1.395,452.615,5.3423
1.4,453.115,5.34192
1.405,453.615,5.34149
1.41,454.115,5.34115
1.415,454.615,5.3408
1.42,455.115,5.3405
1.425,455.615,5.34014
1.43,456.115,5.33991
1.435,456.615,5.33955
1.44,457.115,5.339
1.445,457.615,5.33893
1.45,458.115,5.33837
1.455,458.615,5.33787
1.46,459.115,5.33763
1.465,459.615,5.3372
1.47,460.115,5.33682
1.475,460.615,5.33612
1.48,461.115,5.33581
1.485,461.615,5.33544
1.49,462.115,5.33478
1.495,462.615,5.3344
1.5,463.115,5.33366
1.505,463.615,5.33319
1.51,464.115,5.33277
1.515,464.615,5.33231
1.52,465.115,5.33175
1.525,465.615,5.33099
1.53,466.115,5.33062
1.535,466.615,5.32979
1.54,467.115,5.32919
1.545,467.615,5.32868
1.55,468.115,5.32811
1.555,468.615,5.32743
1.56,469.115,5.32649
1.565,469.615,5.32612
1.57,470.115,5.32537
1.575,470.615,5.3247
1.58,471.115,5.32393
1.585,471.615,5.32329
1.59,472.115,5.32266
1.595,472.615,5.32165
1.6,473.115,5.32133
1.605,473.615,5.32029
1.61,474.115,5.31991
1.615,474.615,5.31869
1.62,475.115,5.31813
1.625,475.615,5.31735
1.63,476.115,5.31668
1.635,476.615,5.31576
1.64,477.115,5.31477
1.645,477.615,5.31425
1.65,478.115,5.31321
1.655,478.615,5.31281
1.66,479.115,5.31148
1.665,479.615,5.311
1.67,480.115,5.30983
1.675,480.615,5.30935
1.68,481.115,5.30802
1.685,481.615,5.30719
1.69,482.115,5.30616
1.695,482.615,5.30575
1.7,483.115,5.30447
1.705,483.615,5.30355
1.71,484.115,5.30261
1.715,484.615,5.30181
1.72,485.115,5.30114
1.725,485.615,5.29989
1.73,486.115,5.29927
1.735,486.615,5.29818
1.74,487.115,5.29765
1.745,487.615,5.29629
1.75,488.115,5.29579
1.755,488.615,5.2947
1.76,489.115,5.29401
1.765,489.615,5.29263
1.77,490.115,5.29223
1.775,490.615,5.29126
1.78,491.115,5.29063
1.785,491.615,5.28921
1.79,492.115,5.28873
1.795,492.615,5.28773
1.8,493.115,5.28635
1.805,493.615,5.28568
1.81,494.115,5.28501
1.815,494.615,5.28426
1.82,495.115,5.28339
1.825,495.615,5.28224
1.83,496.115,5.28151
1.835,496.615,5.28061
1.84,497.115,5.27976
1.845,497.615,5.27887
1.85,498.115,5.27799
1.855,498.615,5.27731
1.86,499.115,5.27628
1.865,499.615,5.27537
1.87,500.115,5.27449
1.875,500.615,5.27378
1.88,501.115,5.27282
1.885,501.615,5.27203
1.89,502.115,5.27107
1.895,502.615,5.27046
1.9,503.115,5.26941
1.905,503.615,5.26813
1.91,504.115,5.26751
1.915,504.615,5.26693
1.92,505.115,5.26589
1.925,505.615,5.26498
1.93,506.115,5.26429
1.935,506.615,5.26374
1.94,507.115,5.26269
1.945,507.615,5.26179
1.95,508.115,5.26097
1.955,508.615,5.26021
1.96,509.115,5.25932
1.965,509.615,5.25851
1.97,510.115,5.2577
1.975,510.615,5.25701
1.98,511.115,5.25645
1.985,511.615,5.25529
1.99,512.115,5.25467
1.995,512.615,5.25403
2,513.115,5.25305
2.005,513.615,5.2523
2.01,514.115,5.25159
2.015,514.615,5.25104
2.02,515.115,5.25011
2.025,515.615,5.2494
2.03,516.115,5.24866
2.035,516.615,5.24813
2.04,517.115,5.24724
2.045,517.615,5.24661
2.05,518.115,5.24582
2.055,518.615,5.24554
2.06,519.115,5.24459
2.065,519.615,5.24413
2.07,520.115,5.24334
2.075,520.615,5.24281
2.08,521.115,5.24206
2.085,521.615,5.24161
2.09,522.115,5.24093
2.095,522.615,5.24052
2.1,523.115,5.23962
2.105,523.615,5.2392
2.11,524.115,5.2385
2.115,524.615,5.23829
2.12,525.115,5.2375
2.125,525.615,5.23699
2.13,526.115,5.23628
2.135,526.615,5.23616
2.14,527.115,5.23538
2.145,527.615,5.23497
2.15,528.115,5.23438
2.155,528.615,5.23421
2.16,529.115,5.23349
2.165,529.615,5.23306
2.17,530.115,5.23248
2.175,530.615,5.23209
2.18,531.115,5.23172
2.185,531.615,5.2312
2.19,532.115,5.23057
2.195,532.615,5.23024
2.2,533.115,5.22971
2.205,533.615,5.2292
2.21,534.115,5.22879
2.215,534.615,5.22827
2.22,535.115,5.22791
2.225,535.615,5.22732
2.23,536.115,5.227
2.235,536.615,5.22661
2.24,537.115,5.2262
2.245,537.615,5.22567
2.25,538.115,5.22547
2.255,538.615,5.22486
2.26,539.115,5.22452
2.265,539.615,5.22394
2.27,540.115,5.2236
2.275,540.615,5.22301
2.28,541.115,5.22281
2.285,541.615,5.22212
2.29,542.115,5.2219
2.295,542.615,5.2211
2.3,543.115,5.2208
2.305,543.615,5.2202
2.31,544.115,5.21999
2.315,544.615,5.21949
2.32,545.115,5.21929
2.325,545.615,5.21872
2.33,546.115,5.21847
2.335,546.615,5.21788
2.34,547.115,5.21757
2.345,547.615,5.21707
2.35,548.115,5.2169
2.355,548.615,5.21624
2.36,549.115,5.2159
2.365,549.615,5.2155
2.37,550.115,5.21513
2.375,550.615,5.21464
2.38,551.115,5.21414
2.385,551.615,5.2138
2.39,552.115,5.2134
2.395,552.615,5.21291
2.4,553.115,5.21234
2.405,553.615,5.21199
2.41,554.115,5.21164
2.415,554.615,5.21119
2.42,555.115,5.21047
2.425,555.615,5.21011
2.43,556.115,5.20978
2.435,556.615,5.20894
2.44,557.115,5.20855
2.445,557.615,5.20831
2.45,558.115,5.20785
2.455,558.615,5.2074
2.46,559.115,5.20663
2.465,559.615,5.20642
2.47,560.115,5.20572
2.475,560.615,5.2054
2.48,561.115,5.2045
2.485,561.615,5.2041
2.49,562.115,5.2035
2.495,562.615,5.20249
2.5,563.115,5.20219
2.505,563.615,5.20168
2.51,564.115,5.20119
2.515,564.615,5.20058
2.52,565.115,5.19963
2.525,565.615,5.19916
2.53,566.115,5.19847
2.535,566.615,5.19746
2.54,567.115,5.19687
2.545,567.615,5.19648
2.55,568.115,5.19567
2.555,568.615,5.19449
2.56,569.115,5.19387
2.565,569.615,5.19298
2.57,570.115,5.19232
2.575,570.615,5.19117
2.58,571.115,5.1904
2.585,571.615,5.18961
2.59,572.115,5.18868
2.595,572.615,5.18759
2.6,573.115,5.18674
2.605,573.615,5.18589
2.61,574.115,5.18527
2.615,574.615,5.18377
2.62,575.115,5.18303
2.625,575.615,5.18178
2.63,576.115,5.18098
2.635,576.615,5.17947
2.64,577.115,5.17868
2.645,577.615,5.17738
2.65,578.115,5.17641
2.655,578.615,5.17487
2.66,579.115,5.17378
2.665,579.615,5.17249
2.67,580.115,5.17132
2.675,580.615,5.16943
2.68,581.115,5.16644
2.685,581.615,5.16171
2.69,582.115,5.15586
2.695,582.615,5.14812
2.7,583.115,5.14665
2.705,583.615,5.14514
2.71,584.115,5.14299
2.715,584.615,5.14146
2.72,585.115,5.13892
2.725,585.615,5.13736
2.73,586.115,5.13495
2.735,586.615,5.13355
2.74,587.115,5.13089
2.745,587.615,5.12954
2.75,588.115,5.12682
2.755,588.615,5.12529
2.76,589.115,5.12246
2.765,589.615,5.12112
2.77,590.115,5.11844
2.775,590.615,5.11692
2.78,591.115,5.11422
2.785,591.615,5.11265
2.79,592.115,5.11006
2.795,592.615,5.10803
2.8,593.115,5.10536
2.805,593.615,5.1032
2.81,594.115,5.10081
2.815,594.615,5.0983
2.82,595.115,5.09591
2.825,595.615,5.09321
2.83,596.115,5.09109
2.835,596.615,5.08785
2.84,597.115,5.08558
2.845,597.615,5.08223
2.85,598.115,5.07999
2.855,598.615,5.0763
2.86,599.115,5.0741
2.865,599.615,5.07006
2.87,600.115,5.0679
2.875,600.615,5.06377
2.88,601.115,5.06137
2.885,601.615,5.0568
2.89,602.115,5.05466
2.895,602.615,5.04982
2.9,603.115,5.04738
2.905,603.615,5.04225
2.91,604.115,5.03961
2.915,604.615,5.03441
2.92,605.115,5.03171
2.925,605.615,5.02607
2.93,606.115,5.02293
2.935,606.615,5.01726
2.94,607.115,5.01372
2.945,607.615,5.00771
2.95,608.115,5.0041
2.955,608.615,4.99807
2.96,609.115,4.99376
2.965,609.615,4.98766
2.97,610.115,4.98279
2.975,610.615,4.97675
2.98,611.115,4.97117
2.985,611.615,4.96494
2.99,612.115,4.95856
2.995,612.615,4.95235
3,613.115,4.94542
3.005,613.615,4.93922
3.01,614.115,4.93087
3.015,614.615,4.92491
3.02,615.115,4.91589
3.025,615.615,4.90974
3.03,616.115,4.89956
3.035,616.615,4.89398
3.04,617.115,4.88304
3.045,617.615,4.87712
3.05,618.115,4.86523
3.055,618.615,4.85907
3.06,619.115,4.84665
3.065,619.615,4.84012
3.07,620.115,4.8269
3.075,620.615,4.82
3.08,621.115,4.80636
3.085,621.615,4.79838
3.09,622.115,4.78447
3.095,622.615,4.77524
3.1,623.115,4.76151
3.105,623.615,4.74516
3.11,624.115,4.73779
3.115,624.615,4.72542
3.12,625.115,4.71269
3.125,625.615,4.6984
3.13,626.115,4.68643
3.135,626.615,4.67006
3.14,627.115,4.65883
3.145,627.615,4.64042
3.15,628.115,4.62974
3.155,628.615,4.60966
3.16,629.115,4.59905
3.165,629.615,4.5778
3.17,630.115,4.56655
3.175,630.615,4.54456
3.18,631.115,4.53292
3.185,631.615,4.51176
3.19,632.115,4.48642
3.195,632.615,4.46949
3.2,633.115,4.45101
3.205,633.615,4.43188
3.21,634.115,4.41418
3.215,634.615,4.31357
3.22,635.115,4.25872
3.225,635.615,4.23063
3.23,636.115,4.21377
3.235,636.615,4.18302
3.24,637.115,4.16633
3.245,637.615,4.13409
3.25,638.115,4.11634
3.255,638.615,4.08443
3.26,639.115,4.06389
3.265,639.615,4.03387
3.27,640.115,4.01013
3.275,640.615,3.98309
3.28,641.115,3.95306
3.285,641.615,3.92873
3.29,642.115,3.89612
3.295,642.615,3.87461
3.3,643.115,3.83723
3.305,643.615,3.81776
3.31,644.115,3.77871
3.315,644.615,3.75817
3.32,645.115,3.72063
3.325,645.615,3.69568
3.33,646.115,3.66072
3.335,646.615,3.6314
3.34,647.115,3.60065
3.345,647.615,3.56556
3.35,648.115,3.5391
3.355,648.615,3.49838
3.36,649.115,3.4753
3.365,649.615,3.43217
3.37,650.115,3.40868
3.375,650.615,3.36481
3.38,651.115,3.33977
3.385,651.615,3.2985
3.39,652.115,3.26845
3.395,652.615,3.23099
3.4,653.115,3.19462
3.405,653.615,3.16211
3.41,654.115,3.11902
3.415,654.615,3.09162
3.42,655.115,3.04508
3.425,655.615,3.01942
3.43,656.115,2.96917
3.435,656.615,2.94349
3.44,657.115,2.89586
3.445,657.615,2.86555
3.45,658.115,2.82108
3.455,658.615,2.78489
3.46,659.115,2.74733
3.465,659.615,2.70446
3.47,660.115,2.67056
3.475,660.615,2.6226
3.48,661.115,2.59423
3.485,661.615,2.54134
3.49,662.115,2.51427
3.495,662.615,2.46152
3.5,663.115,2.43335
3.505,663.615,2.38371
3.51,664.115,2.35116
3.515,664.615,2.30451
3.52,665.115,2.26764
3.525,665.615,2.22572
3.53,666.115,2.18624
3.535,666.615,2.15021
3.54,667.115,2.10576
3.545,667.615,2.07394
3.55,668.115,2.02787
3.555,668.615,1.99771
3.56,669.115,1.95128
3.565,669.615,1.92442
3.57,670.115,1.87566
3.575,670.615,1.84961
3.58,671.115,1.8027
3.585,671.615,1.77792
3.59,672.115,1.73136
3.595,672.615,1.70675
3.6,673.115,1.66139
3.605,673.615,1.63714
3.61,674.115,1.59012
3.615,674.615,1.56639
3.62,675.115,1.52338
3.625,675.615,1.50121
3.63,676.115,1.4576
3.635,676.615,1.4343
3.64,677.115,1.39459
3.645,677.615,1.371
3.65,678.115,1.33231
3.655,678.615,1.30916
3.66,679.115,1.27428
3.665,679.615,1.24786
3.67,680.115,1.21555
3.675,680.615,1.18761
3.68,681.115,1.1581
3.685,681.615,1.12697
3.69,682.115,1.09915
3.695,682.615,1.06542
3.7,683.115,1.04162
3.705,683.615,1.00457
3.71,684.115,0.983405
3.715,684.615,0.942824
3.72,685.115,0.922431
3.725,685.615,0.882695
3.73,686.115,0.861933
3.735,686.615,0.82053
3.74,687.115,0.799366
3.745,687.615,0.757893
3.75,688.115,0.712437
3.755,688.615,0.691382
3.76,689.115,0.662335
3.765,689.615,0.626151
3.77,690.115,0.592404
3.775,690.615,0.561334
3.78,691.115,0.525232
3.785,691.615,0.500491
3.79,692.115,0.458191
3.795,692.615,0.442141
3.8,693.115,0.407616
3.805,693.615,0.391198
3.81,694.115,0.359782
3.815,694.615,0.344248
3.82,695.115,0.31618
3.825,695.615,0.289259
3.83,696.115,0.27533
3.835,696.615,0.255169
3.84,697.115,0.237288
3.845,697.615,0.222487
3.85,698.115,0.203742
3.855,698.615,0.192761
3.86,699.115,0.174068
3.865,699.615,0.165239
3.87,700.115,0.149171
3.875,700.615,0.140861
3.88,701.115,0.127295
3.885,701.615,0.118126
3.89,702.115,0.109355
3.895,702.615,0.10139
3.9,703.115,0.0946956
3.905,703.615,0.0853766
3.91,704.115,0.0814708
3.915,704.615,0.0737761
3.92,705.115,0.0693241
3.925,705.615,0.06345817
3.93,706.115,0.05966232
3.935,706.615,0.0552029
3.94,707.115,0.050494
3.945,707.615,0.0468763
3.95,708.115,0.0428422
3.955,708.615,0.0409223
3.96,709.115,0.0366775
3.965,709.615,0.0355955
3.97,710.115,0.0325512
3.975,710.615,0.0297751
3.98,711.115,0.0275296
3.985,711.615,0.0263263
3.99,712.115,0.0247808
3.995,712.615,0.0223347
4,713.115,0.0219779
4.005,713.615,0.0191563
4.01,714.115,0.0182427
4.015,714.615,0.0163598
4.02,715.115,0.0157595
4.025,715.615,0.0144099
4.03,716.115,0.01386161
4.035,716.615,0.0138214
4.04,717.115,0.0127512
4.045,717.615,0.0120602
4.05,718.115,0.0112931
4.055,718.615,0.010761
4.06,719.115,0.00998744
4.065,719.615,0.009696689
4.07,720.115,0.009201555
4.075,720.615,0.008798152
4.08,721.115,0.008248301
4.085,721.615,0.007918391
4.09,722.115,0.007118022
4.095,722.615,0.00680045
4.1,723.115,0.006459274
4.105,723.615,0.006220022
4.11,724.115,0
4.115,724.615,0
4.12,725.115,0
4.125,725.615,0
4.13,726.115,0
4.135,726.615,0
4.14,727.115,0
4.145,727.615,0
4.15,728.115,0
4.155,728.615,0
4.16,729.115,0
4.165,729.615,0
4.17,730.115,0
4.175,730.615,0
4.18,731.115,0
4.185,731.615,0
4.19,732.115,0
4.195,732.615,0
4.2,733.115,0
4.205,733.615,0
4.21,734.115,0
4.215,734.615,0
4.22,735.115,0
4.225,735.615,0
4.23,736.115,0
4.235,736.615,0
4.24,737.115,0
4.245,737.615,0
4.25,738.115,0
4.255,738.615,0
4.26,739.115,0
4.265,739.615,0
4.27,740.115,0
4.275,740.615,0
4.28,741.115,0
4.285,741.615,0
4.29,742.115,0
4.295,742.615,0
4.3,743.115,0
4.305,743.615,0
4.31,744.115,0
4.315,744.615,0
4.32,745.115,0
4.325,745.615,0
4.33,746.115,0
4.335,746.615,0
4.34,747.115,0
4.345,747.615,0
4.35,748.115,0
4.355,748.615,0
4.36,749.115,0
4.365,749.615,0
4.37,750.115,0
4.375,750.615,0
4.38,751.115,0
4.385,751.615,0
4.39,752.115,0
4.395,752.615,0
4.4,753.115,0
4.405,753.615,0
4.41,754.115,0
4.415,754.615,0
4.42,755.115,0
4.425,755.615,0
4.43,756.115,0
4.435,756.615,0
4.44,757.115,0
4.445,757.615,0
4.45,758.115,0
4.455,758.615,0
4.46,759.115,0
4.465,759.615,0
4.47,760.115,0
4.475,760.615,0
4.48,761.115,0
4.485,761.615,0
4.49,762.115,0
4.495,762.615,0
4.5,763.115,0
4.505,763.615,0
4.51,764.115,0
4.515,764.615,0
4.52,765.115,0
4.525,765.615,0
4.53,766.115,0
4.535,766.615,0
4.54,767.115,0
4.545,767.615,0
4.55,768.115,0
4.555,768.615,0
4.56,769.115,0
4.565,769.615,0
4.57,770.115,0
4.575,770.615,0
4.58,771.115,0
4.585,771.615,0
4.59,772.115,0
4.595,772.615,0
4.6,773.115,0
4.605,773.615,0