File: Wood/Calibration_Data/UAI/UAI_TGA_N2_20K_R2.csv
Time (s),Temperature (K),Mass (mg)
0,299.837,14.93
3,300.508,14.94
6,301.18,14.95
9,301.853,14.96
12,302.528,14.97
15,303.204,14.97
18,303.881,14.98
21,304.559,14.99
24,305.239,15
27,305.919,15.01
30,306.601,15.02
33,307.285,15.03
36,307.969,15.04
39,308.655,15.05
42,309.342,15.06
45,310.03,15.07
48,310.719,15.08
51,311.409,15.09
54,312.101,15.1
57,312.794,15.11
60,313.488,15.12
63,314.183,15.13
66,314.879,15.14
69,315.577,15.15
72,316.276,15.17
75,316.976,15.18
78,317.677,15.19
81,318.379,15.2
84,319.082,15.21
87,319.787,15.22
90,320.493,15.23
93,321.2,15.24
96,321.908,15.26
99,322.617,15.27
102,323.328,15.28
105,324.039,15.29
108,324.752,15.3
111,325.466,15.31
114,326.181,15.33
117,326.897,15.34
120,327.614,15.35
123,328.332,15.36
126,329.052,15.37
129,329.773,15.38
132,330.495,15.39
135,331.217,15.4
138,331.942,15.42
141,332.667,15.43
144,333.393,15.44
147,334.12,15.45
150,334.849,15.46
153,335.579,15.47
156,336.309,15.48
159,337.041,15.49
162,337.774,15.51
165,338.508,15.52
168,339.243,15.53
171,339.979,15.54
174,340.717,15.55
177,341.455,15.56
180,342.195,15.57
183,342.935,15.58
186,343.677,15.59
189,344.42,15.6
192,345.163,15.61
195,345.908,15.61
198,346.654,15.62
201,347.401,15.63
204,348.149,15.63
207,348.899,15.64
210,349.649,15.65
213,350.4,15.65
216,351.152,15.66
219,351.906,15.67
222,352.66,15.67
225,353.416,15.68
228,354.172,15.68
231,354.93,15.69
234,355.688,15.69
237,356.448,15.7
240,357.209,15.7
243,357.97,15.71
246,358.733,15.71
249,359.497,15.71
252,360.262,15.71
255,361.027,15.72
258,361.794,15.72
261,362.562,15.72
264,363.331,15.72
267,364.101,15.73
270,364.872,15.73
273,365.643,15.73
276,366.416,15.73
279,367.19,15.73
282,367.965,15.73
285,368.741,15.74
288,369.518,15.74
291,370.296,15.74
294,371.074,15.74
297,371.854,15.74
300,372.635,15.75
303,373.417,15.75
306,374.2,15.75
309,374.983,15.75
312,375.768,15.75
315,376.554,15.76
318,377.34,15.76
321,378.128,15.76
324,378.916,15.76
327,379.706,15.77
330,380.496,15.77
333,381.288,15.77
336,382.08,15.77
339,382.873,15.77
342,383.668,15.77
345,384.463,15.77
348,385.259,15.78
351,386.056,15.78
354,386.854,15.78
357,387.653,15.78
360,388.453,15.78
363,389.254,15.78
366,390.055,15.78
369,390.858,15.78
372,391.662,15.78
375,392.466,15.78
378,393.271,15.78
381,394.078,15.78
384,394.885,15.78
387,395.693,15.78
390,396.502,15.78
393,397.312,15.78
396,398.123,15.78
399,398.935,15.79
402,399.747,15.79
405,400.561,15.79
408,401.375,15.79
411,402.19,15.79
414,403.006,15.79
417,403.823,15.8
420,404.641,15.8
423,405.46,15.8
426,406.28,15.8
429,407.1,15.8
432,407.922,15.81
435,408.744,15.81
438,409.567,15.81
441,410.391,15.81
444,411.216,15.82
447,412.042,15.82
450,412.868,15.82
453,413.695,15.82
456,414.524,15.82
459,415.353,15.82
462,416.183,15.82
465,417.013,15.83
468,417.845,15.83
471,418.677,15.83
474,419.511,15.83
477,420.345,15.83
480,421.18,15.83
483,422.015,15.83
486,422.852,15.83
489,423.689,15.83
492,424.527,15.83
495,425.366,15.84
498,426.206,15.84
501,427.047,15.84
504,427.888,15.84
507,428.73,15.84
510,429.573,15.84
513,430.417,15.84
516,431.262,15.84
519,432.107,15.84
522,432.953,15.84
525,433.8,15.84
528,434.648,15.84
531,435.496,15.84
534,436.346,15.84
537,437.196,15.83
540,438.047,15.83
543,438.898,15.83
546,439.751,15.83
549,440.604,15.83
552,441.458,15.83
555,442.312,15.82
558,443.168,15.82
561,444.024,15.82
564,444.881,15.82
567,445.738,15.82
570,446.597,15.82
573,447.456,15.81
576,448.316,15.81
579,449.176,15.81
582,450.038,15.81
585,450.9,15.81
588,451.763,15.81
591,452.626,15.81
594,453.491,15.8
597,454.356,15.8
600,455.221,15.8
603,456.088,15.8
606,456.955,15.8
609,457.823,15.79
612,458.691,15.79
615,459.561,15.79
618,460.431,15.79
621,461.301,15.79
624,462.173,15.78
627,463.045,15.78
630,463.918,15.78
633,464.791,15.78
636,465.665,15.78
639,466.54,15.78
642,467.416,15.77
645,468.292,15.77
648,469.169,15.77
651,470.046,15.77
654,470.925,15.77
657,471.804,15.76
660,472.683,15.76
663,473.563,15.76
666,474.444,15.76
669,475.326,15.76
672,476.208,15.75
675,477.091,15.75
678,477.975,15.75
681,478.859,15.75
684,479.744,15.75
687,480.629,15.74
690,481.515,15.74
693,482.402,15.74
696,483.289,15.74
699,484.177,15.74
702,485.066,15.73
705,485.955,15.73
708,486.845,15.73
711,487.736,15.73
714,488.627,15.72
717,489.519,15.72
720,490.411,15.72
723,491.304,15.72
726,492.198,15.71
729,493.092,15.71
732,493.987,15.71
735,494.882,15.71
738,495.778,15.7
741,496.675,15.7
744,497.572,15.7
747,498.47,15.69
750,499.368,15.69
753,500.267,15.69
756,501.167,15.69
759,502.067,15.68
762,502.968,15.68
765,503.869,15.68
768,504.771,15.68
771,505.673,15.67
774,506.576,15.67
777,507.48,15.67
780,508.384,15.66
783,509.289,15.66
786,510.194,15.66
789,511.1,15.65
792,512.006,15.65
795,512.913,15.64
798,513.82,15.64
801,514.728,15.63
804,515.637,15.63
807,516.546,15.62
810,517.456,15.61
813,518.366,15.61
816,519.277,15.6
819,520.188,15.59
822,521.1,15.59
825,522.012,15.58
828,522.925,15.57
831,523.838,15.56
834,524.752,15.56
837,525.666,15.55
840,526.581,15.54
843,527.496,15.53
846,528.412,15.52
849,529.329,15.51
852,530.246,15.5
855,531.163,15.49
858,532.081,15.48
861,532.999,15.47
864,533.918,15.46
867,534.837,15.45
870,535.757,15.44
873,536.677,15.43
876,537.598,15.41
879,538.52,15.4
882,539.441,15.39
885,540.363,15.37
888,541.286,15.36
891,542.209,15.35
894,543.133,15.33
897,544.057,15.32
900,544.981,15.31
903,545.906,15.29
906,546.832,15.27
909,547.758,15.26
912,548.684,15.24
915,549.611,15.23
918,550.538,15.21
921,551.466,15.19
924,552.394,15.17
927,553.322,15.15
930,554.251,15.13
933,555.181,15.11
936,556.111,15.09
939,557.041,15.07
942,557.972,15.05
945,558.903,15.03
948,559.834,15
951,560.766,14.98
954,561.698,14.95
957,562.631,14.93
960,563.564,14.9
963,564.498,14.88
966,565.432,14.85
969,566.366,14.82
972,567.301,14.79
975,568.236,14.76
978,569.172,14.73
981,570.107,14.7
984,571.044,14.67
987,571.98,14.63
990,572.918,14.6
993,573.855,14.57
996,574.793,14.53
999,575.731,14.5
1002,576.67,14.46
1005,577.609,14.42
1008,578.548,14.39
1011,579.487,14.35
1014,580.427,14.31
1017,581.368,14.27
1020,582.309,14.23
1023,583.25,14.19
1026,584.191,14.15
1029,585.133,14.1
1032,586.075,14.06
1035,587.017,14.02
1038,587.96,13.97
1041,588.903,13.93
1044,589.847,13.88
1047,590.791,13.83
1050,591.735,13.78
1053,592.679,13.74
1056,593.624,13.69
1059,594.569,13.64
1062,595.514,13.58
1065,596.46,13.53
1068,597.406,13.48
1071,598.353,13.43
1074,599.299,13.37
1077,600.246,13.32
1080,601.193,13.26
1083,602.141,13.2
1086,603.089,13.14
1089,604.037,13.08
1092,604.985,13.02
1095,605.934,12.96
1098,606.883,12.9
1101,607.832,12.84
1104,608.782,12.77
1107,609.732,12.7
1110,610.682,12.64
1113,611.632,12.57
1116,612.583,12.5
1119,613.534,12.43
1122,614.485,12.36
1125,615.437,12.29
1128,616.388,12.21
1131,617.34,12.14
1134,618.293,12.06
1137,619.245,11.99
1140,620.198,11.91
1143,621.151,11.83
1146,622.104,11.75
1149,623.058,11.66
1152,624.011,11.58
1155,624.965,11.49
1158,625.919,11.41
1161,626.874,11.32
1164,627.829,11.23
1167,628.783,11.14
1170,629.738,11.05
1173,630.694,10.95
1176,631.649,10.86
1179,632.605,10.77
1182,633.561,10.67
1185,634.517,10.57
1188,635.474,10.48
1191,636.43,10.38
1194,637.387,10.28
1197,638.344,10.18
1200,639.301,10.08
1203,640.259,9.980000
1206,641.216,9.880000
1209,642.174,9.780000
1212,643.132,9.670000
1215,644.09,9.570000
1218,645.048,9.470000
1221,646.007,9.360000
1224,646.965,9.260000
1227,647.924,9.160000
1230,648.883,9.060000
1233,649.842,8.950000
1236,650.802,8.850000
1239,651.761,8.750000
1242,652.721,8.660000
1245,653.681,8.560000
1248,654.641,8.460000
1251,655.601,8.360000
1254,656.561,8.270000
1257,657.522,8.170000
1260,658.482,8.080000
1263,659.443,7.990000
1266,660.404,7.900000
1269,661.365,7.810000
1272,662.326,7.720000
1275,663.287,7.630000
1278,664.249,7.550000
1281,665.21,7.470000
1284,666.172,7.390000
1287,667.133,7.310000
1290,668.095,7.230000
1293,669.057,7.160000
1296,670.019,7.090000
1299,670.982,7.010000
1302,671.944,6.950000
1305,672.906,6.880000
1308,673.869,6.820000
1311,674.832,6.750000
1314,675.794,6.700000
1317,676.757,6.640000
1320,677.72,6.580000
1323,678.683,6.530000
1326,679.646,6.480000
1329,680.609,6.440000
1332,681.573,6.390000
1335,682.536,6.350000
1338,683.499,6.310000
1341,684.463,6.270000
1344,685.426,6.230000
1347,686.39,6.200000
1350,687.354,6.170000
1353,688.318,6.140000
1356,689.281,6.110000
1359,690.245,6.080000
1362,691.209,6.060000
1365,692.173,6.040000
1368,693.137,6.010000
1371,694.101,6.000000
1374,695.066,5.980000
1377,696.03,5.960000
1380,696.994,5.950000
1383,697.958,5.930000
1386,698.923,5.920000
1389,699.887,5.910000
1392,700.851,5.900000
1395,701.816,5.890000
1398,702.78,5.880000
1401,703.744,5.880000
1404,704.709,5.870000
1407,705.673,5.870000
1410,706.638,5.860000
1413,707.602,5.860000
1416,708.567,5.860000
1419,709.531,5.850000
1422,710.496,5.850000
1425,711.46,5.850000
1428,712.425,5.850000
1431,713.389,5.850000
1434,714.354,5.840000
1437,715.318,5.840000
1440,716.283,5.840000
1443,717.247,5.840000
1446,718.212,5.840000
1449,719.176,5.830000
1452,720.141,5.830000
1455,721.105,5.830000
1458,722.069,5.820000
1461,723.034,5.820000
1464,723.998,5.820000
1467,724.962,5.810000
1470,725.927,5.810000
1473,726.891,5.800000
1476,727.855,5.800000
1479,728.819,5.800000
1482,729.783,5.790000
1485,730.747,5.780000
1488,731.711,5.780000
1491,732.675,5.770000
1494,733.639,5.770000
1497,734.602,5.760000
1500,735.566,5.750000
1503,736.53,5.740000
1506,737.493,5.740000
1509,738.457,5.730000
1512,739.42,5.720000
1515,740.384,5.710000
1518,741.347,5.700000
1521,742.31,5.690000
1524,743.273,5.680000
1527,744.236,5.670000
1530,745.199,5.660000
1533,746.162,5.650000
1536,747.124,5.640000
1539,748.087,5.630000
1542,749.05,5.620000
1545,750.012,5.610000
1548,750.974,5.600000
1551,751.937,5.590000
1554,752.899,5.580000
1557,753.861,5.570000
1560,754.822,5.560000
1563,755.784,5.550000
1566,756.746,5.540000
1569,757.707,5.530000
1572,758.669,5.520000
1575,759.63,5.510000
1578,760.591,5.500000
1581,761.552,5.490000
1584,762.513,5.480000
1587,763.474,5.470000
1590,764.434,5.460000
1593,765.395,5.450000
1596,766.355,5.440000
1599,767.315,5.430000
1602,768.275,5.420000
1605,769.235,5.410000
1608,770.194,5.390000
1611,771.154,5.380000
1614,772.113,5.370000
1617,773.072,5.360000
1620,774.031,5.350000
1623,774.99,5.340000
1626,775.949,5.330000
1629,776.907,5.320000
1632,777.865,5.310000
1635,778.824,5.300000
1638,779.781,5.290000
1641,780.739,5.280000
1644,781.697,5.260000
1647,782.654,5.250000
1650,783.611,5.240000
1653,784.568,5.230000
1656,785.525,5.220000
1659,786.481,5.210000
1662,787.438,5.190000
1665,788.394,5.180000
1668,789.35,5.170000
1671,790.306,5.160000
1674,791.261,5.150000
1677,792.216,5.140000
1680,793.171,5.130000
1683,794.126,5.120000
1686,795.081,5.100000
1689,796.035,5.090000
1692,796.989,5.080000
1695,797.943,5.070000
1698,798.897,5.060000
1701,799.85,5.050000
1704,800.804,5.040000
1707,801.756,5.030000
1710,802.709,5.020000
1713,803.662,5.010000
1716,804.614,5.000000
1719,805.566,4.990000
1722,806.517,4.980000
1725,807.469,4.970000
1728,808.42,4.960000
1731,809.371,4.940000
1734,810.322,4.930000
1737,811.272,4.920000
1740,812.222,4.910000
1743,813.172,4.900000
1746,814.121,4.890000
1749,815.071,4.880000
1752,816.02,4.870000
1755,816.968,4.860000
1758,817.917,4.850000
1761,818.865,4.830000
1764,819.813,4.820000
1767,820.76,4.810000
1770,821.707,4.800000
1773,822.654,4.790000
1776,823.601,4.780000
1779,824.547,4.770000
1782,825.493,4.750000
1785,826.439,4.740000
1788,827.384,4.730000
1791,828.329,4.720000
1794,829.274,4.700000
1797,830.218,4.690000
1800,831.162,4.680000
1803,832.106,4.660000
1806,833.049,4.650000
1809,833.992,4.640000
1812,834.935,4.630000
1815,835.878,4.610000
1818,836.82,4.600000
1821,837.761,4.590000
1824,838.703,4.580000
1827,839.644,4.560000
1830,840.584,4.550000
1833,841.525,4.540000
1836,842.465,4.530000
1839,843.404,4.520000
1842,844.344,4.500000
1845,845.282,4.490000
1848,846.221,4.480000
1851,847.159,4.470000
1854,848.097,4.450000
1857,849.034,4.440000
1860,849.971,4.430000
1863,850.908,4.420000
1866,851.844,4.400000
1869,852.78,4.390000
1872,853.715,4.380000
1875,854.65,4.370000
1878,855.585,4.350000
1881,856.519,4.340000
1884,857.453,4.320000
1887,858.387,4.310000
1890,859.32,4.300000
1893,860.253,4.280000
1896,861.185,4.270000
1899,862.117,4.250000
1902,863.048,4.240000
1905,863.979,4.230000
1908,864.91,4.210000
1911,865.84,4.200000
1914,866.77,4.180000
1917,867.699,4.170000
1920,868.628,4.150000
1923,869.556,4.140000
1926,870.484,4.130000
1929,871.412,4.110000
1932,872.339,4.100000
1935,873.266,4.080000
1938,874.192,4.070000
1941,875.118,4.060000
1944,876.043,4.040000
1947,876.968,4.030000
1950,877.893,4.010000
1953,878.817,4.000000
1956,879.74,3.980000
1959,880.663,3.970000
1962,881.586,3.950000
1965,882.508,3.940000
1968,883.43,3.920000
1971,884.351,3.900000
1974,885.271,3.890000
1977,886.192,3.870000
1980,887.111,3.860000
1983,888.031,3.840000
1986,888.949,3.830000
1989,889.868,3.810000
1992,890.785,3.800000
1995,891.703,3.780000
1998,892.62,3.760000
2001,893.536,3.750000
2004,894.452,3.740000
2007,895.367,3.720000
2010,896.282,3.710000
2013,897.196,3.690000
2016,898.11,3.680000
2019,899.023,3.660000
2022,899.936,3.650000
2025,900.848,3.640000
2028,901.759,3.620000
2031,902.671,3.610000
2034,903.581,3.590000
2037,904.491,3.580000
2040,905.401,3.560000
2043,906.31,3.550000
2046,907.218,3.530000
2049,908.126,3.520000
2052,909.034,3.500000
2055,909.94,3.490000
2058,910.847,3.470000
2061,911.752,3.460000
2064,912.658,3.440000
2067,913.562,3.430000
2070,914.466,3.410000
2073,915.37,3.400000
2076,916.273,3.390000
2079,917.175,3.370000
2082,918.077,3.360000
2085,918.978,3.340000
2088,919.879,3.330000
2091,920.779,3.310000
2094,921.678,3.300000
2097,922.577,3.280000
2100,923.475,3.270000
2103,924.373,3.250000
2106,925.27,3.240000
2109,926.167,3.220000
2112,927.063,3.210000
2115,927.958,3.190000
2118,928.853,3.180000
2121,929.747,3.160000
2124,930.64,3.150000
2127,931.533,3.140000
2130,932.425,3.120000
2133,933.317,3.110000
2136,934.208,3.090000
2139,935.099,3.080000
2142,935.988,3.070000
2145,936.878,3.050000
2148,937.766,3.040000
2151,938.654,3.020000
2154,939.541,3.010000
2157,940.428,3.000000
2160,941.314,2.980000
2163,942.199,2.970000
2166,943.084,2.950000
2169,943.968,2.940000
2172,944.851,2.920000
2175,945.734,2.910000
2178,946.616,2.890000
2181,947.498,2.880000
2184,948.379,2.860000
2187,949.259,2.850000
2190,950.138,2.830000
2193,951.017,2.820000
2196,951.895,2.810000
2199,952.773,2.790000
2202,953.649,2.780000
2205,954.525,2.760000
2208,955.401,2.740000
2211,956.276,2.730000
2214,957.15,2.710000
2217,958.023,2.700000
2220,958.896,2.680000
2223,959.768,2.670000
2226,960.639,2.650000
2229,961.51,2.640000
2232,962.379,2.620000
2235,963.249,2.600000
2238,964.117,2.590000
2241,964.985,2.570000
2244,965.852,2.560000
2247,966.718,2.540000
2250,967.584,2.520000
2253,968.449,2.510000
2256,969.313,2.490000
2259,970.176,2.470000
2262,971.039,2.450000
2265,971.901,2.440000
2268,972.762,2.420000
2271,973.623,2.400000
2274,974.482,2.390000
2277,975.341,2.370000
2280,976.2,2.350000
2283,977.057,2.330000