File: Wood/Calibration_Data/UAI/UAI_TGA_N2_20K_R1.csv
Time (s),Temperature (K),Mass (mg)
0.0,299.8,14.89
2.2,300.3,14.9
4.5,300.8,14.9
6.7,301.3,14.9
8.9,301.8,14.9
11.1,302.3,14.9
13.4,302.8,14.9
15.6,303.3,14.91
17.8,303.8,14.91
20.0,304.3,14.92
22.2,304.8,14.92
24.4,305.3,14.92
26.6,305.8,14.93
28.8,306.3,14.93
31.0,306.8,14.93
33.2,307.3,14.94
35.4,307.8,14.95
37.6,308.3,14.95
39.8,308.8,14.95
42.0,309.3,14.96
44.2,309.8,14.97
46.3,310.3,14.97
48.5,310.8,14.98
50.7,311.3,14.99
52.9,311.8,14.99
55.0,312.3,14.99
57.2,312.8,15.0
59.3,313.3,15.01
61.5,313.8,15.02
63.7,314.3,15.02
65.8,314.8,15.03
68.0,315.3,15.04
70.1,315.8,15.04
72.3,316.3,15.05
74.4,316.8,15.06
76.5,317.3,15.07
78.7,317.8,15.07
80.8,318.3,15.08
83.0,318.8,15.09
85.1,319.3,15.09
87.2,319.8,15.1
89.3,320.3,15.11
91.5,320.8,15.12
93.6,321.3,15.13
95.7,321.8,15.14
97.8,322.3,15.15
99.9,322.8,15.15
102.0,323.3,15.16
104.1,323.8,15.17
106.3,324.3,15.17
108.4,324.8,15.18
110.5,325.3,15.19
112.6,325.8,15.2
114.7,326.3,15.21
116.7,326.8,15.22
118.8,327.3,15.23
120.9,327.8,15.23
123.0,328.3,15.24
125.1,328.8,15.25
127.2,329.3,15.25
129.3,329.8,15.26
131.3,330.3,15.28
133.4,330.8,15.28
135.5,331.3,15.29
137.6,331.8,15.3
139.6,332.3,15.31
141.7,332.8,15.31
143.8,333.3,15.32
145.8,333.8,15.33
147.9,334.3,15.33
149.9,334.8,15.34
152.0,335.3,15.35
154.1,335.8,15.36
156.1,336.3,15.37
158.2,336.8,15.38
160.2,337.3,15.38
162.3,337.8,15.39
164.3,338.3,15.4
166.3,338.8,15.4
168.4,339.3,15.41
170.4,339.8,15.42
172.5,340.3,15.42
174.5,340.8,15.43
176.5,341.3,15.44
178.5,341.8,15.44
180.6,342.3,15.44
182.6,342.8,15.45
184.6,343.3,15.46
186.6,343.8,15.46
188.7,344.3,15.47
190.7,344.8,15.47
192.7,345.3,15.47
194.7,345.8,15.48
196.7,346.3,15.48
198.7,346.8,15.48
200.7,347.3,15.49
202.7,347.8,15.5
204.7,348.3,15.5
206.8,348.8,15.5
208.8,349.3,15.51
210.7,349.8,15.51
212.7,350.3,15.51
214.7,350.8,15.52
216.7,351.3,15.52
218.7,351.8,15.52
220.7,352.3,15.52
222.7,352.8,15.52
224.7,353.3,15.53
226.7,353.8,15.53
228.7,354.3,15.53
230.6,354.8,15.53
232.6,355.3,15.53
234.6,355.8,15.53
236.6,356.3,15.54
238.5,356.8,15.54
240.5,357.3,15.54
242.5,357.8,15.54
244.4,358.3,15.54
246.4,358.8,15.54
248.4,359.3,15.54
250.3,359.8,15.54
252.3,360.3,15.54
254.3,360.8,15.54
256.2,361.3,15.54
258.2,361.8,15.54
260.1,362.3,15.54
262.1,362.8,15.54
264.0,363.3,15.54
266.0,363.8,15.54
267.9,364.3,15.54
269.9,364.8,15.53
271.8,365.3,15.53
273.7,365.8,15.53
275.7,366.3,15.53
277.6,366.8,15.53
279.6,367.3,15.53
281.5,367.8,15.53
283.4,368.3,15.53
285.4,368.8,15.53
287.3,369.3,15.52
289.2,369.8,15.52
291.2,370.3,15.52
293.1,370.8,15.52
295.0,371.3,15.52
296.9,371.8,15.52
298.9,372.3,15.51
300.8,372.8,15.51
302.7,373.3,15.51
304.6,373.8,15.51
306.5,374.3,15.51
308.4,374.8,15.51
310.4,375.3,15.51
312.3,375.8,15.5
314.2,376.3,15.5
316.1,376.8,15.5
318.0,377.3,15.5
319.9,377.8,15.5
321.8,378.3,15.5
323.7,378.8,15.49
325.6,379.3,15.49
327.5,379.8,15.49
329.4,380.3,15.49
331.3,380.8,15.49
333.2,381.3,15.49
335.1,381.8,15.49
337.0,382.3,15.49
338.9,382.8,15.48
340.7,383.3,15.48
342.6,383.8,15.48
344.5,384.3,15.48
346.4,384.8,15.48
348.3,385.3,15.47
350.2,385.8,15.47
352.1,386.3,15.47
353.9,386.8,15.47
355.8,387.3,15.47
357.7,387.8,15.47
359.6,388.3,15.46
361.4,388.8,15.46
363.3,389.3,15.46
365.2,389.8,15.46
367.1,390.3,15.46
368.9,390.8,15.45
370.8,391.3,15.45
372.7,391.8,15.45
374.5,392.3,15.45
376.4,392.8,15.45
378.2,393.3,15.45
380.1,393.8,15.44
382.0,394.3,15.44
383.8,394.8,15.44
385.7,395.3,15.44
387.5,395.8,15.44
389.4,396.3,15.44
391.2,396.8,15.44
393.1,397.3,15.43
394.9,397.8,15.43
396.8,398.3,15.43
398.6,398.8,15.43
400.5,399.3,15.43
402.3,399.8,15.43
404.2,400.3,15.42
406.0,400.8,15.42
407.9,401.3,15.42
409.7,401.8,15.42
411.5,402.3,15.42
413.4,402.8,15.41
415.2,403.3,15.41
417.0,403.8,15.41
418.9,404.3,15.41
420.7,404.8,15.41
422.5,405.3,15.41
424.4,405.8,15.41
426.2,406.3,15.4
428.0,406.8,15.4
429.9,407.3,15.4
431.7,407.8,15.4
433.5,408.3,15.39
435.3,408.8,15.39
437.2,409.3,15.39
439.0,409.8,15.39
440.8,410.3,15.39
442.6,410.8,15.39
444.4,411.3,15.39
446.3,411.8,15.38
448.1,412.3,15.38
449.9,412.8,15.38
451.7,413.3,15.38
453.5,413.8,15.38
455.3,414.3,15.38
457.1,414.8,15.38
458.9,415.3,15.38
460.7,415.8,15.37
462.6,416.3,15.37
464.4,416.8,15.37
466.2,417.3,15.37
468.0,417.8,15.37
469.8,418.3,15.36
471.6,418.8,15.36
473.4,419.3,15.36
475.2,419.8,15.36
477.0,420.3,15.35
478.8,420.8,15.35
480.6,421.3,15.35
482.4,421.8,15.35
484.2,422.3,15.35
485.9,422.8,15.35
487.7,423.3,15.34
489.5,423.8,15.34
491.3,424.3,15.34
493.1,424.8,15.34
494.9,425.3,15.33
496.7,425.8,15.33
498.5,426.3,15.33
500.3,426.8,15.33
502.0,427.3,15.33
503.8,427.8,15.32
505.6,428.3,15.32
507.4,428.8,15.32
509.2,429.3,15.32
510.9,429.8,15.32
512.7,430.3,15.31
514.5,430.8,15.31
516.3,431.3,15.31
518.0,431.8,15.31
519.8,432.3,15.31
521.6,432.8,15.3
523.4,433.3,15.3
525.1,433.8,15.3
526.9,434.3,15.3
528.7,434.8,15.3
530.4,435.3,15.29
532.2,435.8,15.29
534.0,436.3,15.29
535.7,436.8,15.29
537.5,437.3,15.29
539.3,437.8,15.28
541.0,438.3,15.28
542.8,438.8,15.28
544.5,439.3,15.28
546.3,439.8,15.28
548.1,440.3,15.28
549.8,440.8,15.28
551.6,441.3,15.27
553.3,441.8,15.27
555.1,442.3,15.27
556.8,442.8,15.27
558.6,443.3,15.27
560.3,443.8,15.26
562.1,444.3,15.26
563.8,444.8,15.26
565.6,445.3,15.26
567.3,445.8,15.26
569.1,446.3,15.25
570.8,446.8,15.25
572.6,447.3,15.25
574.3,447.8,15.25
576.1,448.3,15.25
577.8,448.8,15.24
579.6,449.3,15.24
581.3,449.8,15.24
583.0,450.3,15.24
584.8,450.8,15.24
586.5,451.3,15.23
588.3,451.8,15.23
590.0,452.3,15.23
591.7,452.8,15.23
593.5,453.3,15.22
595.2,453.8,15.22
596.9,454.3,15.22
598.7,454.8,15.22
600.4,455.3,15.22
602.1,455.8,15.21
603.9,456.3,15.21
605.6,456.8,15.21
607.3,457.3,15.21
609.0,457.8,15.21
610.8,458.3,15.2
612.5,458.8,15.2
614.2,459.3,15.2
616.0,459.8,15.2
617.7,460.3,15.19
619.4,460.8,15.19
621.1,461.3,15.19
622.8,461.8,15.19
624.6,462.3,15.19
626.3,462.8,15.18
628.0,463.3,15.18
629.7,463.8,15.18
631.4,464.3,15.18
633.2,464.8,15.18
634.9,465.3,15.17
636.6,465.8,15.17
638.3,466.3,15.17
640.0,466.8,15.17
641.7,467.3,15.16
643.4,467.8,15.16
645.2,468.3,15.16
646.9,468.8,15.16
648.6,469.3,15.16
650.3,469.8,15.15
652.0,470.3,15.15
653.7,470.8,15.15
655.4,471.3,15.15
657.1,471.8,15.14
658.8,472.3,15.14
660.5,472.8,15.14
662.2,473.3,15.14
663.9,473.8,15.14
665.6,474.3,15.13
667.3,474.8,15.13
669.0,475.3,15.13
670.7,475.8,15.13
672.4,476.3,15.13
674.1,476.8,15.12
675.8,477.3,15.12
677.5,477.8,15.12
679.2,478.3,15.12
680.9,478.8,15.11
682.6,479.3,15.11
684.3,479.8,15.11
686.0,480.3,15.1
687.7,480.8,15.1
689.4,481.3,15.1
691.1,481.8,15.1
692.8,482.3,15.09
694.5,482.8,15.09
696.2,483.3,15.09
697.8,483.8,15.08
699.5,484.3,15.08
701.2,484.8,15.08
702.9,485.3,15.08
704.6,485.8,15.07
706.3,486.3,15.07
708.0,486.8,15.07
709.7,487.3,15.07
711.3,487.8,15.07
713.0,488.3,15.06
714.7,488.8,15.06
716.4,489.3,15.06
718.1,489.8,15.06
719.7,490.3,15.05
721.4,490.8,15.05
723.1,491.3,15.05
724.8,491.8,15.04
726.5,492.3,15.04
728.1,492.8,15.03
729.8,493.3,15.03
731.5,493.8,15.03
733.2,494.3,15.03
734.8,494.8,15.03
736.5,495.3,15.02
738.2,495.8,15.02
739.9,496.3,15.02
741.5,496.8,15.02
743.2,497.3,15.01
744.9,497.8,15.01
746.6,498.3,15.0
748.2,498.8,15.0
749.9,499.3,15.0
751.6,499.8,14.99
753.2,500.3,14.99
754.9,500.8,14.99
756.6,501.3,14.99
758.2,501.8,14.98
759.9,502.3,14.98
761.6,502.8,14.97
763.2,503.3,14.97
764.9,503.8,14.97
766.6,504.3,14.96
768.2,504.8,14.96
769.9,505.3,14.96
771.5,505.8,14.96
773.2,506.3,14.95
774.9,506.8,14.95
776.5,507.3,14.94
778.2,507.8,14.94
779.8,508.3,14.94
781.5,508.8,14.93
783.2,509.3,14.93
784.8,509.8,14.92
786.5,510.3,14.92
788.1,510.8,14.92
789.8,511.3,14.92
791.4,511.8,14.91
793.1,512.3,14.91
794.7,512.8,14.9
796.4,513.3,14.9
798.1,513.8,14.9
799.7,514.3,14.89
801.4,514.8,14.89
803.0,515.3,14.89
804.7,515.8,14.89
806.3,516.3,14.88
808.0,516.8,14.88
809.6,517.3,14.87
811.3,517.8,14.87
812.9,518.3,14.86
814.6,518.8,14.86
816.2,519.3,14.86
817.8,519.8,14.85
819.5,520.3,14.85
821.1,520.8,14.84
822.8,521.3,14.84
824.4,521.8,14.83
826.1,522.3,14.83
827.7,522.8,14.82
829.4,523.3,14.82
831.0,523.8,14.81
832.6,524.3,14.81
834.3,524.8,14.81
835.9,525.3,14.8
837.6,525.8,14.8
839.2,526.3,14.79
840.8,526.8,14.78
842.5,527.3,14.77
844.1,527.8,14.77
845.8,528.3,14.76
847.4,528.8,14.76
849.0,529.3,14.75
850.7,529.8,14.74
852.3,530.3,14.74
853.9,530.8,14.73
855.6,531.3,14.73
857.2,531.8,14.72
858.8,532.3,14.71
860.5,532.8,14.7
862.1,533.3,14.69
863.7,533.8,14.68
865.4,534.3,14.68
867.0,534.8,14.67
868.6,535.3,14.66
870.3,535.8,14.65
871.9,536.3,14.64
873.5,536.8,14.64
875.1,537.3,14.63
876.8,537.8,14.62
878.4,538.3,14.61
880.0,538.8,14.6
881.7,539.3,14.59
883.3,539.8,14.58
884.9,540.3,14.57
886.5,540.8,14.56
888.2,541.3,14.55
889.8,541.8,14.54
891.4,542.3,14.54
893.0,542.8,14.53
894.7,543.3,14.52
896.3,543.8,14.5
897.9,544.3,14.49
899.5,544.8,14.48
901.2,545.3,14.47
902.8,545.8,14.46
904.4,546.3,14.45
906.0,546.8,14.44
907.6,547.3,14.43
909.3,547.8,14.42
910.9,548.3,14.41
912.5,548.8,14.4
914.1,549.3,14.39
915.7,549.8,14.38
917.3,550.3,14.36
919.0,550.8,14.35
920.6,551.3,14.33
922.2,551.8,14.32
923.8,552.3,14.31
925.4,552.8,14.3
927.0,553.3,14.29
928.7,553.8,14.28
930.3,554.3,14.27
931.9,554.8,14.25
933.5,555.3,14.24
935.1,555.8,14.23
936.7,556.3,14.21
938.3,556.8,14.2
940.0,557.3,14.18
941.6,557.8,14.17
943.2,558.3,14.16
944.8,558.8,14.14
946.4,559.3,14.13
948.0,559.8,14.12
949.6,560.3,14.1
951.2,560.8,14.09
952.8,561.3,14.07
954.4,561.8,14.06
956.1,562.3,14.05
957.7,562.8,14.03
959.3,563.3,14.02
960.9,563.8,14.0
962.5,564.3,13.99
964.1,564.8,13.97
965.7,565.3,13.95
967.3,565.8,13.94
968.9,566.3,13.92
970.5,566.8,13.9
972.1,567.3,13.89
973.7,567.8,13.87
975.3,568.3,13.86
976.9,568.8,13.84
978.5,569.3,13.82
980.1,569.8,13.8
981.7,570.3,13.78
983.3,570.8,13.77
984.9,571.3,13.75
986.5,571.8,13.73
988.1,572.3,13.71
989.7,572.8,13.69
991.3,573.3,13.68
992.9,573.8,13.66
994.5,574.3,13.64
996.1,574.8,13.62
997.7,575.3,13.6
999.3,575.8,13.59
1000.9,576.3,13.56
1002.5,576.8,13.54
1004.1,577.3,13.52
1005.7,577.8,13.5
1007.3,578.3,13.48
1008.9,578.8,13.46
1010.5,579.3,13.44
1012.1,579.8,13.43
1013.7,580.3,13.4
1015.3,580.8,13.38
1016.9,581.3,13.36
1018.5,581.8,13.34
1020.1,582.3,13.32
1021.7,582.8,13.3
1023.3,583.3,13.28
1024.9,583.8,13.26
1026.5,584.3,13.23
1028.1,584.8,13.21
1029.6,585.3,13.19
1031.2,585.8,13.16
1032.8,586.3,13.14
1034.4,586.8,13.12
1036.0,587.3,13.1
1037.6,587.8,13.08
1039.2,588.3,13.05
1040.8,588.8,13.02
1042.4,589.3,13.0
1044.0,589.8,12.98
1045.6,590.3,12.95
1047.1,590.8,12.93
1048.7,591.3,12.91
1050.3,591.8,12.88
1051.9,592.3,12.86
1053.5,592.8,12.83
1055.1,593.3,12.81
1056.7,593.8,12.78
1058.3,594.3,12.76
1059.8,594.8,12.74
1061.4,595.3,12.71
1063.0,595.8,12.68
1064.6,596.3,12.66
1066.2,596.8,12.63
1067.8,597.3,12.6
1069.4,597.8,12.58
1070.9,598.3,12.55
1072.5,598.8,12.52
1074.1,599.3,12.49
1075.7,599.8,12.46
1077.3,600.3,12.44
1078.9,600.8,12.41
1080.5,601.3,12.38
1082.0,601.8,12.36
1083.6,602.3,12.33
1085.2,602.8,12.3
1086.8,603.3,12.27
1088.4,603.8,12.24
1089.9,604.3,12.21
1091.5,604.8,12.18
1093.1,605.3,12.15
1094.7,605.8,12.12
1096.3,606.3,12.08
1097.9,606.8,12.05
1099.4,607.3,12.03
1101.0,607.8,12.0
1102.6,608.3,11.97
1104.2,608.8,11.94
1105.8,609.3,11.9
1107.3,609.8,11.87
1108.9,610.3,11.84
1110.5,610.8,11.81
1112.1,611.3,11.77
1113.6,611.8,11.74
1115.2,612.3,11.71
1116.8,612.8,11.67
1118.4,613.3,11.64
1120.0,613.8,11.61
1121.5,614.3,11.57
1123.1,614.8,11.54
1124.7,615.3,11.51
1126.3,615.8,11.47
1127.8,616.3,11.43
1129.4,616.8,11.4
1131.0,617.3,11.36
1132.6,617.8,11.32
1134.1,618.3,11.29
1135.7,618.8,11.25
1137.3,619.3,11.21
1138.9,619.8,11.18
1140.4,620.3,11.14
1142.0,620.8,11.1
1143.6,621.3,11.06
1145.2,621.8,11.02
1146.7,622.3,10.98
1148.3,622.8,10.94
1149.9,623.3,10.9
1151.5,623.8,10.85
1153.0,624.3,10.81
1154.6,624.8,10.77
1156.2,625.3,10.73
1157.7,625.8,10.69
1159.3,626.3,10.65
1160.9,626.8,10.6
1162.5,627.3,10.56
1164.0,627.8,10.51
1165.6,628.3,10.47
1167.2,628.8,10.42
1168.7,629.3,10.38
1170.3,629.8,10.33
1171.9,630.3,10.28
1173.4,630.8,10.24
1175.0,631.3,10.2
1176.6,631.8,10.15
1178.2,632.3,10.11
1179.7,632.8,10.06
1181.3,633.3,10.01
1182.9,633.8,9.96
1184.4,634.3,9.91
1186.0,634.8,9.86
1187.6,635.3,9.81
1189.1,635.8,9.77
1190.7,636.3,9.72
1192.3,636.8,9.67
1193.8,637.3,9.62
1195.4,637.8,9.57
1197.0,638.3,9.52
1198.5,638.8,9.47
1200.1,639.3,9.42
1201.7,639.8,9.37
1203.2,640.3,9.32
1204.8,640.8,9.27
1206.4,641.3,9.22
1207.9,641.8,9.17
1209.5,642.3,9.11
1211.1,642.8,9.06
1212.6,643.3,9.01
1214.2,643.8,8.96
1215.8,644.3,8.9
1217.3,644.8,8.85
1218.9,645.3,8.8
1220.5,645.8,8.75
1222.0,646.3,8.7
1223.6,646.8,8.64
1225.2,647.3,8.59
1226.7,647.8,8.54
1228.3,648.3,8.49
1229.9,648.8,8.43
1231.4,649.3,8.38
1233.0,649.8,8.33
1234.5,650.3,8.28
1236.1,650.8,8.23
1237.7,651.3,8.17
1239.2,651.8,8.12
1240.8,652.3,8.07
1242.4,652.8,8.02
1243.9,653.3,7.97
1245.5,653.8,7.91
1247.0,654.3,7.86
1248.6,654.8,7.81
1250.2,655.3,7.76
1251.7,655.8,7.71
1253.3,656.3,7.65
1254.9,656.8,7.6
1256.4,657.3,7.55
1258.0,657.8,7.5
1259.5,658.3,7.45
1261.1,658.8,7.39
1262.7,659.3,7.34
1264.2,659.8,7.29
1265.8,660.3,7.25
1267.4,660.8,7.19
1268.9,661.3,7.14
1270.5,661.8,7.1
1272.0,662.3,7.05
1273.6,662.8,7.0
1275.2,663.3,6.96
1276.7,663.8,6.91
1278.3,664.3,6.86
1279.8,664.8,6.81
1281.4,665.3,6.77
1283.0,665.8,6.72
1284.5,666.3,6.67
1286.1,666.8,6.63
1287.6,667.3,6.58
1289.2,667.8,6.54
1290.8,668.3,6.5
1292.3,668.8,6.45
1293.9,669.3,6.41
1295.4,669.8,6.37
1297.0,670.3,6.32
1298.5,670.8,6.28
1300.1,671.3,6.24
1301.7,671.8,6.2
1303.2,672.3,6.16
1304.8,672.8,6.13
1306.3,673.3,6.08
1307.9,673.8,6.04
1309.5,674.3,6.01
1311.0,674.8,5.97
1312.6,675.3,5.93
1314.1,675.8,5.9
1315.7,676.3,5.86
1317.2,676.8,5.82
1318.8,677.3,5.79
1320.4,677.8,5.75
1321.9,678.3,5.72
1323.5,678.8,5.69
1325.0,679.3,5.65
1326.6,679.8,5.62
1328.2,680.3,5.59
1329.7,680.8,5.56
1331.3,681.3,5.52
1332.8,681.8,5.5
1334.4,682.3,5.47
1335.9,682.8,5.44
1337.5,683.3,5.41
1339.0,683.8,5.38
1340.6,684.3,5.36
1342.2,684.8,5.33
1343.7,685.3,5.3
1345.3,685.8,5.28
1346.8,686.3,5.25
1348.4,686.8,5.23
1349.9,687.3,5.21
1351.5,687.8,5.18
1353.1,688.3,5.16
1354.6,688.8,5.14
1356.2,689.3,5.12
1357.7,689.8,5.1
1359.3,690.3,5.08
1360.8,690.8,5.06
1362.4,691.3,5.03
1364.0,691.8,5.01
1365.5,692.3,4.99
1367.1,692.8,4.98
1368.6,693.3,4.96
1370.2,693.8,4.95
1371.7,694.3,4.93
1373.3,694.8,4.91
1374.8,695.3,4.89
1376.4,695.8,4.88
1378.0,696.3,4.87
1379.5,696.8,4.85
1381.1,697.3,4.84
1382.6,697.8,4.82
1384.2,698.3,4.81
1385.7,698.8,4.8
1387.3,699.3,4.79
1388.8,699.8,4.78
1390.4,700.3,4.77
1392.0,700.8,4.76
1393.5,701.3,4.75
1395.1,701.8,4.74
1396.6,702.3,4.73
1398.2,702.8,4.72
1399.7,703.3,4.71
1401.3,703.8,4.71
1402.8,704.3,4.7
1404.4,704.8,4.69
1406.0,705.3,4.68
1407.5,705.8,4.68
1409.1,706.3,4.67
1410.6,706.8,4.67
1412.2,707.3,4.66
1413.7,707.8,4.65
1415.3,708.3,4.64
1416.8,708.8,4.64
1418.4,709.3,4.63
1419.9,709.8,4.63
1421.5,710.3,4.62
1423.1,710.8,4.62
1424.6,711.3,4.61
1426.2,711.8,4.61
1427.7,712.3,4.6
1429.3,712.8,4.6
1430.8,713.3,4.6
1432.4,713.8,4.6
1433.9,714.3,4.59
1435.5,714.8,4.58
1437.1,715.3,4.58
1438.6,715.8,4.57
1440.2,716.3,4.57
1441.7,716.8,4.56
1443.3,717.3,4.56
1444.8,717.8,4.55
1446.4,718.3,4.55
1447.9,718.8,4.55
1449.5,719.3,4.55
1451.1,719.8,4.54
1452.6,720.3,4.54
1454.2,720.8,4.53
1455.7,721.3,4.53
1457.3,721.8,4.52
1458.8,722.3,4.52
1460.4,722.8,4.52
1461.9,723.3,4.52
1463.5,723.8,4.51
1465.1,724.3,4.51
1466.6,724.8,4.5
1468.2,725.3,4.5
1469.7,725.8,4.49
1471.3,726.3,4.49
1472.8,726.8,4.49
1474.4,727.3,4.49
1475.9,727.8,4.48
1477.5,728.3,4.48
1479.1,728.8,4.47
1480.6,729.3,4.46
1482.2,729.8,4.46
1483.7,730.3,4.45
1485.3,730.8,4.45
1486.8,731.3,4.45
1488.4,731.8,4.45
1489.9,732.3,4.44
1491.5,732.8,4.44
1493.1,733.3,4.43
1494.6,733.8,4.43
1496.2,734.3,4.42
1497.7,734.8,4.42
1499.3,735.3,4.42
1500.8,735.8,4.42
1502.4,736.3,4.41
1504.0,736.8,4.41
1505.5,737.3,4.4
1507.1,737.8,4.4
1508.6,738.3,4.39
1510.2,738.8,4.39
1511.7,739.3,4.38
1513.3,739.8,4.38
1514.9,740.3,4.37
1516.4,740.8,4.37
1518.0,741.3,4.37
1519.5,741.8,4.36
1521.1,742.3,4.36
1522.6,742.8,4.35
1524.2,743.3,4.35
1525.8,743.8,4.34
1527.3,744.3,4.34
1528.9,744.8,4.33
1530.4,745.3,4.33
1532.0,745.8,4.33
1533.5,746.3,4.33
1535.1,746.8,4.32
1536.7,747.3,4.32
1538.2,747.8,4.31
1539.8,748.3,4.31
1541.3,748.8,4.3
1542.9,749.3,4.3
1544.5,749.8,4.29
1546.0,750.3,4.29
1547.6,750.8,4.28
1549.1,751.3,4.28
1550.7,751.8,4.28
1552.2,752.3,4.28
1553.8,752.8,4.27
1555.4,753.3,4.27
1556.9,753.8,4.26
1558.5,754.3,4.26
1560.0,754.8,4.25
1561.6,755.3,4.24
1563.2,755.8,4.24
1564.7,756.3,4.23
1566.3,756.8,4.23
1567.8,757.3,4.22
1569.4,757.8,4.22
1571.0,758.3,4.21
1572.5,758.8,4.21
1574.1,759.3,4.2
1575.6,759.8,4.2
1577.2,760.3,4.19
1578.8,760.8,4.19
1580.3,761.3,4.18
1581.9,761.8,4.18
1583.4,762.3,4.18
1585.0,762.8,4.18
1586.6,763.3,4.17
1588.1,763.8,4.17
1589.7,764.3,4.16
1591.3,764.8,4.16
1592.8,765.3,4.15
1594.4,765.8,4.15
1595.9,766.3,4.14
1597.5,766.8,4.13
1599.1,767.3,4.13
1600.6,767.8,4.12
1602.2,768.3,4.12
1603.8,768.8,4.11
1605.3,769.3,4.11
1606.9,769.8,4.1
1608.4,770.3,4.1
1610.0,770.8,4.09
1611.6,771.3,4.09
1613.1,771.8,4.08
1614.7,772.3,4.08
1616.3,772.8,4.07
1617.8,773.3,4.07
1619.4,773.8,4.07
1621.0,774.3,4.07
1622.5,774.8,4.06
1624.1,775.3,4.06
1625.6,775.8,4.05
1627.2,776.3,4.05
1628.8,776.8,4.04
1630.3,777.3,4.04
1631.9,777.8,4.03
1633.5,778.3,4.03
1635.0,778.8,4.02
1636.6,779.3,4.01
1638.2,779.8,4.01
1639.7,780.3,4.0
1641.3,780.8,4.0
1642.9,781.3,3.99
1644.4,781.8,3.99
1646.0,782.3,3.98
1647.6,782.8,3.98
1649.1,783.3,3.97
1650.7,783.8,3.96
1652.3,784.3,3.95
1653.8,784.8,3.95
1655.4,785.3,3.94
1657.0,785.8,3.94
1658.5,786.3,3.93
1660.1,786.8,3.93
1661.7,787.3,3.93
1663.3,787.8,3.93
1664.8,788.3,3.92
1666.4,788.8,3.92
1668.0,789.3,3.91
1669.5,789.8,3.9
1671.1,790.3,3.9
1672.7,790.8,3.89
1674.2,791.3,3.89
1675.8,791.8,3.88
1677.4,792.3,3.88
1678.9,792.8,3.87
1680.5,793.3,3.87
1682.1,793.8,3.87
1683.7,794.3,3.87
1685.2,794.8,3.86
1686.8,795.3,3.86
1688.4,795.8,3.85
1689.9,796.3,3.85
1691.5,796.8,3.84
1693.1,797.3,3.84
1694.7,797.8,3.83
1696.2,798.3,3.83
1697.8,798.8,3.82
1699.4,799.3,3.82
1701.0,799.8,3.81
1702.5,800.3,3.8
1704.1,800.8,3.8
1705.7,801.3,3.79
1707.3,801.8,3.79
1708.8,802.3,3.78
1710.4,802.8,3.78
1712.0,803.3,3.77
1713.6,803.8,3.77
1715.1,804.3,3.76
1716.7,804.8,3.76
1718.3,805.3,3.75
1719.9,805.8,3.75
1721.4,806.3,3.74
1723.0,806.8,3.73
1724.6,807.3,3.72
1726.2,807.8,3.72
1727.7,808.3,3.71
1729.3,808.8,3.71
1730.9,809.3,3.7
1732.5,809.8,3.7
1734.0,810.3,3.69
1735.6,810.8,3.68
1737.2,811.3,3.68
1738.8,811.8,3.67
1740.4,812.3,3.67
1741.9,812.8,3.66
1743.5,813.3,3.65
1745.1,813.8,3.64
1746.7,814.3,3.64
1748.3,814.8,3.63
1749.8,815.3,3.63
1751.4,815.8,3.62
1753.0,816.3,3.62
1754.6,816.8,3.61
1756.2,817.3,3.6
1757.7,817.8,3.59
1759.3,818.3,3.59
1760.9,818.8,3.58
1762.5,819.3,3.58
1764.1,819.8,3.57
1765.7,820.3,3.56
1767.2,820.8,3.56
1768.8,821.3,3.55
1770.4,821.8,3.54
1772.0,822.3,3.53
1773.6,822.8,3.53
1775.2,823.3,3.52
1776.7,823.8,3.52
1778.3,824.3,3.51
1779.9,824.8,3.5
1781.5,825.3,3.49
1783.1,825.8,3.49
1784.7,826.3,3.48
1786.3,826.8,3.48
1787.8,827.3,3.47
1789.4,827.8,3.47
1791.0,828.3,3.46
1792.6,828.8,3.45
1794.2,829.3,3.44
1795.8,829.8,3.43
1797.4,830.3,3.43
1799.0,830.8,3.42
1800.6,831.3,3.42
1802.1,831.8,3.41
1803.7,832.3,3.4
1805.3,832.8,3.39
1806.9,833.3,3.39
1808.5,833.8,3.38
1810.1,834.3,3.38
1811.7,834.8,3.37
1813.3,835.3,3.37
1814.9,835.8,3.36
1816.5,836.3,3.35
1818.1,836.8,3.34
1819.6,837.3,3.33
1821.2,837.8,3.33
1822.8,838.3,3.32
1824.4,838.8,3.32
1826.0,839.3,3.31
1827.6,839.8,3.31
1829.2,840.3,3.3
1830.8,840.8,3.3
1832.4,841.3,3.29
1834.0,841.8,3.28
1835.6,842.3,3.27
1837.2,842.8,3.27
1838.8,843.3,3.26
1840.4,843.8,3.26
1842.0,844.3,3.25
1843.6,844.8,3.24
1845.2,845.3,3.24
1846.8,845.8,3.23
1848.4,846.3,3.22
1850.0,846.8,3.21
1851.6,847.3,3.21
1853.2,847.8,3.2
1854.8,848.3,3.2
1856.4,848.8,3.19
1858.0,849.3,3.18
1859.6,849.8,3.17
1861.2,850.3,3.17
1862.8,850.8,3.16
1864.4,851.3,3.16
1866.0,851.8,3.15
1867.6,852.3,3.14
1869.2,852.8,3.14
1870.8,853.3,3.13
1872.4,853.8,3.12
1874.0,854.3,3.11
1875.6,854.8,3.11
1877.2,855.3,3.1
1878.8,855.8,3.1
1880.4,856.3,3.09
1882.0,856.8,3.09
1883.6,857.3,3.08
1885.2,857.8,3.08
1886.8,858.3,3.07
1888.4,858.8,3.07
1890.1,859.3,3.06
1891.7,859.8,3.05
1893.3,860.3,3.04
1894.9,860.8,3.03
1896.5,861.3,3.03
1898.1,861.8,3.02
1899.7,862.3,3.02
1901.3,862.8,3.01
1902.9,863.3,3.01
1904.5,863.8,3.0
1906.2,864.3,3.0
1907.8,864.8,2.99
1909.4,865.3,2.99
1911.0,865.8,2.98
1912.6,866.3,2.97
1914.2,866.8,2.97
1915.8,867.3,2.96
1917.4,867.8,2.96
1919.1,868.3,2.95
1920.7,868.8,2.95
1922.3,869.3,2.94
1923.9,869.8,2.94
1925.5,870.3,2.93
1927.1,870.8,2.93
1928.8,871.3,2.92
1930.4,871.8,2.92
1932.0,872.3,2.91
1933.6,872.8,2.9
1935.2,873.3,2.9
1936.8,873.8,2.89
1938.5,874.3,2.88
1940.1,874.8,2.87
1941.7,875.3,2.87
1943.3,875.8,2.86
1945.0,876.3,2.86
1946.6,876.8,2.85
1948.2,877.3,2.85
1949.8,877.8,2.84
1951.4,878.3,2.84
1953.1,878.8,2.83
1954.7,879.3,2.82
1956.3,879.8,2.82
1957.9,880.3,2.81
1959.6,880.8,2.81
1961.2,881.3,2.8
1962.8,881.8,2.79
1964.4,882.3,2.78
1966.1,882.8,2.78
1967.7,883.3,2.77
1969.3,883.8,2.77
1971.0,884.3,2.76
1972.6,884.8,2.75
1974.2,885.3,2.75
1975.8,885.8,2.74
1977.5,886.3,2.73
1979.1,886.8,2.72
1980.7,887.3,2.72
1982.4,887.8,2.71
1984.0,888.3,2.71
1985.6,888.8,2.7
1987.3,889.3,2.69
1988.9,889.8,2.68
1990.5,890.3,2.67
1992.2,890.8,2.67
1993.8,891.3,2.66
1995.4,891.8,2.66
1997.1,892.3,2.65
1998.7,892.8,2.64
2000.3,893.3,2.63
2002.0,893.8,2.63
2003.6,894.3,2.62
2005.3,894.8,2.61
2006.9,895.3,2.6
2008.5,895.8,2.59
2010.2,896.3,2.59
2011.8,896.8,2.58
2013.5,897.3,2.57
2015.1,897.8,2.56
2016.7,898.3,2.56
2018.4,898.8,2.54
2020.0,899.3,2.53
2021.7,899.8,2.52
2023.3,900.3,2.52
2025.0,900.8,2.51
2026.6,901.3,2.5
2028.3,901.8,2.49
2029.9,902.3,2.48
2031.5,902.8,2.48
2033.2,903.3,2.47
2034.8,903.8,2.45
2036.5,904.3,2.44
2038.1,904.8,2.44
2039.8,905.3,2.43
2041.4,905.8,2.42
2043.1,906.3,2.41
2044.7,906.8,2.4
2046.4,907.3,2.39
2048.0,907.8,2.38
2049.7,908.3,2.38
2051.3,908.8,2.36
2053.0,909.3,2.35
2054.7,909.8,2.34
2056.3,910.3,2.33
2058.0,910.8,2.32
2059.6,911.3,2.31
2061.3,911.8,2.3
2062.9,912.3,2.29
2064.6,912.8,2.28
2066.3,913.3,2.26
2067.9,913.8,2.25
2069.6,914.3,2.24
2071.2,914.8,2.23
2072.9,915.3,2.22
2074.6,915.8,2.21
2076.2,916.3,2.2
2077.9,916.8,2.19
2079.5,917.3,2.18
2081.2,917.8,2.17
2082.9,918.3,2.15
2084.5,918.8,2.14
2086.2,919.3,2.13
2087.9,919.8,2.12
2089.5,920.3,2.11
2091.2,920.8,2.1
2092.9,921.3,2.09
2094.5,921.8,2.08
2096.2,922.3,2.07
2097.9,922.8,2.05
2099.5,923.3,2.04
2101.2,923.8,2.03
2102.9,924.3,2.02
2104.6,924.8,2.01
2106.2,925.3,2.0
2107.9,925.8,1.99
2109.6,926.3,1.99
2111.2,926.8,1.98
2112.9,927.3,1.96
2114.6,927.8,1.95
2116.3,928.3,1.94
2117.9,928.8,1.93
2119.6,929.3,1.92
2121.3,929.8,1.91
2123.0,930.3,1.9
2124.7,930.8,1.89
2126.3,931.3,1.87
2128.0,931.8,1.86
2129.7,932.3,1.85
2131.4,932.8,1.84
2133.1,933.3,1.83
2134.7,933.8,1.82
2136.4,934.3,1.81
2138.1,934.8,1.8
2139.8,935.3,1.78
2141.5,935.8,1.77
2143.2,936.3,1.76
2144.9,936.8,1.75
2146.5,937.3,1.74
2148.2,937.8,1.73
2149.9,938.3,1.72
2151.6,938.8,1.71
2153.3,939.3,1.69
2155.0,939.8,1.68
2156.7,940.3,1.67
2158.4,940.8,1.66
2160.1,941.3,1.65
2161.8,941.8,1.64
2163.5,942.3,1.63
2165.2,942.8,1.62
2166.9,943.3,1.61
2168.6,943.8,1.6
2170.3,944.3,1.59
2171.9,944.8,1.58
2173.6,945.3,1.57
2175.3,945.8,1.56
2177.0,946.3,1.55
2178.7,946.8,1.54
2180.5,947.3,1.52
2182.2,947.8,1.51
2183.9,948.3,1.5
2185.6,948.8,1.49
2187.3,949.3,1.48
2189.0,949.8,1.47
2190.7,950.3,1.47
2192.4,950.8,1.45
2194.1,951.3,1.44
2195.8,951.8,1.43
2197.5,952.3,1.42
2199.2,952.8,1.41
2200.9,953.3,1.4
2202.6,953.8,1.4
2204.4,954.3,1.38
2206.1,954.8,1.37
2207.8,955.3,1.36
2209.5,955.8,1.35
2211.2,956.3,1.34
2212.9,956.8,1.33
2214.6,957.3,1.33
2216.4,957.8,1.31
2218.1,958.3,1.3
2219.8,958.8,1.29
2221.5,959.3,1.28
2223.2,959.8,1.28
2225.0,960.3,1.27
2226.7,960.8,1.26
2228.4,961.3,1.25
2230.1,961.8,1.24
2231.9,962.3,1.23
2233.6,962.8,1.22
2235.3,963.3,1.22
2237.0,963.8,1.21
2238.8,964.3,1.2
2240.5,964.8,1.19
2242.2,965.3,1.18
2243.9,965.8,1.17
2245.7,966.3,1.16
2247.4,966.8,1.16
2249.1,967.3,1.15
2250.9,967.8,1.14
2252.6,968.3,1.13
2254.3,968.8,1.13
2256.1,969.3,1.12
2257.8,969.8,1.11
2259.6,970.3,1.11
2261.3,970.8,1.09
2263.0,971.3,1.09
2264.8,971.8,1.08
2266.5,972.3,1.07
2268.3,972.8,1.07
2270.0,973.3,1.06
2271.7,973.8,1.06
2273.5,974.3,1.05
2275.2,974.8,1.05
2277.0,975.3,1.04
2278.7,975.8,1.03
2280.5,976.3,1.02
2282.2,976.8,1.01