File: Wood/Calibration_Data/UAI/UAI_TGA_N2_20K_R3.csv
Time (s),Temperature (K),Mass (mg)
0,300.508,14.95
3,301.18,14.95
6,301.853,14.96
9,302.528,14.96
12,303.204,14.97
15,303.881,14.97
18,304.559,14.98
21,305.239,14.99
24,305.919,14.99
27,306.601,15
30,307.285,15.01
33,307.969,15.01
36,308.655,15.02
39,309.342,15.03
42,310.03,15.03
45,310.719,15.04
48,311.409,15.05
51,312.101,15.05
54,312.794,15.06
57,313.488,15.07
60,314.183,15.08
63,314.879,15.09
66,315.577,15.09
69,316.276,15.1
72,316.976,15.11
75,317.677,15.12
78,318.379,15.12
81,319.082,15.13
84,319.787,15.14
87,320.493,15.15
90,321.2,15.16
93,321.908,15.16
96,322.617,15.17
99,323.328,15.18
102,324.039,15.19
105,324.752,15.2
108,325.466,15.2
111,326.181,15.21
114,326.897,15.22
117,327.614,15.23
120,328.332,15.24
123,329.052,15.24
126,329.773,15.25
129,330.495,15.26
132,331.217,15.27
135,331.942,15.28
138,332.667,15.28
141,333.393,15.29
144,334.12,15.3
147,334.849,15.31
150,335.579,15.31
153,336.309,15.32
156,337.041,15.33
159,337.774,15.33
162,338.508,15.34
165,339.243,15.35
168,339.979,15.36
171,340.717,15.36
174,341.455,15.37
177,342.195,15.38
180,342.935,15.38
183,343.677,15.39
186,344.42,15.39
189,345.163,15.4
192,345.908,15.4
195,346.654,15.41
198,347.401,15.41
201,348.149,15.41
204,348.899,15.42
207,349.649,15.42
210,350.4,15.42
213,351.152,15.43
216,351.906,15.43
219,352.66,15.43
222,353.416,15.44
225,354.172,15.44
228,354.93,15.44
231,355.688,15.44
234,356.448,15.44
237,357.209,15.44
240,357.97,15.45
243,358.733,15.45
246,359.497,15.45
249,360.262,15.45
252,361.027,15.45
255,361.794,15.45
258,362.562,15.45
261,363.331,15.45
264,364.101,15.45
267,364.872,15.45
270,365.643,15.45
273,366.416,15.45
276,367.19,15.45
279,367.965,15.45
282,368.741,15.45
285,369.518,15.45
288,370.296,15.45
291,371.074,15.45
294,371.854,15.45
297,372.635,15.45
300,373.417,15.45
303,374.2,15.45
306,374.983,15.45
309,375.768,15.45
312,376.554,15.45
315,377.34,15.45
318,378.128,15.45
321,378.916,15.44
324,379.706,15.44
327,380.496,15.44
330,381.288,15.44
333,382.08,15.44
336,382.873,15.43
339,383.668,15.43
342,384.463,15.43
345,385.259,15.43
348,386.056,15.43
351,386.854,15.42
354,387.653,15.42
357,388.453,15.42
360,389.254,15.42
363,390.055,15.42
366,390.858,15.41
369,391.662,15.41
372,392.466,15.41
375,393.271,15.41
378,394.078,15.4
381,394.885,15.4
384,395.693,15.4
387,396.502,15.4
390,397.312,15.4
393,398.123,15.4
396,398.935,15.39
399,399.747,15.39
402,400.561,15.39
405,401.375,15.39
408,402.19,15.38
411,403.006,15.38
414,403.823,15.38
417,404.641,15.38
420,405.46,15.38
423,406.28,15.38
426,407.1,15.38
429,407.922,15.38
432,408.744,15.38
435,409.567,15.37
438,410.391,15.37
441,411.216,15.37
444,412.042,15.37
447,412.868,15.37
450,413.695,15.37
453,414.524,15.37
456,415.353,15.37
459,416.183,15.36
462,417.013,15.36
465,417.845,15.36
468,418.677,15.36
471,419.511,15.36
474,420.345,15.36
477,421.18,15.36
480,422.015,15.36
483,422.852,15.36
486,423.689,15.36
489,424.527,15.35
492,425.366,15.35
495,426.206,15.35
498,427.047,15.35
501,427.888,15.35
504,428.73,15.35
507,429.573,15.35
510,430.417,15.35
513,431.262,15.35
516,432.107,15.35
519,432.953,15.35
522,433.8,15.35
525,434.648,15.35
528,435.496,15.35
531,436.346,15.35
534,437.196,15.35
537,438.047,15.35
540,438.898,15.35
543,439.751,15.35
546,440.604,15.35
549,441.458,15.35
552,442.312,15.35
555,443.168,15.35
558,444.024,15.35
561,444.881,15.35
564,445.738,15.35
567,446.597,15.35
570,447.456,15.35
573,448.316,15.35
576,449.176,15.35
579,450.038,15.35
582,450.9,15.35
585,451.763,15.35
588,452.626,15.35
591,453.491,15.35
594,454.356,15.35
597,455.221,15.35
600,456.088,15.35
603,456.955,15.35
606,457.823,15.35
609,458.691,15.35
612,459.561,15.35
615,460.431,15.35
618,461.301,15.35
621,462.173,15.35
624,463.045,15.35
627,463.918,15.35
630,464.791,15.35
633,465.665,15.35
636,466.54,15.35
639,467.416,15.34
642,468.292,15.34
645,469.169,15.34
648,470.046,15.34
651,470.925,15.34
654,471.804,15.34
657,472.683,15.34
660,473.563,15.34
663,474.444,15.34
666,475.326,15.33
669,476.208,15.33
672,477.091,15.33
675,477.975,15.33
678,478.859,15.33
681,479.744,15.32
684,480.629,15.32
687,481.515,15.32
690,482.402,15.31
693,483.289,15.31
696,484.177,15.31
699,485.066,15.3
702,485.955,15.3
705,486.845,15.3
708,487.736,15.29
711,488.627,15.29
714,489.519,15.29
717,490.411,15.28
720,491.304,15.28
723,492.198,15.27
726,493.092,15.27
729,493.987,15.26
732,494.882,15.26
735,495.778,15.25
738,496.675,15.25
741,497.572,15.24
744,498.47,15.24
747,499.368,15.23
750,500.267,15.22
753,501.167,15.22
756,502.067,15.21
759,502.968,15.21
762,503.869,15.2
765,504.771,15.19
768,505.673,15.19
771,506.576,15.18
774,507.48,15.17
777,508.384,15.16
780,509.289,15.16
783,510.194,15.15
786,511.1,15.14
789,512.006,15.14
792,512.913,15.13
795,513.82,15.12
798,514.728,15.11
801,515.637,15.11
804,516.546,15.1
807,517.456,15.09
810,518.366,15.08
813,519.277,15.08
816,520.188,15.07
819,521.1,15.06
822,522.012,15.05
825,522.925,15.04
828,523.838,15.03
831,524.752,15.02
834,525.666,15.01
837,526.581,15
840,527.496,14.99
843,528.412,14.98
846,529.329,14.97
849,530.246,14.96
852,531.163,14.95
855,532.081,14.94
858,532.999,14.93
861,533.918,14.92
864,534.837,14.91
867,535.757,14.9
870,536.677,14.88
873,537.598,14.87
876,538.52,14.86
879,539.441,14.84
882,540.363,14.83
885,541.286,14.82
888,542.209,14.8
891,543.133,14.79
894,544.057,14.77
897,544.981,14.76
900,545.906,14.74
903,546.832,14.72
906,547.758,14.71
909,548.684,14.69
912,549.611,14.67
915,550.538,14.66
918,551.466,14.64
921,552.394,14.62
924,553.322,14.6
927,554.251,14.58
930,555.181,14.56
933,556.111,14.54
936,557.041,14.52
939,557.972,14.49
942,558.903,14.47
945,559.834,14.45
948,560.766,14.42
951,561.698,14.4
954,562.631,14.37
957,563.564,14.35
960,564.498,14.32
963,565.432,14.29
966,566.366,14.27
969,567.301,14.24
972,568.236,14.21
975,569.172,14.19
978,570.107,14.16
981,571.044,14.13
984,571.98,14.1
987,572.918,14.07
990,573.855,14.03
993,574.793,14
996,575.731,13.97
999,576.67,13.94
1002,577.609,13.9
1005,578.548,13.87
1008,579.487,13.84
1011,580.427,13.8
1014,581.368,13.77
1017,582.309,13.73
1020,583.25,13.69
1023,584.191,13.65
1026,585.133,13.61
1029,586.075,13.57
1032,587.017,13.53
1035,587.96,13.49
1038,588.903,13.45
1041,589.847,13.41
1044,590.791,13.36
1047,591.735,13.32
1050,592.679,13.27
1053,593.624,13.23
1056,594.569,13.18
1059,595.514,13.13
1062,596.46,13.09
1065,597.406,13.04
1068,598.353,12.99
1071,599.299,12.94
1074,600.246,12.89
1077,601.193,12.83
1080,602.141,12.78
1083,603.089,12.73
1086,604.037,12.67
1089,604.985,12.62
1092,605.934,12.56
1095,606.883,12.5
1098,607.832,12.44
1101,608.782,12.38
1104,609.732,12.32
1107,610.682,12.26
1110,611.632,12.19
1113,612.583,12.13
1116,613.534,12.06
1119,614.485,11.99
1122,615.437,11.92
1125,616.388,11.85
1128,617.34,11.78
1131,618.293,11.71
1134,619.245,11.64
1137,620.198,11.56
1140,621.151,11.49
1143,622.104,11.41
1146,623.058,11.33
1149,624.011,11.25
1152,624.965,11.17
1155,625.919,11.09
1158,626.874,11
1161,627.829,10.92
1164,628.783,10.83
1167,629.738,10.74
1170,630.694,10.65
1173,631.649,10.56
1176,632.605,10.47
1179,633.561,10.38
1182,634.517,10.29
1185,635.474,10.19
1188,636.43,10.09
1191,637.387,10
1194,638.344,9.900000
1197,639.301,9.800000
1200,640.259,9.710000
1203,641.216,9.610000
1206,642.174,9.510000
1209,643.132,9.410000
1212,644.09,9.310000
1215,645.048,9.210000
1218,646.007,9.110000
1221,646.965,9.010000
1224,647.924,8.900000
1227,648.883,8.800000
1230,649.842,8.700000
1233,650.802,8.600000
1236,651.761,8.500000
1239,652.721,8.410000
1242,653.681,8.310000
1245,654.641,8.210000
1248,655.601,8.120000
1251,656.561,8.020000
1254,657.522,7.930000
1257,658.482,7.840000
1260,659.443,7.740000
1263,660.404,7.650000
1266,661.365,7.570000
1269,662.326,7.480000
1272,663.287,7.400000
1275,664.249,7.310000
1278,665.21,7.230000
1281,666.172,7.150000
1284,667.133,7.070000
1287,668.095,7.000000
1290,669.057,6.920000
1293,670.019,6.850000
1296,670.982,6.780000
1299,671.944,6.710000
1302,672.906,6.640000
1305,673.869,6.580000
1308,674.832,6.520000
1311,675.794,6.460000
1314,676.757,6.400000
1317,677.72,6.340000
1320,678.683,6.290000
1323,679.646,6.230000
1326,680.609,6.180000
1329,681.573,6.130000
1332,682.536,6.090000
1335,683.499,6.040000
1338,684.463,6.000000
1341,685.426,5.960000
1344,686.39,5.930000
1347,687.354,5.890000
1350,688.318,5.860000
1353,689.281,5.820000
1356,690.245,5.790000
1359,691.209,5.770000
1362,692.173,5.740000
1365,693.137,5.710000
1368,694.101,5.690000
1371,695.066,5.670000
1374,696.03,5.650000
1377,696.994,5.640000
1380,697.958,5.620000
1383,698.923,5.600000
1386,699.887,5.590000
1389,700.851,5.580000
1392,701.816,5.570000
1395,702.78,5.560000
1398,703.744,5.550000
1401,704.709,5.540000
1404,705.673,5.530000
1407,706.638,5.530000
1410,707.602,5.520000
1413,708.567,5.520000
1416,709.531,5.510000
1419,710.496,5.510000
1422,711.46,5.500000
1425,712.425,5.500000
1428,713.389,5.500000
1431,714.354,5.490000
1434,715.318,5.490000
1437,716.283,5.480000
1440,717.247,5.480000
1443,718.212,5.480000
1446,719.176,5.470000
1449,720.141,5.470000
1452,721.105,5.470000
1455,722.069,5.460000
1458,723.034,5.450000
1461,723.998,5.450000
1464,724.962,5.440000
1467,725.927,5.440000
1470,726.891,5.430000
1473,727.855,5.420000
1476,728.819,5.420000
1479,729.783,5.410000
1482,730.747,5.400000
1485,731.711,5.400000
1488,732.675,5.390000
1491,733.639,5.380000
1494,734.602,5.380000
1497,735.566,5.370000
1500,736.53,5.360000
1503,737.493,5.350000
1506,738.457,5.340000
1509,739.42,5.330000
1512,740.384,5.320000
1515,741.347,5.320000
1518,742.31,5.300000
1521,743.273,5.290000
1524,744.236,5.280000
1527,745.199,5.270000
1530,746.162,5.260000
1533,747.124,5.250000
1536,748.087,5.240000
1539,749.05,5.230000
1542,750.012,5.220000
1545,750.974,5.210000
1548,751.937,5.200000
1551,752.899,5.180000
1554,753.861,5.170000
1557,754.822,5.160000
1560,755.784,5.150000
1563,756.746,5.140000
1566,757.707,5.130000
1569,758.669,5.110000
1572,759.63,5.100000
1575,760.591,5.090000
1578,761.552,5.080000
1581,762.513,5.060000
1584,763.474,5.050000
1587,764.434,5.040000
1590,765.395,5.030000
1593,766.355,5.010000
1596,767.315,5.000000
1599,768.275,4.990000
1602,769.235,4.980000
1605,770.194,4.960000
1608,771.154,4.950000
1611,772.113,4.940000
1614,773.072,4.930000
1617,774.031,4.910000
1620,774.99,4.900000
1623,775.949,4.890000
1626,776.907,4.880000
1629,777.865,4.870000
1632,778.824,4.850000
1635,779.781,4.840000
1638,780.739,4.830000
1641,781.697,4.820000
1644,782.654,4.800000
1647,783.611,4.790000
1650,784.568,4.780000
1653,785.525,4.770000
1656,786.481,4.760000
1659,787.438,4.740000
1662,788.394,4.730000
1665,789.35,4.720000
1668,790.306,4.710000
1671,791.261,4.700000
1674,792.216,4.680000
1677,793.171,4.670000
1680,794.126,4.660000
1683,795.081,4.650000
1686,796.035,4.640000
1689,796.989,4.620000
1692,797.943,4.610000
1695,798.897,4.600000
1698,799.85,4.590000
1701,800.804,4.570000
1704,801.756,4.560000
1707,802.709,4.550000
1710,803.662,4.530000
1713,804.614,4.520000
1716,805.566,4.510000
1719,806.517,4.490000
1722,807.469,4.480000
1725,808.42,4.470000
1728,809.371,4.450000
1731,810.322,4.440000
1734,811.272,4.430000
1737,812.222,4.410000
1740,813.172,4.400000
1743,814.121,4.390000
1746,815.071,4.370000
1749,816.02,4.360000
1752,816.968,4.350000
1755,817.917,4.330000
1758,818.865,4.320000
1761,819.813,4.310000
1764,820.76,4.290000
1767,821.707,4.280000
1770,822.654,4.270000
1773,823.601,4.260000
1776,824.547,4.250000
1779,825.493,4.230000
1782,826.439,4.220000
1785,827.384,4.210000
1788,828.329,4.200000
1791,829.274,4.190000
1794,830.218,4.170000
1797,831.162,4.160000
1800,832.106,4.150000
1803,833.049,4.140000
1806,833.992,4.120000
1809,834.935,4.110000
1812,835.878,4.100000
1815,836.82,4.080000
1818,837.761,4.070000
1821,838.703,4.060000
1824,839.644,4.040000
1827,840.584,4.030000
1830,841.525,4.020000
1833,842.465,4.000000
1836,843.404,3.990000
1839,844.344,3.970000
1842,845.282,3.960000
1845,846.221,3.950000
1848,847.159,3.930000
1851,848.097,3.920000
1854,849.034,3.910000
1857,849.971,3.890000
1860,850.908,3.880000
1863,851.844,3.860000
1866,852.78,3.850000
1869,853.715,3.840000
1872,854.65,3.820000
1875,855.585,3.810000
1878,856.519,3.800000
1881,857.453,3.780000
1884,858.387,3.770000
1887,859.32,3.750000
1890,860.253,3.740000
1893,861.185,3.720000
1896,862.117,3.710000
1899,863.048,3.690000
1902,863.979,3.680000
1905,864.91,3.660000
1908,865.84,3.650000
1911,866.77,3.630000
1914,867.699,3.620000
1917,868.628,3.600000
1920,869.556,3.580000
1923,870.484,3.570000
1926,871.412,3.550000
1929,872.339,3.530000
1932,873.266,3.510000
1935,874.192,3.500000
1938,875.118,3.480000
1941,876.043,3.460000
1944,876.968,3.440000
1947,877.893,3.430000
1950,878.817,3.410000
1953,879.74,3.390000
1956,880.663,3.370000
1959,881.586,3.350000
1962,882.508,3.330000
1965,883.43,3.310000
1968,884.351,3.290000
1971,885.271,3.280000
1974,886.192,3.260000
1977,887.111,3.240000
1980,888.031,3.220000
1983,888.949,3.200000
1986,889.868,3.180000
1989,890.785,3.160000
1992,891.703,3.140000
1995,892.62,3.120000
1998,893.536,3.100000
2001,894.452,3.080000
2004,895.367,3.060000
2007,896.282,3.040000
2010,897.196,3.020000
2013,898.11,3.000000
2016,899.023,2.980000
2019,899.936,2.960000
2022,900.848,2.940000
2025,901.759,2.920000
2028,902.671,2.900000
2031,903.581,2.880000
2034,904.491,2.870000
2037,905.401,2.850000
2040,906.31,2.830000
2043,907.218,2.810000
2046,908.126,2.790000
2049,909.034,2.770000
2052,909.94,2.750000
2055,910.847,2.730000
2058,911.752,2.720000
2061,912.658,2.700000
2064,913.562,2.680000
2067,914.466,2.660000
2070,915.37,2.650000
2073,916.273,2.630000
2076,917.175,2.610000
2079,918.077,2.590000
2082,918.978,2.580000
2085,919.879,2.560000
2088,920.779,2.540000
2091,921.678,2.520000
2094,922.577,2.500000
2097,923.475,2.490000
2100,924.373,2.470000
2103,925.27,2.450000
2106,926.167,2.430000
2109,927.063,2.420000
2112,927.958,2.400000
2115,928.853,2.380000
2118,929.747,2.370000
2121,930.64,2.350000
2124,931.533,2.340000
2127,932.425,2.320000
2130,933.317,2.300000
2133,934.208,2.290000
2136,935.099,2.270000
2139,935.988,2.260000
2142,936.878,2.240000
2145,937.766,2.230000
2148,938.654,2.210000
2151,939.541,2.190000
2154,940.428,2.180000
2157,941.314,2.160000
2160,942.199,2.150000
2163,943.084,2.130000
2166,943.968,2.120000
2169,944.851,2.100000
2172,945.734,2.080000
2175,946.616,2.070000
2178,947.498,2.050000
2181,948.379,2.040000
2184,949.259,2.020000
2187,950.138,2.010000
2190,951.017,1.990000
2193,951.895,1.970000
2196,952.773,1.960000
2199,953.649,1.940000
2202,954.525,1.930000
2205,955.401,1.910000
2208,956.276,1.900000
2211,957.15,1.880000
2214,958.023,1.860000
2217,958.896,1.850000
2220,959.768,1.830000
2223,960.639,1.820000
2226,961.51,1.800000
2229,962.379,1.780000
2232,963.249,1.770000
2235,964.117,1.750000
2238,964.985,1.730000
2241,965.852,1.720000
2244,966.718,1.700000
2247,967.584,1.680000
2250,968.449,1.670000
2253,969.313,1.650000
2256,970.176,1.630000
2259,971.039,1.620000
2262,971.901,1.600000
2265,972.762,1.580000
2268,973.623,1.570000
2271,974.482,1.550000
2274,975.341,1.530000
2277,976.2,1.510000
2280,977.057,1.500000
2283,977.914,1.480000