File: Wood/Calibration_Data/UMD/UMD_TGA_N2_10K_R1.csv
Time (s),Temperature (K),Mass (mg)
0.000,297.000,4.066
28.633,298.000,4.062
47.150,299.000,4.061
62.108,300.000,4.062
74.908,301.000,4.063
86.426,302.000,4.063
97.018,303.000,4.063
106.898,304.000,4.061
116.252,305.000,4.063
125.165,306.000,4.062
133.707,307.000,4.063
141.954,308.000,4.062
149.915,309.000,4.063
157.679,310.000,4.061
165.280,311.000,4.059
172.675,312.000,4.058
179.933,313.000,4.058
187.066,314.000,4.058
194.059,315.000,4.056
200.965,316.000,4.055
207.788,317.000,4.055
214.520,318.000,4.054
221.163,319.000,4.053
227.733,320.000,4.053
234.271,321.000,4.051
240.720,322.000,4.051
247.099,323.000,4.050
253.466,324.000,4.050
259.769,325.000,4.050
266.029,326.000,4.049
272.255,327.000,4.048
278.465,328.000,4.045
284.626,329.000,4.044
290.745,330.000,4.042
296.855,331.000,4.041
302.916,332.000,4.041
308.960,333.000,4.041
314.974,334.000,4.039
320.961,335.000,4.037
326.931,336.000,4.034
332.877,337.000,4.033
338.813,338.000,4.032
344.712,339.000,4.031
350.599,340.000,4.029
356.475,341.000,4.029
362.341,342.000,4.028
368.178,343.000,4.027
374.008,344.000,4.024
379.817,345.000,4.024
385.608,346.000,4.022
391.392,347.000,4.022
397.173,348.000,4.020
402.945,349.000,4.015
408.688,350.000,4.014
414.436,351.000,4.013
420.179,352.000,4.011
425.905,353.000,4.011
431.622,354.000,4.008
437.349,355.000,4.008
443.059,356.000,4.006
448.758,357.000,4.006
454.462,358.000,4.003
460.143,359.000,4.001
465.849,360.000,3.999
471.526,361.000,3.999
477.212,362.000,3.999
482.876,363.000,3.999
488.551,364.000,3.999
494.228,365.000,3.997
499.898,366.000,3.997
505.570,367.000,3.997
511.231,368.000,3.995
516.882,369.000,3.995
522.560,370.000,3.993
528.222,371.000,3.992
533.885,372.000,3.991
539.550,373.000,3.991
545.205,374.000,3.990
550.849,375.000,3.990
556.506,376.000,3.989
562.176,377.000,3.989
567.832,378.000,3.989
573.508,379.000,3.989
579.161,380.000,3.989
584.808,381.000,3.988
590.482,382.000,3.988
596.141,383.000,3.988
601.816,384.000,3.987
607.478,385.000,3.987
613.139,386.000,3.985
618.812,387.000,3.985
624.478,388.000,3.987
630.156,389.000,3.985
635.803,390.000,3.987
641.457,391.000,3.987
647.131,392.000,3.985
652.794,393.000,3.985
658.451,394.000,3.987
664.120,395.000,3.987
669.779,396.000,3.985
675.447,397.000,3.987
681.111,398.000,3.985
686.776,399.000,3.985
692.453,400.000,3.985
698.113,401.000,3.983
703.775,402.000,3.985
709.442,403.000,3.985
715.118,404.000,3.985
720.807,405.000,3.985
726.462,406.000,3.985
732.150,407.000,3.985
737.814,408.000,3.985
743.499,409.000,3.984
749.154,410.000,3.984
754.829,411.000,3.983
760.497,412.000,3.983
766.178,413.000,3.984
771.841,414.000,3.984
777.516,415.000,3.985
783.201,416.000,3.985
788.872,417.000,3.985
794.550,418.000,3.984
800.239,419.000,3.984
805.916,420.000,3.984
811.594,421.000,3.985
817.267,422.000,3.984
822.948,423.000,3.984
828.630,424.000,3.983
834.315,425.000,3.984
839.990,426.000,3.984
845.669,427.000,3.984
851.354,428.000,3.985
857.035,429.000,3.984
862.722,430.000,3.984
868.412,431.000,3.985
874.084,432.000,3.983
879.778,433.000,3.983
885.450,434.000,3.983
891.133,435.000,3.983
896.814,436.000,3.983
902.494,437.000,3.983
908.173,438.000,3.981
913.856,439.000,3.981
919.535,440.000,3.981
925.208,441.000,3.981
930.892,442.000,3.982
936.556,443.000,3.980
942.245,444.000,3.980
947.913,445.000,3.980
953.591,446.000,3.980
959.270,447.000,3.980
964.956,448.000,3.978
970.636,449.000,3.978
976.299,450.000,3.978
981.989,451.000,3.978
987.666,452.000,3.978
993.348,453.000,3.978
999.031,454.000,3.978
1004.715,455.000,3.978
1010.392,456.000,3.978
1016.067,457.000,3.976
1021.750,458.000,3.973
1027.430,459.000,3.972
1033.107,460.000,3.970
1038.794,461.000,3.969
1044.474,462.000,3.969
1050.161,463.000,3.968
1055.833,464.000,3.966
1061.522,465.000,3.965
1067.182,466.000,3.963
1072.871,467.000,3.961
1078.545,468.000,3.961
1084.246,469.000,3.958
1089.924,470.000,3.957
1095.593,471.000,3.956
1101.282,472.000,3.956
1106.957,473.000,3.954
1112.647,474.000,3.952
1118.347,475.000,3.950
1124.029,476.000,3.949
1129.716,477.000,3.947
1135.396,478.000,3.944
1141.085,479.000,3.942
1146.767,480.000,3.941
1152.450,481.000,3.937
1158.128,482.000,3.936
1163.833,483.000,3.933
1169.516,484.000,3.931
1175.196,485.000,3.929
1180.877,486.000,3.926
1186.572,487.000,3.923
1192.265,488.000,3.921
1197.946,489.000,3.919
1203.616,490.000,3.917
1209.295,491.000,3.914
1214.986,492.000,3.912
1220.669,493.000,3.909
1226.352,494.000,3.907
1232.026,495.000,3.905
1237.728,496.000,3.902
1243.402,497.000,3.900
1249.084,498.000,3.896
1254.778,499.000,3.892
1260.456,500.000,3.888
1266.133,501.000,3.885
1271.836,502.000,3.880
1277.528,503.000,3.878
1283.216,504.000,3.876
1288.905,505.000,3.872
1294.593,506.000,3.870
1300.277,507.000,3.867
1305.977,508.000,3.864
1311.666,509.000,3.862
1317.360,510.000,3.859
1323.049,511.000,3.856
1328.741,512.000,3.855
1334.445,513.000,3.853
1340.139,514.000,3.849
1345.836,515.000,3.845
1351.518,516.000,3.842
1357.214,517.000,3.839
1362.903,518.000,3.835
1368.612,519.000,3.831
1374.306,520.000,3.826
1380.010,521.000,3.820
1385.702,522.000,3.815
1391.393,523.000,3.810
1397.101,524.000,3.806
1402.804,525.000,3.802
1408.509,526.000,3.798
1414.213,527.000,3.794
1419.901,528.000,3.789
1425.618,529.000,3.783
1431.329,530.000,3.778
1437.032,531.000,3.772
1442.749,532.000,3.766
1448.469,533.000,3.762
1454.172,534.000,3.756
1459.893,535.000,3.748
1465.616,536.000,3.740
1471.333,537.000,3.734
1477.050,538.000,3.729
1482.774,539.000,3.723
1488.485,540.000,3.718
1494.220,541.000,3.713
1499.933,542.000,3.705
1505.664,543.000,3.699
1511.402,544.000,3.687
1517.135,545.000,3.678
1522.858,546.000,3.670
1528.593,547.000,3.665
1534.322,548.000,3.659
1540.045,549.000,3.652
1545.779,550.000,3.644
1551.504,551.000,3.635
1557.238,552.000,3.625
1562.998,553.000,3.612
1568.745,554.000,3.601
1574.486,555.000,3.591
1580.222,556.000,3.584
1585.967,557.000,3.577
1591.700,558.000,3.570
1597.444,559.000,3.559
1603.198,560.000,3.549
1608.949,561.000,3.536
1614.699,562.000,3.524
1620.457,563.000,3.511
1626.209,564.000,3.497
1631.964,565.000,3.484
1637.720,566.000,3.474
1643.464,567.000,3.464
1649.228,568.000,3.452
1654.980,569.000,3.441
1660.751,570.000,3.428
1666.497,571.000,3.415
1672.264,572.000,3.402
1678.022,573.000,3.389
1683.790,574.000,3.375
1689.541,575.000,3.360
1695.317,576.000,3.346
1701.065,577.000,3.331
1706.839,578.000,3.314
1712.614,579.000,3.299
1718.379,580.000,3.285
1724.156,581.000,3.269
1729.933,582.000,3.252
1735.707,583.000,3.235
1741.483,584.000,3.219
1747.269,585.000,3.202
1753.048,586.000,3.187
1758.839,587.000,3.170
1764.606,588.000,3.153
1770.399,589.000,3.136
1776.180,590.000,3.120
1781.977,591.000,3.101
1787.768,592.000,3.084
1793.551,593.000,3.068
1799.345,594.000,3.048
1805.149,595.000,3.029
1810.939,596.000,3.009
1816.737,597.000,2.991
1822.541,598.000,2.971
1828.345,599.000,2.951
1834.153,600.000,2.928
1839.963,601.000,2.907
1845.775,602.000,2.889
1851.582,603.000,2.867
1857.388,604.000,2.847
1863.192,605.000,2.825
1869.017,606.000,2.804
1874.833,607.000,2.782
1880.657,608.000,2.758
1886.463,609.000,2.735
1892.277,610.000,2.712
1898.106,611.000,2.688
1903.927,612.000,2.664
1909.747,613.000,2.640
1915.583,614.000,2.615
1921.410,615.000,2.591
1927.242,616.000,2.566
1933.081,617.000,2.542
1938.917,618.000,2.517
1944.756,619.000,2.493
1950.588,620.000,2.463
1956.436,621.000,2.428
1962.280,622.000,2.404
1968.122,623.000,2.380
1973.986,624.000,2.354
1979.839,625.000,2.318
1985.710,626.000,2.284
1991.591,627.000,2.258
1997.441,628.000,2.233
2003.314,629.000,2.203
2009.184,630.000,2.166
2015.073,631.000,2.135
2020.962,632.000,2.107
2026.839,633.000,2.074
2032.722,634.000,2.040
2038.600,635.000,2.013
2044.498,636.000,1.974
2050.386,637.000,1.936
2056.280,638.000,1.897
2062.164,639.000,1.860
2068.057,640.000,1.824
2073.949,641.000,1.785
2079.823,642.000,1.746
2085.716,643.000,1.707
2091.579,644.000,1.668
2097.442,645.000,1.628
2103.314,646.000,1.589
2109.156,647.000,1.549
2114.995,648.000,1.511
2120.828,649.000,1.471
2126.627,650.000,1.431
2132.429,651.000,1.395
2138.208,652.000,1.360
2143.973,653.000,1.326
2149.739,654.000,1.296
2155.471,655.000,1.267
2161.206,656.000,1.239
2166.924,657.000,1.212
2172.654,658.000,1.192
2178.354,659.000,1.173
2184.071,660.000,1.155
2189.801,661.000,1.139
2195.533,662.000,1.124
2201.271,663.000,1.113
2207.042,664.000,1.103
2212.828,665.000,1.096
2218.616,666.000,1.089
2224.449,667.000,1.083
2230.291,668.000,1.076
2236.137,669.000,1.072
2241.994,670.000,1.066
2247.846,671.000,1.062
2253.715,672.000,1.058
2259.582,673.000,1.054
2265.451,674.000,1.050
2271.341,675.000,1.046
2277.216,676.000,1.042
2283.104,677.000,1.040
2288.991,678.000,1.038
2294.872,679.000,1.034
2300.755,680.000,1.031
2306.650,681.000,1.028
2312.533,682.000,1.023
2318.432,683.000,1.021
2324.324,684.000,1.017
2330.213,685.000,1.014
2336.114,686.000,1.010
2342.017,687.000,1.008
2347.910,688.000,1.005
2353.827,689.000,1.002
2359.727,690.000,0.998
2365.633,691.000,0.996
2371.539,692.000,0.994
2377.445,693.000,0.989
2383.357,694.000,0.987
2389.290,695.000,0.984
2395.186,696.000,0.981
2401.105,697.000,0.978
2407.022,698.000,0.973
2412.939,699.000,0.968
2418.879,700.000,0.966
2424.803,701.000,0.962
2430.722,702.000,0.960
2436.656,703.000,0.957
2442.597,704.000,0.953
2448.531,705.000,0.951
2454.469,706.000,0.948
2460.401,707.000,0.946
2466.353,708.000,0.943
2472.292,709.000,0.939
2478.229,710.000,0.939
2484.176,711.000,0.935
2490.122,712.000,0.933
2496.085,713.000,0.930
2502.034,714.000,0.926
2507.992,715.000,0.924
2513.941,716.000,0.921
2519.900,717.000,0.919
2525.857,718.000,0.918
2531.821,719.000,0.916
2537.788,720.000,0.913
2543.749,721.000,0.911
2549.703,722.000,0.909
2555.667,723.000,0.906
2561.630,724.000,0.903
2567.611,725.000,0.902
2573.575,726.000,0.898
2579.533,727.000,0.895
2585.510,728.000,0.892
2591.497,729.000,0.890
2597.451,730.000,0.887
2603.429,731.000,0.885
2609.405,732.000,0.885
2615.373,733.000,0.883
2621.343,734.000,0.881
2627.329,735.000,0.878
2633.308,736.000,0.876
2639.281,737.000,0.876
2645.269,738.000,0.874
2651.242,739.000,0.872
2657.221,740.000,0.870
2663.218,741.000,0.867
2669.183,742.000,0.865
2675.173,743.000,0.863
2681.153,744.000,0.862
2687.135,745.000,0.860
2693.115,746.000,0.858
2699.100,747.000,0.856
2705.079,748.000,0.854
2711.062,749.000,0.854
2717.041,750.000,0.854
2723.022,751.000,0.854
2729.011,752.000,0.852
2735.005,753.000,0.850
2740.980,754.000,0.847
2746.952,755.000,0.843
2752.939,756.000,0.841
2758.927,757.000,0.843
2764.909,758.000,0.841
2770.903,759.000,0.839
2776.885,760.000,0.838
2782.862,761.000,0.837
2788.855,762.000,0.835
2794.849,763.000,0.834
2800.831,764.000,0.832
2806.821,765.000,0.830
2812.817,766.000,0.830
2818.806,767.000,0.829
2824.800,768.000,0.827
2830.788,769.000,0.827
2836.794,770.000,0.825
2842.786,771.000,0.824
2848.773,772.000,0.823
2854.757,773.000,0.823
2860.763,774.000,0.821
2866.759,775.000,0.820
2872.758,776.000,0.819
2878.762,777.000,0.819
2884.753,778.000,0.817
2890.757,779.000,0.816
2896.767,780.000,0.815
2902.767,781.000,0.814
2908.782,782.000,0.812
2914.789,783.000,0.812
2920.806,784.000,0.810
2926.811,785.000,0.809
2932.819,786.000,0.808
2938.819,787.000,0.807
2944.839,788.000,0.805
2950.861,789.000,0.804
2956.880,790.000,0.803
2962.909,791.000,0.801
2968.915,792.000,0.800
2974.933,793.000,0.798
2980.939,794.000,0.798
2986.974,795.000,0.798
2992.983,796.000,0.798
2999.006,797.000,0.796
3005.030,798.000,0.794
3011.058,799.000,0.792
3017.068,800.000,0.791
3023.104,801.000,0.790
3029.119,802.000,0.788
3035.151,803.000,0.789
3041.173,804.000,0.789
3047.203,805.000,0.788
3053.228,806.000,0.787
3059.255,807.000,0.787
3065.281,808.000,0.786
3071.305,809.000,0.784
3077.327,810.000,0.783
3083.362,811.000,0.782
3089.394,812.000,0.781
3095.419,813.000,0.782
3101.455,814.000,0.780
3107.463,815.000,0.781
3113.503,816.000,0.781
3119.527,817.000,0.779
3125.570,818.000,0.778
3131.594,819.000,0.777
3137.631,820.000,0.776
3143.667,821.000,0.775
3149.683,822.000,0.774
3155.723,823.000,0.774
3161.754,824.000,0.773
3167.772,825.000,0.772
3173.806,826.000,0.771
3179.821,827.000,0.772
3185.852,828.000,0.771
3191.881,829.000,0.769
3197.904,830.000,0.769
3203.925,831.000,0.767
3209.959,832.000,0.767
3215.979,833.000,0.764
3222.017,834.000,0.764
3228.039,835.000,0.765
3234.068,836.000,0.765
3240.103,837.000,0.764
3246.139,838.000,0.764
3252.157,839.000,0.763
3258.193,840.000,0.762
3264.217,841.000,0.762
3270.236,842.000,0.764
3276.261,843.000,0.764
3282.283,844.000,0.762
3288.311,845.000,0.759
3294.342,846.000,0.757
3300.378,847.000,0.756
3306.409,848.000,0.755
3312.451,849.000,0.753
3318.478,850.000,0.753
3324.503,851.000,0.751
3330.546,852.000,0.753
3336.591,853.000,0.751
3342.624,854.000,0.750
3348.667,855.000,0.750
3354.709,856.000,0.748
3360.740,857.000,0.748
3366.793,858.000,0.747
3372.824,859.000,0.748
3378.877,860.000,0.747
3384.915,861.000,0.746
3390.949,862.000,0.745
3396.999,863.000,0.744
3403.039,864.000,0.744
3409.072,865.000,0.743
3415.123,866.000,0.743
3421.156,867.000,0.743
3427.212,868.000,0.743
3433.239,869.000,0.742
3439.280,870.000,0.741
3445.327,871.000,0.741
3451.382,872.000,0.739
3457.418,873.000,0.739
3463.457,874.000,0.737
3469.507,875.000,0.737
3475.545,876.000,0.735
3481.597,877.000,0.735
3487.636,878.000,0.733
3493.679,879.000,0.731
3499.731,880.000,0.729
3505.764,881.000,0.728
3511.817,882.000,0.730
3517.846,883.000,0.731
3523.892,884.000,0.731
3529.933,885.000,0.733
3535.969,886.000,0.732
3542.005,887.000,0.730
3548.044,888.000,0.730
3554.080,889.000,0.729
3560.121,890.000,0.729
3566.167,891.000,0.728
3572.206,892.000,0.727
3578.236,893.000,0.728
3584.281,894.000,0.726
3590.308,895.000,0.728
3596.362,896.000,0.726
3602.391,897.000,0.724
3608.430,898.000,0.722
3614.472,899.000,0.722
3620.515,900.000,0.720
3626.539,901.000,0.720
3632.564,902.000,0.722
3638.593,903.000,0.722
3644.634,904.000,0.722
3650.658,905.000,0.722
3656.694,906.000,0.723
3662.731,907.000,0.722
3668.749,908.000,0.720
3674.779,909.000,0.719
3680.812,910.000,0.718
3686.836,911.000,0.717
3692.866,912.000,0.716
3698.892,913.000,0.716
3704.917,914.000,0.716
3710.946,915.000,0.717
3716.971,916.000,0.717
3723.005,917.000,0.716
3729.023,918.000,0.716
3735.045,919.000,0.715
3741.073,920.000,0.714
3747.091,921.000,0.712
3753.109,922.000,0.710
3759.139,923.000,0.713
3765.146,924.000,0.714
3771.181,925.000,0.712
3777.217,926.000,0.712
3783.221,927.000,0.710
3789.246,928.000,0.710
3795.252,929.000,0.710
3801.276,930.000,0.710
3807.282,931.000,0.710
3813.294,932.000,0.710
3819.301,933.000,0.710
3825.307,934.000,0.708
3831.321,935.000,0.707
3837.341,936.000,0.707
3843.357,937.000,0.708
3849.361,938.000,0.707
3855.394,939.000,0.706
3861.401,940.000,0.707
3867.406,941.000,0.706
3873.418,942.000,0.705
3879.436,943.000,0.704
3885.446,944.000,0.703
3891.455,945.000,0.702
3897.476,946.000,0.701
3903.480,947.000,0.702
3909.496,948.000,0.702
3915.517,949.000,0.700
3921.525,950.000,0.700
3927.541,951.000,0.700
3933.553,952.000,0.699
3939.564,953.000,0.699
3945.582,954.000,0.699
3951.609,955.000,0.699
3957.631,956.000,0.697
3963.648,957.000,0.697
3969.668,958.000,0.695
3975.686,959.000,0.697
3981.715,960.000,0.696
3987.733,961.000,0.695
3993.751,962.000,0.694
3999.783,963.000,0.694
4005.822,964.000,0.694
4011.846,965.000,0.694
4017.877,966.000,0.693
4023.907,967.000,0.694
4029.927,968.000,0.693
4035.948,969.000,0.693
4041.988,970.000,0.693
4048.018,971.000,0.692
4054.057,972.000,0.692
4060.084,973.000,0.691
4066.131,974.000,0.691
4072.157,975.000,0.691
4078.199,976.000,0.690
4084.217,977.000,0.690
4090.256,978.000,0.690
4096.297,979.000,0.692
4102.339,980.000,0.691
4108.381,981.000,0.691
4114.415,982.000,0.689
4120.467,983.000,0.689
4126.502,984.000,0.687
4132.564,985.000,0.685
4138.593,986.000,0.685
4144.654,987.000,0.684
4150.693,988.000,0.685
4156.747,989.000,0.685
4162.817,990.000,0.687
4168.866,991.000,0.685
4174.910,992.000,0.685
4180.970,993.000,0.684
4187.030,994.000,0.683
4193.085,995.000,0.682
4199.133,996.000,0.681
4205.212,997.000,0.681
4211.260,998.000,0.680
4217.323,999.000,0.680
4223.395,1000.000,0.681
4229.461,1001.000,0.681
4235.533,1002.000,0.680
4241.605,1003.000,0.680
4247.667,1004.000,0.680
4253.740,1005.000,0.679
4259.803,1006.000,0.678
4265.897,1007.000,0.677
4271.964,1008.000,0.677
4278.032,1009.000,0.677
4284.121,1010.000,0.675
4290.201,1011.000,0.675
4296.285,1012.000,0.676
4302.360,1013.000,0.675
4308.439,1014.000,0.676
4314.525,1015.000,0.676
4320.611,1016.000,0.674
4326.691,1017.000,0.675
4332.776,1018.000,0.676
4338.865,1019.000,0.676
4344.967,1020.000,0.676
4351.040,1021.000,0.675
4357.121,1022.000,0.675
4363.213,1023.000,0.675
4369.309,1024.000,0.673
4375.407,1025.000,0.673
4381.495,1026.000,0.673
4387.584,1027.000,0.673
4393.679,1028.000,0.673
4399.770,1029.000,0.673
4405.873,1030.000,0.673
4411.970,1031.000,0.673
4418.067,1032.000,0.673
4424.166,1033.000,0.674
4430.258,1034.000,0.674
4436.361,1035.000,0.673
4442.472,1036.000,0.672
4448.564,1037.000,0.672
4454.691,1038.000,0.672
4460.786,1039.000,0.673
4466.880,1040.000,0.672
4472.989,1041.000,0.672
4479.085,1042.000,0.671
4485.207,1043.000,0.670
4491.317,1044.000,0.669
4497.412,1045.000,0.667
4503.527,1046.000,0.667
4509.619,1047.000,0.667
4515.733,1048.000,0.667
4521.832,1049.000,0.667
4527.945,1050.000,0.667
4534.058,1051.000,0.667
4540.165,1052.000,0.667
4546.273,1053.000,0.667
4552.382,1054.000,0.665
4558.495,1055.000,0.665
4564.597,1056.000,0.666
4570.704,1057.000,0.666
4576.815,1058.000,0.666
4582.921,1059.000,0.666
4589.053,1060.000,0.666
4595.158,1061.000,0.665
4601.270,1062.000,0.664
4607.395,1063.000,0.664
4613.515,1064.000,0.663
4619.636,1065.000,0.664
4625.766,1066.000,0.664
4631.895,1067.000,0.665
4638.010,1068.000,0.665
4644.139,1069.000,0.664
4650.252,1070.000,0.663
4656.394,1071.000,0.663
4662.521,1072.000,0.664
4668.660,1073.000,0.665
4674.794,1074.000,0.665
4680.935,1075.000,0.665
4687.082,1076.000,0.665
4693.218,1077.000,0.665
4699.352,1078.000,0.664
4705.499,1079.000,0.663
4711.646,1080.000,0.663
4717.776,1081.000,0.662
4723.945,1082.000,0.663
4730.086,1083.000,0.661
4736.240,1084.000,0.661
4742.383,1085.000,0.662
4748.533,1086.000,0.662
4751.618,1086.500,0.662