File: Wood/Calibration_Data/UMD/UMD_Wood_TGA_N2_10K_R2.csv
Time (s),Temperature (K),Mass (mg)
0.000,296.000,3.842
33.050,297.000,3.840
52.615,298.000,3.839
67.950,299.000,3.838
81.073,300.000,3.836
92.788,301.000,3.835
103.526,302.000,3.835
113.521,303.000,3.835
122.923,304.000,3.832
131.935,305.000,3.831
140.534,306.000,3.831
148.833,307.000,3.831
156.862,308.000,3.829
164.679,309.000,3.831
172.283,310.000,3.833
179.717,311.000,3.832
187.013,312.000,3.829
194.166,313.000,3.829
201.216,314.000,3.827
208.171,315.000,3.827
214.990,316.000,3.825
221.726,317.000,3.826
228.401,318.000,3.825
235.007,319.000,3.823
241.537,320.000,3.821
248.017,321.000,3.821
254.421,322.000,3.820
260.782,323.000,3.818
267.106,324.000,3.819
273.405,325.000,3.817
279.625,326.000,3.814
285.833,327.000,3.812
292.017,328.000,3.811
298.154,329.000,3.810
304.263,330.000,3.808
310.344,331.000,3.806
316.405,332.000,3.804
322.437,333.000,3.802
328.422,334.000,3.802
334.409,335.000,3.801
340.356,336.000,3.799
346.297,337.000,3.797
352.210,338.000,3.795
358.109,339.000,3.795
363.992,340.000,3.793
369.848,341.000,3.791
375.704,342.000,3.789
381.526,343.000,3.787
387.332,344.000,3.786
393.127,345.000,3.784
398.942,346.000,3.781
404.720,347.000,3.779
410.503,348.000,3.777
416.259,349.000,3.774
422.008,350.000,3.774
427.758,351.000,3.772
433.496,352.000,3.771
439.221,353.000,3.771
444.936,354.000,3.770
450.664,355.000,3.768
456.363,356.000,3.768
462.075,357.000,3.766
467.769,358.000,3.766
473.463,359.000,3.764
479.158,360.000,3.761
484.848,361.000,3.761
490.539,362.000,3.758
496.217,363.000,3.758
501.897,364.000,3.757
507.569,365.000,3.755
513.249,366.000,3.755
518.933,367.000,3.753
524.606,368.000,3.753
530.270,369.000,3.754
535.944,370.000,3.754
541.608,371.000,3.755
547.276,372.000,3.755
552.939,373.000,3.755
558.619,374.000,3.753
564.294,375.000,3.753
569.965,376.000,3.753
575.644,377.000,3.752
581.304,378.000,3.752
586.979,379.000,3.751
592.653,380.000,3.751
598.333,381.000,3.749
603.993,382.000,3.751
609.655,383.000,3.750
615.341,384.000,3.749
621.025,385.000,3.750
626.692,386.000,3.750
632.375,387.000,3.749
638.055,388.000,3.747
643.739,389.000,3.747
649.420,390.000,3.747
655.140,391.000,3.747
660.829,392.000,3.747
666.502,393.000,3.748
672.156,394.000,3.746
677.817,395.000,3.746
683.504,396.000,3.747
689.161,397.000,3.747
694.819,398.000,3.746
700.483,399.000,3.747
706.150,400.000,3.747
711.829,401.000,3.745
717.490,402.000,3.746
723.161,403.000,3.747
728.838,404.000,3.748
734.504,405.000,3.749
740.173,406.000,3.749
745.856,407.000,3.748
751.518,408.000,3.748
757.186,409.000,3.747
762.871,410.000,3.747
768.550,411.000,3.747
774.224,412.000,3.747
779.905,413.000,3.748
785.594,414.000,3.748
791.264,415.000,3.748
796.944,416.000,3.748
802.636,417.000,3.747
808.379,418.000,3.748
814.075,419.000,3.747
819.761,420.000,3.747
825.411,421.000,3.747
831.032,422.000,3.747
836.713,423.000,3.746
842.410,424.000,3.745
848.093,425.000,3.743
853.767,426.000,3.743
859.458,427.000,3.745
865.122,428.000,3.745
870.819,429.000,3.745
876.484,430.000,3.743
882.179,431.000,3.743
887.853,432.000,3.743
893.539,433.000,3.745
899.216,434.000,3.745
904.889,435.000,3.745
910.571,436.000,3.745
916.253,437.000,3.745
921.942,438.000,3.745
927.613,439.000,3.747
933.280,440.000,3.747
938.960,441.000,3.747
944.638,442.000,3.747
950.310,443.000,3.747
955.995,444.000,3.745
961.669,445.000,3.745
967.356,446.000,3.744
973.035,447.000,3.743
978.722,448.000,3.741
984.390,449.000,3.740
990.076,450.000,3.740
995.761,451.000,3.740
1001.430,452.000,3.740
1007.106,453.000,3.740
1012.794,454.000,3.741
1018.464,455.000,3.742
1024.137,456.000,3.740
1029.824,457.000,3.740
1035.508,458.000,3.739
1041.184,459.000,3.739
1046.859,460.000,3.739
1052.533,461.000,3.739
1058.201,462.000,3.738
1063.888,463.000,3.736
1069.569,464.000,3.735
1075.247,465.000,3.733
1080.927,466.000,3.732
1086.607,467.000,3.731
1092.293,468.000,3.731
1097.981,469.000,3.729
1103.654,470.000,3.729
1109.337,471.000,3.729
1115.011,472.000,3.729
1120.683,473.000,3.727
1126.389,474.000,3.725
1132.061,475.000,3.723
1137.761,476.000,3.723
1143.433,477.000,3.723
1149.121,478.000,3.720
1154.800,479.000,3.719
1160.482,480.000,3.717
1166.159,481.000,3.716
1171.842,482.000,3.712
1177.525,483.000,3.710
1183.209,484.000,3.706
1188.896,485.000,3.704
1194.565,486.000,3.702
1200.258,487.000,3.699
1205.931,488.000,3.697
1211.607,489.000,3.693
1217.286,490.000,3.692
1222.962,491.000,3.688
1228.633,492.000,3.687
1234.311,493.000,3.684
1240.001,494.000,3.682
1245.672,495.000,3.680
1251.348,496.000,3.677
1257.021,497.000,3.675
1262.699,498.000,3.673
1268.377,499.000,3.669
1274.057,500.000,3.667
1279.735,501.000,3.665
1285.424,502.000,3.662
1291.108,503.000,3.659
1296.778,504.000,3.656
1302.479,505.000,3.654
1308.156,506.000,3.652
1313.824,507.000,3.649
1319.510,508.000,3.645
1325.200,509.000,3.643
1330.881,510.000,3.640
1336.567,511.000,3.639
1342.247,512.000,3.636
1347.944,513.000,3.632
1353.619,514.000,3.628
1359.314,515.000,3.626
1365.007,516.000,3.619
1370.693,517.000,3.616
1376.387,518.000,3.611
1382.083,519.000,3.608
1387.763,520.000,3.604
1393.467,521.000,3.600
1399.156,522.000,3.596
1404.860,523.000,3.592
1410.565,524.000,3.588
1416.263,525.000,3.584
1421.965,526.000,3.581
1427.660,527.000,3.576
1433.379,528.000,3.568
1439.072,529.000,3.564
1444.780,530.000,3.559
1450.491,531.000,3.553
1456.209,532.000,3.548
1461.925,533.000,3.543
1467.625,534.000,3.536
1473.350,535.000,3.531
1479.065,536.000,3.525
1484.775,537.000,3.518
1490.498,538.000,3.513
1496.220,539.000,3.507
1501.939,540.000,3.500
1507.661,541.000,3.496
1513.400,542.000,3.491
1519.105,543.000,3.484
1524.825,544.000,3.479
1530.546,545.000,3.472
1536.280,546.000,3.468
1542.001,547.000,3.460
1547.739,548.000,3.454
1553.458,549.000,3.445
1559.195,550.000,3.434
1564.933,551.000,3.426
1570.668,552.000,3.419
1576.413,553.000,3.410
1582.146,554.000,3.401
1587.887,555.000,3.392
1593.634,556.000,3.382
1599.362,557.000,3.373
1605.110,558.000,3.365
1610.853,559.000,3.355
1616.613,560.000,3.346
1622.352,561.000,3.336
1628.096,562.000,3.324
1633.843,563.000,3.313
1639.587,564.000,3.303
1645.339,565.000,3.293
1651.087,566.000,3.281
1656.837,567.000,3.268
1662.594,568.000,3.256
1668.352,569.000,3.244
1674.104,570.000,3.232
1679.861,571.000,3.221
1685.624,572.000,3.210
1691.371,573.000,3.198
1697.131,574.000,3.187
1702.899,575.000,3.173
1708.659,576.000,3.158
1714.425,577.000,3.144
1720.191,578.000,3.130
1725.964,579.000,3.116
1731.727,580.000,3.104
1737.493,581.000,3.089
1743.287,582.000,3.075
1749.047,583.000,3.057
1754.827,584.000,3.040
1760.614,585.000,3.024
1766.397,586.000,3.010
1772.185,587.000,2.996
1777.962,588.000,2.979
1783.752,589.000,2.961
1789.535,590.000,2.943
1795.321,591.000,2.927
1801.121,592.000,2.911
1806.921,593.000,2.893
1812.704,594.000,2.876
1818.511,595.000,2.859
1824.304,596.000,2.841
1830.110,597.000,2.823
1835.917,598.000,2.804
1841.729,599.000,2.785
1847.533,600.000,2.765
1853.344,601.000,2.745
1859.164,602.000,2.726
1864.968,603.000,2.706
1870.789,604.000,2.686
1876.595,605.000,2.665
1882.420,606.000,2.644
1888.237,607.000,2.623
1894.056,608.000,2.602
1899.878,609.000,2.580
1905.708,610.000,2.559
1911.540,611.000,2.535
1917.356,612.000,2.513
1923.185,613.000,2.490
1929.034,614.000,2.466
1934.865,615.000,2.444
1940.707,616.000,2.422
1946.544,617.000,2.398
1952.385,618.000,2.374
1958.221,619.000,2.351
1964.067,620.000,2.327
1969.933,621.000,2.301
1975.779,622.000,2.276
1981.635,623.000,2.251
1987.497,624.000,2.223
1993.344,625.000,2.190
1999.221,626.000,2.161
2005.088,627.000,2.137
2010.964,628.000,2.112
2016.833,629.000,2.077
2022.720,630.000,2.042
2028.609,631.000,2.018
2034.483,632.000,1.992
2040.376,633.000,1.959
2046.274,634.000,1.923
2052.168,635.000,1.892
2058.063,636.000,1.858
2063.958,637.000,1.825
2069.859,638.000,1.791
2075.771,639.000,1.753
2081.663,640.000,1.717
2087.573,641.000,1.682
2093.460,642.000,1.645
2099.344,643.000,1.608
2105.233,644.000,1.570
2111.106,645.000,1.534
2116.974,646.000,1.496
2122.832,647.000,1.459
2128.677,648.000,1.423
2134.507,649.000,1.387
2140.332,650.000,1.352
2146.140,651.000,1.315
2151.938,652.000,1.279
2157.705,653.000,1.250
2163.482,654.000,1.223
2169.241,655.000,1.187
2174.973,656.000,1.164
2180.720,657.000,1.143
2186.457,658.000,1.121
2192.175,659.000,1.102
2197.904,660.000,1.086
2203.650,661.000,1.072
2209.390,662.000,1.057
2215.160,663.000,1.045
2220.929,664.000,1.034
2226.721,665.000,1.027
2232.524,666.000,1.021
2238.352,667.000,1.015
2244.201,668.000,1.010
2250.040,669.000,1.004
2255.902,670.000,0.999
2261.776,671.000,0.995
2267.648,672.000,0.992
2273.526,673.000,0.987
2279.397,674.000,0.982
2285.289,675.000,0.979
2291.164,676.000,0.975
2297.052,677.000,0.972
2302.944,678.000,0.969
2308.824,679.000,0.965
2314.715,680.000,0.963
2320.603,681.000,0.960
2326.488,682.000,0.957
2332.397,683.000,0.954
2338.285,684.000,0.952
2344.184,685.000,0.948
2350.077,686.000,0.946
2355.969,687.000,0.943
2361.866,688.000,0.939
2367.779,689.000,0.935
2373.680,690.000,0.932
2379.594,691.000,0.930
2385.501,692.000,0.927
2391.411,693.000,0.924
2397.321,694.000,0.922
2403.240,695.000,0.920
2409.156,696.000,0.917
2415.084,697.000,0.913
2420.994,698.000,0.911
2426.904,699.000,0.908
2432.841,700.000,0.904
2438.770,701.000,0.902
2444.677,702.000,0.901
2450.609,703.000,0.898
2456.556,704.000,0.895
2462.496,705.000,0.893
2468.417,706.000,0.889
2474.348,707.000,0.887
2480.295,708.000,0.884
2486.223,709.000,0.881
2492.162,710.000,0.879
2498.098,711.000,0.877
2504.044,712.000,0.875
2509.963,713.000,0.872
2515.932,714.000,0.869
2521.874,715.000,0.867
2527.825,716.000,0.865
2533.772,717.000,0.861
2539.721,718.000,0.859
2545.668,719.000,0.856
2551.626,720.000,0.853
2557.594,721.000,0.851
2563.544,722.000,0.848
2569.504,723.000,0.845
2575.458,724.000,0.841
2581.427,725.000,0.839
2587.397,726.000,0.837
2593.356,727.000,0.834
2599.326,728.000,0.831
2605.296,729.000,0.830
2611.250,730.000,0.828
2617.213,731.000,0.827
2623.188,732.000,0.828
2629.160,733.000,0.826
2635.136,734.000,0.824
2641.109,735.000,0.821
2647.092,736.000,0.818
2653.075,737.000,0.815
2659.050,738.000,0.812
2665.032,739.000,0.809
2671.008,740.000,0.806
2676.999,741.000,0.803
2682.985,742.000,0.802
2688.960,743.000,0.803
2694.940,744.000,0.803
2700.917,745.000,0.802
2706.897,746.000,0.801
2712.875,747.000,0.801
2718.859,748.000,0.800
2724.842,749.000,0.797
2730.834,750.000,0.795
2736.831,751.000,0.792
2742.814,752.000,0.791
2748.798,753.000,0.792
2754.786,754.000,0.790
2760.774,755.000,0.789
2766.762,756.000,0.789
2772.750,757.000,0.788
2778.732,758.000,0.785
2784.720,759.000,0.783
2790.714,760.000,0.783
2796.708,761.000,0.781
2802.708,762.000,0.778
2808.708,763.000,0.775
2814.702,764.000,0.775
2820.702,765.000,0.775
2826.695,766.000,0.775
2832.673,767.000,0.773
2838.676,768.000,0.773
2844.671,769.000,0.771
2850.672,770.000,0.769
2856.666,771.000,0.766
2862.667,772.000,0.765
2868.682,773.000,0.763
2874.673,774.000,0.759
2880.687,775.000,0.758
2886.679,776.000,0.756
2892.685,777.000,0.756
2898.684,778.000,0.754
2904.691,779.000,0.752
2910.696,780.000,0.750
2916.695,781.000,0.750
2922.697,782.000,0.750
2928.720,783.000,0.751
2934.732,784.000,0.750
2940.738,785.000,0.749
2946.738,786.000,0.749
2952.744,787.000,0.749
2958.762,788.000,0.749
2964.780,789.000,0.747
2970.798,790.000,0.745
2976.816,791.000,0.745
2982.832,792.000,0.745
2988.835,793.000,0.740
2994.868,794.000,0.738
3000.858,795.000,0.739
3006.888,796.000,0.736
3012.905,797.000,0.734
3018.909,798.000,0.736
3024.948,799.000,0.736
3030.960,800.000,0.736
3036.984,801.000,0.735
3042.982,802.000,0.734
3048.996,803.000,0.733
3055.017,804.000,0.733
3061.039,805.000,0.732
3067.056,806.000,0.731
3073.071,807.000,0.729
3079.092,808.000,0.726
3085.093,809.000,0.726
3091.121,810.000,0.726
3097.142,811.000,0.724
3103.154,812.000,0.722
3109.172,813.000,0.722
3115.188,814.000,0.722
3121.213,815.000,0.720
3127.239,816.000,0.717
3133.259,817.000,0.716
3139.284,818.000,0.713
3145.307,819.000,0.712
3151.338,820.000,0.710
3157.362,821.000,0.711
3163.380,822.000,0.712
3169.399,823.000,0.712
3175.429,824.000,0.712
3181.465,825.000,0.710
3187.489,826.000,0.710
3193.510,827.000,0.709
3199.536,828.000,0.707
3205.588,829.000,0.707
3211.611,830.000,0.707
3217.644,831.000,0.707
3223.674,832.000,0.707
3229.711,833.000,0.707
3235.742,834.000,0.706
3241.776,835.000,0.703
3247.829,836.000,0.701
3253.864,837.000,0.699
3259.902,838.000,0.699
3265.950,839.000,0.695
3271.975,840.000,0.695
3278.027,841.000,0.693
3284.059,842.000,0.695
3290.105,843.000,0.693
3296.140,844.000,0.692
3302.194,845.000,0.691
3308.229,846.000,0.691
3314.279,847.000,0.690
3320.314,848.000,0.690
3326.364,849.000,0.690
3332.418,850.000,0.690
3338.454,851.000,0.689
3344.496,852.000,0.688
3350.538,853.000,0.687
3356.592,854.000,0.686
3362.636,855.000,0.686
3368.691,856.000,0.684
3374.738,857.000,0.682
3380.785,858.000,0.682
3386.844,859.000,0.680
3392.883,860.000,0.681
3398.932,861.000,0.681
3404.980,862.000,0.681
3411.044,863.000,0.679
3417.077,864.000,0.676
3423.102,865.000,0.675
3429.162,866.000,0.677
3435.222,867.000,0.675
3441.270,868.000,0.673
3447.312,869.000,0.672
3453.350,870.000,0.672
3459.387,871.000,0.672
3465.434,872.000,0.672
3471.504,873.000,0.672
3477.538,874.000,0.670
3483.570,875.000,0.670
3489.630,876.000,0.670
3495.673,877.000,0.668
3501.731,878.000,0.666
3507.762,879.000,0.664
3513.810,880.000,0.663
3519.852,881.000,0.663
3525.889,882.000,0.665
3531.924,883.000,0.665
3537.966,884.000,0.666
3544.014,885.000,0.665
3550.053,886.000,0.664
3556.098,887.000,0.663
3562.144,888.000,0.663
3568.188,889.000,0.662
3574.223,890.000,0.661
3580.265,891.000,0.660
3586.302,892.000,0.657
3592.332,893.000,0.655
3598.380,894.000,0.653
3604.423,895.000,0.652
3610.460,896.000,0.650
3616.497,897.000,0.649
3622.532,898.000,0.649
3628.574,899.000,0.649
3634.605,900.000,0.648
3640.634,901.000,0.647
3646.677,902.000,0.646
3652.695,903.000,0.646
3658.726,904.000,0.646
3664.758,905.000,0.647
3670.791,906.000,0.647
3676.815,907.000,0.647
3682.845,908.000,0.648
3688.882,909.000,0.648
3694.895,910.000,0.647
3700.920,911.000,0.647
3706.950,912.000,0.647
3712.974,913.000,0.645
3718.999,914.000,0.645
3725.033,915.000,0.645
3731.057,916.000,0.643
3737.096,917.000,0.643
3743.115,918.000,0.643
3749.154,919.000,0.641
3755.182,920.000,0.639
3761.187,921.000,0.638
3767.214,922.000,0.637
3773.235,923.000,0.637
3779.268,924.000,0.637
3785.283,925.000,0.637
3791.320,926.000,0.637
3797.350,927.000,0.636
3803.379,928.000,0.635
3809.402,929.000,0.634
3815.435,930.000,0.634
3821.457,931.000,0.633
3827.474,932.000,0.633
3833.496,933.000,0.632
3839.531,934.000,0.631
3845.544,935.000,0.631
3851.562,936.000,0.631
3857.586,937.000,0.630
3863.599,938.000,0.630
3869.635,939.000,0.628
3875.651,940.000,0.628
3881.660,941.000,0.630
3887.691,942.000,0.630
3893.709,943.000,0.630
3899.726,944.000,0.630
3905.750,945.000,0.630
3911.772,946.000,0.630
3917.784,947.000,0.630
3923.808,948.000,0.628
3929.847,949.000,0.626
3935.859,950.000,0.626
3941.883,951.000,0.624
3947.902,952.000,0.623
3953.932,953.000,0.622
3959.954,954.000,0.621
3965.975,955.000,0.621
3972.004,956.000,0.623
3978.044,957.000,0.623
3984.067,958.000,0.622
3990.095,959.000,0.621
3996.114,960.000,0.622
4002.162,961.000,0.621
4008.187,962.000,0.620
4014.227,963.000,0.620
4020.253,964.000,0.619
4026.285,965.000,0.619
4032.314,966.000,0.618
4038.342,967.000,0.617
4044.374,968.000,0.615
4050.411,969.000,0.615
4056.453,970.000,0.615
4062.489,971.000,0.615
4068.530,972.000,0.615
4074.554,973.000,0.613
4080.601,974.000,0.613
4086.635,975.000,0.613
4092.688,976.000,0.615
4098.714,977.000,0.615
4104.774,978.000,0.613
4110.809,979.000,0.613
4116.841,980.000,0.613
4122.880,981.000,0.611
4128.934,982.000,0.609
4134.983,983.000,0.608
4141.026,984.000,0.609
4147.062,985.000,0.609
4153.111,986.000,0.609
4159.146,987.000,0.609
4165.209,988.000,0.609
4171.265,989.000,0.610
4177.302,990.000,0.609
4183.362,991.000,0.608
4189.417,992.000,0.607
4195.459,993.000,0.606
4201.526,994.000,0.605
4207.572,995.000,0.605
4213.632,996.000,0.605
4219.684,997.000,0.604
4225.742,998.000,0.604
4231.811,999.000,0.604
4237.870,1000.000,0.603
4243.938,1001.000,0.601
4249.999,1002.000,0.602
4256.063,1003.000,0.600
4262.128,1004.000,0.600
4268.192,1005.000,0.601
4274.271,1006.000,0.602
4280.332,1007.000,0.604
4286.412,1008.000,0.602
4292.477,1009.000,0.603
4298.544,1010.000,0.603
4304.611,1011.000,0.603
4310.683,1012.000,0.603
4316.770,1013.000,0.604
4322.832,1014.000,0.604
4328.926,1015.000,0.604
4334.999,1016.000,0.601
4341.090,1017.000,0.600
4347.169,1018.000,0.599
4353.255,1019.000,0.599
4359.340,1020.000,0.599
4365.428,1021.000,0.598
4371.510,1022.000,0.598
4377.595,1023.000,0.598
4383.690,1024.000,0.599
4389.768,1025.000,0.601
4395.872,1026.000,0.601
4401.967,1027.000,0.600
4408.056,1028.000,0.601
4414.154,1029.000,0.600
4420.257,1030.000,0.599
4426.344,1031.000,0.598
4432.443,1032.000,0.598
4438.544,1033.000,0.597
4444.650,1034.000,0.596
4450.752,1035.000,0.594
4456.841,1036.000,0.594
4462.926,1037.000,0.594
4469.025,1038.000,0.594
4475.134,1039.000,0.594
4481.225,1040.000,0.593
4487.315,1041.000,0.594
4493.419,1042.000,0.594
4499.526,1043.000,0.594
4505.623,1044.000,0.596
4511.724,1045.000,0.596
4517.822,1046.000,0.596
4523.940,1047.000,0.596
4530.018,1048.000,0.596
4536.126,1049.000,0.596
4542.236,1050.000,0.596
4548.330,1051.000,0.593
4554.438,1052.000,0.592
4560.548,1053.000,0.592
4566.671,1054.000,0.591
4572.762,1055.000,0.591
4578.872,1056.000,0.592
4584.981,1057.000,0.592
4591.110,1058.000,0.592
4597.228,1059.000,0.592
4603.350,1060.000,0.592
4609.468,1061.000,0.592
4615.579,1062.000,0.591
4621.700,1063.000,0.590
4627.832,1064.000,0.588
4633.950,1065.000,0.587
4640.072,1066.000,0.588
4646.179,1067.000,0.588
4652.305,1068.000,0.589
4658.423,1069.000,0.589
4664.544,1070.000,0.589
4670.671,1071.000,0.589
4676.789,1072.000,0.589
4682.899,1073.000,0.591
4689.035,1074.000,0.590
4695.168,1075.000,0.590
4701.294,1076.000,0.588
4707.423,1077.000,0.584
4713.566,1078.000,0.584
4719.701,1079.000,0.585
4725.835,1080.000,0.586
4731.964,1081.000,0.586
4738.113,1082.000,0.586
4744.258,1083.000,0.582
4750.405,1084.000,0.582
4756.540,1085.000,0.582
4762.683,1086.000,0.582
4765.764,1086.500,0.582