File: Wood/Calibration_Data/UMD/UMD_TGA_N2_10K_R3.csv
Time (s),Temperature (K),Mass (mg)
0.000,297.000,3.904
34.356,298.000,3.904
54.241,299.000,3.903
69.692,300.000,3.903
82.895,301.000,3.903
94.669,302.000,3.902
105.429,303.000,3.902
115.435,304.000,3.903
124.889,305.000,3.904
133.871,306.000,3.903
142.483,307.000,3.905
150.777,308.000,3.906
158.794,309.000,3.905
166.601,310.000,3.903
174.232,311.000,3.902
181.656,312.000,3.902
188.946,313.000,3.902
196.090,314.000,3.901
203.116,315.000,3.900
210.030,316.000,3.899
216.839,317.000,3.899
223.577,318.000,3.899
230.221,319.000,3.899
236.795,320.000,3.899
243.321,321.000,3.900
249.779,322.000,3.898
256.173,323.000,3.899
262.520,324.000,3.900
268.827,325.000,3.900
275.103,326.000,3.899
281.319,327.000,3.898
287.520,328.000,3.898
293.662,329.000,3.897
299.784,330.000,3.897
305.863,331.000,3.895
311.916,332.000,3.894
317.969,333.000,3.891
323.967,334.000,3.891
329.970,335.000,3.890
335.940,336.000,3.889
341.892,337.000,3.889
347.807,338.000,3.888
353.721,339.000,3.888
359.625,340.000,3.887
365.488,341.000,3.886
371.348,342.000,3.885
377.198,343.000,3.885
383.042,344.000,3.885
388.855,345.000,3.887
394.670,346.000,3.887
400.472,347.000,3.885
406.271,348.000,3.885
412.044,349.000,3.883
417.819,350.000,3.884
423.589,351.000,3.883
429.365,352.000,3.882
435.120,353.000,3.881
440.864,354.000,3.880
446.597,355.000,3.879
452.334,356.000,3.876
458.065,357.000,3.876
463.786,358.000,3.876
469.516,359.000,3.876
475.233,360.000,3.874
480.930,361.000,3.874
486.642,362.000,3.872
492.344,363.000,3.872
498.048,364.000,3.872
503.762,365.000,3.872
509.444,366.000,3.872
515.126,367.000,3.870
520.821,368.000,3.868
526.496,369.000,3.866
532.194,370.000,3.868
537.876,371.000,3.867
543.579,372.000,3.867
549.248,373.000,3.867
554.945,374.000,3.867
560.619,375.000,3.867
566.302,376.000,3.864
571.979,377.000,3.865
577.656,378.000,3.863
583.335,379.000,3.863
589.011,380.000,3.864
594.694,381.000,3.865
600.362,382.000,3.866
606.039,383.000,3.867
611.711,384.000,3.866
617.386,385.000,3.866
623.059,386.000,3.867
628.731,387.000,3.865
634.397,388.000,3.866
640.073,389.000,3.867
645.751,390.000,3.868
651.419,391.000,3.866
657.093,392.000,3.868
662.763,393.000,3.867
668.442,394.000,3.867
674.110,395.000,3.867
679.783,396.000,3.868
685.459,397.000,3.867
691.131,398.000,3.866
696.791,399.000,3.866
702.469,400.000,3.866
708.139,401.000,3.865
713.829,402.000,3.865
719.496,403.000,3.865
725.167,404.000,3.864
730.842,405.000,3.864
736.515,406.000,3.863
742.191,407.000,3.861
747.875,408.000,3.863
753.542,409.000,3.863
759.219,410.000,3.863
764.897,411.000,3.863
770.562,412.000,3.865
776.234,413.000,3.866
781.907,414.000,3.864
787.582,415.000,3.864
793.253,416.000,3.864
798.945,417.000,3.864
804.631,418.000,3.864
810.304,419.000,3.864
815.984,420.000,3.862
821.659,421.000,3.862
827.336,422.000,3.863
833.008,423.000,3.864
838.688,424.000,3.864
844.368,425.000,3.864
850.049,426.000,3.862
855.723,427.000,3.862
861.404,428.000,3.863
867.088,429.000,3.863
872.761,430.000,3.861
878.444,431.000,3.861
884.125,432.000,3.861
889.793,433.000,3.862
895.482,434.000,3.861
901.158,435.000,3.861
906.836,436.000,3.862
912.513,437.000,3.861
918.191,438.000,3.862
923.865,439.000,3.863
929.533,440.000,3.862
935.208,441.000,3.862
940.885,442.000,3.862
946.567,443.000,3.862
952.250,444.000,3.859
957.933,445.000,3.859
963.612,446.000,3.859
969.288,447.000,3.858
974.974,448.000,3.857
980.658,449.000,3.856
986.319,450.000,3.856
992.008,451.000,3.856
997.676,452.000,3.856
1003.363,453.000,3.856
1009.055,454.000,3.856
1014.729,455.000,3.856
1020.414,456.000,3.856
1026.104,457.000,3.853
1031.783,458.000,3.853
1037.461,459.000,3.853
1043.144,460.000,3.851
1048.827,461.000,3.850
1054.512,462.000,3.849
1060.193,463.000,3.847
1065.876,464.000,3.846
1071.565,465.000,3.846
1077.254,466.000,3.845
1082.945,467.000,3.844
1088.631,468.000,3.844
1094.302,469.000,3.843
1099.985,470.000,3.842
1105.663,471.000,3.838
1111.356,472.000,3.837
1117.042,473.000,3.833
1122.723,474.000,3.833
1128.410,475.000,3.831
1134.105,476.000,3.829
1139.791,477.000,3.827
1145.488,478.000,3.825
1151.172,479.000,3.824
1156.853,480.000,3.822
1162.546,481.000,3.817
1168.234,482.000,3.813
1173.937,483.000,3.811
1179.619,484.000,3.809
1185.299,485.000,3.808
1190.978,486.000,3.807
1196.681,487.000,3.805
1202.358,488.000,3.803
1208.054,489.000,3.797
1213.750,490.000,3.795
1219.431,491.000,3.793
1225.113,492.000,3.790
1230.786,493.000,3.787
1236.477,494.000,3.785
1242.156,495.000,3.781
1247.848,496.000,3.779
1253.548,497.000,3.774
1259.219,498.000,3.772
1264.906,499.000,3.770
1270.587,500.000,3.768
1276.284,501.000,3.765
1281.976,502.000,3.765
1287.661,503.000,3.762
1293.355,504.000,3.760
1299.044,505.000,3.758
1304.733,506.000,3.756
1310.429,507.000,3.751
1316.121,508.000,3.748
1321.802,509.000,3.743
1327.525,510.000,3.741
1333.216,511.000,3.737
1338.906,512.000,3.735
1344.599,513.000,3.733
1350.304,514.000,3.729
1355.990,515.000,3.724
1361.694,516.000,3.720
1367.399,517.000,3.717
1373.087,518.000,3.713
1378.775,519.000,3.710
1384.483,520.000,3.705
1390.183,521.000,3.702
1395.883,522.000,3.699
1401.599,523.000,3.695
1407.288,524.000,3.690
1412.993,525.000,3.685
1418.711,526.000,3.681
1424.427,527.000,3.675
1430.133,528.000,3.670
1435.848,529.000,3.665
1441.552,530.000,3.661
1447.275,531.000,3.654
1452.991,532.000,3.652
1458.704,533.000,3.646
1464.425,534.000,3.642
1470.156,535.000,3.636
1475.864,536.000,3.631
1481.602,537.000,3.623
1487.316,538.000,3.614
1493.048,539.000,3.609
1498.774,540.000,3.603
1504.510,541.000,3.597
1510.223,542.000,3.590
1515.960,543.000,3.585
1521.683,544.000,3.578
1527.419,545.000,3.571
1533.151,546.000,3.564
1538.879,547.000,3.557
1544.602,548.000,3.548
1550.339,549.000,3.541
1556.076,550.000,3.532
1561.808,551.000,3.525
1567.542,552.000,3.516
1573.287,553.000,3.507
1579.023,554.000,3.498
1584.763,555.000,3.486
1590.505,556.000,3.477
1596.248,557.000,3.467
1601.994,558.000,3.456
1607.748,559.000,3.448
1613.481,560.000,3.438
1619.231,561.000,3.430
1624.978,562.000,3.419
1630.714,563.000,3.407
1636.477,564.000,3.396
1642.215,565.000,3.385
1647.958,566.000,3.371
1653.710,567.000,3.360
1659.469,568.000,3.348
1665.225,569.000,3.336
1670.971,570.000,3.325
1676.731,571.000,3.313
1682.490,572.000,3.300
1688.246,573.000,3.286
1693.996,574.000,3.272
1699.760,575.000,3.259
1705.517,576.000,3.245
1711.268,577.000,3.231
1717.035,578.000,3.216
1722.785,579.000,3.202
1728.554,580.000,3.190
1734.312,581.000,3.175
1740.087,582.000,3.159
1745.854,583.000,3.139
1751.625,584.000,3.123
1757.393,585.000,3.110
1763.175,586.000,3.095
1768.945,587.000,3.078
1774.728,588.000,3.059
1780.511,589.000,3.044
1786.297,590.000,3.023
1792.069,591.000,3.007
1797.860,592.000,2.987
1803.648,593.000,2.971
1809.436,594.000,2.953
1815.237,595.000,2.935
1821.025,596.000,2.916
1826.835,597.000,2.897
1832.631,598.000,2.878
1838.418,599.000,2.859
1844.231,600.000,2.840
1850.025,601.000,2.820
1855.831,602.000,2.798
1861.644,603.000,2.778
1867.454,604.000,2.757
1873.264,605.000,2.737
1879.084,606.000,2.717
1884.889,607.000,2.694
1890.701,608.000,2.671
1896.531,609.000,2.648
1902.346,610.000,2.626
1908.161,611.000,2.603
1913.978,612.000,2.581
1919.809,613.000,2.559
1925.653,614.000,2.535
1931.481,615.000,2.510
1937.313,616.000,2.486
1943.146,617.000,2.460
1948.996,618.000,2.435
1954.831,619.000,2.407
1960.684,620.000,2.382
1966.531,621.000,2.357
1972.385,622.000,2.332
1978.243,623.000,2.304
1984.105,624.000,2.273
1989.971,625.000,2.236
1995.819,626.000,2.209
2001.698,627.000,2.185
2007.574,628.000,2.158
2013.443,629.000,2.126
2019.324,630.000,2.095
2025.208,631.000,2.061
2031.090,632.000,2.028
2036.983,633.000,1.998
2042.870,634.000,1.963
2048.760,635.000,1.930
2054.660,636.000,1.897
2060.554,637.000,1.861
2066.443,638.000,1.824
2072.334,639.000,1.788
2078.239,640.000,1.751
2084.127,641.000,1.712
2090.008,642.000,1.676
2095.899,643.000,1.638
2101.777,644.000,1.599
2107.644,645.000,1.561
2113.507,646.000,1.522
2119.361,647.000,1.484
2125.192,648.000,1.448
2131.031,649.000,1.410
2136.837,650.000,1.372
2142.637,651.000,1.333
2148.429,652.000,1.300
2154.185,653.000,1.265
2159.937,654.000,1.231
2165.682,655.000,1.204
2171.417,656.000,1.183
2177.129,657.000,1.160
2182.859,658.000,1.134
2188.575,659.000,1.113
2194.283,660.000,1.096
2200.021,661.000,1.084
2205.766,662.000,1.072
2211.511,663.000,1.061
2217.272,664.000,1.050
2223.068,665.000,1.040
2228.872,666.000,1.033
2234.689,667.000,1.028
2240.533,668.000,1.023
2246.378,669.000,1.017
2252.241,670.000,1.013
2258.102,671.000,1.010
2263.977,672.000,1.006
2269.848,673.000,1.001
2275.728,674.000,0.997
2281.601,675.000,0.991
2287.484,676.000,0.988
2293.366,677.000,0.983
2299.256,678.000,0.981
2305.140,679.000,0.977
2311.035,680.000,0.974
2316.903,681.000,0.971
2322.801,682.000,0.967
2328.696,683.000,0.966
2334.590,684.000,0.962
2340.479,685.000,0.960
2346.378,686.000,0.956
2352.289,687.000,0.953
2358.184,688.000,0.949
2364.087,689.000,0.947
2369.996,690.000,0.944
2375.898,691.000,0.941
2381.813,692.000,0.940
2387.716,693.000,0.939
2393.637,694.000,0.937
2399.554,695.000,0.933
2405.481,696.000,0.932
2411.399,697.000,0.928
2417.319,698.000,0.926
2423.233,699.000,0.923
2429.162,700.000,0.918
2435.098,701.000,0.912
2441.031,702.000,0.910
2446.960,703.000,0.908
2452.892,704.000,0.906
2458.829,705.000,0.902
2464.767,706.000,0.900
2470.713,707.000,0.897
2476.653,708.000,0.895
2482.601,709.000,0.892
2488.548,710.000,0.889
2494.491,711.000,0.886
2500.431,712.000,0.884
2506.389,713.000,0.882
2512.346,714.000,0.880
2518.300,715.000,0.877
2524.251,716.000,0.875
2530.209,717.000,0.871
2536.167,718.000,0.867
2542.131,719.000,0.864
2548.101,720.000,0.863
2554.064,721.000,0.864
2560.029,722.000,0.863
2565.993,723.000,0.862
2571.976,724.000,0.859
2577.954,725.000,0.855
2583.915,726.000,0.852
2589.902,727.000,0.848
2595.861,728.000,0.848
2601.849,729.000,0.843
2607.831,730.000,0.841
2613.801,731.000,0.840
2619.783,732.000,0.836
2625.764,733.000,0.836
2631.747,734.000,0.834
2637.728,735.000,0.831
2643.705,736.000,0.828
2649.687,737.000,0.824
2655.682,738.000,0.822
2661.669,739.000,0.822
2667.663,740.000,0.819
2673.643,741.000,0.818
2679.635,742.000,0.817
2685.631,743.000,0.818
2691.633,744.000,0.816
2697.627,745.000,0.815
2703.621,746.000,0.814
2709.604,747.000,0.812
2715.591,748.000,0.808
2721.591,749.000,0.807
2727.583,750.000,0.807
2733.573,751.000,0.805
2739.577,752.000,0.803
2745.564,753.000,0.802
2751.560,754.000,0.801
2757.549,755.000,0.800
2763.549,756.000,0.797
2769.540,757.000,0.796
2775.534,758.000,0.795
2781.522,759.000,0.793
2787.522,760.000,0.793
2793.516,761.000,0.790
2799.516,762.000,0.790
2805.510,763.000,0.786
2811.498,764.000,0.785
2817.501,765.000,0.783
2823.498,766.000,0.782
2829.495,767.000,0.780
2835.498,768.000,0.776
2841.513,769.000,0.777
2847.501,770.000,0.775
2853.494,771.000,0.773
2859.501,772.000,0.774
2865.510,773.000,0.774
2871.516,774.000,0.771
2877.510,775.000,0.769
2883.513,776.000,0.767
2889.525,777.000,0.766
2895.534,778.000,0.766
2901.537,779.000,0.764
2907.534,780.000,0.764
2913.552,781.000,0.762
2919.552,782.000,0.762
2925.567,783.000,0.762
2931.578,784.000,0.762
2937.590,785.000,0.762
2943.589,786.000,0.762
2949.605,787.000,0.760
2955.619,788.000,0.759
2961.623,789.000,0.758
2967.645,790.000,0.757
2973.657,791.000,0.755
2979.671,792.000,0.754
2985.681,793.000,0.753
2991.693,794.000,0.751
2997.710,795.000,0.750
3003.717,796.000,0.751
3009.741,797.000,0.749
3015.758,798.000,0.749
3021.772,799.000,0.747
3027.777,800.000,0.747
3033.813,801.000,0.745
3039.837,802.000,0.745
3045.843,803.000,0.743
3051.867,804.000,0.741
3057.896,805.000,0.740
3063.910,806.000,0.739
3069.929,807.000,0.738
3075.950,808.000,0.737
3081.973,809.000,0.736
3087.996,810.000,0.735
3094.013,811.000,0.734
3100.037,812.000,0.735
3106.059,813.000,0.734
3112.080,814.000,0.734
3118.110,815.000,0.732
3124.128,816.000,0.732
3130.158,817.000,0.732
3136.173,818.000,0.730
3142.207,819.000,0.730
3148.235,820.000,0.730
3154.253,821.000,0.730
3160.289,822.000,0.728
3166.306,823.000,0.728
3172.335,824.000,0.726
3178.370,825.000,0.724
3184.389,826.000,0.723
3190.425,827.000,0.721
3196.455,828.000,0.721
3202.496,829.000,0.719
3208.518,830.000,0.719
3214.554,831.000,0.717
3220.596,832.000,0.717
3226.625,833.000,0.717
3232.657,834.000,0.717
3238.689,835.000,0.716
3244.731,836.000,0.714
3250.767,837.000,0.714
3256.809,838.000,0.712
3262.854,839.000,0.712
3268.877,840.000,0.712
3274.904,841.000,0.712
3280.958,842.000,0.710
3286.990,843.000,0.708
3293.037,844.000,0.708
3299.084,845.000,0.707
3305.115,846.000,0.706
3311.162,847.000,0.705
3317.201,848.000,0.705
3323.245,849.000,0.704
3329.283,850.000,0.704
3335.334,851.000,0.704
3341.385,852.000,0.702
3347.437,853.000,0.700
3353.471,854.000,0.700
3359.513,855.000,0.699
3365.558,856.000,0.697
3371.601,857.000,0.697
3377.655,858.000,0.695
3383.704,859.000,0.695
3389.729,860.000,0.695
3395.789,861.000,0.693
3401.821,862.000,0.692
3407.870,863.000,0.690
3413.907,864.000,0.690
3419.958,865.000,0.690
3425.991,866.000,0.690
3432.041,867.000,0.689
3438.075,868.000,0.689
3444.123,869.000,0.689
3450.181,870.000,0.688
3456.213,871.000,0.687
3462.254,872.000,0.686
3468.286,873.000,0.687
3474.336,874.000,0.688
3480.368,875.000,0.686
3486.403,876.000,0.686
3492.435,877.000,0.686
3498.467,878.000,0.684
3504.507,879.000,0.686
3510.537,880.000,0.686
3516.579,881.000,0.686
3522.613,882.000,0.684
3528.654,883.000,0.684
3534.678,884.000,0.684
3540.713,885.000,0.682
3546.743,886.000,0.682
3552.789,887.000,0.682
3558.831,888.000,0.683
3564.855,889.000,0.682
3570.907,890.000,0.680
3576.923,891.000,0.678
3582.971,892.000,0.677
3589.007,893.000,0.675
3595.043,894.000,0.674
3601.083,895.000,0.673
3607.116,896.000,0.672
3613.146,897.000,0.672
3619.168,898.000,0.672
3625.203,899.000,0.670
3631.231,900.000,0.670
3637.272,901.000,0.670
3643.296,902.000,0.670
3649.336,903.000,0.670
3655.359,904.000,0.670
3661.389,905.000,0.670
3667.425,906.000,0.670
3673.455,907.000,0.668
3679.474,908.000,0.666
3685.514,909.000,0.664
3691.540,910.000,0.664
3697.572,911.000,0.664
3703.601,912.000,0.665
3709.629,913.000,0.665
3715.653,914.000,0.665
3721.682,915.000,0.665
3727.710,916.000,0.665
3733.737,917.000,0.663
3739.752,918.000,0.663
3745.792,919.000,0.662
3751.817,920.000,0.662
3757.849,921.000,0.662
3763.872,922.000,0.661
3769.918,923.000,0.662
3775.940,924.000,0.660
3781.977,925.000,0.659
3788.013,926.000,0.659
3794.037,927.000,0.659
3800.074,928.000,0.659
3806.115,929.000,0.659
3812.140,930.000,0.659
3818.180,931.000,0.657
3824.213,932.000,0.657
3830.243,933.000,0.657
3836.286,934.000,0.655
3842.328,935.000,0.656
3848.368,936.000,0.654
3854.409,937.000,0.654
3860.445,938.000,0.652
3866.489,939.000,0.651
3872.525,940.000,0.651
3878.577,941.000,0.651
3884.607,942.000,0.650
3890.661,943.000,0.649
3896.698,944.000,0.649
3902.741,945.000,0.650
3908.793,946.000,0.650
3914.827,947.000,0.650
3920.879,948.000,0.649
3926.928,949.000,0.650
3932.979,950.000,0.650
3939.023,951.000,0.649
3945.055,952.000,0.649
3951.103,953.000,0.650
3957.147,954.000,0.650
3963.201,955.000,0.649
3969.249,956.000,0.648
3975.298,957.000,0.645
3981.357,958.000,0.647
3987.405,959.000,0.645
3993.453,960.000,0.645
3999.519,961.000,0.645
4005.567,962.000,0.645
4011.631,963.000,0.645
4017.679,964.000,0.645
4023.735,965.000,0.645
4029.789,966.000,0.645
4035.837,967.000,0.645
4041.916,968.000,0.643
4047.983,969.000,0.643
4054.039,970.000,0.643
4060.112,971.000,0.642
4066.170,972.000,0.641
4072.247,973.000,0.641
4078.311,974.000,0.641
4084.382,975.000,0.640
4090.461,976.000,0.639
4096.511,977.000,0.638
4102.593,978.000,0.636
4108.667,979.000,0.635
4114.749,980.000,0.635
4120.811,981.000,0.635
4126.893,982.000,0.635
4132.959,983.000,0.635
4139.037,984.000,0.635
4145.119,985.000,0.635
4151.184,986.000,0.635
4157.262,987.000,0.635
4163.349,988.000,0.635
4169.427,989.000,0.637
4175.505,990.000,0.637
4181.583,991.000,0.636
4187.690,992.000,0.635
4193.771,993.000,0.635
4199.856,994.000,0.636
4205.956,995.000,0.634
4212.055,996.000,0.634
4218.163,997.000,0.632
4224.243,998.000,0.628
4230.334,999.000,0.628
4236.435,1000.000,0.628
4242.543,1001.000,0.628
4248.633,1002.000,0.630
4254.733,1003.000,0.632
4260.831,1004.000,0.630
4266.925,1005.000,0.629
4273.033,1006.000,0.628
4279.140,1007.000,0.627
4285.237,1008.000,0.626
4291.351,1009.000,0.627
4297.431,1010.000,0.628
4303.543,1011.000,0.628
4309.660,1012.000,0.629
4315.758,1013.000,0.630
4321.868,1014.000,0.631
4327.977,1015.000,0.631
4334.081,1016.000,0.631
4340.201,1017.000,0.628
4346.322,1018.000,0.628
4352.419,1019.000,0.628
4358.533,1020.000,0.629
4364.655,1021.000,0.628
4370.766,1022.000,0.628
4376.891,1023.000,0.627
4382.998,1024.000,0.626
4389.114,1025.000,0.626
4395.225,1026.000,0.626
4401.347,1027.000,0.626
4407.458,1028.000,0.625
4413.581,1029.000,0.623
4419.698,1030.000,0.623
4425.831,1031.000,0.623
4431.946,1032.000,0.623
4438.066,1033.000,0.624
4444.192,1034.000,0.624
4450.313,1035.000,0.624
4456.449,1036.000,0.624
4462.572,1037.000,0.622
4468.692,1038.000,0.622
4474.817,1039.000,0.622
4480.951,1040.000,0.620
4487.074,1041.000,0.620
4493.201,1042.000,0.620
4499.319,1043.000,0.620
4505.449,1044.000,0.622
4511.582,1045.000,0.622
4517.695,1046.000,0.622
4523.831,1047.000,0.620
4529.953,1048.000,0.619
4536.086,1049.000,0.618
4542.231,1050.000,0.618
4548.341,1051.000,0.618
4554.488,1052.000,0.618
4560.606,1053.000,0.618
4566.737,1054.000,0.620
4572.868,1055.000,0.620
4579.006,1056.000,0.618
4585.140,1057.000,0.616
4591.268,1058.000,0.615
4597.394,1059.000,0.617
4603.525,1060.000,0.617
4609.666,1061.000,0.617
4615.800,1062.000,0.617
4621.915,1063.000,0.618
4628.055,1064.000,0.617
4634.180,1065.000,0.616
4640.313,1066.000,0.614
4646.439,1067.000,0.614
4652.587,1068.000,0.614
4658.693,1069.000,0.614
4664.829,1070.000,0.614
4670.965,1071.000,0.614
4677.090,1072.000,0.614
4683.213,1073.000,0.612
4689.357,1074.000,0.612
4695.485,1075.000,0.612
4701.611,1076.000,0.612
4707.738,1077.000,0.612
4713.880,1078.000,0.612
4719.997,1079.000,0.614
4726.131,1080.000,0.614
4732.268,1081.000,0.612
4738.395,1082.000,0.612
4744.518,1083.000,0.610
4750.645,1084.000,0.610
4756.774,1085.000,0.609
4762.913,1086.000,0.609