File: Non-charring/PMMA/LCPP/LCPP_Cone_25kW_3.csv
Time,Mass,HRR,Back Surface Temperature
[s],[g],[kW/m2],[K]
0,0,3.64157,303.076
1,0,,303.076
2,0,,303.075
3,0,,303.091
4,0,,303.099
5,0,3.45521,303.106
6,0,,303.136
7,0,,303.141
8,0,,303.202
9,0,,303.214
10,0,4.80093,303.239
11,0,,303.266
12,0,,303.293
13,0,,303.332
14,0,,303.402
15,0,7.01597,303.444
16,0,,303.519
17,0,,303.568
18,0,,303.659
19,0,,303.767
20,0,1.92557,303.843
21,0,,304.013
22,0,,304.119
23,0,,304.276
24,0,,304.318
25,0,1.87407,304.669
26,0,,304.863
27,0,,305.162
28,0,,305.436
29,0,,305.736
30,0,0.754063,306.008
31,0,,306.424
32,0,,306.791
33,0,,307.254
34,0,,307.617
35,0,-0.409412,308.136
36,0,,308.569
37,0,,309.061
38,0,,309.659
39,0,,310.212
40,0,-0.454148,310.676
41,0,,311.42
42,0,,312.017
43,0,,312.821
44,0,,313.373
45,0,-1.32074,313.944
46,0,,314.673
47,0,,315.4
48,0,,316.231
49,0,,316.946
50,0,-2.01552,317.629
51,0,,318.487
52,0,,319.326
53,0,,320.092
54,0,,320.903
55,0,-2.51365,321.794
56,0,,322.594
57,0,,323.346
58,0,,324.301
59,0,,325.281
60,0,-2.79977,326
61,0,,326.886
62,0,,327.734
63,0,,328.69
64,0,,329.747
65,0,-2.57319,330.58
66,0,,331.586
67,0,,332.413
68,0,,333.163
69,0,,334.196
70,0,3.06698,335.105
71,0,,336.071
72,0,,337.112
73,0,,337.849
74,0,,338.828
75,0,7.94716,339.758
76,0,,340.806
77,0,,341.677
78,0,,342.894
79,0,,343.674
80,0,8.94567,344.557
81,0,,345.644
82,0,,346.631
83,0,,347.405
84,0,,348.27
85,0,6.00069,349.26
86,0,,350.325
87,0,,351.257
88,0,,352.14
89,0,,353.142
90,0,3.05757,354.15
91,0,,355.03
92,0,,355.962
93,0,,356.986
94,0,,358.047
95,0,3.74027,358.944
96,0,,359.837
97,0,,360.768
98,0,,361.79
99,0,,362.658
100,0,48.3763,363.459
101,0,,364.491
102,0,,365.442
103,0,,366.392
104,0,,367.192
105,0,140.344,368.107
106,0,,369.137
107,0,,370.027
108,0,,370.92
109,0,,371.894
110,0,257.866,372.818
111,0,,373.621
112,0,,374.551
113,0,,375.597
114,0,,376.383
115,0,315.717,377.377
116,0,,378.131
117,0,,378.877
118,0,,379.767
119,0,,380.658
120,0,339.331,381.235
121,0,,381.97
122,0,,382.803
123,0,,383.416
124,0,,384.081
125,0,363.36,384.842
126,0,,385.713
127,0,,386.432
128,0,,387.2
129,0,,388.107
130,0,383.847,388.872
131,0,,389.729
132,0,,390.599
133,0,,391.659
134,0,,392.648
135,0,391.644,393.815
136,0,,394.794
137,0,,395.773
138,0,,396.954
139,0,,397.926
140,0,393.327,398.92
141,0,,399.946
142,0,,401.123
143,0,,402.104
144,0,,403.075
145,0,387.05,404.082
146,0,,405.044
147,0,,406.206
148,0,,407.143
149,0,,408.11
150,0,395.527,409.225
151,0,,410.168
152,0,,411.27
153,0,,412.219
154,0,,413.129
155,0,403.857,414.236
156,0,,414.976
157,0,,416.026
158,0,,416.901
159,0,,417.74
160,0,395.869,418.773
161,0,,419.618
162,0,,420.477
163,0,,421.524
164,0,,422.324
165,0,413.609,423.189
166,0,,424.155
167,0,,424.994
168,0,,425.838
169,0,,426.631
170,0,420.574,427.621
171,0,,428.388
172,0,,429.179
173,0,,430.11
174,0,,430.898
175,0,419.247,431.84
176,0,,432.584
177,0,,433.294
178,0,,433.803
179,0,,434.306
180,0,421.124,434.9
181,0,,435.359
182,0,,435.842
183,0,,436.419
184,0,,436.923
185,0,428.932,437.498
186,0,,438.178
187,0,,438.694
188,0,,439.326
189,0,,439.997
190,0,425.979,440.632
191,0,,441.334
192,0,,441.874
193,0,,442.551
194,0,,443.336
195,0,433.917,443.965
196,0,,444.631
197,0,,445.319
198,0,,446.053
199,0,,446.626
200,0,427.053,447.141
201,0,,447.822
202,0,,448.211
203,0,,448.85
204,0,,449.412
205,0,440.167,449.887
206,0,,450.467
207,0,,451.015
208,0,,451.614
209,0,,452.273
210,0,437.053,452.934
211,0,,453.576
212,0,,454.248
213,0,,454.778
214,0,,455.612
215,0,441.037,456.223
216,0,,456.954
217,0,,457.783
218,0,,458.479
219,0,,459.353
220,0,447.042,460.119
221,0,,460.91
222,0,,461.73
223,0,,462.693
224,0,,463.541
225,0,447.31,464.342
226,0,,465.32
227,0,,466.25
228,0,,467.038
229,0,,467.987
230,0,452.608,468.998
231,0,,469.972
232,0,,470.957
233,0,,471.769
234,0,,472.895
235,0,471.51,473.9
236,0,,475.001
237,0,,475.82
238,0,,476.957
239,0,,477.826
240,0,481.448,479.062
241,0,,479.911
242,0,,480.954
243,0,,482.123
244,0,,483.149
245,0,503.528,484.12
246,0,,485.259
247,0,,486.22
248,0,,487.286
249,0,,488.473
250,0,505.475,489.431
251,0,,490.546
252,0,,491.502
253,0,,492.51
254,0,,493.796
255,0,497.333,494.716
256,0,,495.791
257,0,,496.969
258,0,,497.948
259,0,,499.038
260,0,495.777,499.997
261,0,,501.181
262,0,,502.251
263,0,,503.403
264,0,,504.42
265,0,503.07,505.428
266,0,,506.364
267,0,,507.361
268,0,,508.473
269,0,,509.397
270,0,522.944,510.355
271,0,,511.388
272,0,,512.286
273,0,,513.336
274,0,,514.185
275,0,526.283,515.093
276,0,,515.959
277,0,,516.965
278,0,,517.84
279,0,,518.659
280,0,527.452,519.674
281,0,,520.502
282,0,,521.325
283,0,,522.352
284,0,,523.177
285,0,557.6,524.039
286,0,,525.052
287,0,,525.853
288,0,,526.739
289,0,,527.578
290,0,563.802,528.546
291,0,,529.424
292,0,,530.217
293,0,,531.078
294,0,,532.063
295,0,570.895,532.878
296,0,,533.738
297,0,,534.677
298,0,,535.499
299,0,,536.35
300,0,565.404,537.283
301,0,,538.142
302,0,,538.968
303,0,,539.778
304,0,,540.646
305,0,565.305,541.58
306,0,,542.427
307,0,,543.285
308,0,,544.259
309,0,,545.099
310,0,577.81,545.92
311,0,,546.89
312,0,,547.777
313,0,,548.608
314,0,,549.639
315,0,574.943,550.502
316,0,,551.342
317,0,,552.405
318,0,,553.248
319,0,,554.135
320,0,570.687,555.05
321,0,,556.046
322,0,,556.992
323,0,,557.865
324,0,,558.865
325,0,577.928,559.791
326,0,,560.643
327,0,,561.528
328,0,,562.596
329,0,,563.483
330,0,592.175,564.411
331,0,,565.442
332,0,,566.373
333,0,,567.291
334,0,,568.331
335,0,572.363,569.273
336,0,,570.161
337,0,,571.222
338,0,,572.159
339,0,,573.039
340,0,593.316,573.983
341,0,,575.035
342,0,,575.947
343,0,,576.953
344,0,,577.704
345,0,608.723,578.888
346,0,,579.764
347,0,,580.641
348,0,,581.661
349,0,,582.631
350,0,620.096,583.614
351,0,,584.567
352,0,,585.594
353,0,,586.674
354,0,,587.77
355,0,631.752,588.676
356,0,,589.777
357,0,,590.796
358,0,,591.861
359,0,,592.973
360,0,643.666,594.093
361,0,,595.154
362,0,,596.272
363,0,,597.401
364,0,,598.589
365,0,620.507,600.059
366,0,,601.265
367,0,,602.461
368,0,,603.708
369,0,,605.187
370,0,638.614,606.533
371,0,,607.809
372,0,,609.408
373,0,,610.828
374,0,,612.522
375,0,632.621,614.054
376,0,,615.598
377,0,,617.215
378,0,,619.188
379,0,,620.909
380,0,642.986,622.776
381,0,,624.743
382,0,,627.194
383,0,,629.582
384,0,,632.164
385,0,636.832,635.509
386,0,,638.439
387,0,,641.711
388,0,,646.005
389,0,,650.813
390,0,617.523,656.749
391,0,,664.68
392,0,,672.301
393,0,,680.137
394,0,,690.82
395,0,632.356,700.799
396,0,,711.389
397,0,,724.975
398,0,,738.037
399,0,,758.423
400,0,600.89,779.173
401,0,,803.772
402,0,,821.969
403,0,,838.297
404,0,,853.756
405,0,577.318,878.539
406,0,,899.641
407,0,,918.043
408,0,,933.232
409,0,,949.584
410,0,553.086,965.294
411,0,,978.91
412,0,,994.755
413,0,,1001.776
414,0,,1002.336
415,0,540.419,1020.73
416,0,,1033.893
417,0,,1040.452
418,0,,1042.728
419,0,,1045.366
420,0,499.074,1061.95
421,0,,1074.294
422,0,,1086.582
423,0,,1101.799
424,0,,1104.112
425,0,493.369,1108.594
426,0,,1110.266
427,0,,1113.94
428,0,,1125.372
429,0,,1130.977
430,0,466.813,1133.742
431,0,,1136.21
432,0,,1112.226
433,0,,1075.337
434,0,,1023.838
435,0,443.548,986.556
436,0,,953.786
437,0,,894.622
438,0,,840.266
439,0,,806.857
440,0,361.756,776.653
441,0,,749.358
442,0,,720.574
443,0,,698.164
444,0,,677.549
445,0,250.326,655.369
446,0,,636.921
447,0,,620.328
448,0,,601.977
449,0,,587.624
450,0,190.047,573.351
451,0,,560.14
452,0,,546.087
453,0,,534.814
454,0,,524.349
455,0,143.149,514.396
456,0,,503.304
457,0,,494.135
458,0,,484.671
459,0,,475.307
460,0,78.4325,465.211
461,0,,457.183
462,0,,448.462
463,0,,441.462
464,0,,434.866
465,0,28.9199,428.643
466,0,,421.665
467,0,,416.134
468,0,,410.062
469,0,,405.18
470,0,10.8981,400.552
471,0,,396.094
472,0,,391.157
473,0,,387.173
474,0,,383.362
475,0,4.59527,379.793
476,0,,375.778
477,0,,372.502
478,0,,369.411
479,0,,365.974
480,0,2.83274,363.192
481,0,,360.572
482,0,,357.992
483,0,,355.208
484,0,,352.892
485,0,1.66443,350.315
486,0,,348.26
487,0,,346.198
488,0,,344.269
489,0,,342.141
490,0,1.57643,340.34
491,0,,338.72
492,0,,336.924
493,0,,335.381
494,0,,333.972
495,0,1.59997,332.359
496,0,,331.04
497,0,,329.807
498,0,,328.57
499,0,,327.303
500,0,3.60057,326.218