File: Non-charring/PMMA/LCPP/LCPP_Cone_65kW_2.csv
Time,Mass,HRR,Back Surface Temperature
[s],[g],[kW/m2],[K]
0,0,0.13703,302.632
1,0,,302.65
2,0,,302.629
3,0,,302.69
4,0,,302.714
5,0,0.740269,302.71
6,0,,302.762
7,0,,302.779
8,0,,302.809
9,0,,302.9
10,0,1.89801,302.909
11,0,,302.976
12,0,,303.075
13,0,,303.121
14,0,,303.231
15,0,2.2534,303.323
16,0,,303.384
17,0,,303.533
18,0,,303.652
19,0,,303.738
20,0,1.45274,303.944
21,0,,304.12
22,0,,304.291
23,0,,304.524
24,0,,304.755
25,0,2.16535,304.966
26,0,,305.3
27,0,,305.474
28,0,,305.88
29,0,,306.24
30,0,2.66654,306.583
31,0,,306.955
32,0,,307.432
33,0,,307.841
34,0,,308.407
35,0,1.93755,308.863
36,0,,309.371
37,0,,309.929
38,0,,310.53
39,0,,311.109
40,0,0.981868,311.735
41,0,,312.419
42,0,,313.111
43,0,,313.769
44,0,,314.539
45,0,2.53559,315.241
46,0,,315.956
47,0,,316.783
48,0,,317.567
49,0,,318.269
50,0,5.34752,319.214
51,0,,319.984
52,0,,320.795
53,0,,321.561
54,0,,322.492
55,0,4.95313,323.304
56,0,,324.157
57,0,,325.079
58,0,,325.995
59,0,,326.877
60,0,3.03199,327.664
61,0,,328.742
62,0,,329.59
63,0,,330.452
64,0,,331.381
65,0,1.89265,332.4
66,0,,333.331
67,0,,334.21
68,0,,335.17
69,0,,336.208
70,0,0.579029,337.085
71,0,,337.986
72,0,,339.048
73,0,,340.011
74,0,,340.936
75,0,0.16111,342.024
76,0,,342.927
77,0,,343.844
78,0,,344.907
79,0,,345.87
80,0,5.24451,346.768
81,0,,347.821
82,0,,348.809
83,0,,349.663
84,0,,350.594
85,0,6.32058,351.677
86,0,,352.561
87,0,,353.546
88,0,,354.541
89,0,,355.436
90,0,5.07962,356.372
91,0,,357.225
92,0,,358.251
93,0,,359.195
94,0,,360.184
95,0,2.36252,361.078
96,0,,361.971
97,0,,362.801
98,0,,363.874
99,0,,364.634
100,0,0.220041,365.504
101,0,,366.538
102,0,,367.317
103,0,,368.128
104,0,,368.941
105,0,-0.469644,369.841
106,0,,370.662
107,0,,371.384
108,0,,372.157
109,0,,373.036
110,0,14.9839,373.724
111,0,,374.529
112,0,,375.026
113,0,,375.557
114,0,,376.036
115,0,88.7636,376.267
116,0,,376.379
117,0,,376.395
118,0,,376.546
119,0,,376.851
120,0,217.598,377.264
121,0,,377.846
122,0,,378.288
123,0,,378.859
124,0,,379.43
125,0,314.685,380.017
126,0,,380.796
127,0,,381.391
128,0,,381.996
129,0,,382.744
130,0,355.007,383.615
131,0,,384.659
132,0,,385.807
133,0,,387.341
134,0,,388.54
135,0,365.626,389.999
136,0,,391.179
137,0,,392.293
138,0,,393.422
139,0,,394.759
140,0,380.717,395.81
141,0,,397.066
142,0,,398.134
143,0,,399.151
144,0,,400.222
145,0,388.225,401.191
146,0,,402.394
147,0,,403.438
148,0,,404.358
149,0,,405.503
150,0,399.913,406.471
151,0,,407.391
152,0,,408.524
153,0,,409.386
154,0,,410.341
155,0,385.702,411.378
156,0,,412.247
157,0,,413.163
158,0,,414.112
159,0,,414.946
160,0,397.469,415.696
161,0,,416.377
162,0,,417.255
163,0,,417.907
164,0,,418.698
165,0,408.383,419.395
166,0,,420.01
167,0,,420.674
168,0,,421.314
169,0,,421.84
170,0,400.368,422.374
171,0,,422.71
172,0,,422.996
173,0,,423.046
174,0,,423.01
175,0,414.635,422.982
176,0,,422.874
177,0,,422.861
178,0,,422.859
179,0,,422.879
180,0,416.661,422.991
181,0,,423.085
182,0,,423.288
183,0,,423.515
184,0,,423.737
185,0,428.578,424.095
186,0,,424.478
187,0,,424.88
188,0,,425.362
189,0,,425.91
190,0,429.644,426.503
191,0,,427.079
192,0,,427.703
193,0,,428.515
194,0,,429.168
195,0,435.442,430.036
196,0,,430.735
197,0,,431.426
198,0,,432.206
199,0,,432.86
200,0,438.921,433.77
201,0,,434.482
202,0,,435.196
203,0,,436.125
204,0,,436.828
205,0,418.75,437.751
206,0,,438.555
207,0,,439.286
208,0,,440.151
209,0,,441.06
210,0,447.904,441.892
211,0,,442.764
212,0,,443.704
213,0,,444.647
214,0,,445.528
215,0,441.462,446.532
216,0,,447.459
217,0,,448.323
218,0,,449.42
219,0,,450.282
220,0,430.522,451.2
221,0,,452.194
222,0,,453.208
223,0,,454.18
224,0,,455.124
225,0,443.619,455.988
226,0,,457.17
227,0,,458.079
228,0,,459.042
229,0,,460.193
230,0,455.052,461.158
231,0,,462.158
232,0,,463.288
233,0,,464.25
234,0,,465.33
235,0,469.425,466.686
236,0,,468.108
237,0,,469.552
238,0,,471.932
239,0,,474.969
240,0,471.754,478.015
241,0,,481.297
242,0,,484.045
243,0,,486.687
244,0,,489.261
245,0,487.829,491.843
246,0,,494.771
247,0,,497.254
248,0,,499.699
249,0,,502.409
250,0,471.826,504.704
251,0,,506.931
252,0,,509.064
253,0,,511.638
254,0,,513.802
255,0,494.557,515.956
256,0,,518.176
257,0,,520.669
258,0,,522.857
259,0,,525.073
260,0,496.721,527.574
261,0,,529.724
262,0,,531.791
263,0,,534.048
264,0,,535.976
265,0,525.809,537.817
266,0,,539.884
267,0,,541.664
268,0,,543.284
269,0,,545.153
270,0,518.31,546.818
271,0,,548.327
272,0,,550.162
273,0,,551.682
274,0,,553.172
275,0,531.524,554.933
276,0,,556.376
277,0,,557.832
278,0,,559.425
279,0,,560.807
280,0,534.196,562.243
281,0,,563.68
282,0,,565.288
283,0,,566.693
284,0,,568.013
285,0,547.529,569.646
286,0,,570.999
287,0,,572.335
288,0,,573.937
289,0,,575.233
290,0,559.395,576.526
291,0,,577.834
292,0,,579.318
293,0,,580.686
294,0,,581.937
295,0,563.017,583.193
296,0,,584.677
297,0,,585.778
298,0,,586.932
299,0,,587.995
300,0,587.871,589.153
301,0,,590.171
302,0,,591.007
303,0,,591.98
304,0,,592.802
305,0,564.618,593.557
306,0,,594.552
307,0,,595.36
308,0,,596.163
309,0,,597.149
310,0,574.8,597.941
311,0,,598.798
312,0,,599.612
313,0,,600.534
314,0,,601.368
315,0,556.389,602.136
316,0,,603.101
317,0,,603.904
318,0,,604.663
319,0,,605.488
320,0,556.463,606.387
321,0,,607.163
322,0,,607.951
323,0,,608.798
324,0,,609.6
325,0,570.281,610.341
326,0,,611.234
327,0,,612.088
328,0,,612.887
329,0,,613.893
330,0,573.278,614.731
331,0,,615.547
332,0,,616.568
333,0,,617.379
334,0,,618.237
335,0,576.33,619.157
336,0,,620.012
337,0,,621.105
338,0,,622.029
339,0,,622.922
340,0,587.553,624.081
341,0,,625.028
342,0,,626.004
343,0,,627.186
344,0,,628.157
345,0,594.231,629.256
346,0,,630.362
347,0,,631.656
348,0,,632.823
349,0,,633.947
350,0,587.564,635.29
351,0,,636.526
352,0,,637.716
353,0,,638.985
354,0,,640.471
355,0,574.828,641.706
356,0,,643.215
357,0,,644.572
358,0,,646.386
359,0,,648.526
360,0,573.8,651.158
361,0,,653.719
362,0,,656.55
363,0,,659.95
364,0,,663.08
365,0,585.235,666.259
366,0,,670.169
367,0,,673.675
368,0,,676.872
369,0,,681.338
370,0,587.203,685.208
371,0,,689.716
372,0,,694.27
373,0,,698.4
374,0,,702.474
375,0,589.021,705.893
376,0,,710.192
377,0,,714.719
378,0,,719.667
379,0,,725.846
380,0,594.216,734.856
381,0,,746.394
382,0,,759.816
383,0,,779.863
384,0,,797.299
385,0,612.556,814.052
386,0,,829.909
387,0,,846.891
388,0,,859.724
389,0,,873.228
390,0,597.61,881.29
391,0,,894.314
392,0,,905.254
393,0,,913.108
394,0,,921.389
395,0,575.512,929.671
396,0,,938.351
397,0,,948.348
398,0,,956.073
399,0,,965.466
400,0,548.932,972.058
401,0,,977.027
402,0,,985.743
403,0,,991.634
404,0,,993.459
405,0,533.057,995.172
406,0,,976.396
407,0,,943.572
408,0,,920.242
409,0,,900.466
410,0,517.787,880.52
411,0,,865.657
412,0,,852.597
413,0,,840.916
414,0,,829.009
415,0,493.404,820.115
416,0,,812.399
417,0,,807.78
418,0,,800.426
419,0,,793.975
420,0,441.074,787.266
421,0,,781.644
422,0,,776.154
423,0,,770.851
424,0,,766.55
425,0,404.001,762.354
426,0,,758.197
427,0,,754.511
428,0,,749.749
429,0,,745.678
430,0,393.467,741.204
431,0,,737.196
432,0,,733.614
433,0,,730.125
434,0,,726.011
435,0,373.448,722.336
436,0,,718.144
437,0,,714.113
438,0,,709.564
439,0,,704.385
440,0,361.875,700.097
441,0,,695.893
442,0,,691.971
443,0,,687.909
444,0,,684.801
445,0,332.63,681.337
446,0,,677.075
447,0,,672.742
448,0,,669.565
449,0,,666.252
450,0,274.834,661.823
451,0,,657.7
452,0,,654.886
453,0,,651.996
454,0,,648.593
455,0,184.133,645.957
456,0,,642.8
457,0,,640.558
458,0,,637.818
459,0,,636.032
460,0,93.0619,634.592
461,0,,633.043
462,0,,630.78
463,0,,628.376
464,0,,627.403
465,0,30.764,626.406
466,0,,625.07
467,0,,622.952
468,0,,621.156
469,0,,619.601
470,0,8.17078,617.151
471,0,,615.836
472,0,,614.761
473,0,,613.553
474,0,,612.601
475,0,3.39629,611.341
476,0,,610.17
477,0,,608.986
478,0,,607.379
479,0,,605.296
480,0,2.45831,603.007
481,0,,601.81
482,0,,600.689
483,0,,599.689
484,0,,598.602
485,0,2.30109,597.831
486,0,,596.922
487,0,,595.501
488,0,,594.259
489,0,,592.793
490,0,1.59561,590.965
491,0,,590.133
492,0,,589.218
493,0,,588.156
494,0,,587.515
495,0,0.973705,586.78
496,0,,586.024
497,0,,586.415
498,0,,586.512
499,0,,586.068
500,0,2.16477,586.279