File: Wood/Calibration_Data/NIST/NIST_Wood_MCC_N2_60K_R2.csv
Time (s),Temperature (K),HRR (W/g)
74.644,410,0.0134
75.124,410.5,-0.0138
75.593,411,-0.1024
76.088,411.5,-0.1186
76.545,412,-0.0806
76.973,412.5,-0.0930
77.481,413,-0.0877
77.935,413.5,-0.0749
78.427,414,-0.1003
78.894,414.5,-0.0602
79.365,415,-0.0581
79.854,415.5,-0.0795
80.335,416,-0.1172
80.797,416.5,-0.0895
81.274,417,-0.0943
81.757,417.5,-0.1359
82.228,418,-0.1576
82.695,418.5,-0.1467
83.178,419,-0.1247
83.676,419.5,-0.1479
84.143,420,-0.1376
84.620,420.5,-0.1054
85.077,421,-0.1170
85.592,421.5,-0.1393
86.093,422,-0.1710
86.580,422.5,-0.1394
87.035,423,-0.1552
87.497,423.5,-0.2137
87.996,424,-0.1796
88.496,424.5,-0.2072
88.963,425,-0.2195
89.445,425.5,-0.2476
89.912,426,-0.2148
90.411,426.5,-0.2553
90.888,427,-0.2617
91.371,427.5,-0.2191
91.848,428,-0.2135
92.329,428.5,-0.2037
92.824,429,-0.1912
93.301,429.5,-0.1954
93.788,430,-0.2004
94.276,430.5,-0.2069
94.746,431,-0.2171
95.223,431.5,-0.2144
95.719,432,-0.1980
96.205,432.5,-0.2002
96.679,433,-0.2097
97.161,433.5,-0.1862
97.662,434,-0.1580
98.162,434.5,-0.1440
98.634,435,-0.1185
99.119,435.5,-0.1352
99.633,436,-0.0959
100.137,436.5,-0.0687
100.583,437,-0.0526
101.074,437.5,-0.0106
101.575,438,-0.0334
102.080,438.5,0.0353
102.550,439,0.0318
103.036,439.5,0.0629
103.530,440,0.1115
104.007,440.5,0.1468
104.482,441,0.1473
104.994,441.5,0.1814
105.492,442,0.1525
105.949,442.5,0.2150
106.455,443,0.2317
106.942,443.5,0.2503
107.436,444,0.2320
107.904,444.5,0.2850
108.419,445,0.3813
108.913,445.5,0.3877
109.390,446,0.4160
109.904,446.5,0.4546
110.387,447,0.4555
110.870,447.5,0.4509
111.360,448,0.4589
111.844,448.5,0.5163
112.331,449,0.5245
112.830,449.5,0.5479
113.321,450,0.5580
113.788,450.5,0.5769
114.265,451,0.6330
114.764,451.5,0.6818
115.253,452,0.7045
115.742,452.5,0.7272
116.251,453,0.7524
116.742,453.5,0.7652
117.213,454,0.7790
117.691,454.5,0.8179
118.192,455,0.8679
118.701,455.5,0.8913
119.178,456,0.9061
119.660,456.5,0.9429
120.146,457,0.9883
120.646,457.5,1.0398
121.143,458,1.0521
121.622,458.5,1.0747
122.125,459,1.1136
122.615,459.5,1.1822
123.075,460,1.2418
123.610,460.5,1.2706
124.088,461,1.2881
124.570,461.5,1.3363
125.059,462,1.3390
125.569,462.5,1.3934
126.032,463,1.4252
126.524,463.5,1.4428
127.021,464,1.5444
127.514,464.5,1.6333
128.024,465,1.7006
128.495,465.5,1.7811
129.010,466,1.7825
129.523,466.5,1.8015
129.980,467,1.8830
130.499,467.5,1.8980
130.985,468,1.9688
131.459,468.5,2.0063
131.938,469,2.0049
132.433,469.5,2.0529
132.929,470,2.1420
133.435,470.5,2.2204
133.902,471,2.3013
134.428,471.5,2.3470
134.920,472,2.3963
135.405,472.5,2.4559
135.909,473,2.5495
136.388,473.5,2.5947
136.861,474,2.6704
137.367,474.5,2.7251
137.850,475,2.8026
138.341,475.5,2.8852
138.845,476,2.9465
139.335,476.5,3.0094
139.819,477,3.1040
140.316,477.5,3.1972
140.821,478,3.2456
141.318,478.5,3.2910
141.787,479,3.3417
142.303,479.5,3.4298
142.820,480,3.5618
143.295,480.5,3.6577
143.771,481,3.7609
144.267,481.5,3.8570
144.787,482,3.9277
145.279,482.5,3.9918
145.752,483,4.0623
146.249,483.5,4.1444
146.742,484,4.2578
147.240,484.5,4.3906
147.745,485,4.5017
148.226,485.5,4.6059
148.709,486,4.6919
149.224,486.5,4.7906
149.738,487,4.9043
150.227,487.5,4.9859
150.727,488,5.0823
151.224,488.5,5.1964
151.724,489,5.3216
152.220,489.5,5.4169
152.717,490,5.4968
153.207,490.5,5.5969
153.690,491,5.7236
154.186,491.5,5.8495
154.694,492,5.9437
155.191,492.5,6.0194
155.679,493,6.1144
156.179,493.5,6.2595
156.654,494,6.3908
157.144,494.5,6.5244
157.641,495,6.6327
158.156,495.5,6.7557
158.636,496,6.8905
159.150,496.5,7.0345
159.616,497,7.1531
160.121,497.5,7.2420
160.613,498,7.4076
161.115,498.5,7.5256
161.610,499,7.6202
162.123,499.5,7.6949
162.606,500,7.8503
163.109,500.5,7.9703
163.592,501,8.0949
164.085,501.5,8.2839
164.573,502,8.4282
165.081,502.5,8.5637
165.599,503,8.6935
166.098,503.5,8.8274
166.571,504,8.9400
167.076,504.5,9.1143
167.579,505,9.2024
168.091,505.5,9.2959
168.582,506,9.4073
169.054,506.5,9.5501
169.562,507,9.7276
170.040,507.5,9.8426
170.550,508,10.0011
171.040,508.5,10.1832
171.548,509,10.2532
172.026,509.5,10.3647
172.546,510,10.4841
173.054,510.5,10.5980
173.561,511,10.7106
174.035,511.5,10.8167
174.537,512,10.9459
175.027,512.5,11.0809
175.506,513,11.2277
176.015,513.5,11.3346
176.547,514,11.4077
177.024,514.5,11.5384
177.542,515,11.6067
178.004,515.5,11.6620
178.517,516,11.7350
179.014,516.5,11.8572
179.498,517,11.9668
179.978,517.5,11.9779
180.486,518,12.0469
180.966,518.5,12.1487
181.503,519,12.2612
181.996,519.5,12.2853
182.486,520,12.3656
182.975,520.5,12.3844
183.448,521,12.4518
183.985,521.5,12.5333
184.476,522,12.5646
184.984,522.5,12.6559
185.476,523,12.7215
185.965,523.5,12.7177
186.464,524,12.7735
186.985,524.5,12.8023
187.432,525,12.8169
187.968,525.5,12.8354
188.471,526,12.8666
188.976,526.5,12.9550
189.455,527,12.9864
189.985,527.5,13.0321
190.448,528,13.0625
190.971,528.5,13.1530
191.455,529,13.1909
191.945,529.5,13.2574
192.440,530,13.2882
192.960,530.5,13.3266
193.427,531,13.3943
193.925,531.5,13.4405
194.435,532,13.5096
194.913,532.5,13.5553
195.428,533,13.6217
195.922,533.5,13.7136
196.433,534,13.7985
196.917,534.5,13.8861
197.412,535,13.9422
197.915,535.5,13.9770
198.428,536,14.0351
198.903,536.5,14.0829
199.414,537,14.1457
199.903,537.5,14.1991
200.410,538,14.2395
200.903,538.5,14.2674
201.422,539,14.3020
201.913,539.5,14.4193
202.376,540,14.5244
202.898,540.5,14.5967
203.382,541,14.7418
203.915,541.5,14.8395
204.403,542,14.9459
204.899,542.5,15.0428
205.380,543,15.1449
205.882,543.5,15.2745
206.381,544,15.3595
206.886,544.5,15.4433
207.382,545,15.5379
207.886,545.5,15.6469
208.377,546,15.7778
208.888,546.5,15.8619
209.401,547,15.9775
209.890,547.5,16.0984
210.384,548,16.1978
210.905,548.5,16.3245
211.402,549,16.4304
211.907,549.5,16.5708
212.389,550,16.7294
212.894,550.5,16.8545
213.405,551,16.9975
213.895,551.5,17.1394
214.394,552,17.2841
214.897,552.5,17.4115
215.394,553,17.5842
215.876,553.5,17.7383
216.402,554,17.9087
216.878,554.5,18.1042
217.392,555,18.2699
217.903,555.5,18.4691
218.400,556,18.6804
218.879,556.5,18.8930
219.377,557,19.0625
219.878,557.5,19.2549
220.379,558,19.4971
220.861,558.5,19.6788
221.360,559,19.9110
221.864,559.5,20.1116
222.353,560,20.3037
222.882,560.5,20.5530
223.379,561,20.7593
223.868,561.5,20.9437
224.357,562,21.1538
224.850,562.5,21.4061
225.387,563,21.6666
225.875,563.5,21.9065
226.360,564,22.1856
226.846,564.5,22.4436
227.354,565,22.6838
227.848,565.5,22.9445
228.355,566,23.2082
228.862,566.5,23.4553
229.373,567,23.7055
229.862,567.5,23.9668
230.350,568,24.2364
230.845,568.5,24.5197
231.351,569,24.8223
231.873,569.5,25.0885
232.368,570,25.3783
232.874,570.5,25.7012
233.370,571,25.9788
233.873,571.5,26.2789
234.367,572,26.5802
234.851,572.5,26.8930
235.379,573,27.2356
235.866,573.5,27.5460
236.353,574,27.8574
236.851,574.5,28.1459
237.370,575,28.4955
237.869,575.5,28.8470
238.356,576,29.1797
238.848,576.5,29.5691
239.347,577,29.9116
239.858,577.5,30.2525
240.349,578,30.5928
240.862,578.5,30.9497
241.347,579,31.3159
241.841,579.5,31.7131
242.348,580,32.1330
242.847,580.5,32.5268
243.341,581,32.9272
243.832,581.5,33.2881
244.346,582,33.7189
244.849,582.5,34.1108
245.360,583,34.5308
245.864,583.5,34.9643
246.363,584,35.3687
246.857,584.5,35.8141
247.361,585,36.2267
247.853,585.5,36.6743
248.352,586,37.1348
248.863,586.5,37.6085
249.376,587,38.0704
249.854,587.5,38.5086
250.344,588,38.9609
250.847,588.5,39.4552
251.353,589,39.9625
251.869,589.5,40.4418
252.352,590,40.9050
252.862,590.5,41.4736
253.368,591,42.0179
253.872,591.5,42.5283
254.346,592,43.0123
254.845,592.5,43.5517
255.366,593,44.1084
255.869,593.5,44.6056
256.367,594,45.1105
256.871,594.5,45.6623
257.366,595,46.2057
257.850,595.5,46.6920
258.367,596,47.2375
258.863,596.5,47.7922
259.357,597,48.3306
259.887,597.5,48.9011
260.396,598,49.4953
260.885,598.5,50.0729
261.379,599,50.6694
261.884,599.5,51.2276
262.385,600,51.8013
262.887,600.5,52.4006
263.373,601,52.9612
263.871,601.5,53.5398
264.365,602,54.1211
264.864,602.5,54.7210
265.382,603,55.3809
265.867,603.5,55.9859
266.377,604,56.5712
266.844,604.5,57.1317
267.349,605,57.7619
267.875,605.5,58.3800
268.380,606,58.9649
268.891,606.5,59.5509
269.372,607,60.1640
269.876,607.5,60.7829
270.358,608,61.3861
270.881,608.5,61.9853
271.363,609,62.5608
271.866,609.5,63.1918
272.369,610,63.7958
272.883,610.5,64.4245
273.379,611,65.0191
273.884,611.5,65.6075
274.376,612,66.1887
274.885,612.5,66.7496
275.387,613,67.3188
275.891,613.5,67.8395
276.407,614,68.4598
276.900,614.5,69.0410
277.388,615,69.6091
277.876,615.5,70.1951
278.389,616,70.7803
278.902,616.5,71.3932
279.402,617,71.9900
279.916,617.5,72.5825
280.430,618,73.1685
280.896,618.5,73.7010
281.406,619,74.2996
281.888,619.5,74.8659
282.401,620,75.4122
282.904,620.5,75.9501
283.406,621,76.4999
283.891,621.5,77.0181
284.383,622,77.5156
284.913,622.5,78.0802
285.423,623,78.6192
285.942,623.5,79.1325
286.406,624,79.6334
286.932,624.5,80.1505
287.432,625,80.6660
287.941,625.5,81.2288
288.416,626,81.7260
288.907,626.5,82.2147
289.427,627,82.7058
289.910,627.5,83.1742
290.404,628,83.6788
290.911,628.5,84.1725
291.394,629,84.6894
291.916,629.5,85.1522
292.422,630,85.6512
292.906,630.5,86.1461
293.415,631,86.6248
293.927,631.5,87.1405
294.438,632,87.6493
294.952,632.5,88.1529
295.456,633,88.6169
295.934,633.5,89.0883
296.426,634,89.5702
296.930,634.5,90.1032
297.438,635,90.6407
297.948,635.5,91.1723
298.448,636,91.6345
298.960,636.5,92.1659
299.434,637,92.6901
299.928,637.5,93.1499
300.467,638,93.7785
300.958,638.5,94.2554
301.461,639,94.8431
301.966,639.5,95.3670
302.472,640,95.9073
302.961,640.5,96.5391
303.441,641,97.1386
303.946,641.5,97.7072
304.460,642,98.3203
304.943,642.5,98.9293
305.417,643,99.5259
305.952,643.5,100.2012
306.448,644,100.8979
306.940,644.5,101.5134
307.465,645,102.2809
307.963,645.5,103.0137
308.480,646,103.6840
308.949,646.5,104.4242
309.467,647,105.2320
309.963,647.5,106.0104
310.457,648,106.7301
310.963,648.5,107.4954
311.455,649,108.3230
311.981,649.5,109.2035
312.470,650,110.0686
312.974,650.5,110.9861
313.493,651,111.9266
313.978,651.5,112.8139
314.506,652,113.8283
314.979,652.5,114.7259
315.496,653,115.6727
315.997,653.5,116.6086
316.526,654,117.6390
317.035,654.5,118.6555
317.539,655,119.6545
318.019,655.5,120.5773
318.531,656,121.5846
319.015,656.5,122.6095
319.537,657,123.6542
320.024,657.5,124.6135
320.515,658,125.5393
321.032,658.5,126.5719
321.552,659,127.5770
322.053,659.5,128.5577
322.563,660,129.5719
323.065,660.5,130.5332
323.564,661,131.4392
324.068,661.5,132.3590
324.571,662,133.2163
325.073,662.5,134.0615
325.569,663,134.8730
326.071,663.5,135.5982
326.566,664,136.2599
327.071,664.5,136.9353
327.576,665,137.5963
328.079,665.5,138.1012
328.577,666,138.6298
329.082,666.5,139.0060
329.577,667,139.3728
330.093,667.5,139.6524
330.592,668,139.8459
331.099,668.5,139.9002
331.574,669,139.8943
332.111,669.5,139.7548
332.616,670,139.5320
333.101,670.5,139.2069
333.614,671,138.7534
334.128,671.5,138.1704
334.627,672,137.4879
335.121,672.5,136.6366
335.624,673,135.6585
336.145,673.5,134.5142
336.632,674,133.2796
337.141,674.5,131.8102
337.645,675,130.2202
338.150,675.5,128.4687
338.623,676,126.6842
339.117,676.5,124.6494
339.630,677,122.3682
340.117,677.5,120.0788
340.618,678,117.5585
341.126,678.5,114.8387
341.632,679,111.9900
342.107,679.5,109.1764
342.586,680,106.2190
343.098,680.5,102.9395
343.593,681,99.6780
344.091,681.5,96.2906
344.577,682,92.9666
345.082,682.5,89.3752
345.552,683,85.9892
346.064,683.5,82.3589
346.537,684,78.9393
347.021,684.5,75.4823
347.505,685,72.1171
348.007,685.5,68.6960
348.495,686,65.3922
348.982,686.5,62.2416
349.486,687,59.0739
349.966,687.5,56.1297
350.453,688,53.3318
350.941,688.5,50.6430
351.443,689,48.0335
351.920,689.5,45.6920
352.424,690,43.4036
352.906,690.5,41.3575
353.393,691,39.4085
353.904,691.5,37.4866
354.391,692,35.8285
354.866,692.5,34.3369
355.347,693,32.9426
355.839,693.5,31.6262
356.346,694,30.3945
356.854,694.5,29.2766
357.341,695,28.2565
357.815,695.5,27.3749
358.312,696,26.5453
358.800,696.5,25.7894
359.281,697,25.1323
359.761,697.5,24.5240
360.250,698,23.9178
360.747,698.5,23.3542
361.235,699,22.8558
361.731,699.5,22.3737
362.236,700,21.9307
362.733,700.5,21.5237
363.223,701,21.1435
363.712,701.5,20.7896
364.225,702,20.4312
364.730,702.5,20.0973
365.217,703,19.7581
365.729,703.5,19.4184
366.231,704,19.0887
366.721,704.5,18.7634
367.238,705,18.4066
367.730,705.5,18.0553
368.211,706,17.7489
368.717,706.5,17.4247
369.221,707,17.1204
369.716,707.5,16.8740
370.229,708,16.6071
370.732,708.5,16.3702
371.211,709,16.1447
371.725,709.5,15.8948
372.217,710,15.6832
372.705,710.5,15.4580
373.238,711,15.2240
373.735,711.5,14.9915
374.214,712,14.7730
374.713,712.5,14.6198
375.222,713,14.4576
375.746,713.5,14.2457
376.252,714,14.0388
376.749,714.5,13.8724
377.259,715,13.7116
377.760,715.5,13.5184
378.262,716,13.3375
378.756,716.5,13.1679
379.254,717,12.9884
379.761,717.5,12.8136
380.253,718,12.6459
380.756,718.5,12.4702
381.255,719,12.2936
381.784,719.5,12.1160
382.298,720,11.9731
382.775,720.5,11.8645
383.267,721,11.7448
383.768,721.5,11.6200
384.276,722,11.5031
384.782,722.5,11.3629
385.269,723,11.2071
385.786,723.5,11.0388
386.303,724,10.8736
386.795,724.5,10.7446
387.290,725,10.6113
387.792,725.5,10.4908
388.288,726,10.3530
388.782,726.5,10.1828
389.295,727,10.0116
389.821,727.5,9.8589
390.325,728,9.7292
390.823,728.5,9.6106
391.308,729,9.5356
391.799,729.5,9.4303
392.300,730,9.2841
392.806,730.5,9.1628
393.312,731,9.0331
393.811,731.5,8.9209
394.312,732,8.8078
394.829,732.5,8.6930
395.326,733,8.5732
395.814,733.5,8.4735
396.341,734,8.3980
396.840,734.5,8.2831
397.324,735,8.1872
397.834,735.5,8.0859
398.328,736,7.9992
398.830,736.5,7.8778
399.351,737,7.7608
399.857,737.5,7.6291
400.351,738,7.4870
400.850,738.5,7.3155
401.364,739,7.1878
401.855,739.5,7.0984
402.349,740,6.9656
402.865,740.5,6.8711
403.350,741,6.8046
403.847,741.5,6.7312
404.364,742,6.6251
404.873,742.5,6.5160
405.385,743,6.3841
405.861,743.5,6.2642
406.361,744,6.1876
406.868,744.5,6.0890
407.367,745,5.9754
407.897,745.5,5.8918
408.384,746,5.8038
408.852,746.5,5.6931
409.363,747,5.6126
409.879,747.5,5.5145
410.387,748,5.3952
410.897,748.5,5.2990
411.385,749,5.2106
411.876,749.5,5.1471
412.391,750,5.0472
412.891,750.5,4.9415
413.407,751,4.8466
413.875,751.5,4.8021
414.395,752,4.7233
414.908,752.5,4.6082
415.414,753,4.5106
415.917,753.5,4.4185
416.412,754,4.3501
416.918,754.5,4.2480
417.428,755,4.1134
417.940,755.5,4.0263
418.451,756,3.9714
418.911,756.5,3.8948
419.409,757,3.8018
419.915,757.5,3.7311
420.435,758,3.6222
420.911,758.5,3.5794
421.432,759,3.5417
421.927,759.5,3.5082
422.435,760,3.4316
422.920,760.5,3.3583
423.430,761,3.2978
423.929,761.5,3.2166
424.423,762,3.1602
424.937,762.5,3.1089
425.455,763,3.0320
425.939,763.5,2.9801
426.453,764,2.8900
426.932,764.5,2.8803
427.412,765,2.7685
427.947,765.5,2.7148
428.460,766,2.6786
428.977,766.5,2.6076
429.447,767,2.5908
429.944,767.5,2.5560
430.455,768,2.5287
430.966,768.5,2.4785
431.466,769,2.3974
431.964,769.5,2.3293
432.470,770,2.2405
432.996,770.5,2.1871
433.494,771,2.1745
434.014,771.5,2.0918
434.501,772,2.0857
434.985,772.5,2.0584
435.505,773,2.0090
436.015,773.5,1.9966
436.505,774,1.9899
437.035,774.5,1.9174
437.520,775,1.8926
438.008,775.5,1.8817
438.508,776,1.8100
439.027,776.5,1.7697
439.563,777,1.7227
440.065,777.5,1.7079
440.515,778,1.6632
441.035,778.5,1.6445
441.532,779,1.5884
442.050,779.5,1.5157
442.514,780,1.4696
443.033,780.5,1.4562
443.539,781,1.4081
444.058,781.5,1.3901
444.527,782,1.3589
445.044,782.5,1.3438
445.541,783,1.3867
446.029,783.5,1.4002
446.531,784,1.4089
447.036,784.5,1.3727
447.524,785,1.3755
448.019,785.5,1.3011
448.516,786,1.2546
449.009,786.5,1.2744
449.499,787,1.1410
450.028,787.5,1.1506
450.486,788,1.0573
451.033,788.5,1.0434
451.501,789,1.0192
452.013,789.5,0.9983
452.505,790,0.9678
453.032,790.5,0.9497
453.492,791,0.9774
454.022,791.5,0.9720
454.532,792,0.9373
455.019,792.5,0.9355
455.504,793,0.9604
456.031,793.5,0.9499
456.523,794,0.9569
457.022,794.5,0.9079
457.549,795,0.9208
458.035,795.5,0.8897
458.538,796,0.8689
459.045,796.5,0.8204
459.520,797,0.8269
460.046,797.5,0.8453
460.561,798,0.8017
461.047,798.5,0.8057
461.542,799,0.7641
462.026,799.5,0.7234
462.549,800,0.7029
463.038,800.5,0.7374
463.551,801,0.6772
464.050,801.5,0.6964
464.551,802,0.6589
465.049,802.5,0.6489
465.516,803,0.6074
466.031,803.5,0.6240
466.519,804,0.5553
467.051,804.5,0.5712
467.560,805,0.5728
468.054,805.5,0.5370
468.529,806,0.5260
469.040,806.5,0.5478
469.536,807,0.5381
470.037,807.5,0.5310
470.530,808,0.5227
471.015,808.5,0.5213
471.542,809,0.5010
472.030,809.5,0.4843
472.530,810,0.5086
473.023,810.5,0.5212
473.537,811,0.5289
474.038,811.5,0.5486
474.553,812,0.4807
475.048,812.5,0.4533
475.572,813,0.4408
476.021,813.5,0.4035
476.563,814,0.3591
477.058,814.5,0.3327
477.548,815,0.3882
478.069,815.5,0.3755
478.575,816,0.4077
479.031,816.5,0.3708
479.541,817,0.4504
480.041,817.5,0.4231
480.554,818,0.3828
481.070,818.5,0.3678
481.564,819,0.3654
482.060,819.5,0.3751
482.553,820,0.3578
483.040,820.5,0.3760
483.531,821,0.3978
484.056,821.5,0.3753
484.539,822,0.3650
485.058,822.5,0.4066
485.556,823,0.3738
486.064,823.5,0.3346
486.553,824,0.3665
487.063,824.5,0.3877
487.545,825,0.3523
488.058,825.5,0.3206
488.556,826,0.2662
489.052,826.5,0.2646
489.548,827,0.2288
490.050,827.5,0.2349
490.561,828,0.2255
491.044,828.5,0.2381
491.550,829,0.2669
492.064,829.5,0.2613
492.568,830,0.2529
493.026,830.5,0.2495
493.531,831,0.2415
494.056,831.5,0.2172
494.547,832,0.2004
495.084,832.5,0.2286
495.565,833,0.2050
496.032,833.5,0.1874
496.576,834,0.2146
497.064,834.5,0.2009
497.583,835,0.2127
498.073,835.5,0.2499
498.606,836,0.2185
499.053,836.5,0.2021
499.587,837,0.2073
500.059,837.5,0.1821
500.568,838,0.1827
501.080,838.5,0.1764
501.573,839,0.1599
502.077,839.5,0.2023
502.569,840,0.1839
503.077,840.5,0.1701
503.579,841,0.1692
504.049,841.5,0.1155
504.576,842,0.1194
505.064,842.5,0.1071
505.541,843,0.1055
506.061,843.5,0.0587
506.567,844,0.0166
507.073,844.5,0.0428
507.586,845,0.0600
508.072,845.5,0.0374
508.580,846,0.0317
509.073,846.5,0.0849
509.577,847,0.0532
510.072,847.5,0.0827
510.595,848,0.0431
511.072,848.5,0.0511
511.549,849,0.0544
512.091,849.5,0.0100
512.602,850,0.0114
513.086,850.5,0.0441
513.555,851,0.0168
514.040,851.5,-0.0085
514.541,852,0.0271
515.113,852.5,0.0352
515.592,853,0.0442
516.087,853.5,0.0540
516.601,854,0.0596
517.056,854.5,0.0517
517.600,855,0.0437
518.109,855.5,0.0306
518.586,856,-0.0108
519.075,856.5,0.0330
519.539,857,0.0492
520.115,857.5,0.0193
520.621,858,0.0013
521.099,858.5,0.0192
521.576,859,0.0377
522.076,859.5,-0.0018
522.562,860,-0.0024
523.049,860.5,-0.0502
523.592,861,-0.0512
524.068,861.5,-0.0320
524.554,862,-0.0142
525.079,862.5,-0.0077
525.594,863,0.0033
526.075,863.5,-0.0174
526.541,864,-0.0155
527.060,864.5,-0.0163
527.573,865,-0.0234
528.070,865.5,-0.0347
528.567,866,-0.0432
529.041,866.5,-0.0520
529.574,867,-0.0357
530.049,867.5,-0.0296
530.561,868,-0.0236
531.082,868.5,-0.0384
531.557,869,-0.0355
532.039,869.5,-0.0307
532.553,870,-0.0681
533.093,870.5,-0.0480
533.545,871,-0.0155
534.084,871.5,-0.0370
534.582,872,-0.0428
535.081,872.5,-0.0203
535.578,873,-0.0393
536.080,873.5,-0.0492
536.578,874,-0.0642
537.085,874.5,-0.0770
537.576,875,-0.0492
538.053,875.5,-0.0077
538.581,876,-0.0282
539.096,876.5,-0.0255
539.585,877,-0.0623
540.096,877.5,-0.0691
540.580,878,-0.0404
541.076,878.5,-0.0600
541.589,879,-0.0777
542.067,879.5,-0.0454
542.561,880,-0.0481
543.082,880.5,-0.0365
543.582,881,-0.0431
544.060,881.5,-0.0550
544.574,882,0.0032
545.062,882.5,-0.0069
545.570,883,-0.0118
546.079,883.5,0.0304
546.564,884,0.0701
547.068,884.5,0.0745
547.567,885,0.0195
548.057,885.5,0.0171
548.563,886,0.0213
549.053,886.5,0.0391
549.565,887,0.0302
550.060,887.5,-0.0019
550.574,888,0.0203
551.048,888.5,0.0671
551.574,889,0.0515
552.032,889.5,0.0619
552.544,890,0.0478
553.059,890.5,0.0151
553.555,891,0.0483
554.055,891.5,0.0613
554.553,892,0.0104
555.058,892.5,0.0111
555.524,893,-0.0439
556.041,893.5,-0.0656
556.532,894,-0.0556
557.078,894.5,0.0035
557.539,895,0.0255
558.046,895.5,0.0049
558.498,896,-0.0041
559.070,896.5,0.0121
559.571,897,-0.0011
560.052,897.5,-0.0034
560.544,898,-0.0203
561.025,898.5,-0.0062
561.542,899,0.0250
562.038,899.5,0.0452
562.527,900,0.0169
563.032,900.5,0.0405
563.529,901,0.0059
564.033,901.5,0.0413
564.516,902,0.0536
565.013,902.5,0.0369
565.523,903,0.0393
566.027,903.5,0.0577
566.516,904,0.0508
567.034,904.5,0.0211
567.543,905,0.0285
568.004,905.5,-0.0062
568.489,906,0.0120
569.026,906.5,-0.0206
569.489,907,0.0089
570.005,907.5,0.0265
570.507,908,-0.0269
570.973,908.5,0.0055
571.527,909,-0.0173
572.001,909.5,-0.0345
572.515,910,0.0359
572.981,910.5,0.0068
573.496,911,0.0190
573.995,911.5,-0.0269
574.512,912,0.0137
575.012,912.5,-0.0012
575.484,913,0.0447
576.023,913.5,0.0681
576.524,914,0.0201
577.004,914.5,0.0606
577.520,915,0.0574
577.993,915.5,0.0182
578.497,916,-0.0088
579.021,916.5,0.0436
579.509,917,0.0481
580.006,917.5,0.0557
580.463,918,0.0043
580.999,918.5,0.0232
581.495,919,-0.0209
581.983,919.5,-0.0585
582.503,920,-0.0176
583.001,920.5,-0.0251
583.465,921,-0.0106
583.970,921.5,-0.0064
584.511,922,0.0000
584.970,922.5,0.0024
585.457,923,0.0157
585.994,923.5,0.0023
586.499,924,-0.0165
586.969,924.5,-0.0387
587.509,925,-0.0036
587.968,925.5,-0.0315
588.445,926,-0.0251
588.959,926.5,0.0174
589.430,927,-0.0034
589.935,927.5,0.0128
590.472,928,-0.0077
590.974,928.5,-0.0392
591.444,929,-0.0156
591.953,929.5,-0.0159
592.443,930,-0.0196
592.933,930.5,-0.0059
593.414,931,-0.0391
593.958,931.5,-0.0190
594.425,932,-0.0102
594.940,932.5,0.0227
595.431,933,-0.0064
595.909,933.5,-0.0189
596.401,934,-0.0508
596.954,934.5,-0.0258
597.429,935,-0.0016
597.912,935.5,-0.0129
598.432,936,-0.0272