File: Wood/Calibration_Data/NIST/NIST_Wood_MCC_N2_60K_R8.csv
Time (s),Temperature (K),HRR (W/g)
71.772,408,0.1177
72.232,408.5,0.0976
72.708,409,0.0911
73.191,409.5,0.0703
73.667,410,0.0470
74.128,410.5,0.0450
74.583,411,0.0825
75.056,411.5,0.0204
75.560,412,0.0151
76.020,412.5,0.0278
76.509,413,0.0329
76.983,413.5,0.0243
77.444,414,0.0182
77.923,414.5,0.0085
78.414,415,-0.0265
78.882,415.5,-0.0175
79.360,416,-0.0064
79.839,416.5,-0.0261
80.307,417,-0.0465
80.789,417.5,-0.0670
81.285,418,-0.0803
81.769,418.5,-0.0697
82.221,419,-0.0783
82.683,419.5,-0.1010
83.185,420,-0.0850
83.667,420.5,-0.0663
84.147,421,-0.0684
84.619,421.5,-0.0592
85.128,422,-0.0687
85.609,422.5,-0.0858
86.097,423,-0.0965
86.581,423.5,-0.0710
87.053,424,-0.0486
87.545,424.5,-0.0049
88.004,425,0.0134
88.515,425.5,-0.0457
89.014,426,0.0208
89.461,426.5,-0.0280
89.950,427,0.0162
90.445,427.5,0.0663
90.927,428,0.0544
91.431,428.5,0.0640
91.910,429,0.0361
92.423,429.5,0.0330
92.888,430,0.0135
93.374,430.5,0.0192
93.859,431,0.0388
94.359,431.5,0.0313
94.849,432,0.0561
95.331,432.5,0.0811
95.803,433,0.1029
96.283,433.5,0.1286
96.766,434,0.1321
97.272,434.5,0.0985
97.769,435,0.0760
98.243,435.5,0.1253
98.722,436,0.1764
99.197,436.5,0.1682
99.673,437,0.1596
100.169,437.5,0.1650
100.642,438,0.1754
101.142,438.5,0.1889
101.657,439,0.1999
102.138,439.5,0.2184
102.607,440,0.2523
103.116,440.5,0.2842
103.610,441,0.3059
104.086,441.5,0.3075
104.574,442,0.2986
105.075,442.5,0.3332
105.564,443,0.3683
106.040,443.5,0.3782
106.558,444,0.3724
107.017,444.5,0.3763
107.530,445,0.4204
108.000,445.5,0.3791
108.498,446,0.3920
108.975,446.5,0.3648
109.493,447,0.4408
109.974,447.5,0.4283
110.478,448,0.4555
110.957,448.5,0.4711
111.420,449,0.4617
111.932,449.5,0.5165
112.437,450,0.5529
112.912,450.5,0.5879
113.406,451,0.6013
113.914,451.5,0.6068
114.408,452,0.6119
114.886,452.5,0.6360
115.379,453,0.6683
115.880,453.5,0.7073
116.377,454,0.7221
116.856,454.5,0.7665
117.335,455,0.7619
117.845,455.5,0.7830
118.324,456,0.8582
118.786,456.5,0.8856
119.283,457,0.9292
119.792,457.5,0.9618
120.257,458,0.9847
120.755,458.5,1.0554
121.277,459,1.0948
121.765,459.5,1.1114
122.250,460,1.1560
122.741,460.5,1.1908
123.233,461,1.2170
123.736,461.5,1.2376
124.233,462,1.2599
124.710,462.5,1.3045
125.195,463,1.3489
125.687,463.5,1.3884
126.185,464,1.4288
126.672,464.5,1.5012
127.164,465,1.6029
127.655,465.5,1.6679
128.142,466,1.7196
128.660,466.5,1.7195
129.136,467,1.7456
129.632,467.5,1.8097
130.116,468,1.8796
130.606,468.5,1.9048
131.110,469,1.9598
131.598,469.5,2.0447
132.076,470,2.1092
132.573,470.5,2.1770
133.071,471,2.2423
133.549,471.5,2.2937
134.035,472,2.3774
134.557,472.5,2.4239
135.025,473,2.4220
135.521,473.5,2.5156
136.014,474,2.6298
136.500,474.5,2.6601
136.984,475,2.7773
137.497,475.5,2.8686
137.966,476,2.9437
138.456,476.5,3.0206
138.980,477,3.0873
139.453,477.5,3.1868
139.974,478,3.2825
140.460,478.5,3.3696
140.966,479,3.4447
141.435,479.5,3.5064
141.933,480,3.5971
142.429,480.5,3.6793
142.920,481,3.7343
143.429,481.5,3.8262
143.918,482,3.9260
144.427,482.5,3.9910
144.905,483,4.0451
145.407,483.5,4.1865
145.866,484,4.2750
146.380,484.5,4.3656
146.882,485,4.4671
147.373,485.5,4.5329
147.876,486,4.6580
148.383,486.5,4.8098
148.863,487,4.8720
149.344,487.5,4.9807
149.861,488,5.0855
150.348,488.5,5.2125
150.825,489,5.3347
151.337,489.5,5.4792
151.841,490,5.5972
152.323,490.5,5.7307
152.829,491,5.8654
153.324,491.5,5.9984
153.825,492,6.0931
154.348,492.5,6.2428
154.833,493,6.3360
155.311,493.5,6.4426
155.815,494,6.5578
156.296,494.5,6.6567
156.791,495,6.7732
157.324,495.5,6.8878
157.808,496,7.0102
158.277,496.5,7.1198
158.766,497,7.2436
159.271,497.5,7.3597
159.780,498,7.4750
160.279,498.5,7.6037
160.774,499,7.7205
161.268,499.5,7.8577
161.758,500,7.9659
162.256,500.5,8.1118
162.749,501,8.2567
163.247,501.5,8.3533
163.744,502,8.4732
164.249,502.5,8.6107
164.751,503,8.7401
165.232,503.5,8.8498
165.733,504,8.9855
166.223,504.5,9.1299
166.702,505,9.2721
167.213,505.5,9.3897
167.731,506,9.5031
168.233,506.5,9.6480
168.722,507,9.7632
169.225,507.5,9.8854
169.721,508,10.0195
170.211,508.5,10.1408
170.721,509,10.2413
171.214,509.5,10.3314
171.703,510,10.4380
172.211,510.5,10.5502
172.702,511,10.6838
173.197,511.5,10.8232
173.693,512,10.9246
174.208,512.5,11.0093
174.712,513,11.1145
175.200,513.5,11.2128
175.698,514,11.2951
176.175,514.5,11.3574
176.683,515,11.4081
177.194,515.5,11.5005
177.683,516,11.5655
178.184,516.5,11.6202
178.666,517,11.6937
179.150,517.5,11.7590
179.663,518,11.8556
180.150,518.5,11.9237
180.670,519,11.9470
181.173,519.5,11.9551
181.666,520,12.0360
182.155,520.5,12.1102
182.644,521,12.1961
183.147,521.5,12.2530
183.628,522,12.2939
184.114,522.5,12.3528
184.624,523,12.3859
185.109,523.5,12.4213
185.614,524,12.4735
186.132,524.5,12.4947
186.615,525,12.5203
187.131,525.5,12.5070
187.634,526,12.5036
188.127,526.5,12.5526
188.614,527,12.5698
189.127,527.5,12.6350
189.617,528,12.6260
190.119,528.5,12.6599
190.616,529,12.7184
191.093,529.5,12.7623
191.573,530,12.8342
192.104,530.5,12.8655
192.630,531,12.9326
193.105,531.5,12.9465
193.579,532,13.0071
194.075,532.5,13.0636
194.595,533,13.1132
195.091,533.5,13.2007
195.611,534,13.2231
196.135,534.5,13.2962
196.593,535,13.2947
197.092,535.5,13.3559
197.610,536,13.4377
198.091,536.5,13.5144
198.600,537,13.6054
199.096,537.5,13.6927
199.596,538,13.8028
200.102,538.5,13.8842
200.593,539,13.9489
201.079,539.5,14.0120
201.557,540,14.1223
202.086,540.5,14.2546
202.591,541,14.3737
203.082,541.5,14.4706
203.575,542,14.5503
204.069,542.5,14.6761
204.567,543,14.7500
205.071,543.5,14.8788
205.590,544,14.9704
206.086,544.5,15.0727
206.565,545,15.1624
207.075,545.5,15.2232
207.591,546,15.3524
208.088,546.5,15.4772
208.565,547,15.5472
209.071,547.5,15.7145
209.555,548,15.8287
210.092,548.5,16.0129
210.584,549,16.1245
211.068,549.5,16.2427
211.588,550,16.4108
212.076,550.5,16.5551
212.531,551,16.7118
213.089,551.5,16.8760
213.592,552,16.9942
214.062,552.5,17.1639
214.578,553,17.4001
215.080,553.5,17.5878
215.576,554,17.7610
216.063,554.5,17.9795
216.588,555,18.1724
217.096,555.5,18.3553
217.582,556,18.5214
218.066,556.5,18.7221
218.592,557,18.9596
219.089,557.5,19.1601
219.564,558,19.3886
220.067,558.5,19.6129
220.553,559,19.8350
221.062,559.5,20.0017
221.555,560,20.2383
222.063,560.5,20.4606
222.585,561,20.6914
223.056,561.5,20.9158
223.531,562,21.1214
224.055,562.5,21.4008
224.553,563,21.6208
225.044,563.5,21.8631
225.558,564,22.0604
226.034,564.5,22.3709
226.541,565,22.6414
227.048,565.5,22.9062
227.566,566,23.2266
228.046,566.5,23.5216
228.524,567,23.7474
229.053,567.5,24.0481
229.530,568,24.2978
230.039,568.5,24.5958
230.546,569,24.9070
231.052,569.5,25.1940
231.534,570,25.4981
232.021,570.5,25.7691
232.558,571,26.0705
233.066,571.5,26.3677
233.554,572,26.7045
234.096,572.5,27.0238
234.580,573,27.3533
235.058,573.5,27.6963
235.560,574,28.0018
236.042,574.5,28.3266
236.549,575,28.6119
237.067,575.5,28.9984
237.578,576,29.3543
238.010,576.5,29.6645
238.530,577,30.0590
239.038,577.5,30.4149
239.539,578,30.7974
240.047,578.5,31.1308
240.566,579,31.5095
241.060,579.5,31.9313
241.554,580,32.3215
242.045,580.5,32.6992
242.576,581,33.1205
243.066,581.5,33.5106
243.551,582,33.8720
244.052,582.5,34.3215
244.554,583,34.7498
245.075,583.5,35.1824
245.565,584,35.5890
246.059,584.5,35.9902
246.539,585,36.4000
247.052,585.5,36.8789
247.559,586,37.3336
248.068,586.5,37.7983
248.541,587,38.2424
249.027,587.5,38.7140
249.538,588,39.2228
250.034,588.5,39.6860
250.548,589,40.1963
251.052,589.5,40.7037
251.560,590,41.1605
252.036,590.5,41.6571
252.558,591,42.1930
253.072,591.5,42.7348
253.523,592,43.1900
254.036,592.5,43.6968
254.577,593,44.2316
255.074,593.5,44.7038
255.566,594,45.2417
256.062,594.5,45.7902
256.578,595,46.3361
257.074,595.5,46.8858
257.555,596,47.3992
258.082,596.5,48.0163
258.590,597,48.5628
259.057,597.5,49.1058
259.574,598,49.6703
260.077,598.5,50.2413
260.594,599,50.8373
261.047,599.5,51.3688
261.579,600,51.9186
262.074,600.5,52.4521
262.592,601,53.0269
263.096,601.5,53.5953
263.589,602,54.1548
264.078,602.5,54.7340
264.551,603,55.2637
265.087,603.5,55.9230
265.552,604,56.5054
266.037,604.5,57.0005
266.572,605,57.6750
267.083,605.5,58.2673
267.582,606,58.8562
268.056,606.5,59.3946
268.581,607,59.9810
269.097,607.5,60.6162
269.605,608,61.2024
270.087,608.5,61.7553
270.599,609,62.3492
271.102,609.5,62.9478
271.591,610,63.5069
272.104,610.5,64.0872
272.595,611,64.6651
273.098,611.5,65.2274
273.599,612,65.8091
274.092,612.5,66.3839
274.594,613,66.9606
275.113,613.5,67.5440
275.591,614,68.0769
276.110,614.5,68.6508
276.611,615,69.1998
277.095,615.5,69.7300
277.597,616,70.3046
278.102,616.5,70.8762
278.607,617,71.4207
279.120,617.5,72.0000
279.623,618,72.5553
280.091,618.5,73.0567
280.598,619,73.5786
281.098,619.5,74.0878
281.595,620,74.5949
282.091,620.5,75.1245
282.595,621,75.6429
283.101,621.5,76.1529
283.578,622,76.6427
284.073,622.5,77.1222
284.587,623,77.6360
285.091,623.5,78.1688
285.612,624,78.6775
286.092,624.5,79.1922
286.591,625,79.7007
287.089,625.5,80.1805
287.586,626,80.6724
288.097,626.5,81.1663
288.603,627,81.6411
289.101,627.5,82.1256
289.610,628,82.6138
290.082,628.5,83.0411
290.585,629,83.5548
291.101,629.5,84.0664
291.595,630,84.5163
292.108,630.5,85.0063
292.628,631,85.5054
293.126,631.5,86.0152
293.606,632,86.4892
294.119,632.5,86.9503
294.635,633,87.4897
295.139,633.5,87.9871
295.640,634,88.4797
296.140,634.5,88.9687
296.637,635,89.4657
297.130,635.5,89.9299
297.642,636,90.4858
298.139,636.5,91.0407
298.633,637,91.5410
299.130,637.5,92.1297
299.613,638,92.6496
300.124,638.5,93.2685
300.626,639,93.7799
301.133,639.5,94.4052
301.623,640,94.9848
302.126,640.5,95.5265
302.631,641,96.1162
303.122,641.5,96.7273
303.616,642,97.3753
304.125,642.5,98.0886
304.612,643,98.6884
305.126,643.5,99.3592
305.640,644,100.0971
306.150,644.5,100.8053
306.659,645,101.5115
307.151,645.5,102.2000
307.647,646,102.9600
308.134,646.5,103.7255
308.624,647,104.4596
309.122,647.5,105.2297
309.637,648,106.0937
310.129,648.5,106.9307
310.649,649,107.8194
311.158,649.5,108.6872
311.647,650,109.5514
312.159,650.5,110.4838
312.681,651,111.4608
313.187,651.5,112.4093
313.669,652,113.2884
314.176,652.5,114.2331
314.682,653,115.1901
315.179,653.5,116.1255
315.671,654,117.0354
316.188,654.5,118.0097
316.702,655,118.9987
317.177,655.5,119.8852
317.698,656,120.8768
318.213,656.5,121.8875
318.695,657,122.8165
319.194,657.5,123.7788
319.698,658,124.7475
320.212,658.5,125.6970
320.722,659,126.6469
321.216,659.5,127.5432
321.724,660,128.3984
322.232,660.5,129.2247
322.733,661,130.0379
323.231,661.5,130.7907
323.738,662,131.4999
324.249,662.5,132.1969
324.751,663,132.9025
325.248,663.5,133.5452
325.748,664,134.0685
326.242,664.5,134.5717
326.769,665,135.0702
327.273,665.5,135.4464
327.760,666,135.7379
328.275,666.5,135.9630
328.776,667,136.1306
329.259,667.5,136.1750
329.763,668,136.0950
330.279,668.5,135.9248
330.781,669,135.6379
331.274,669.5,135.2583
331.766,670,134.7720
332.279,670.5,134.1778
332.772,671,133.4784
333.278,671.5,132.6118
333.803,672,131.5707
334.307,672.5,130.4053
334.820,673,129.0807
335.350,673.5,127.5722
335.836,674,126.0360
336.339,674.5,124.2871
336.820,675,122.5033
337.296,675.5,120.5870
337.791,676,118.4408
338.290,676.5,116.1494
338.781,677,113.7436
339.285,677.5,111.1181
339.789,678,108.3461
340.289,678.5,105.4876
340.782,679,102.5533
341.265,679.5,99.5712
341.776,680,96.3102
342.257,680.5,93.1562
342.739,681,89.9692
343.256,681.5,86.4926
343.756,682,83.0882
344.243,682.5,79.7807
344.717,683,76.5605
345.209,683.5,73.2233
345.725,684,69.7037
346.218,684.5,66.4066
346.701,685,63.3218
347.197,685.5,60.2190
347.691,686,57.1987
348.172,686.5,54.3635
348.643,687,51.7176
349.133,687.5,49.0934
349.625,688,46.6194
350.105,688.5,44.3294
350.610,689,42.1025
351.112,689.5,40.0091
351.585,690,38.1618
352.069,690.5,36.4071
352.576,691,34.6995
353.047,691.5,33.1983
353.503,692,31.9092
354.031,692.5,30.4819
354.535,693,29.3275
355.006,693.5,28.2427
355.510,694,27.2239
356.005,694.5,26.3179
356.509,695,25.4859
356.988,695.5,24.6847
357.467,696,24.0337
357.979,696.5,23.3809
358.445,697,22.8003
358.938,697.5,22.2387
359.425,698,21.7562
359.950,698.5,21.2490
360.420,699,20.8186
360.926,699.5,20.4021
361.431,700,20.0333
361.943,700.5,19.6828
362.420,701,19.3210
362.924,701.5,18.9573
363.420,702,18.5895
363.912,702.5,18.2420
364.397,703,17.9055
364.881,703.5,17.5994
365.399,704,17.2626
365.936,704.5,16.8708
366.440,705,16.5712
366.940,705.5,16.3172
367.411,706,16.0649
367.953,706.5,15.7914
368.419,707,15.5606
368.946,707.5,15.3078
369.421,708,15.1123
369.917,708.5,14.8793
370.435,709,14.6758
370.912,709.5,14.4747
371.422,710,14.2450
371.951,710.5,14.0458
372.438,711,13.8831
372.929,711.5,13.6967
373.451,712,13.4747
373.946,712.5,13.2991
374.439,713,13.1151
374.951,713.5,12.9312
375.453,714,12.7158
375.952,714.5,12.5204
376.471,715,12.3413
376.938,715.5,12.1973
377.445,716,12.0790
377.983,716.5,11.9042
378.480,717,11.7819
378.979,717.5,11.6446
379.456,718,11.4754
379.974,718.5,11.3115
380.461,719,11.2165
380.987,719.5,11.0567
381.454,720,10.9146
381.930,720.5,10.8406
382.428,721,10.6748
382.948,721.5,10.5506
383.458,722,10.4143
383.954,722.5,10.2901
384.484,723,10.2233
384.993,723.5,10.0567
385.476,724,9.9315
386.013,724.5,9.8207
386.498,725,9.6585
386.970,725.5,9.5762
387.457,726,9.3607
387.998,726.5,9.2391
388.489,727,9.1114
388.985,727.5,9.0358
389.496,728,8.8738
389.961,728.5,8.7878
390.483,729,8.6404
390.996,729.5,8.5184
391.470,730,8.4020
391.996,730.5,8.2655
392.498,731,8.2106
393.000,731.5,8.0894
393.507,732,7.9522
394.012,732.5,7.8653
394.518,733,7.7760
395.028,733.5,7.6483
395.527,734,7.4573
396.017,734.5,7.4136
396.509,735,7.2619
397.055,735.5,7.1480
397.502,736,7.0846
398.025,736.5,6.9390
398.511,737,6.8585
399.038,737.5,6.7218
399.533,738,6.6348
400.040,738.5,6.5048
400.542,739,6.4412
401.032,739.5,6.3405
401.536,740,6.2368
402.001,740.5,6.1155
402.531,741,6.0157
403.041,741.5,5.9337
403.546,742,5.8661
404.046,742.5,5.7601
404.552,743,5.6797
405.035,743.5,5.5921
405.572,744,5.4196
406.073,744.5,5.3213
406.550,745,5.2346
407.027,745.5,5.1318
407.524,746,5.0533
408.047,746.5,4.9665
408.563,747,4.9057
409.050,747.5,4.8121
409.566,748,4.7062
410.065,748.5,4.5954
410.544,749,4.5118
411.069,749.5,4.4076
411.580,750,4.2926
412.097,750.5,4.2508
412.596,751,4.1464
413.079,751.5,4.0548
413.546,752,4.0240
414.071,752.5,3.8865
414.576,753,3.8991
415.088,753.5,3.7904
415.594,754,3.6913
416.103,754.5,3.6343
416.595,755,3.5624
417.094,755.5,3.5020
417.577,756,3.4250
418.093,756.5,3.3644
418.603,757,3.2868
419.076,757.5,3.2728
419.585,758,3.1758
420.087,758.5,3.1178
420.614,759,3.0703
421.114,759.5,2.9829
421.617,760,2.9378
422.110,760.5,2.9099
422.625,761,2.8449
423.121,761.5,2.7702
423.623,762,2.7004
424.115,762.5,2.6563
424.620,763,2.6046
425.133,763.5,2.5195
425.635,764,2.4540
426.131,764.5,2.4410
426.626,765,2.3784
427.135,765.5,2.3441
427.636,766,2.3041
428.152,766.5,2.2564
428.634,767,2.2201
429.122,767.5,2.1535
429.623,768,2.0888
430.147,768.5,2.0411
430.659,769,1.9933
431.145,769.5,1.9558
431.622,770,1.9167
432.146,770.5,1.8723
432.650,771,1.8467
433.150,771.5,1.8299
433.682,772,1.7817
434.177,772.5,1.7260
434.677,773,1.7072
435.161,773.5,1.6873
435.663,774,1.6482
436.165,774.5,1.6229
436.675,775,1.5935
437.181,775.5,1.5134
437.683,776,1.4774
438.195,776.5,1.4647
438.704,777,1.4626
439.215,777.5,1.4056
439.708,778,1.3546
440.201,778.5,1.3339
440.700,779,1.2983
441.195,779.5,1.2675
441.694,780,1.2512
442.189,780.5,1.2438
442.680,781,1.2116
443.182,781.5,1.1691
443.706,782,1.1603
444.202,782.5,1.1459
444.694,783,1.1110
445.198,783.5,1.0492
445.690,784,1.0563
446.180,784.5,1.0489
446.666,785,1.0137
447.169,785.5,0.9834
447.660,786,0.9657
448.177,786.5,0.9264
448.679,787,0.8931
449.173,787.5,0.8862
449.676,788,0.8690
450.182,788.5,0.8317
450.675,789,0.8292
451.147,789.5,0.8315
451.667,790,0.8160
452.186,790.5,0.8269
452.684,791,0.8284
453.163,791.5,0.8113
453.666,792,0.7596
454.192,792.5,0.7317
454.695,793,0.6858
455.187,793.5,0.6717
455.674,794,0.6848
456.194,794.5,0.6555
456.694,795,0.6408
457.187,795.5,0.6139
457.691,796,0.5892
458.194,796.5,0.5629
458.688,797,0.5752
459.192,797.5,0.5789
459.679,798,0.5745
460.183,798.5,0.5646
460.687,799,0.5592
461.195,799.5,0.5719
461.710,800,0.5732
462.194,800.5,0.5910
462.670,801,0.6023
463.176,801.5,0.5811
463.686,802,0.5347
464.200,802.5,0.4859
464.697,803,0.4567
465.180,803.5,0.4489
465.668,804,0.4525
466.187,804.5,0.4073
466.699,805,0.3893
467.192,805.5,0.3869
467.687,806,0.3839
468.186,806.5,0.3645
468.699,807,0.3669
469.205,807.5,0.4150
469.692,808,0.4486
470.203,808.5,0.4471
470.705,809,0.4367
471.196,809.5,0.4225
471.684,810,0.3981
472.195,810.5,0.3982
472.708,811,0.3835
473.215,811.5,0.3561
473.713,812,0.3414
474.215,812.5,0.3414
474.719,813,0.3294
475.196,813.5,0.3266
475.704,814,0.3407
476.214,814.5,0.3394
476.700,815,0.3573
477.205,815.5,0.3338
477.724,816,0.2896
478.218,816.5,0.2796
478.707,817,0.2567
479.207,817.5,0.2538
479.702,818,0.2785
480.207,818.5,0.2699
480.716,819,0.2690
481.211,819.5,0.2741
481.694,820,0.2567
482.176,820.5,0.2507
482.687,821,0.2357
483.224,821.5,0.1772
483.734,822,0.1674
484.214,822.5,0.2150
484.707,823,0.2404
485.208,823.5,0.2415
485.708,824,0.2474
486.207,824.5,0.2319
486.695,825,0.2459
487.207,825.5,0.2574
487.711,826,0.2339
488.205,826.5,0.1959
488.686,827,0.1940
489.180,827.5,0.2259
489.686,828,0.1961
490.186,828.5,0.1828
490.696,829,0.1944
491.182,829.5,0.1858
491.695,830,0.1363
492.205,830.5,0.1211
492.728,831,0.1375
493.223,831.5,0.1235
493.698,832,0.1145
494.192,832.5,0.1081
494.688,833,0.1326
495.196,833.5,0.1639
495.713,834,0.1879
496.211,834.5,0.1809
496.717,835,0.1535
497.218,835.5,0.1356
497.716,836,0.1438
498.212,836.5,0.1231
498.698,837,0.1099
499.191,837.5,0.0965
499.703,838,0.0630
500.218,838.5,0.0599
500.707,839,0.0453
501.183,839.5,0.0126
501.690,840,0.0335
502.193,840.5,0.0545
502.703,841,0.0198
503.209,841.5,0.0289
503.683,842,0.0586
504.172,842.5,0.0526
504.685,843,0.0323
505.205,843.5,0.0164
505.682,844,0.0205
506.159,844.5,0.0185
506.681,845,0.0002
507.193,845.5,0.0038
507.698,846,0.0066
508.208,846.5,0.0262
508.687,847,0.0226
509.174,847.5,0.0082
509.682,848,0.0151
510.175,848.5,-0.0069
510.685,849,-0.0194
511.194,849.5,-0.0276
511.695,850,-0.0113
512.184,850.5,-0.0206
512.699,851,-0.0367
513.201,851.5,0.0033
513.696,852,0.0366
514.174,852.5,0.0204
514.669,853,0.0211
515.168,853.5,0.0243
515.681,854,-0.0004
516.183,854.5,0.0043
516.685,855,-0.0028
517.194,855.5,-0.0232
517.699,856,-0.0094
518.183,856.5,-0.0067
518.673,857,-0.0107
519.176,857.5,0.0109
519.694,858,0.0233
520.206,858.5,0.0463
520.689,859,0.0590
521.179,859.5,0.0513
521.688,860,0.0716
522.193,860.5,0.0605
522.691,861,0.0281
523.201,861.5,-0.0144
523.697,862,-0.0371
524.184,862.5,-0.0371
524.671,863,-0.0618
525.188,863.5,-0.0871
525.691,864,-0.0564
526.173,864.5,-0.0546
526.674,865,-0.0661
527.160,865.5,-0.0566
527.682,866,-0.0399
528.206,866.5,0.0071
528.688,867,0.0506
529.163,867.5,0.0820
529.646,868,0.0738
530.155,868.5,0.1063
530.692,869,0.0848
531.193,869.5,0.0551
531.679,870,0.0289
532.167,870.5,-0.0085
532.655,871,0.0078
533.181,871.5,0.0269
533.682,872,0.0310
534.175,872.5,0.0272
534.669,873,0.0176
535.168,873.5,-0.0096
535.681,874,-0.0490
536.195,874.5,-0.0688
536.693,875,-0.0570
537.174,875.5,-0.0535
537.659,876,-0.0817
538.160,876.5,-0.0792
538.674,877,-0.0890
539.175,877.5,-0.0947
539.678,878,-0.0709
540.168,878.5,-0.0464
540.666,879,-0.0118
541.180,879.5,-0.0199
541.667,880,-0.0461
542.152,880.5,-0.0467
542.648,881,-0.0499
543.156,881.5,-0.0652
543.677,882,-0.0691
544.160,882.5,-0.0636
544.672,883,-0.0590
545.160,883.5,-0.0713
545.634,884,-0.0897
546.146,884.5,-0.1058
546.671,885,-0.0896
547.166,885.5,-0.0732
547.656,886,-0.0761
548.143,886.5,-0.1003
548.655,887,-0.1192
549.168,887.5,-0.1188
549.658,888,-0.1365
550.155,888.5,-0.1115
550.649,889,-0.0833
551.120,889.5,-0.0591
551.638,890,-0.0489
552.146,890.5,-0.0580
552.643,891,-0.0578
553.147,891.5,-0.0746
553.640,892,-0.0564
554.136,892.5,-0.0541
554.652,893,-0.0877
555.168,893.5,-0.0977
555.661,894,-0.0701
556.153,894.5,-0.0789
556.635,895,-0.0566
557.147,895.5,-0.0515
557.657,896,-0.0540
558.171,896.5,-0.0705
558.670,897,-0.0103
559.150,897.5,0.0034
559.639,898,0.0072
560.127,898.5,0.0214
560.634,899,0.0272
561.140,899.5,0.0550
561.622,900,0.0493
562.135,900.5,0.0160
562.626,901,0.0490
563.136,901.5,0.0378
563.615,902,0.0489
564.114,902.5,0.0539
564.632,903,0.0038
565.133,903.5,0.0289
565.614,904,0.0348
566.132,904.5,0.0166
566.640,905,-0.0029
567.108,905.5,0.0166
567.606,906,0.0697
568.099,906.5,0.1058
568.626,907,0.1227
569.128,907.5,0.1080
569.614,908,0.0774
570.106,908.5,0.0597
570.596,909,0.0500
571.131,909.5,-0.0255
571.614,910,-0.0085
572.084,910.5,0.0027
572.587,911,0.0112
573.065,911.5,0.0426
573.583,912,0.0503
574.080,912.5,0.0265
574.602,913,0.0194
575.109,913.5,0.0704
575.594,914,0.0863
576.071,914.5,0.0721
576.593,915,0.0593
577.096,915.5,0.0794
577.586,916,0.1043
578.083,916.5,0.0840
578.561,917,0.0567
579.071,917.5,0.0396
579.582,918,0.0259
580.103,918.5,0.0366
580.577,919,0.0333
581.077,919.5,0.0267
581.574,920,0.0365
582.056,920.5,0.0431
582.575,921,0.0143
583.087,921.5,0.0002
583.570,922,0.0212
584.061,922.5,-0.0031
584.552,923,-0.0218
585.043,923.5,0.0112
585.547,924,0.0249
586.048,924.5,0.0297
586.567,925,0.0188
587.047,925.5,0.0033
587.502,926,-0.0162
587.994,926.5,-0.0207
588.531,927,0.0129
589.068,927.5,-0.0098
589.548,928,-0.0093
590.026,928.5,0.0090
590.519,929,0.0046
591.031,929.5,-0.0161
591.523,930,0.0045
592.033,930.5,0.0162
592.524,931,-0.0080
593.014,931.5,0.0067
593.523,932,-0.0148
594.029,932.5,0.0169
594.541,933,-0.0441
595.020,933.5,-0.0408
595.524,934,-0.0311
596.047,934.5,0.0016
596.486,935,-0.0394
597.034,935.5,-0.0577
597.549,936,-0.0230