File: Wood/Calibration_Data/NIST/NIST_Wood-char_MCC_O2-20_60K_R1.csv
Time (s),Temperature (K),HRR (W/g)
102.278,439,-1.7483
103.245,440,-1.5305
104.201,441,-1.6213
105.205,442,-1.3476
106.176,443,-1.0286
107.170,444,-1.0847
108.133,445,-1.0591
109.130,446,-1.0621
110.126,447,-1.0236
111.089,448,-0.9473
112.100,449,-1.0067
113.043,450,-0.8640
114.033,451,-0.3390
115.036,452,-0.2303
115.986,453,0.0113
116.988,454,-0.1287
117.960,455,-0.3934
118.928,456,-0.6010
119.925,457,-0.0696
120.915,458,0.0472
121.891,459,-0.0486
122.871,460,-0.0782
123.833,461,0.4635
124.827,462,0.3155
125.805,463,0.6018
126.779,464,0.2825
127.773,465,0.3282
128.743,466,0.0155
129.733,467,-0.0336
130.726,468,-0.2101
131.686,469,0.1853
132.663,470,0.6019
133.641,471,1.2327
134.628,472,1.5379
135.626,473,1.2121
136.588,474,0.7810
137.607,475,0.6685
138.580,476,0.4579
139.551,477,0.4274
140.550,478,0.5412
141.544,479,0.5029
142.498,480,0.6313
143.500,481,0.7872
144.459,482,0.9861
145.449,483,0.7169
146.441,484,1.1276
147.447,485,0.8076
148.467,486,1.2084
149.428,487,0.9380
150.418,488,1.3124
151.414,489,1.4080
152.404,490,1.4995
153.413,491,1.8464
154.376,492,2.0944
155.396,493,2.1140
156.378,494,2.3446
157.362,495,2.3386
158.341,496,2.3008
159.352,497,2.1265
160.338,498,2.2399
161.328,499,2.0788
162.323,500,2.3721
163.325,501,2.2753
164.318,502,2.5237
165.286,503,2.7940
166.280,504,2.7835
167.259,505,2.7740
168.277,506,2.9762
169.266,507,3.1822
170.262,508,3.1333
171.259,509,2.9264
172.263,510,2.7582
173.250,511,3.1340
174.239,512,3.2736
175.227,513,3.6388
176.235,514,3.7681
177.234,515,3.7537
178.208,516,3.5729
179.193,517,3.6676
180.175,518,3.6920
181.189,519,4.0590
182.187,520,4.1246
183.173,521,4.0751
184.171,522,4.0125
185.149,523,4.4203
186.148,524,4.2435
187.159,525,4.7409
188.153,526,4.3134
189.131,527,4.5297
190.147,528,4.6838
191.139,529,4.9040
192.156,530,5.4558
193.143,531,5.3696
194.135,532,5.2645
195.136,533,5.2723
196.115,534,5.4627
197.115,535,5.3588
198.125,536,5.4913
199.108,537,5.4968
200.094,538,5.8848
201.073,539,6.0501
202.078,540,6.2169
203.080,541,6.2464
204.085,542,6.3816
205.116,543,6.8819
206.076,544,6.9049
207.090,545,6.9258
208.084,546,6.9675
209.067,547,6.8212
210.096,548,7.1019
211.073,549,7.3845
212.086,550,7.5896
213.059,551,7.5913
214.092,552,7.7462
215.079,553,7.9923
216.074,554,8.3021
217.059,555,8.6683
218.027,556,8.9491
219.077,557,9.2311
220.030,558,8.9849
221.065,559,9.1533
222.062,560,9.1978
223.036,561,10.0066
224.032,562,9.6923
225.042,563,10.0348
226.072,564,9.8838
227.064,565,9.5728
228.049,566,10.0304
229.036,567,10.7095
230.055,568,11.1310
231.023,569,11.2173
232.046,570,11.2336
233.031,571,11.5224
234.042,572,11.3398
235.068,573,11.4178
236.051,574,11.5647
237.047,575,11.8347
238.030,576,12.0869
239.017,577,12.5704
240.023,578,12.9028
241.001,579,13.0763
242.006,580,13.0073
242.993,581,13.2035
244.020,582,13.3566
244.973,583,13.3816
245.990,584,13.6093
246.996,585,14.0905
247.999,586,14.4918
248.992,587,14.9626
249.977,588,15.4464
250.984,589,15.2513
251.997,590,15.2309
252.993,591,15.4109
253.976,592,15.7074
254.980,593,16.0998
255.972,594,16.5411
256.997,595,17.1324
257.950,596,17.5702
258.950,597,17.7253
259.973,598,18.1968
260.980,599,18.7653
261.981,600,19.0856
262.987,601,19.3488
263.968,602,19.6084
264.956,603,19.8676
265.979,604,20.3000
266.956,605,20.5618
267.973,606,20.8279
268.930,607,21.1886
269.972,608,21.7602
270.908,609,22.0138
271.933,610,22.5298
272.895,611,22.9976
273.922,612,23.3428
274.917,613,24.6243
275.932,614,24.4602
276.945,615,25.0275
277.899,616,25.7710
278.928,617,26.0830
279.899,618,26.6054
280.900,619,26.8900
281.894,620,27.9123
282.880,621,28.9203
283.872,622,29.6550
284.883,623,29.9264
285.870,624,29.9653
286.856,625,30.3048
287.843,626,31.3170
288.826,627,31.8261
289.823,628,32.7342
290.817,629,33.7951
291.817,630,34.7844
292.834,631,35.7606
293.817,632,36.6677
294.799,633,37.3453
295.800,634,38.2238
296.814,635,39.0214
297.795,636,40.1429
298.767,637,41.0143
299.770,638,42.0630
300.726,639,43.1776
301.744,640,44.4399
302.714,641,45.9670
303.713,642,47.0744
304.691,643,48.4744
305.680,644,50.1290
306.655,645,51.6260
307.657,646,53.3125
308.649,647,54.7095
309.634,648,56.2782
310.604,649,58.5705
311.608,650,61.3234
312.589,651,62.9159
313.556,652,64.4776
314.542,653,61.3939
315.536,654,56.7307
316.520,655,56.5516
317.532,656,63.8147
318.470,657,74.2137
319.488,658,84.3043
320.418,659,94.0233
321.382,660,107.4516
322.353,661,129.1570
323.311,662,169.9804
324.252,663,232.9092
325.189,664,301.6622
326.025,665,353.1115
326.841,666,387.7010
327.593,667,408.5611
328.330,668,420.2413
329.057,669,426.5217
329.747,670,428.6357
330.453,671,428.8820
331.151,672,427.3344
331.880,673,424.9772
332.613,674,421.9195
333.342,675,418.6001
334.117,676,414.6303
334.887,677,411.0581
335.698,678,406.8154
336.523,679,402.0921
337.382,680,395.7377
338.273,681,388.4119
339.187,682,381.8527
340.142,683,375.5685
341.115,684,370.5555
342.111,685,364.5163
343.132,686,356.6364
344.193,687,348.1153
345.222,688,340.7851
346.344,689,338.1760
347.483,690,342.1088
348.634,691,348.6050
349.874,692,352.9412
351.059,693,354.5229
352.204,694,355.8529
353.308,695,355.4027
354.333,696,352.8009
355.385,697,351.3717
356.424,698,354.2075
357.494,699,359.2788
358.612,700,360.8789
359.668,701,357.3840
360.769,702,350.9535
361.885,703,343.4367
362.919,704,335.6734
364.018,705,327.0267
365.064,706,317.5451
366.127,707,307.1322
367.165,708,295.2648
368.238,709,281.2468
369.311,710,268.0268
370.408,711,258.8443
371.459,712,251.7189
372.551,713,244.3976
373.662,714,236.0017
374.771,715,228.8750
375.872,716,228.3851
376.989,717,243.9336
378.110,718,271.2069
379.115,719,293.5258
380.028,720,308.0532
381.065,721,315.9346
382.049,722,319.5653
382.987,723,324.0377
383.904,724,330.3097
384.813,725,337.8379
385.696,726,342.6518
386.571,727,342.2606
387.494,728,335.5407
388.473,729,323.7289
389.483,730,311.6356
390.466,731,302.5354
391.505,732,293.4037
392.529,733,281.9146
393.626,734,266.8925
394.655,735,254.6927
395.759,736,252.9722
396.899,737,268.6011
398.023,738,292.7345
399.170,739,310.8472
400.112,740,313.9294
401.040,741,309.9431
402.051,742,303.4045
403.014,743,299.4189
403.943,744,295.4499
404.899,745,287.7807
405.875,746,276.3296
406.860,747,260.6698
407.909,748,245.3920
409.000,749,238.8506
410.112,750,239.0222
411.277,751,238.9353
412.312,752,238.6785
413.399,753,237.3392
414.249,754,235.2498
415.428,755,232.6803
416.860,756,221.5366
418.020,757,210.3421
419.192,758,199.4742
420.234,759,189.5500
421.143,760,182.3109
422.298,761,168.6646
423.429,762,145.2229
424.550,763,109.3617
425.605,764,72.5244
426.849,765,38.6033
428.264,766,17.5547
429.653,767,8.4792
431.021,768,4.5173
432.310,769,2.8445
433.534,770,2.6708
434.734,771,2.4260
435.905,772,2.1561
437.028,773,1.6606
438.114,774,1.3430
439.135,775,1.4588
440.206,776,1.8277
441.248,777,1.7185
442.275,778,1.4928
443.260,779,1.2821
444.259,780,1.3392
445.240,781,1.4630
446.185,782,0.8608
447.202,783,1.0080
448.157,784,1.1430
449.129,785,1.3438
450.066,786,1.1970
451.082,787,1.2024
452.051,788,0.7241
453.010,789,0.8643
453.987,790,1.2887
454.962,791,1.6736
455.951,792,1.5923
456.923,793,1.2474
457.903,794,0.8019
458.870,795,0.8982
459.861,796,0.6195
460.824,797,0.5613
461.802,798,0.3309
462.768,799,0.2413
463.750,800,0.2410
464.709,801,0.0194
465.710,802,0.2337
466.686,803,0.4679
467.659,804,0.6616
468.637,805,0.5069
469.637,806,0.3622
470.616,807,0.2949
471.609,808,0.1020
472.552,809,-0.1567
473.559,810,-0.3400
474.547,811,-0.2358
475.543,812,-0.3487
476.523,813,-0.0608
477.526,814,-0.4916
478.520,815,-0.0694
479.481,816,-0.2966
480.474,817,-0.5387
481.438,818,-0.5101
482.474,819,-0.4065
483.445,820,-0.5176
484.420,821,-0.2322
485.410,822,-0.2256
486.404,823,-0.6021
487.386,824,-0.4970
488.383,825,-0.7488
489.396,826,-0.5952
490.379,827,-0.7405
491.359,828,-0.6081
492.371,829,-0.4440
493.319,830,-0.4216
494.338,831,-0.4414
495.344,832,-0.3761
496.336,833,-0.4367
497.322,834,-0.5654
498.304,835,-0.5875
499.324,836,-0.5536
500.290,837,-0.4949
501.281,838,-0.5025
502.261,839,-0.7970
503.274,840,-0.5512
504.255,841,-0.6891
505.250,842,-0.3368
506.238,843,-0.1279
507.219,844,0.2418
508.210,845,-0.0956
509.221,846,0.0180
510.179,847,-0.5450
511.213,848,-0.3843
512.164,849,-0.1406
513.190,850,0.1443
514.174,851,-0.1027
515.160,852,-0.2292
516.184,853,0.0373
517.143,854,0.0473
518.145,855,0.0879
519.130,856,-0.1888
520.138,857,0.0368
521.140,858,-0.0838
522.102,859,-0.3424
523.086,860,-0.0140
524.130,861,-0.3699
525.102,862,-0.1837
526.082,863,0.1102
527.085,864,0.3917
528.070,865,0.1290
529.098,866,0.0890
530.061,867,0.4353
531.072,868,0.4935
532.050,869,0.1568
533.051,870,0.0693
534.073,871,0.0223
535.028,872,0.2281
536.039,873,0.5964
537.055,874,0.5226
538.018,875,0.2183
539.002,876,0.2849
540.022,877,0.1925
541.009,878,0.6816
542.032,879,0.6453
542.972,880,0.7108
544.007,881,0.7157
544.985,882,0.5488
545.997,883,0.3114
547.008,884,0.4872
547.973,885,0.4036
548.973,886,0.1525
549.980,887,0.3954
550.963,888,0.2587
551.956,889,0.2878
552.947,890,-0.2386
553.957,891,0.2371
554.960,892,0.4052
555.945,893,0.3305
556.969,894,-0.2465
557.978,895,0.0699
558.939,896,0.0452
559.936,897,0.1621
560.931,898,-0.1722
561.950,899,-0.2760
562.935,900,0.0901
563.913,901,0.3188
564.925,902,0.4477
565.925,903,0.4195
566.914,904,0.6599
567.908,905,0.4108
568.935,906,0.2160
569.883,907,-0.1273
570.894,908,-0.1672
571.895,909,0.0869
572.869,910,0.2670
573.904,911,0.4342
574.862,912,0.5820
575.888,913,0.5675
576.874,914,0.5004
577.878,915,0.3157
578.891,916,0.5114
579.884,917,0.2311
580.843,918,0.3709
581.879,919,0.1572
582.862,920,0.1593
583.864,921,0.1829
584.893,922,0.1192
585.836,923,0.0058
586.854,924,0.1195
587.845,925,0.0285
588.824,926,-0.0859
589.858,927,-0.0877
590.824,928,0.0170
591.804,929,-0.1508
592.828,930,-0.2458
593.808,931,0.2115
594.785,932,0.2962
595.822,933,0.4234
596.806,934,0.1962
597.794,935,0.2105
598.798,936,0.2530
599.775,937,0.0833
600.782,938,0.1330
601.797,939,0.0563
602.759,940,0.0619
603.764,941,-0.0049
604.785,942,0.1612
605.753,943,0.3014
606.749,944,0.5988
607.782,945,0.3388
608.728,946,0.3478
609.731,947,0.4334
610.777,948,0.3476
611.717,949,0.1838
612.738,950,0.1958
613.751,951,0.5735
614.726,952,0.4933
615.730,953,0.2444
616.764,954,0.1323
617.718,955,0.1943
618.725,956,0.2445
619.738,957,-0.0254
620.695,958,0.0461
621.711,959,-0.1342
622.711,960,-0.1188
623.679,961,0.0321
624.720,962,0.2419
625.677,963,-0.0947
626.688,964,-0.0820
627.687,965,-0.1638
628.655,966,-0.2533
629.645,967,0.1307
630.640,968,-0.4269
631.681,969,-0.3220
632.626,970,-0.2961
633.633,971,-0.3687
634.656,972,-0.2502
635.615,973,-0.1905
636.624,974,-0.3658
637.614,975,-0.2748
638.622,976,0.0020
639.614,977,-0.1493
640.619,978,-0.0603
641.602,979,-0.1193
642.582,980,-0.0155
643.586,981,-0.0331
644.590,982,-0.2205
645.558,983,-0.3442
646.565,984,0.0017
647.567,985,-0.1312
648.516,986,-0.0865
649.553,987,0.0239
650.510,988,-0.0813
651.541,989,0.0467
652.521,990,0.2061
653.524,991,-0.2186
654.495,992,-0.2199
655.508,993,-0.1167
656.502,994,-0.2035
657.524,995,-0.2367
658.481,996,-0.0891
659.496,997,-0.1130
660.483,998,0.0850
661.466,999,-0.0741
662.484,1000,-0.1541
663.469,1001,0.0259
664.445,1002,0.0174
665.446,1003,-0.1321
666.440,1004,-0.3245
667.426,1005,-0.0937
668.427,1006,-0.1364
669.433,1007,-0.1864
670.418,1008,-0.2744
671.415,1009,-0.4749
672.413,1010,-0.8597
673.436,1011,-0.6800
674.395,1012,-0.3089
675.379,1013,-0.2771
676.422,1014,0.0322
677.362,1015,-0.2935
678.367,1016,-0.3859
679.392,1017,-0.3188
680.346,1018,-0.5191
681.369,1019,-0.3800
682.317,1020,-0.1716
683.364,1021,-0.2241
684.319,1022,-0.3614
685.316,1023,-0.3510
686.320,1024,-0.3387
687.280,1025,-0.4062
688.285,1026,-0.6170
689.273,1027,-0.1900
690.289,1028,-0.2312
691.268,1029,-0.2818
692.247,1030,-0.3018
693.263,1031,-0.3148
694.236,1032,-0.4431
695.232,1033,-0.2789
696.227,1034,-0.1126
697.234,1035,-0.0646
698.197,1036,-0.1996
699.220,1037,0.0204
700.179,1038,0.0695
701.186,1039,-0.0315
702.194,1040,-0.2532
703.133,1041,-0.4914
704.194,1042,-0.4636
705.165,1043,-0.4716
706.150,1044,-0.1387
707.116,1045,-0.1985
708.160,1046,-0.4937
709.125,1047,-0.3668
710.107,1048,-0.2908
711.115,1049,-0.2335
712.100,1050,-0.0663
713.109,1051,0.1578
714.041,1052,0.0146
715.075,1053,0.1599
716.069,1054,0.1950
717.054,1055,-0.1877
718.060,1056,-0.3387
719.050,1057,-0.3425
720.015,1058,-0.4201
721.013,1059,-0.3038
722.018,1060,-0.1007
722.992,1061,0.1213
724.003,1062,0.4393
724.982,1063,0.0234
725.935,1064,-0.1338
726.997,1065,-0.0782
727.908,1066,-0.0013
728.933,1067,-0.0057
729.909,1068,0.2778
730.907,1069,0.4243
731.895,1070,0.5157
732.887,1071,0.3949
733.840,1072,0.5189
734.890,1073,0.2861
735.856,1074,0.2479
736.877,1075,0.3971
737.823,1076,0.1558
738.853,1077,-0.0747
739.826,1078,-0.0754
740.829,1079,0.2310
741.830,1080,0.2639
742.809,1081,0.2659
743.819,1082,0.2289
744.754,1083,0.1942
745.814,1084,-0.4832
746.798,1085,-0.3026
747.764,1086,-0.1193
748.775,1087,-0.0446
749.758,1088,0.0751
750.786,1089,0.3196
751.748,1090,0.5644
752.774,1091,0.3261
753.742,1092,0.4599
754.764,1093,0.1104
755.756,1094,0.3024
756.732,1095,0.0380
757.752,1096,-0.0743
758.728,1097,-0.0729
759.749,1098,-0.3730
760.719,1099,-0.3579
761.727,1100,-0.5266
762.729,1101,-0.3879
763.702,1102,0.0047
764.725,1103,0.0205
765.691,1104,0.2381
766.681,1105,0.1114
767.720,1106,0.4974
768.701,1107,0.2795
769.663,1108,-0.2001
770.718,1109,-0.4062
771.643,1110,-0.1814
772.683,1111,-0.1815
773.647,1112,-0.1785
774.630,1113,0.3116
775.667,1114,0.2153
776.606,1115,0.2662
777.616,1116,-0.0858
778.645,1117,-0.3736
779.615,1118,-0.3875
780.604,1119,0.0239
781.648,1120,0.1162
782.577,1121,0.3449
783.641,1122,0.4463
784.584,1123,0.7364
785.585,1124,0.6888
786.635,1125,0.4034
787.570,1126,0.3695
788.574,1127,0.3877
789.611,1128,0.4308
790.534,1129,0.5169
791.585,1130,0.0729
792.549,1131,-0.4657
793.563,1132,-0.3133
794.592,1133,-0.4172
795.530,1134,-0.0877
796.613,1135,0.3477
797.528,1136,0.3230
798.556,1137,0.5103
799.617,1138,-0.0136
800.493,1139,-0.5030
801.645,1140,0.0369
802.527,1141,0.0549
803.530,1142,0.2218
804.632,1143,0.5995
805.418,1144,0.4252
806.620,1145,0.3940
807.479,1146,0.3679
808.451,1147,0.3666
809.561,1148,0.4178
810.424,1149,0.4219
811.528,1150,0.5092
812.443,1151,0.2588
813.463,1152,0.4117
814.493,1153,0.6704
815.425,1154,0.0977
816.521,1155,0.1327
817.434,1156,0.1253
818.472,1157,0.2903
819.458,1158,0.2840
820.473,1159,0.3707
821.500,1160,0.5318
822.442,1161,0.6199
823.457,1162,0.3153
824.448,1163,0.3477
825.431,1164,0.0370
826.427,1165,-0.0920
827.466,1166,-0.0811
828.417,1167,-0.2163
829.462,1168,0.1433
830.388,1169,0.3970
831.419,1170,0.3323
832.404,1171,-0.2272
833.395,1172,0.3402
834.372,1173,0.1506
835.392,1174,-0.0426
836.331,1175,0.1569
837.384,1176,0.0173
838.349,1177,-0.0792
839.309,1178,-0.0249
840.339,1179,0.0707
841.269,1180,0.2381
842.309,1181,0.1796
843.278,1182,0.3916
844.262,1183,0.2401
845.290,1184,0.2367
846.207,1185,0.3447
847.256,1186,0.4592
848.206,1187,0.3283
849.208,1188,0.5359
850.215,1189,0.5725
851.109,1190,0.4337
852.216,1191,0.3470
853.090,1192,0.6262
854.152,1193,0.4649
855.104,1194,0.2329
856.096,1195,0.1183
857.097,1196,0.2644
857.991,1197,-0.2171
859.153,1198,-0.0218
859.997,1199,-0.3510
861.153,1200,-0.2351
862.084,1201,-0.0411
863.059,1202,-0.1488
864.169,1203,-0.2726
865.072,1204,-0.4557
866.149,1205,-0.4496
867.080,1206,-0.5026
868.072,1207,-0.7463
869.088,1208,-0.2684
870.033,1209,-0.3526
871.082,1210,-0.2052
872.070,1211,-0.1636
873.012,1212,0.0116
874.002,1213,-0.4686
874.989,1214,-0.4271
876.008,1215,-0.0947
876.992,1216,-0.5590
878.012,1217,-0.3008
878.975,1218,-0.4032
879.961,1219,-0.4254
880.982,1220,-0.3788
882.034,1221,-0.4216
883.037,1222,-0.2657
884.096,1223,-0.4243
885.122,1224,-0.1396
886.194,1225,-0.3802
887.266,1226,-0.2951
888.324,1227,-0.3901
889.395,1228,-0.4629
890.479,1229,-0.7654
891.572,1230,-0.5977
892.700,1231,-0.8043
893.836,1232,-0.7671
894.995,1233,-0.4614
896.139,1234,-0.0417
897.344,1235,0.0337
898.548,1236,-0.0867
899.767,1237,-0.1626
901.012,1238,0.2377
902.277,1239,0.2500
903.556,1240,0.3254
904.849,1241,0.1441
906.137,1242,-0.0772
907.528,1243,0.2691
908.928,1244,0.3921
909.614,1244.5,0.5456