File: Wood/Calibration_Data/NIST/NIST_Wood_MCC_N2_60K_R1.csv
Time (s),Temperature (K),HRR (W/g)
73.349,409,-0.0254
74.283,410,-0.0198
75.258,411,0.0228
76.199,412,0.0371
77.146,413,-0.0290
78.078,414,-0.0711
79.022,415,-0.0387
80.005,416,-0.0085
80.932,417,-0.0068
81.917,418,-0.0469
82.854,419,-0.1062
83.831,420,-0.0024
84.762,421,0.0110
85.730,422,0.0033
86.679,423,0.0288
87.670,424,0.0131
88.613,425,0.0256
89.573,426,0.0736
90.554,427,0.0953
91.500,428,0.1362
92.497,429,0.1308
93.457,430,0.1798
94.432,431,0.1571
95.397,432,0.1499
96.357,433,0.2004
97.356,434,0.2902
98.330,435,0.3713
99.316,436,0.4516
100.267,437,0.4154
101.261,438,0.4439
102.203,439,0.4991
103.187,440,0.5770
104.189,441,0.6881
105.183,442,0.7723
106.186,443,0.8315
107.146,444,0.8572
108.120,445,0.9171
109.117,446,1.0070
110.061,447,1.1003
111.063,448,1.1250
112.009,449,1.2128
113.030,450,1.2655
113.972,451,1.3452
114.972,452,1.3715
115.924,453,1.4726
116.924,454,1.5286
117.896,455,1.6264
118.876,456,1.6738
119.861,457,1.7621
120.836,458,1.8942
121.838,459,1.9848
122.792,460,2.0489
123.797,461,2.1876
124.769,462,2.2721
125.776,463,2.3829
126.749,464,2.4879
127.763,465,2.5812
128.731,466,2.6949
129.716,467,2.7518
130.669,468,2.8476
131.681,469,2.9934
132.677,470,3.1018
133.640,471,3.2441
134.606,472,3.3828
135.628,473,3.5407
136.629,474,3.6565
137.603,475,3.8085
138.570,476,3.9244
139.564,477,4.0805
140.525,478,4.2627
141.514,479,4.4420
142.506,480,4.6611
143.514,481,4.8618
144.509,482,5.0275
145.505,483,5.2064
146.475,484,5.3704
147.453,485,5.5997
148.461,486,5.7548
149.462,487,5.9978
150.473,488,6.1464
151.479,489,6.3782
152.462,490,6.6254
153.427,491,6.7996
154.428,492,7.0639
155.414,493,7.3068
156.404,494,7.5914
157.403,495,7.8031
158.413,496,8.0434
159.382,497,8.2636
160.360,498,8.5223
161.351,499,8.7601
162.356,500,9.0462
163.336,501,9.3026
164.323,502,9.5855
165.308,503,9.8663
166.329,504,10.1952
167.325,505,10.4471
168.301,506,10.7046
169.326,507,10.9572
170.295,508,11.2245
171.307,509,11.5439
172.325,510,11.7684
173.315,511,12.0667
174.301,512,12.2929
175.298,513,12.5688
176.290,514,12.8075
177.269,515,12.9786
178.291,516,13.2162
179.273,517,13.4405
180.265,518,13.5805
181.267,519,13.7268
182.247,520,13.8575
183.254,521,13.9886
184.261,522,14.1849
185.240,523,14.3318
186.268,524,14.4572
187.271,525,14.5602
188.263,526,14.6310
189.249,527,14.7096
190.228,528,14.7704
191.240,529,14.9100
192.246,530,15.0356
193.246,531,15.0931
194.247,532,15.1644
195.230,533,15.3615
196.232,534,15.4559
197.200,535,15.5110
198.187,536,15.6632
199.182,537,15.7572
200.202,538,15.9189
201.172,539,16.0597
202.201,540,16.2246
203.198,541,16.3772
204.161,542,16.5834
205.163,543,16.7803
206.151,544,16.9285
207.180,545,17.0722
208.164,546,17.2764
209.169,547,17.4520
210.168,548,17.7301
211.188,549,17.9998
212.180,550,18.2307
213.168,551,18.5028
214.158,552,18.7446
215.163,553,19.0620
216.169,554,19.3990
217.173,555,19.8332
218.186,556,20.1766
219.163,557,20.5696
220.161,558,20.9589
221.143,559,21.3541
222.168,560,21.8134
223.138,561,22.2396
224.151,562,22.7502
225.163,563,23.2050
226.155,564,23.7281
227.120,565,24.2143
228.131,566,24.7329
229.161,567,25.3446
230.145,568,25.9152
231.150,569,26.4745
232.135,570,27.1041
233.184,571,27.6785
234.182,572,28.2801
235.187,573,28.9439
236.200,574,29.5599
237.182,575,30.2111
238.164,576,30.9207
239.153,577,31.6334
240.134,578,32.3836
241.130,579,33.0844
242.147,580,33.9206
243.153,581,34.7036
244.165,582,35.4708
245.177,583,36.3168
246.177,584,37.1690
247.185,585,38.0672
248.174,586,38.9655
249.180,587,39.8648
250.169,588,40.7529
251.160,589,41.7440
252.183,590,42.7640
253.181,591,43.7458
254.167,592,44.7597
255.210,593,45.8199
256.210,594,46.8397
257.221,595,47.9447
258.203,596,49.0073
259.171,597,50.0354
260.188,598,51.1529
261.187,599,52.2802
262.182,600,53.4341
263.204,601,54.6322
264.201,602,55.7753
265.188,603,56.9422
266.191,604,58.1196
267.216,605,59.3430
268.213,606,60.5636
269.183,607,61.7092
270.201,608,62.9655
271.220,609,64.1939
272.193,610,65.3276
273.216,611,66.5140
274.235,612,67.6802
275.213,613,68.7909
276.250,614,69.9735
277.244,615,71.1314
278.234,616,72.2281
279.234,617,73.3775
280.227,618,74.4920
281.231,619,75.5784
282.214,620,76.6987
283.234,621,77.8054
284.239,622,78.8695
285.245,623,79.8993
286.238,624,80.9051
287.238,625,81.9417
288.233,626,82.9333
289.250,627,83.9490
290.247,628,84.9310
291.257,629,85.8932
292.247,630,86.8062
293.274,631,87.8122
294.261,632,88.7870
295.258,633,89.7720
296.255,634,90.7843
297.258,635,91.7927
298.260,636,92.8349
299.271,637,93.9120
300.269,638,94.9501
301.278,639,96.0793
302.283,640,97.1291
303.282,641,98.3358
304.258,642,99.4891
305.247,643,100.7598
306.261,644,102.0582
307.275,645,103.4522
308.263,646,104.8717
309.261,647,106.3707
310.268,648,107.9364
311.299,649,109.6728
312.301,650,111.3398
313.327,651,113.1123
314.337,652,114.9637
315.326,653,116.8098
316.346,654,118.7769
317.344,655,120.6653
318.360,656,122.6154
319.333,657,124.5495
320.362,658,126.5150
321.351,659,128.3701
322.375,660,130.2976
323.387,661,132.0571
324.370,662,133.6636
325.384,663,135.1821
326.389,664,136.5600
327.389,665,137.6916
328.398,666,138.6611
329.399,667,139.3530
330.428,668,139.6524
331.450,669,139.6408
332.456,670,139.1428
333.449,671,138.3062
334.454,672,136.8696
335.459,673,135.0132
336.459,674,132.5208
337.453,675,129.5134
338.440,676,125.9224
339.425,677,121.7565
340.427,678,116.9530
341.453,679,111.4379
342.417,680,105.7745
343.418,681,99.4736
344.388,682,93.0655
345.364,683,86.3968
346.364,684,79.4827
347.338,685,72.8772
348.309,686,66.4520
349.312,687,60.1579
350.279,688,54.4971
351.251,689,49.3071
352.236,690,44.5981
353.238,691,40.4515
354.217,692,36.8802
355.196,693,33.8191
356.179,694,31.2435
357.119,695,29.1320
358.120,696,27.2829
359.103,697,25.8631
360.087,698,24.6393
361.099,699,23.5116
362.070,700,22.5841
363.069,701,21.7412
364.061,702,20.9784
365.053,703,20.3676
366.074,704,19.7226
367.055,705,19.0542
368.024,706,18.4520
369.046,707,17.8334
370.048,708,17.3399
371.071,709,16.8439
372.075,710,16.3297
373.075,711,15.8909
374.084,712,15.4611
375.089,713,15.0836
376.111,714,14.6541
377.095,715,14.2879
378.095,716,13.9726
379.096,717,13.6299
380.106,718,13.2633
381.112,719,12.8988
382.117,720,12.6429
383.104,721,12.3655
384.122,722,12.1083
385.137,723,11.8204
386.118,724,11.5134
387.105,725,11.1992
388.123,726,10.9082
389.108,727,10.7058
390.147,728,10.4789
391.126,729,10.3058
392.145,730,10.0036
393.160,731,9.8020
394.144,732,9.5453
395.168,733,9.2809
396.141,734,9.0490
397.170,735,8.7869
398.180,736,8.5410
399.172,737,8.2916
400.191,738,8.0039
401.172,739,7.8433
402.172,740,7.6111
403.183,741,7.4162
404.194,742,7.1702
405.179,743,6.9375
406.191,744,6.7146
407.177,745,6.5502
408.201,746,6.2925
409.185,747,6.1429
410.217,748,6.0004
411.196,749,5.8114
412.233,750,5.5996
413.223,751,5.4789
414.233,752,5.3172
415.249,753,5.1041
416.257,754,4.8058
417.250,755,4.6421
418.245,756,4.5283
419.256,757,4.4084
420.265,758,4.2461
421.271,759,4.1497
422.262,760,3.9600
423.260,761,3.8097
424.280,762,3.7323
425.267,763,3.6308
426.289,764,3.4775
427.297,765,3.3589
428.293,766,3.2445
429.313,767,3.1904
430.305,768,3.0738
431.324,769,2.9567
432.343,770,2.8185
433.331,771,2.7190
434.351,772,2.5969
435.339,773,2.5212
436.365,774,2.4559
437.365,775,2.3822
438.357,776,2.2765
439.361,777,2.2094
440.368,778,2.2002
441.390,779,2.0510
442.387,780,1.9797
443.379,781,1.8802
444.393,782,1.8611
445.369,783,1.7754
446.377,784,1.6884
447.352,785,1.6428
448.336,786,1.6157
449.322,787,1.5400
450.331,788,1.4385
451.343,789,1.3965
452.333,790,1.3327
453.386,791,1.2532
454.351,792,1.2250
455.350,793,1.2076
456.375,794,1.1567
457.353,795,1.1264
458.339,796,1.0859
459.389,797,1.0097
460.370,798,1.0129
461.369,799,0.8871
462.367,800,0.8889
463.373,801,0.8535
464.356,802,0.8618
465.362,803,0.8188
466.368,804,0.7565
467.358,805,0.7927
468.367,806,0.7718
469.365,807,0.7561
470.345,808,0.7329
471.378,809,0.6969
472.380,810,0.6442
473.395,811,0.6358
474.379,812,0.6336
475.427,813,0.5896
476.414,814,0.5468
477.390,815,0.5547
478.415,816,0.5587
479.396,817,0.5199
480.411,818,0.4811
481.401,819,0.4359
482.418,820,0.4676
483.407,821,0.4363
484.407,822,0.4152
485.425,823,0.3391
486.424,824,0.3101
487.415,825,0.2866
488.425,826,0.2814
489.399,827,0.3058
490.400,828,0.3364
491.442,829,0.3547
492.445,830,0.3673
493.432,831,0.3922
494.417,832,0.3809
495.427,833,0.3961
496.430,834,0.3022
497.461,835,0.2949
498.431,836,0.2594
499.444,837,0.2491
500.449,838,0.2429
501.435,839,0.2746
502.460,840,0.2519
503.438,841,0.2248
504.442,842,0.2221
505.445,843,0.1653
506.424,844,0.1608
507.443,845,0.1816
508.466,846,0.1528
509.446,847,0.0914
510.454,848,0.1354
511.432,849,0.1083
512.420,850,0.1409
513.455,851,0.1210
514.434,852,0.0857
515.442,853,0.0570
516.450,854,0.0579
517.429,855,0.0538
518.460,856,0.0543
519.465,857,0.0713
520.470,858,0.0899
521.458,859,0.0141
522.457,860,0.0421
523.443,861,0.0323
524.467,862,0.0797
525.460,863,0.0213
526.422,864,0.0169
527.488,865,-0.0354
528.432,866,-0.0074
529.452,867,-0.0532
530.481,868,-0.0693
531.472,869,-0.0468
532.423,870,-0.0835
533.452,871,-0.0751
534.469,872,-0.0892
535.437,873,-0.0819
536.450,874,-0.1148
537.439,875,-0.1040
538.425,876,-0.0793
539.442,877,-0.1023
540.447,878,-0.1408
541.443,879,-0.1220
542.424,880,-0.1471
543.446,881,-0.1400
544.437,882,-0.1555
545.420,883,-0.1638
546.460,884,-0.1652
547.456,885,-0.0967
548.429,886,-0.1138
549.447,887,-0.1349
550.458,888,-0.1407
551.423,889,-0.1474
552.443,890,-0.1635
553.418,891,-0.1462
554.446,892,-0.1614
555.401,893,-0.1669
556.439,894,-0.1412
557.416,895,-0.1364
558.413,896,-0.1728
559.424,897,-0.2330
560.416,898,-0.1613
561.404,899,-0.1671
562.416,900,-0.1632
563.397,901,-0.1946
564.410,902,-0.1514
565.412,903,-0.2293
566.403,904,-0.2368
567.386,905,-0.2539
568.366,906,-0.2360
569.373,907,-0.1730
570.368,908,-0.1508
571.381,909,-0.1243
572.368,910,-0.1181
573.367,911,-0.1278
574.410,912,-0.1574
575.402,913,-0.2311
576.395,914,-0.2888
577.396,915,-0.2448
578.386,916,-0.2787
579.359,917,-0.2384
580.353,918,-0.1749
581.347,919,-0.1846
582.354,920,-0.1572
583.319,921,-0.1474
584.324,922,-0.1068
585.327,923,-0.1136
586.368,924,-0.1074
587.340,925,-0.1730
588.334,926,-0.2177
589.326,927,-0.1914
590.305,928,-0.1595
591.298,929,-0.1503
592.314,930,-0.1244
593.299,931,-0.1353
594.269,932,-0.1115
595.289,933,-0.1198
596.304,934,-0.1458
597.287,935,-0.1077
598.298,936,-0.1460
599.274,937,-0.1517
600.288,938,-0.1644
601.272,939,-0.1566
602.262,940,-0.1706
603.253,941,-0.1717
604.242,942,-0.1794
605.234,943,-0.1812
606.238,944,-0.1926
607.226,945,-0.1635
608.236,946,-0.1920
609.236,947,-0.1992
610.232,948,-0.2452
611.219,949,-0.2391
612.226,950,-0.2108
613.212,951,-0.2302
614.221,952,-0.2114
615.199,953,-0.2239
616.207,954,-0.2066
617.209,955,-0.2382
618.195,956,-0.2202
619.179,957,-0.2231
620.174,958,-0.2430
621.169,959,-0.2262
622.168,960,-0.2130
623.162,961,-0.1955
624.163,962,-0.1903
625.141,963,-0.1644
626.126,964,-0.1960
627.135,965,-0.1873
628.126,966,-0.2199
629.076,967,-0.2311
630.099,968,-0.2526
631.103,969,-0.2117
632.098,970,-0.2115
633.094,971,-0.1401
634.111,972,-0.1382
635.071,973,-0.0977
636.088,974,-0.1400
637.060,975,-0.1660
638.004,976,-0.1067
639.078,977,-0.0977
640.074,978,-0.0653
641.040,979,-0.0216
642.060,980,-0.0275
643.054,981,-0.0471
644.041,982,-0.0057
644.968,983,-0.0059
646.016,984,-0.0021
647.028,985,-0.0388
647.995,986,0.0217
649.005,987,0.0226
650.016,988,-0.0013
651.007,989,-0.0278
652.000,990,-0.0134
652.966,991,0.0028
653.983,992,-0.0362
654.997,993,-0.0953
655.956,994,-0.0620
656.963,995,0.0292
657.944,996,0.0755
658.962,997,0.0097
659.915,998,0.0139
660.907,999,-0.0421
661.888,1000,-0.0435
662.915,1001,-0.0187
663.906,1002,0.0883
664.930,1003,0.1084
665.889,1004,0.0936
666.870,1005,0.0229
667.883,1006,-0.0534
668.863,1007,-0.0699
669.842,1008,-0.0270
670.835,1009,0.0325
671.829,1010,-0.0004
672.838,1011,0.0182
673.812,1012,0.0189
674.845,1013,0.0406
675.815,1014,0.0281
676.806,1015,0.0344
677.801,1016,0.0061
678.775,1017,0.0951
679.782,1018,0.0647
680.784,1019,0.0442
681.757,1020,0.0332
682.749,1021,0.0275
683.741,1022,0.0571
684.738,1023,0.1317
685.726,1024,0.1051
686.715,1025,0.0856
687.728,1026,0.0251
688.730,1027,0.0652
689.714,1028,0.0658
690.704,1029,0.0690
691.711,1030,0.0756
692.673,1031,0.0475
693.691,1032,0.0965
694.670,1033,0.0501
695.647,1034,0.0955
696.690,1035,0.1143
697.635,1036,0.1459
698.646,1037,0.1600
699.643,1038,0.1558
700.654,1039,0.1468
701.616,1040,0.2013
702.616,1041,0.1467
703.628,1042,0.1593
704.602,1043,0.1564
705.563,1044,0.1552
706.590,1045,0.1383
707.551,1046,0.1308
708.563,1047,0.1497
709.563,1048,0.1766
710.586,1049,0.1505
711.582,1050,0.2025
712.543,1051,0.1554
713.563,1052,0.1954
714.556,1053,0.1512
715.559,1054,0.1829
716.532,1055,0.1834
717.565,1056,0.1763
718.577,1057,0.1956
719.520,1058,0.1504
720.521,1059,0.1416
721.539,1060,0.1759
722.494,1061,0.1389
723.526,1062,0.1760
724.501,1063,0.1857
725.517,1064,0.1922
726.532,1065,0.2073
727.435,1066,0.1592
728.474,1067,0.1353
729.497,1068,0.1978
730.467,1069,0.1999
731.471,1070,0.2038
732.464,1071,0.1628
733.450,1072,0.1457
734.465,1073,0.1823
735.462,1074,0.1696
736.476,1075,0.1526
737.476,1076,0.1962
738.484,1077,0.1424
739.458,1078,0.1193
740.468,1079,0.1349
741.446,1080,0.1105
742.444,1081,0.1536
743.419,1082,0.0934
744.412,1083,0.1192
745.396,1084,0.1063
746.400,1085,0.1100
747.426,1086,0.1137
748.396,1087,0.1422
749.359,1088,0.1282
750.392,1089,0.1391
751.356,1090,0.1049
752.337,1091,0.1223
753.388,1092,0.0958
754.335,1093,0.1227
755.372,1094,0.1292
756.379,1095,0.0795
757.336,1096,0.0628
758.352,1097,0.0750
759.376,1098,0.0602
760.360,1099,0.0797
761.343,1100,0.0956
762.347,1101,0.0801
763.337,1102,0.0373
764.368,1103,0.0470
765.361,1104,0.0750
766.353,1105,0.0766
767.350,1106,0.0736
768.337,1107,0.0631
769.368,1108,0.0412
770.350,1109,0.0197
771.312,1110,-0.0423
772.347,1111,0.0173
773.311,1112,0.0439
774.287,1113,0.0466
775.313,1114,0.0112
776.303,1115,-0.0029
777.313,1116,0.0228
778.302,1117,0.0326
779.327,1118,0.0071
780.311,1119,-0.0173
781.334,1120,0.0339
782.287,1121,0.0088
783.310,1122,0.0046
784.266,1123,-0.0562
785.287,1124,-0.0245
786.326,1125,-0.0565
787.273,1126,-0.0181
788.262,1127,-0.0163
789.270,1128,-0.0209
790.288,1129,0.0071
791.248,1130,0.0324
792.258,1131,0.0221
793.215,1132,-0.0021
794.227,1133,-0.0087
795.226,1134,-0.0314
796.239,1135,-0.0199
797.237,1136,-0.0127
798.181,1137,-0.0125
799.196,1138,-0.0205
800.232,1139,-0.0557
801.196,1140,-0.0253
802.204,1141,0.0113
803.186,1142,0.0369
804.131,1143,0.0209
805.187,1144,-0.0118
806.192,1145,0.0262
807.153,1146,0.0157
808.173,1147,-0.0299
809.142,1148,-0.0351
810.154,1149,-0.0579
811.167,1150,-0.0562
812.132,1151,-0.0186
813.125,1152,-0.0455
814.119,1153,-0.0215
815.123,1154,-0.0603
816.110,1155,-0.0611
817.135,1156,-0.0341
818.096,1157,-0.0035
819.066,1158,0.0432
820.137,1159,0.0159
821.086,1160,0.0153
822.047,1161,-0.0211
823.046,1162,0.0781
824.037,1163,0.0855
825.089,1164,0.0957
826.042,1165,0.0580
827.011,1166,-0.0029
828.005,1167,0.0054
828.978,1168,-0.0193
830.007,1169,-0.0221
830.944,1170,-0.0464
831.964,1171,-0.0245
832.996,1172,-0.0094
833.962,1173,-0.0299
834.864,1174,-0.0298
835.896,1175,-0.0320
836.896,1176,-0.0299
837.890,1177,-0.0141
838.893,1178,-0.0451
839.894,1179,-0.0695
840.839,1180,-0.0111
841.906,1181,0.0120
842.871,1182,-0.0174
843.858,1183,-0.0542
844.836,1184,-0.0085
845.801,1185,-0.0122
846.830,1186,-0.0325
847.806,1187,-0.0205
848.781,1188,0.0255
849.781,1189,-0.0509
850.770,1190,-0.0609
851.745,1191,-0.1095
852.699,1192,-0.0765
853.710,1193,-0.0956
854.699,1194,-0.0314
855.702,1195,-0.0491
856.666,1196,-0.0296
857.645,1197,-0.0427
858.612,1198,0.0340
859.624,1199,-0.0233
860.590,1200,-0.0419
861.573,1201,-0.0038
862.564,1202,-0.0260
863.530,1203,-0.0164
864.480,1204,-0.0332
865.561,1205,-0.0245
866.483,1206,-0.0418
867.534,1207,-0.0484
868.425,1208,-0.0443
869.467,1209,-0.0759
870.479,1210,-0.0540
871.405,1211,-0.0633
872.434,1212,-0.0300
873.453,1213,0.0115
874.415,1214,0.0122
875.406,1215,0.0285
876.371,1216,0.0272
877.358,1217,0.0524
878.368,1218,0.0117
879.358,1219,0.0421
880.346,1220,-0.0231
881.388,1221,-0.0685
882.426,1222,-0.0846
883.428,1223,-0.0279
884.470,1224,-0.0338
885.489,1225,0.0065
886.566,1226,-0.0297
887.655,1227,-0.0151
888.710,1228,-0.0249
889.823,1229,0.0029
890.936,1230,0.0041
892.087,1231,0.0182
893.172,1232,-0.0253
894.283,1233,-0.0444
895.493,1234,-0.1524
896.643,1235,-0.0712
897.882,1236,-0.0716
899.076,1237,-0.0582
900.386,1238,-0.0620
901.536,1239,-0.0704
902.903,1240,-0.1080
904.190,1241,-0.0653
905.609,1242,-0.0872
907.052,1243,-0.0701
908.371,1244,-0.0646
909.838,1245,-0.0663
910.591,1245.5,-0.0765