File: Non-charring/PMMA/Edinburgh/Edinburgh_Cone_25kW_2.csv
Time,Mass,HRR,Temperature Backing Centre
[s],[g],[kW/m2],[K]
0,12.2867,-0.2,289.25
1,11.8967,-0.3,289.25
2,12.0467,-0.3,289.25
3,12.1367,-0.5,289.25
4.1,12.1767,-0.4,289.25
5.1,51.8667,-0.3,289.25
6.1,48.8367,3.1,289.35
7.1,1.89667,3,289.25
8.1,41.1067,3,289.25
9.1,20.8967,3,289.25
10.1,21.9867,2.9,289.35
11.2,27.6567,3,289.25
12.2,69.3267,2.8,289.25
13.2,69.3267,2.8,289.25
14.2,69.1067,2.8,289.25
15.2,69.1767,3,289.35
16.2,69.1767,2.9,289.25
17.2,69.2667,2.9,289.35
18.3,69.2367,2.9,289.25
19.3,69.1867,2.8,289.35
20.3,69.1667,2.7,289.35
21.3,69.1767,2.8,289.35
22.3,69.1767,2.8,289.35
23.3,69.1867,2.8,289.35
24.3,69.1767,2.8,289.35
25.3,69.1667,2.8,289.35
26.4,69.1667,2.9,289.35
27.4,69.1667,2.8,289.35
28.4,69.1467,2.7,289.35
29.4,69.1467,6.2,289.35
30.4,69.1467,6.2,289.35
31.4,69.1367,6,289.45
32.4,69.1367,5.9,289.35
33.5,69.1267,5.9,289.35
34.5,69.1167,5.7,289.45
35.5,69.1167,5.6,289.45
36.5,69.1067,5.6,289.45
37.5,69.0967,5.5,289.45
38.5,69.0867,5.6,289.45
39.6,69.0767,5.7,289.45
40.6,69.0767,5.7,289.45
41.6,69.0767,5.5,289.55
42.6,69.0667,5.4,289.45
43.6,69.0667,5.7,289.55
44.6,69.0567,2.1,289.55
45.6,69.0467,2.2,289.55
46.6,69.0467,2.3,289.55
47.7,69.0367,2.2,289.55
48.7,69.0267,2.3,289.65
49.7,69.0267,2.4,289.65
50.7,69.0267,2.4,289.65
51.7,69.0267,2.4,289.65
52.7,69.0167,2.4,289.65
53.7,68.9967,2.4,289.65
54.8,68.9767,2.5,289.65
55.8,68.9667,-0.9,289.75
56.8,68.9567,-0.8,289.75
57.8,68.9467,-0.9,289.75
58.8,68.9467,-0.8,289.75
59.8,68.9367,-0.9,289.85
60.8,68.9267,-0.8,289.75
61.9,68.9267,-0.8,289.85
62.9,68.9167,-0.7,289.85
63.9,68.9167,-0.8,289.85
64.9,68.9067,-0.9,289.95
66.7,68.8567,-0.6,289.95
67.5,68.8567,-0.6,289.95
68.2,68.8667,-0.6,289.95
69,68.8767,-0.5,289.95
70,68.8767,-0.6,290.05
71,68.8767,-0.6,290.05
72,68.8767,-0.7,290.05
73,68.8767,-0.6,290.15
74,68.8667,-0.2,290.15
75,68.8567,-0.3,290.15
76.1,68.8567,-0.3,290.15
77.1,68.8567,-0.4,290.25
78.1,68.8667,-0.4,290.25
79.1,68.8567,-0.2,290.25
80.1,68.8367,-0.2,290.35
81.1,68.8167,-0.4,290.35
82.1,68.8167,-0.5,290.35
83.1,68.8067,-0.6,290.45
84.2,68.8067,-0.4,290.45
85.2,68.8067,-3.7,290.45
86.2,68.7967,-3.7,290.55
87.2,68.7867,-3.8,290.55
88.2,68.7767,-3.9,290.65
89.2,68.7667,-3.9,290.55
90.2,68.7567,-3.8,290.65
91.3,68.7467,-3.9,290.75
92.3,68.7367,-4.1,290.75
93.3,68.7167,-4.1,290.75
94.3,68.7167,-0.6,290.85
95.3,68.7067,-0.3,290.85
96.3,68.7067,-0.4,290.95
97.3,68.6967,-4,290.95
98.4,68.6767,-0.4,291.05
99.4,68.6667,-0.4,291.05
100.4,68.6467,-0.4,291.15
101.4,68.6367,-4.1,291.15
102.4,68.6367,-4,291.25
103.4,68.6167,-3.9,291.25
104.4,68.5867,-0.4,291.35
105.5,68.5667,1,291.35
106.5,68.5267,-1.7,291.45
107.5,68.4867,-3.9,291.55
108.5,68.4267,-3.9,291.55
109.5,68.3667,-3.8,291.65
110.5,68.2967,-0.5,291.75
111.5,68.2267,-0.7,291.75
112.6,68.1367,-0.5,291.85
113.6,68.0167,-0.5,291.85
114.6,67.9067,-0.4,291.95
115.6,67.7967,-0.4,292.05
116.6,67.6667,-0.5,292.05
117.6,67.5567,-0.5,292.15
118.6,67.4367,-0.3,292.25
119.7,67.3167,-0.3,292.35
120.7,67.1867,2.6,292.35
121.7,67.0567,8.8,292.45
122.7,66.9367,11.9,292.55
123.7,66.8267,16.5,292.65
124.7,66.7167,26.1,292.75
125.7,66.5867,33.1,292.85
126.8,66.4567,49.7,292.95
127.8,66.3367,59.9,293.05
128.8,66.2267,65.4,293.15
129.8,66.0967,77.9,293.25
130.8,65.9567,92.2,293.45
131.8,65.8267,104,293.55
132.8,65.7067,119.3,293.65
133.8,65.5767,136.4,293.85
134.9,65.4567,141.7,293.95
135.9,65.3367,149.4,294.05
136.9,65.2067,162.3,294.15
137.9,65.0767,170.3,294.35
138.9,64.9467,181.6,294.45
139.9,64.8167,182.2,294.55
140.9,64.6967,192.1,294.75
142,64.5667,202.4,294.85
143,64.4367,205.2,294.95
144,64.3067,211.7,295.15
145,64.1867,214.7,295.25
146,64.0667,235.2,295.45
147,63.9367,225.4,295.55
148,63.8067,240,295.65
149.1,63.6867,231.2,295.75
150.1,63.5667,237.3,295.95
151.1,63.4367,243.5,296.05
152.1,63.2967,251.5,296.25
153.1,63.1667,250.6,296.35
154.1,63.0367,257.7,296.45
155.1,62.9167,264.3,296.65
156.2,62.7967,259.7,296.75
157.2,62.6567,259.3,296.85
158.2,62.5167,266.4,297.05
159.2,62.3867,263.7,297.15
160.2,62.2567,264.7,297.25
161.2,62.1267,274.3,297.45
162.2,62.0067,275.9,297.55
163.3,61.8767,276.1,297.65
164.3,61.7467,273.6,297.85
165.3,61.6067,271.3,297.95
166.3,61.4767,284.8,298.25
168.1,61.2467,284,298.35
168.9,61.1567,275.7,298.45
169.6,61.0667,288.2,298.55
170.4,60.9667,283.2,298.75
171.4,60.8467,283,298.85
172.4,60.7067,291.6,299.05
173.4,60.5667,286.4,299.15
174.4,60.4567,287.2,299.35
175.4,60.3267,287.7,299.45
176.4,60.1867,297.7,299.65
177.5,60.0567,289.1,299.75
178.5,59.9167,291.6,299.85
179.5,59.7867,292.3,300.05
180.5,59.6767,298,300.15
181.5,59.5467,287,300.35
182.5,59.3967,301.7,300.45
183.5,59.2567,296.9,300.65
184.5,59.1167,298.8,300.75
185.6,58.9967,301.1,300.85
186.6,58.8767,298.9,300.95
187.6,58.7467,293.7,301.15
188.6,58.6067,305.7,301.35
189.6,58.4867,295.6,301.45
190.6,58.3567,294.1,301.55
191.6,58.2267,291.2,301.75
192.7,58.1067,296.3,301.85
193.7,57.9767,294,301.95
194.7,57.8667,308.3,302.15
195.7,57.7567,305.5,302.25
196.7,57.6367,303,302.35
197.7,57.5167,302.1,302.55
198.7,57.3967,298,302.65
199.8,57.2667,306.1,302.75
200.8,57.1467,299.1,302.85
201.8,57.0167,304.4,303.05
202.8,56.8667,304.6,303.15
203.8,56.7367,296.9,303.35
204.8,56.6267,306.1,303.45
205.8,56.5067,308.8,303.55
206.9,56.3767,316.5,303.75
207.9,56.2367,300.2,303.85
208.9,56.0867,304,303.95
209.9,55.9467,305.9,304.15
210.9,55.8067,300.3,304.25
211.9,55.6767,296.5,304.35
212.9,55.5567,312.5,304.55
214,55.4267,298.9,304.65
215,55.2967,304.8,304.75
216,55.1567,305,304.95
217,55.0167,308.8,305.05
218,54.8767,297.8,305.15
219,54.7567,299,305.35
220,54.6167,302.6,305.55
221.1,54.4767,302.4,305.65
222.1,54.3567,303.7,305.75
223.1,54.2167,314.6,305.95
224.1,54.0967,305.4,306.05
225.1,53.9767,306.9,306.15
226.1,53.8367,302.8,306.35
227.1,53.6867,308.7,306.45
228.2,53.5567,310.5,306.65
229.2,53.4267,315.6,306.75
230.2,53.3167,306.5,306.95
231.2,53.1967,306.9,307.05
232.2,53.0767,310.9,307.25
233.2,52.9467,307.3,307.35
234.2,52.8067,313.9,307.45
235.3,52.6667,307.4,307.65
236.3,52.5467,304.9,307.75
237.3,52.4267,307.6,307.95
238.3,52.2967,312,308.05
239.3,52.1467,306.1,308.15
240.3,52.0167,312.2,308.35
241.3,51.9067,316.8,308.45
242.3,51.7667,302.7,308.65
243.4,51.6267,314.4,308.75
244.4,51.4967,312.6,308.95
245.4,51.3667,306.6,309.05
246.4,51.2367,310.2,309.25
247.4,51.1067,315.6,309.35
248.4,50.9767,316.3,309.45
249.4,50.8567,314.6,309.65
250.5,50.7267,308.2,309.75
251.5,50.5767,311.4,309.95
252.5,50.4367,306.7,310.15
253.5,50.3067,302.8,310.25
254.5,50.1767,311.7,310.35
255.5,50.0367,292.4,310.55
256.5,49.9067,306.4,310.65
257.6,49.7767,302.9,310.85
258.6,49.6267,300.9,310.95
259.6,49.4867,322.6,311.15
260.6,49.3467,305.2,311.25
261.6,49.2067,304.6,311.45
262.6,49.0767,320.5,311.55
263.6,48.9467,309.8,311.75
264.7,48.8067,317.9,311.85
265.7,48.6767,308,312.05
266.7,48.5467,313.5,312.15
267.7,48.3967,310,312.35
269.5,48.1667,315.6,312.55
270.2,48.0667,313.8,312.65
271,47.9567,313.6,312.75
271.8,47.8367,323.9,312.95
272.8,47.7067,322.3,313.05
273.8,47.5667,319.7,313.15
274.8,47.4167,320.5,313.35
275.8,47.2667,314.9,313.45
276.8,47.1267,318.4,313.65
277.8,46.9967,318.5,313.75
278.9,46.8567,313.2,313.85
279.9,46.7067,320.5,314.05
280.9,46.5667,317,314.25
281.9,46.4367,319,314.35
282.9,46.3067,323.4,314.55
283.9,46.1667,315.8,314.65
284.9,46.0267,326.2,314.75
286,45.8767,330.5,314.95
287,45.7267,328.5,315.15
288,45.5967,326.2,315.25
289,45.4567,321.8,315.45
290,45.3067,327.4,315.55
291,45.1567,320.2,315.75
292,45.0167,328.7,315.85
293,44.8767,326.3,316.05
294.1,44.7467,320,316.15
295.1,44.6167,333.8,316.35
296.1,44.4767,327.2,316.45
297.1,44.3267,326.6,316.65
298.1,44.2067,331.2,316.75
299.1,44.0567,324.6,316.95
300.1,43.9067,325.3,317.05
301.2,43.7567,335.8,317.15
302.2,43.6167,328.2,317.35
303.2,43.4867,324.9,317.45
304.2,43.3367,340.7,317.65
305.2,43.1967,331.5,317.75
306.2,43.0367,334.6,317.95
307.2,42.8767,332.6,318.05
308.3,42.7367,327.6,318.25
309.3,42.5867,325.1,318.45
310.3,42.4467,326,318.55
311.3,42.3067,328.5,318.75
312.3,42.1667,328.8,318.85
313.3,42.0067,328.5,319.05
314.3,41.8667,330,319.15
315.4,41.7167,325.2,319.35
316.4,41.5667,331.8,319.55
317.4,41.4267,332.9,319.65
318.4,41.2767,330.2,319.75
319.4,41.1267,330.3,320.25
322.2,40.6967,337.6,320.35
323,40.5767,334.8,320.45
323.7,40.4667,346.4,320.55
324.5,40.3567,339.7,320.75
325.5,40.2067,336.2,320.85
326.5,40.0567,353.7,321.05
327.5,39.9067,338.1,321.15
328.5,39.7667,335.2,321.35
329.6,39.6067,348.6,321.45
330.6,39.4567,337.2,321.65
331.6,39.2967,340,321.75
332.6,39.1567,341.1,321.95
333.6,39.0267,348.4,322.05
334.6,38.8767,347.5,322.25
335.6,38.7167,347.9,322.35
336.7,38.5567,343.8,322.55
337.7,38.4067,341.9,322.75
338.7,38.2467,356,322.85
339.7,38.0967,341.1,323.05
340.7,37.9367,344.7,323.15
341.7,37.7667,346.6,323.25
342.7,37.6067,358.2,323.45
343.7,37.4567,346.1,323.65
344.8,37.3067,347.8,323.75
345.8,37.1467,352.6,323.95
346.8,36.9767,350.6,324.05
347.8,36.8267,357.1,324.25
348.8,36.6767,356.1,324.45
349.8,36.5267,349.2,324.55
350.8,36.3667,340.6,324.75
351.9,36.2067,354.2,324.95
352.9,36.0667,353.7,325.05
353.9,35.8967,353.6,325.25
354.9,35.7367,350.5,325.45
355.9,35.5767,366.4,325.55
356.9,35.4267,356.7,325.75
357.9,35.2667,363.6,325.95
359,35.1067,358.7,326.15
360,34.9467,357.5,326.35
361,34.7867,364.5,326.55
362,34.6467,366.1,326.65
363,34.4867,364.3,326.95
364,34.3267,365.8,327.05
365,34.1767,367.9,327.35
366.1,34.0267,369.6,327.55
367.1,33.8667,369,327.75
368.1,33.7067,359.5,327.95
369.1,33.5567,363.6,328.25
370.1,33.3967,369.6,328.55
371.8,33.1467,372.5,328.75
372.5,33.0267,360.4,328.95
373.3,32.9167,368.2,329.15
374.2,32.7867,373.4,329.35
375.2,32.6367,374.4,329.55
376.2,32.4767,368.5,329.85
377.2,32.3267,371.1,330.05
378.2,32.1567,371.1,330.35
379.2,32.0167,370.3,330.55
380.3,31.8667,367.8,330.75
381.3,31.7167,365,331.05
382.3,31.5667,366.9,331.25
383.3,31.4367,374,331.45
384.3,31.2867,373.8,331.75
385.3,31.1367,373.8,331.95
386.3,30.9867,368.7,332.25
387.4,30.8367,379,332.45
388.4,30.6767,379.1,332.75
389.4,30.5367,371.7,332.95
390.4,30.3967,372.4,333.25
391.4,30.2467,365.3,333.45
392.4,30.0967,374.3,333.75
393.4,29.9467,375.3,333.95
394.4,29.8167,365.6,334.15
395.5,29.6667,375.5,334.45
396.5,29.5267,369.9,334.75
397.5,29.3767,364.9,334.95
398.5,29.2267,375.9,335.25
399.5,29.0667,361.3,335.55
400.5,28.9267,367.7,335.75
401.5,28.7767,367,336.05
402.6,28.6267,358.9,336.35
403.6,28.4967,368.3,336.55
404.6,28.3467,354.4,336.85
405.6,28.1967,349,337.15
406.6,28.0567,373.1,337.45
407.6,27.9067,351.2,337.75
408.6,27.7667,359.7,337.95
409.7,27.6267,365.3,338.25
410.7,27.4967,361,338.55
411.7,27.3567,361,338.85
412.7,27.2167,352.3,339.15
413.7,27.0767,356.2,339.35
414.7,26.9467,365.4,339.65
415.7,26.8367,354.6,339.95
416.8,26.7067,350.8,340.25
417.8,26.5567,350.7,340.55
418.8,26.4167,350,340.85
419.8,26.2867,353,341.05
420.8,26.1467,366.8,341.45
421.8,26.0067,346.5,341.75
422.8,25.8867,354.9,341.95
423.9,25.7667,345.8,342.25
424.9,25.6367,346.7,342.55
425.9,25.5067,349.1,342.85
426.9,25.3567,345.5,343.15
427.9,25.2267,353.4,343.45
428.9,25.1067,348.9,343.75
429.9,24.9767,346,344.05
431,24.8467,339.5,344.35
432,24.7267,334.8,344.65
433,24.5967,335.7,344.95
434,24.4667,338.2,345.25
435,24.3367,335.7,345.55
436,24.1967,331.3,345.85
437,24.0667,331.4,346.15
438.1,23.9567,327.5,346.45
439.1,23.8367,332.7,346.75
440.1,23.7267,327.7,347.05
441.1,23.5967,332.8,347.35
442.1,23.4667,320.1,347.65
443.1,23.3467,319.8,347.95
444.1,23.2367,315.7,348.25
445.1,23.1267,323.4,348.55
446.2,23.0267,323.9,348.85
447.2,22.9067,308.3,349.15
448.2,22.7767,311.4,349.45
449.2,22.6567,321.5,349.75
450.2,22.5267,313.8,350.05
451.2,22.4067,309.4,350.35
452.2,22.2867,296.3,350.65
453.3,22.1567,303.5,350.95
454.3,22.0367,307.5,351.25
455.3,21.9267,312.6,351.65
456.3,21.8267,307.3,351.95
457.3,21.7067,304.4,352.25
458.3,21.5967,298.5,352.55
459.3,21.4767,304.9,352.85
460.4,21.3667,294.1,353.15
461.4,21.2467,310,353.45
462.4,21.1267,294.8,353.85
463.4,21.0067,298.6,354.15
464.4,20.8867,294.8,354.45
465.4,20.7767,295,354.75
466.4,20.6567,301,355.15
467.5,20.5367,283.7,355.35
468.5,20.4267,293.7,355.75
469.5,20.3067,285.5,356.05
470.5,20.1967,295.5,356.35
471.5,20.0767,289.3,356.95
473.3,19.8667,288.5,357.15
474.1,19.7767,291.8,357.45
474.8,19.6867,287.8,357.65
475.6,19.5967,289.7,357.95
476.6,19.4867,291.9,358.35
477.6,19.3567,287.1,358.65
478.6,19.1967,272.4,359.05
479.6,19.0767,294.5,359.35
480.7,18.9667,288.6,359.65
481.7,18.8367,278.1,359.95
482.7,18.7267,281.2,360.35
483.7,18.6267,279.4,360.65
484.7,18.5267,278.8,360.95
485.7,18.4167,279.5,361.35
486.7,18.3067,276.5,361.65
487.8,18.2067,284.8,361.95
488.8,18.0967,288.2,362.35
489.8,17.9767,275.4,362.65
490.8,17.8667,277.4,363.05
491.8,17.7567,281.5,363.35
492.8,17.6467,285.8,363.75
493.8,17.5367,275.2,364.05
494.9,17.4167,278.9,364.35
495.9,17.3267,277.6,364.75
496.9,17.2267,271.8,365.05
497.9,17.1167,278.6,365.45
498.9,17.0067,270.9,365.75
499.9,16.8867,273.1,366.15
500.9,16.7767,277.2,366.45
501.9,16.6567,277.1,366.85
503,16.5467,275.3,367.15
504,16.4567,275.4,367.55
505,16.3567,264.1,367.95
506,16.2367,272,368.25
507,16.1367,278.1,368.55
508,16.0467,267.6,368.95
509,15.9467,276.5,369.35
510.1,15.8267,275.3,369.65
511.1,15.7167,264.3,370.05
512.1,15.6267,273.8,370.35
513.1,15.5367,268.2,370.75
514.1,15.4467,265.2,371.05
515.1,15.3467,266.9,371.15
516.1,15.2567,265.6,371.25
517.2,15.1467,262.3,371.25
518.2,15.0567,268.6,371.25
519.2,14.9567,270.5,371.15
520.2,14.8767,265.9,370.95
521.2,14.7767,257.4,370.95
522.2,14.6867,259.9,370.95
523.2,14.6067,253.8,370.95
524.3,14.5067,253.7,371.05
525.3,14.3967,257.7,371.05
526.3,14.2867,254.1,371.15
527.3,14.1867,248.4,371.55
528.3,14.0967,253.9,372.05
529.3,14.0067,250.6,372.65
530.3,13.8867,249.1,373.35
531.4,13.7767,243.2,374.05
532.4,13.6767,249,374.65
533.4,13.5867,245.8,375.35
534.4,13.5167,237.6,375.85
535.4,13.4467,236.7,376.35
536.4,13.3767,237.6,376.85
537.4,13.2967,237.5,377.35
538.5,13.2367,229.5,377.85
539.5,13.1667,229.3,378.35
540.5,13.0867,226.6,378.75
541.5,13.0067,231.8,379.15
542.5,12.9467,231.4,379.55
543.5,12.8767,230.5,380.05
544.5,12.8067,221.3,380.45
545.6,12.7367,218.9,380.85
546.6,12.6567,224.8,381.25
547.6,12.5767,217,381.65
548.6,12.4867,216.6,382.05
549.6,12.4167,217.3,382.45
550.6,12.3467,211.2,382.95
551.6,12.2767,208.9,383.35
552.6,12.2067,207.7,383.75
553.7,12.1267,208.3,384.15
554.7,12.0667,206.8,384.55
555.7,11.9967,206.3,384.95
556.7,11.9367,209.4,385.35
557.7,11.8767,202.6,385.75
558.7,11.8067,194,386.25
559.7,11.7267,197.9,386.65
560.8,11.6567,197.3,387.05
561.8,11.5967,196.5,387.45
562.8,11.5267,195.6,387.95
563.8,11.4667,192.5,388.35
564.8,11.3967,193.2,388.75
565.8,11.3167,187.6,389.15
566.8,11.2467,185.3,389.65
567.9,11.1967,185.3,390.05
568.9,11.1567,186.6,390.45
569.9,11.0967,180,390.95
570.9,11.0367,182.4,391.35
571.9,10.9667,179.3,391.75
572.9,10.9167,174.5,392.65
574.9,10.8367,173.7,392.95
575.6,10.7867,170,393.25
576.4,10.7367,168.7,393.65
577.1,10.6967,168.9,393.95
578,10.6467,168.1,394.45
579,10.5967,166.4,394.85
580,10.5467,163.1,395.25
581,10.4867,158.6,395.75
582.1,10.4267,164.7,396.15
583.1,10.3867,158.3,396.65
584.1,10.3567,156,397.05
585.1,10.3167,159.1,397.55
586.1,10.2567,155.3,398.05
587.1,10.2067,156.2,398.45
588.1,10.1467,153.7,398.95
589.2,10.0967,146.6,399.35
590.2,10.0467,150.8,399.85
591.2,9.99667,148.2,400.25
592.2,9.93667,147.5,400.75
593.2,9.87667,140.7,401.15
594.2,9.83667,144.6,401.65
595.2,9.79667,141.5,402.05
596.2,9.74667,141.2,402.55
597.3,9.68667,140.9,402.95
598.3,9.63667,136.7,403.45
599.3,9.60667,137.8,403.85
600.3,9.56667,133.4,404.35
601.3,9.52667,134.9,404.75
602.3,9.48667,131.7,405.25
603.3,9.45667,131.6,405.65
604.4,9.40667,132.4,406.15
605.4,9.36667,127.5,406.55
606.4,9.31667,127.2,407.05
607.4,9.26667,125.2,407.45
608.4,9.22667,126.5,407.95
609.4,9.18667,119.9,408.35
610.4,9.15667,121.2,408.85
611.5,9.11667,124.3,409.25
612.5,9.07667,118.4,409.75
613.5,9.04667,118.2,410.15
614.5,8.99667,117.2,410.55
615.5,8.94667,115.4,411.05
616.5,8.90667,115.6,411.45
617.5,8.86667,115.1,411.95
618.6,8.83667,113.7,412.35
619.6,8.80667,109.9,412.75
620.6,8.77667,111.2,413.25
621.6,8.72667,107.5,413.65
622.6,8.67667,108,414.05
623.6,8.63667,103.1,414.55
624.6,8.59667,105.2,414.95
625.7,8.57667,102.5,415.35
626.7,8.54667,106.1,415.85
627.7,8.52667,103.7,416.25
628.7,8.49667,100.4,416.65
629.7,8.46667,98.9,417.15
630.7,8.41667,98.1,417.55
631.7,8.37667,97.3,417.95
632.8,8.33667,96.4,418.45
633.8,8.31667,95.3,418.85
634.8,8.29667,93.1,419.25
635.8,8.24667,94.6,419.75
636.8,8.20667,96.1,420.15
637.8,8.16667,89.1,420.55
638.8,8.12667,90.7,420.95
639.9,8.10667,88.6,421.45
640.9,8.08667,86.2,421.85
641.9,8.06667,88,422.25
642.9,8.03667,84.4,422.65
643.9,8.01667,86.1,423.05
644.9,7.98667,85.8,423.45
645.9,7.95667,82.8,423.85
646.9,7.91667,81.9,424.25
648,7.87667,83,424.75
649,7.85667,81.9,425.15
650,7.84667,82.5,425.55
651,7.81667,80.9,425.95
652,7.77667,77.1,426.35
653,7.75667,77.9,426.75
654,7.74667,76.3,427.15
655.1,7.71667,76.5,427.65
656.1,7.70667,74.8,428.05
657.1,7.68667,73.6,428.45
658.1,7.67667,74,428.85
659.1,7.64667,71.9,429.25
660.1,7.62667,69.6,429.65
661.1,7.59667,71.8,430.05
662.2,7.56667,68.1,430.45
663.2,7.54667,68.7,430.85
664.2,7.52667,67.9,431.25
665.2,7.49667,66,431.65
666.2,7.47667,66.7,432.05
667.2,7.45667,63.3,432.45
668.2,7.43667,63.5,432.85
669.3,7.41667,62.5,433.25
670.3,7.37667,59.1,433.65
671.3,7.36667,61.4,433.95
672.3,7.34667,61.4,434.45
673.3,7.33667,58.2,434.85
674.3,7.31667,58.2,435.45
676.1,7.28667,59.9,435.75
676.8,7.27667,56.3,435.95
677.6,7.26667,56.1,436.25
678.4,7.25667,55.2,436.65
679.4,7.24667,56.5,437.05
680.4,7.23667,56.2,437.35
681.4,7.20667,54.1,437.75
682.4,7.18667,53.8,438.15
683.5,7.17667,54.3,438.45
684.5,7.16667,54.1,438.85
685.5,7.12667,53.9,439.15
686.5,7.09667,50.7,439.55
687.5,7.07667,50.7,439.95
688.5,7.04667,50.4,440.25
689.5,7.01667,51.1,440.65
690.5,6.99667,51.2,441.05
691.6,6.97667,49.8,441.35
692.6,6.94667,51.4,441.75
693.6,6.91667,52.1,442.15
694.6,6.88667,47.6,442.45
695.6,6.86667,47.8,442.85
696.6,6.83667,48.2,443.15
697.6,6.80667,48.8,443.55
698.7,6.77667,49.4,443.85
699.7,6.74667,48.4,444.25
700.7,6.71667,48.6,444.65
701.7,6.69667,48.1,445.05
702.7,6.67667,48.5,445.35
703.7,6.66667,45,445.75
704.7,6.63667,44.1,446.15
705.8,6.60667,45,446.45
706.8,6.58667,45.5,446.85
707.8,6.56667,46,447.25
708.8,6.53667,45.3,447.55
709.8,6.51667,45.2,447.95
710.8,6.51667,42.5,448.25
711.8,6.49667,42.5,448.55
712.9,6.47667,42.2,448.95
713.9,6.46667,42.5,449.35
714.9,6.45667,42,449.65
715.9,6.43667,43.2,450.05
716.9,6.41667,43.1,450.45
717.9,6.39667,42.7,450.75
718.9,6.38667,42.6,451.05
720,6.36667,43.5,451.45
721,6.34667,42.8,451.75
722,6.34667,42.6,452.05
723,6.32667,43.8,452.45
724,6.31667,43.6,452.75
725,6.29667,43.2,453.05
726,6.28667,39.3,453.45
727.1,6.27667,40.2,453.75
728.1,6.26667,39.1,454.15
729.1,6.26667,40.4,454.45
730.1,6.25667,40.9,454.75
731.1,6.24667,40.8,455.05
732.1,6.22667,40.4,455.35
733.1,6.20667,40.1,455.75
734.2,6.17667,40.1,456.05
735.2,6.16667,40.3,456.45
736.2,6.17667,36.8,456.65
737.2,6.14667,37.1,457.05
738.2,6.11667,37.5,457.35
739.2,6.09667,37.2,457.65
740.2,6.08667,38.1,457.95
741.2,6.08667,37.9,458.25
742.3,6.08667,37.4,458.55
743.3,6.07667,37.6,458.95
744.3,6.05667,34.2,459.25
745.3,6.04667,34.1,459.55
746.3,6.01667,34.7,459.85
747.3,5.99667,34.9,460.25
748.3,5.97667,35.1,460.55
749.4,5.95667,34.3,460.85
750.4,5.93667,34.5,461.15
751.4,5.92667,31.4,461.45
752.4,5.90667,31.3,461.85
753.4,5.89667,31.6,462.15
754.4,5.87667,31.6,462.45
755.4,5.84667,31.7,462.75
756.5,5.83667,31.7,463.15
757.5,5.82667,31.9,463.35
758.5,5.82667,32.1,463.75
759.5,5.81667,28.6,464.05
760.5,5.79667,28.2,464.35
761.5,5.76667,28.9,464.65
762.5,5.75667,29.1,464.95
763.6,5.75667,28.5,465.25
764.6,5.74667,29.3,465.55
765.6,5.72667,29.3,465.85
766.6,5.70667,29.1,466.15
767.6,5.68667,28.1,466.45
768.6,5.66667,29.4,466.75
769.6,5.64667,29.3,467.05
770.7,5.61667,29.6,467.35
771.7,5.59667,29.2,467.65
772.7,5.58667,29,467.95
773.7,5.57667,29.9,468.25
774.7,5.55667,29.3,468.55
775.7,5.53667,29.1,469.05
777.4,5.48667,28.3,469.25
778.1,5.46667,29.6,469.45
778.9,5.46667,29,469.75
779.8,5.46667,29.2,470.05
780.8,5.46667,29.1,470.35
781.8,5.44667,28.6,470.65
782.8,5.42667,28.9,470.85
783.8,5.39667,29.4,471.15
784.8,5.38667,29.3,471.45
785.9,5.37667,29.1,471.75
786.9,5.37667,28.9,472.05
787.9,5.36667,29.5,472.35
788.9,5.35667,29.4,472.65
789.9,5.33667,30,472.85
790.9,5.32667,29.3,473.15
791.9,5.30667,29.3,473.45
793,5.29667,29.8,473.75
794,5.29667,29.5,474.05
795,5.29667,29.5,474.25
796,5.28667,30.7,474.55
797,5.27667,30.1,474.85
798,5.25667,26.2,475.15
799,5.24667,26.1,475.45
800.1,5.24667,26.4,475.65
801.1,5.23667,26.4,475.95
802.1,5.21667,26.6,476.25
803.1,5.19667,26.1,476.55
804.1,5.18667,26.4,476.85
805.1,5.16667,27.3,477.15
806.1,5.14667,27,477.45
807.2,5.13667,26.6,477.75
808.2,5.12667,26.4,477.95
809.2,5.11667,27.2,478.25
810.2,5.10667,27.2,478.55
811.2,5.09667,27.1,478.85
812.2,5.09667,27.3,479.15
813.2,5.08667,27.2,479.45
814.3,5.06667,27,479.65
815.3,5.06667,27.2,479.95
816.3,5.05667,27.4,480.25
817.3,5.04667,27.3,480.55
818.3,5.02667,28,480.75
819.3,5.01667,27.2,481.05
820.3,4.99667,27.2,481.35
821.4,4.96667,24,481.55
822.4,4.95667,24.5,481.85
823.4,4.94667,24.5,482.15
824.4,4.94667,24.7,482.45
825.4,4.94667,24.3,482.65
826.4,4.94667,23.9,482.95
827.4,4.93667,24.7,483.25
828.5,4.91667,23.5,483.55
829.5,4.88667,24,483.75
830.5,4.87667,23.3,484.05
831.5,4.89667,24.4,484.25
832.5,4.89667,23.6,484.65
833.5,4.88667,24,484.85
834.5,4.87667,24.1,485.15
835.5,4.89667,24.5,485.45
836.6,4.89667,23.9,485.65
837.6,4.88667,24.1,485.95
838.6,4.88667,24.7,486.25
839.6,4.88667,24.6,486.45
840.6,4.86667,24.6,486.75
841.6,4.85667,24.3,486.95
842.6,4.84667,24.2,487.25
843.7,4.82667,24,487.45
844.7,4.79667,24.5,487.75
845.7,4.78667,25.1,488.05
846.7,4.78667,24.2,488.25
847.7,4.75667,24.2,488.55
848.7,4.74667,24.2,488.75
849.7,4.73667,23.9,489.05
850.8,4.72667,24,489.25
851.8,4.71667,24.4,489.55
852.8,4.70667,23.9,489.85
853.8,4.69667,24.1,490.05
854.8,4.71667,23.8,490.35
855.8,4.71667,24.3,490.55
856.8,4.71667,24,490.85
857.9,4.70667,24.2,491.15
858.9,4.68667,24,491.35
859.9,4.66667,23.9,491.65
860.9,4.65667,23.3,491.85
861.9,4.64667,23.7,492.15
862.9,4.63667,24.1,492.35
863.9,4.62667,24.3,492.65
865,4.62667,20.6,492.85
866,4.63667,20.8,493.15
867,4.63667,21.4,493.35
868,4.62667,20.7,493.65
869,4.60667,21.1,493.85
870,4.59667,20.7,494.15
871,4.58667,21.3,494.45
872.1,4.57667,20.8,494.65
873.1,4.54667,20.4,494.85
874.1,4.52667,21.2,495.15
875.1,4.50667,21.5,495.45
876.1,4.47667,21.3,495.65
877.1,4.44667,20.8,496.05
878.9,4.45667,20.7,496.25
879.7,4.45667,21.7,496.45
880.4,4.44667,21.2,496.65
881.2,4.42667,21,496.85
882.2,4.41667,21.1,497.05
883.2,4.40667,21.2,497.35
884.2,4.38667,21,497.55
885.2,4.36667,21.3,497.75
886.2,4.35667,21.3,498.05
887.3,4.35667,20.7,498.25
888.3,4.34667,21,498.45
889.3,4.32667,20.7,498.75
890.3,4.29667,21.4,498.95
891.3,4.29667,20.9,499.25
892.3,4.27667,21,499.45
893.3,4.25667,20.9,499.75
894.4,4.23667,21.1,499.95
895.4,4.21667,20.8,500.25
896.4,4.19667,21.2,500.45
897.4,4.17667,21.1,500.75
898.4,4.15667,21,500.95
899.4,4.14667,21,501.15
900.4,4.15667,20.9,501.45
901.5,4.16667,21.1,501.75
902.5,4.16667,21.5,501.95
903.5,4.15667,21.3,502.15
904.5,4.14667,20.9,502.45
905.5,4.12667,21,502.65
906.5,4.10667,21.2,502.95
907.5,4.08667,21.3,503.15
908.6,4.06667,21.6,503.35
909.6,4.06667,21,503.65
910.6,4.07667,21.3,503.85
911.6,4.05667,21.3,504.15
912.6,4.03667,21.4,504.35
913.6,4.03667,17.8,504.55
914.6,4.02667,17.5,504.85
915.7,4.03667,17.6,505.05
916.7,4.03667,18.2,505.25
917.7,4.03667,18,505.55
918.7,4.02667,18.2,505.75
919.7,4.00667,18,505.95
920.7,3.97667,18.1,506.15
921.7,3.95667,18.3,506.45
922.8,3.93667,18.2,506.65
923.8,3.90667,17.7,506.85
924.8,3.87667,17.7,507.15
925.8,3.84667,17.9,507.35
926.8,3.83667,18.4,507.55
927.8,3.82667,18.3,507.75
928.8,3.83667,18.2,508.05
929.8,3.82667,18,508.25
930.9,3.83667,18.2,508.45
931.9,3.81667,18.2,508.75
932.9,3.80667,17.9,508.95
933.9,3.79667,17.8,509.15
934.9,3.78667,18,509.45
935.9,3.77667,18.5,509.65
936.9,3.77667,18.4,509.85
938,3.75667,18.1,510.15
939,3.72667,18.4,510.35
940,3.71667,18.4,510.55
941,3.70667,18.7,510.75
942,3.70667,18.8,510.95
943,3.70667,18.9,511.25
944,3.69667,18.4,511.45
945.1,3.69667,18.3,511.65
946.1,3.68667,18.2,511.85
947.1,3.66667,18.5,512.15
948.1,3.65667,19,512.35
949.1,3.65667,19.2,512.55
950.1,3.64667,18.7,512.75
951.1,3.62667,18.3,512.95
952.2,3.60667,18.4,513.15
953.2,3.58667,18.4,513.45
954.2,3.57667,18.8,513.65
955.2,3.56667,18.6,513.85
956.2,3.56667,18.5,514.15
957.2,3.55667,18.6,514.35
958.2,3.54667,18.5,514.55
959.3,3.53667,18.9,514.85
960.3,3.54667,18.7,515.05
961.3,3.53667,18.7,515.25
962.3,3.51667,18.3,515.45
963.3,3.50667,18.4,515.65
964.3,3.49667,18,515.85
965.3,3.47667,18.7,516.15
966.4,3.44667,18.8,516.35
967.4,3.43667,19.2,516.55
968.4,3.40667,18.7,516.75
969.4,3.38667,18.5,516.95
970.4,3.38667,18.3,517.15
971.4,3.38667,18.5,517.45
972.4,3.37667,18.7,517.65
973.4,3.35667,18.4,517.85
974.5,3.33667,18.2,518.05
975.5,3.32667,18.6,518.25
976.5,3.32667,18.5,518.45
977.5,3.31667,18.9,518.65
978.5,3.30667,18.5,519.05
980.3,3.28667,18.6,519.25
981,3.27667,18.4,519.35
981.7,3.25667,18.5,519.55
982.6,3.25667,15.5,519.75
983.6,3.26667,15.4,519.95
984.6,3.25667,15.2,520.15
985.6,3.25667,15.2,520.35
986.6,3.24667,15.2,520.55
987.6,3.24667,15.1,520.75
988.7,3.25667,15.5,520.95
989.7,3.25667,15.4,521.25
990.7,3.23667,15.6,521.45
991.7,3.22667,15.6,521.65
992.7,3.23667,15.3,521.85
993.7,3.22667,15.2,522.05
994.7,3.19667,15.2,522.25
995.8,3.18667,15.3,522.45
996.8,3.17667,15.9,522.65
997.8,3.15667,15.7,522.85
998.8,3.15667,15.9,523.05
999.8,3.13667,15.4,523.25
1000.8,3.13667,15.5,523.45
1001.8,3.13667,15.6,523.65
1002.9,3.13667,15.5,523.85
1003.9,3.11667,15.1,524.05
1004.9,3.09667,15.8,524.25
1005.9,3.06667,15.1,524.45
1006.9,3.04667,15.6,524.75
1008.5,3.00667,15.4,524.95
1009.3,3.00667,15.7,525.05
1010,3.01667,15.3,525.25
1011,3.01667,15.7,525.45
1012,3.01667,15.7,525.65
1013,3.00667,15.9,525.75
1014,3.00667,15.4,525.95
1015,2.99667,15.6,526.25
1016,2.96667,15.5,526.45
1017.1,2.94667,15.3,526.55
1018.1,2.92667,15.9,526.75
1019.1,2.91667,15.9,527.05
1020.1,2.89667,15.7,527.25
1021.1,2.88667,15.5,527.35
1022.1,2.86667,16,527.65
1023.1,2.84667,15.8,527.85
1024.2,2.85667,16,528.05
1025.2,2.84667,15.9,528.25
1026.2,2.83667,15.7,528.45
1027.2,2.82667,15.7,528.65
1028.2,2.81667,15.5,528.85
1029.2,2.82667,15.6,529.05
1030.2,2.82667,15.8,529.25
1031.2,2.81667,15.7,529.45
1032.3,2.80667,15.5,529.65
1033.3,2.79667,15.3,529.85
1034.3,2.79667,15.6,530.05
1035.3,2.78667,15.5,530.25
1036.3,2.77667,15.6,530.45
1037.3,2.75667,15.5,530.65
1038.3,2.75667,15.5,530.85
1039.4,2.75667,15.7,530.95
1040.4,2.75667,15.4,531.25
1041.4,2.74667,15.6,531.35
1042.4,2.72667,15.3,531.55
1043.4,2.70667,15.3,531.75
1044.4,2.68667,15.3,531.95
1045.4,2.67667,15.6,532.15
1046.5,2.67667,15.9,532.35
1047.5,2.65667,16,532.55
1048.5,2.65667,15.8,532.75
1049.5,2.65667,15.5,532.95
1050.5,2.65667,15.4,533.15
1051.5,2.63667,15.9,533.35
1052.5,2.62667,15.8,533.45
1053.6,2.61667,15.8,533.65
1054.6,2.59667,16,533.85
1055.6,2.58667,15.8,534.15
1056.6,2.58667,15.6,534.25
1057.6,2.57667,15.7,534.45
1058.6,2.56667,16,534.65
1059.6,2.56667,16.1,534.85
1060.7,2.54667,16.2,535.05
1061.7,2.52667,16,535.25
1062.7,2.51667,16.1,535.45
1063.7,2.51667,15.6,535.65
1064.7,2.50667,12.7,535.85
1065.7,2.48667,12.5,535.95
1066.7,2.46667,12.7,536.25
1067.8,2.46667,12.9,536.35
1068.8,2.47667,12.8,536.55
1069.8,2.46667,13.1,536.75
1070.8,2.46667,12.7,536.95
1071.8,2.45667,12.7,537.15
1072.8,2.43667,12.6,537.35
1073.8,2.42667,12.6,537.55
1074.9,2.41667,12.8,537.65
1075.9,2.40667,13,537.85
1076.9,2.39667,13,538.05
1077.9,2.39667,12.8,538.25
1078.9,2.39667,12.8,538.45
1079.9,2.38667,13.1,538.75
1081.7,2.35667,13,538.95
1082.5,2.35667,13,539.05
1083.2,2.35667,13,539.15
1084,2.35667,12.7,539.35
1085,2.34667,12.8,539.55
1086,2.34667,12.7,539.65
1087,2.33667,12.7,539.85
1088,2.30667,12.5,540.05
1089,2.30667,12.8,540.15
1090.1,2.29667,12.6,540.35
1091.1,2.29667,12.7,540.55
1092.1,2.28667,12.8,540.75
1093.1,2.27667,12.7,540.85
1094.1,2.25667,12.7,541.05
1095.1,2.25667,12.8,541.25
1096.1,2.24667,12.7,541.35
1097.2,2.22667,12.7,541.55
1098.2,2.21667,13.2,541.75
1099.2,2.19667,12.9,541.85
1100.2,2.18667,13.1,542.05
1101.2,2.18667,12.9,542.25
1102.2,2.19667,13,542.45
1103.2,2.20667,13.3,542.65
1104.3,2.19667,13.2,542.75
1105.3,2.18667,13.3,542.95
1106.3,2.18667,12.8,543.15
1107.3,2.17667,13,543.25
1108.3,2.17667,12.8,543.45
1109.3,2.17667,13.3,543.55
1110.3,2.15667,13.1,543.75
1111.4,2.13667,13.2,543.95
1112.4,2.13667,12.9,544.05
1113.4,2.14667,13.1,544.25
1114.4,2.13667,13.1,544.35
1115.4,2.14667,13.1,544.55
1116.4,2.14667,9.8,544.65
1117.4,2.12667,13,544.85
1118.5,2.11667,12.9,545.05
1119.5,2.10667,12.8,545.15
1120.5,2.10667,12,545.35
1121.5,2.11667,10,545.55
1122.5,2.12667,9.9,545.65
1123.5,2.11667,13.5,545.75
1124.5,2.10667,13.2,545.95
1125.6,2.08667,9.8,546.15
1126.6,2.09667,9.8,546.25
1127.6,2.08667,9.8,546.45
1128.6,2.08667,10,546.65
1129.6,2.07667,10.1,546.85
1130.6,2.05667,10.2,546.95
1131.6,2.04667,10.2,547.05
1132.7,2.05667,10.3,547.25
1133.7,2.04667,10.1,547.35
1134.7,2.02667,10.5,547.55
1135.7,2.02667,9.9,547.75
1136.7,1.99667,10,547.85
1137.7,1.97667,9.9,547.95
1138.7,1.96667,10.5,548.15
1139.8,1.95667,10.3,548.35
1140.8,1.95667,10.2,548.55
1141.8,1.95667,10.2,548.75
1142.8,1.93667,10.2,548.85
1143.8,1.90667,10.4,549.05
1144.8,1.89667,10.5,549.15
1145.8,1.89667,10.3,549.35
1146.8,1.88667,10.3,549.45
1147.9,1.86667,9.9,549.65
1148.9,1.85667,10.2,549.75
1149.9,1.84667,10,549.95
1150.9,1.83667,10.2,550.15
1151.9,1.84667,10,550.25
1152.9,1.82667,9.9,550.45
1153.9,1.81667,10.1,550.55
1155,1.82667,10.4,550.75
1156,1.81667,10.1,550.95
1157,1.80667,10.2,551.05
1158,1.79667,10.1,551.25
1159,1.78667,10.1,551.35
1160,1.77667,10.1,551.55
1161,1.75667,10.5,551.65
1162.1,1.75667,10.2,551.85
1163.1,1.75667,10.3,551.95
1164.1,1.74667,10.1,552.15
1165.1,1.74667,9.9,552.25
1166.1,1.72667,9.9,552.45
1167.1,1.70667,10,552.55
1168.1,1.70667,10.1,552.65
1169.2,1.70667,10.1,552.85
1170.2,1.69667,10.1,552.95
1171.2,1.68667,10.2,553.15
1172.2,1.68667,10.1,553.25
1173.2,1.68667,10.2,553.45
1174.2,1.68667,10.2,553.55
1175.2,1.67667,10,553.75
1176.3,1.67667,10,553.85
1177.3,1.65667,10,554.05
1178.3,1.66667,10,554.15
1179.3,1.65667,10.3,554.25
1180.3,1.64667,10.3,554.45
1181.3,1.62667,10.3,554.65
1183.3,1.60667,10.1,554.75
1184,1.59667,10.3,554.95
1184.8,1.59667,6.8,554.95
1185.5,1.60667,7.1,555.15
1186.4,1.61667,6.7,555.25
1187.4,1.60667,6.6,555.45
1188.4,1.61667,6.7,555.55
1189.4,1.61667,6.7,555.65
1190.5,1.60667,6.9,555.85
1191.5,1.59667,6.9,555.95
1192.5,1.58667,7,556.15
1193.5,1.58667,6.8,556.25
1194.5,1.60667,6.8,556.35
1195.5,1.61667,7.1,556.45
1196.5,1.62667,6.9,556.65
1197.6,1.63667,7.1,556.75
1198.6,1.64667,7,556.85
1199.6,1.62667,7,556.95
1200.6,1.61667,7.2,557.15
1201.6,1.59667,7.1,557.25
1202.6,1.57667,7.2,557.35
1203.6,1.56667,7.1,557.45
1204.6,1.55667,7,557.65
1205.7,1.54667,7,557.75
1206.7,1.54667,7.1,557.95
1207.7,1.52667,6.8,558.05
1208.7,1.50667,7,558.15
1209.7,1.50667,6.8,558.25
1210.7,1.50667,7,558.45
1211.7,1.50667,6.8,558.55
1212.8,1.49667,3.5,558.75
1213.8,1.48667,3.5,558.85
1214.8,1.48667,3.5,558.95
1215.8,1.48667,3.4,559.05
1216.8,1.48667,7,559.15
1217.8,1.48667,7.2,559.35
1218.8,1.48667,3.5,559.45
1219.9,1.47667,3.7,559.55
1220.9,1.46667,3.8,559.65
1221.9,1.45667,3.7,559.85
1222.9,1.45667,3.8,559.95
1223.9,1.44667,3.8,560.05
1224.9,1.44667,3.9,560.25
1225.9,1.45667,4.1,560.35
1227,1.44667,3.8,560.45
1228,1.43667,3.8,560.55
1229,1.44667,3.8,560.65
1230,1.43667,3.8,560.85
1231,1.42667,4,560.95
1232,1.41667,4.1,561.05
1233,1.40667,3.9,561.15