File: Non-charring/PMMA/TIFP/TIFP_TGA_N2_10K_4.csv
Time,Temperature,Mass
[s],[K],[mg]
0,300.339,5.1046
3,300.332,5.1059
6,300.327,5.1059
9,300.326,5.1059
12,300.323,5.1073
15,300.324,5.1064
18,300.333,5.1065
21,300.345,5.1066
24,300.365,5.1073
27,300.395,5.108
30,300.44,5.1084
33,300.494,5.1082
36,300.562,5.1074
39,300.649,5.1078
42,300.75,5.1099
45,300.867,5.1104
48,301.006,5.1095
51,301.165,5.1098
54,301.344,5.1101
57,301.543,5.1096
60,301.77,5.1108
63,302.014,5.1117
66,302.284,5.1114
69,302.582,5.1117
72,302.903,5.1129
75,303.247,5.1123
78,303.617,5.1131
81,304.013,5.1128
84,304.434,5.1134
87,304.878,5.1143
90,305.349,5.114
93,305.842,5.1149
96,306.356,5.1144
99,306.894,5.1157
102,307.455,5.1159
105,308.028,5.1151
108,308.631,5.1156
111,309.247,5.1174
114,309.882,5.1173
117,310.53,5.1177
120,311.195,5.1173
123,311.871,5.1154
126,312.56,5.1159
129,313.258,5.1162
132,313.966,5.116
135,314.688,5.1155
138,315.414,5.1172
141,316.145,5.1171
144,316.884,5.1187
147,317.627,5.1171
150,318.367,5.1179
153,319.114,5.1186
156,319.859,5.1174
159,320.605,5.1179
162,321.353,5.1187
165,322.096,5.1193
168,322.838,5.1191
171,323.576,5.1191
174,324.311,5.1184
177,325.048,5.1181
180,325.774,5.1207
183,326.494,5.1207
186,327.21,5.1193
189,327.917,5.118
192,328.624,5.1193
195,329.319,5.1203
198,330.012,5.1203
201,330.695,5.1197
204,331.371,5.1207
207,332.036,5.1203
210,332.702,5.1203
213,333.354,5.1207
216,334.001,5.122
219,334.639,5.1237
222,335.273,5.1247
225,335.898,5.1234
228,336.514,5.1247
231,337.129,5.1237
234,337.731,5.1234
237,338.33,5.1249
240,338.921,5.1249
243,339.511,5.1249
246,340.088,5.1259
249,340.662,5.1263
252,341.232,5.1263
255,341.795,5.1249
258,342.355,5.1253
261,342.908,5.1256
264,343.462,5.1263
267,344.005,5.1276
270,344.548,5.1289
273,345.085,5.1289
276,345.62,5.1289
279,346.15,5.1303
282,346.679,5.1303
285,347.202,5.1303
288,347.728,5.1316
291,348.245,5.1316
294,348.765,5.133
297,349.28,5.133
300,349.794,5.133
303,350.303,5.133
306,350.817,5.133
309,351.324,5.133
312,351.832,5.133
315,352.335,5.133
318,352.842,5.133
321,353.347,5.1343
324,353.85,5.1343
327,354.353,5.1347
330,354.853,5.1357
333,355.356,5.1343
336,355.856,5.1343
339,356.356,5.1357
342,356.858,5.1343
345,357.356,5.1343
348,357.851,5.1357
351,358.352,5.1357
354,358.851,5.1357
357,359.348,5.1367
360,359.846,5.136
363,360.343,5.1358
366,360.839,5.1371
369,361.34,5.1371
372,361.834,5.1378
375,362.334,5.1378
378,362.831,5.1385
381,363.33,5.1398
384,363.827,5.1401
387,364.323,5.1398
390,364.817,5.1398
393,365.317,5.1411
396,365.812,5.1411
399,366.308,5.1411
402,366.802,5.1401
405,367.301,5.1411
408,367.795,5.1408
411,368.29,5.1408
414,368.786,5.1411
417,369.283,5.1411
420,369.778,5.1425
423,370.272,5.1425
426,370.768,5.1401
429,371.262,5.1401
432,371.756,5.1416
435,372.249,5.1429
438,372.747,5.1436
441,373.24,5.1416
444,373.737,5.1411
447,374.229,5.1411
450,374.723,5.1425
453,375.219,5.1431
456,375.712,5.1438
459,376.206,5.1438
462,376.703,5.1452
465,377.197,5.1452
468,377.693,5.1452
471,378.186,5.1438
474,378.681,5.1452
477,379.177,5.1448
480,379.67,5.1452
483,380.165,5.1452
486,380.661,5.1455
489,381.158,5.1455
492,381.65,5.1465
495,382.146,5.1462
498,382.644,5.1452
501,383.14,5.1465
504,383.635,5.1452
507,384.134,5.1465
510,384.632,5.1523
513,385.13,5.1492
516,385.626,5.1608
519,386.12,5.1476
522,386.618,5.1577
525,387.119,5.1608
528,387.615,5.1592
531,388.116,5.1545
534,388.615,5.1542
537,389.113,5.1556
540,389.612,5.1552
543,390.114,5.155
546,390.613,5.1519
549,391.114,5.1509
552,391.613,5.1509
555,392.114,5.152
558,392.617,5.1509
561,393.118,5.1505
564,393.618,5.1515
567,394.124,5.1519
570,394.625,5.1522
573,395.126,5.1519
576,395.631,5.1519
579,396.131,5.1519
582,396.635,5.1519
585,397.139,5.1519
588,397.639,5.1532
591,398.144,5.1529
594,398.646,5.1532
597,399.149,5.1519
600,399.656,5.1532
603,400.16,5.1532
606,400.665,5.1532
609,401.169,5.1532
612,401.674,5.1542
615,402.178,5.1542
618,402.684,5.1532
621,403.188,5.1542
624,403.692,5.1532
627,404.197,5.1529
630,404.705,5.1542
633,405.208,5.1542
636,405.715,5.1529
639,406.222,5.1539
642,406.726,5.1539
645,407.234,5.1529
648,407.738,5.1529
651,408.244,5.1595
654,408.751,5.1414
657,409.256,5.1197
660,409.764,5.1634
663,410.268,5.1524
666,410.772,5.1499
669,411.28,5.1499
672,411.784,5.1499
675,412.29,5.1499
678,412.798,5.1499
681,413.302,5.1499
684,413.809,5.1499
687,414.314,5.1499
690,414.819,5.1499
693,415.325,5.1512
696,415.829,5.1499
699,416.333,5.1485
702,416.84,5.1499
705,417.342,5.1483
708,417.848,5.1496
711,418.354,5.1496
714,418.859,5.1483
717,419.363,5.1486
720,419.87,5.1496
723,420.373,5.1496
726,420.877,5.1496
729,421.379,5.1483
732,421.883,5.1483
735,422.385,5.1483
738,422.888,5.1483
741,423.393,5.1496
744,423.893,5.1483
747,424.399,5.1483
750,424.899,5.1473
753,425.403,5.1469
756,425.906,5.1469
759,426.405,5.1456
762,426.911,5.1456
765,427.411,5.1456
768,427.912,5.1446
771,428.413,5.1433
774,428.915,5.1446
777,429.416,5.1449
780,429.916,5.1459
783,430.417,5.1442
786,430.919,5.1428
789,431.42,5.1442
792,431.923,5.1442
795,432.423,5.1435
798,432.923,5.1428
801,433.421,5.1428
804,433.92,5.1428
807,434.419,5.1418
810,434.918,5.1401
813,435.418,5.1401
816,435.92,5.1415
819,436.419,5.1415
822,436.916,5.1401
825,437.417,5.1388
828,437.914,5.1375
831,438.415,5.1375
834,438.915,5.1375
837,439.411,5.1375
840,439.91,5.1368
843,440.41,5.1361
846,440.906,5.1361
849,441.405,5.1348
852,441.904,5.1334
855,442.397,5.1334
858,442.897,5.1334
861,443.396,5.1321
864,443.892,5.1307
867,444.391,5.1294
870,444.89,5.1281
873,445.387,5.1294
876,445.886,5.1294
879,446.382,5.1294
882,446.879,5.1267
885,447.375,5.1254
888,447.876,5.1254
891,448.373,5.1238
894,448.869,5.1215
897,449.368,5.1198
900,449.866,5.1191
903,450.364,5.1171
906,450.862,5.1164
909,451.361,5.1171
912,451.86,5.1154
915,452.357,5.1141
918,452.856,5.1121
921,453.35,5.1104
924,453.85,5.1089
927,454.348,5.1089
930,454.845,5.1079
933,455.344,5.1063
936,455.842,5.1069
939,456.34,5.0904
942,456.837,5.1042
945,457.334,5.0998
948,457.831,5.0984
951,458.329,5.0949
954,458.828,5.0932
957,459.324,5.0915
960,459.824,5.0898
963,460.321,5.0884
966,460.815,5.0869
969,461.316,5.0862
972,461.811,5.0849
975,462.31,5.083
978,462.807,5.0808
981,463.304,5.0804
984,463.805,5.0804
987,464.303,5.0777
990,464.801,5.0763
993,465.301,5.0744
996,465.797,5.0729
999,466.291,5.0719
1002,466.793,5.0692
1005,467.293,5.0679
1008,467.789,5.0666
1011,468.285,5.0652
1014,468.787,5.0639
1017,469.284,5.0625
1020,469.786,5.0619
1023,470.283,5.0609
1026,470.782,5.0595
1029,471.281,5.0582
1032,471.779,5.0554
1035,472.278,5.0538
1038,472.777,5.0525
1041,473.275,5.0525
1044,473.776,5.0511
1047,474.277,5.0484
1050,474.776,5.0471
1053,475.275,5.0471
1056,475.775,5.0458
1059,476.268,5.0431
1062,476.771,5.0427
1065,477.268,5.0417
1068,477.769,5.0404
1071,478.268,5.0386
1074,478.767,5.0368
1077,479.265,5.0361
1080,479.766,5.0348
1083,480.266,5.0335
1086,480.763,5.0321
1089,481.262,5.0308
1092,481.76,5.0295
1095,482.26,5.0281
1098,482.757,5.0274
1101,483.254,5.0258
1104,483.753,5.0241
1107,484.252,5.0234
1110,484.749,5.0217
1113,485.246,5.0201
1116,485.748,5.0187
1119,486.245,5.0187
1122,486.742,5.0174
1125,487.236,5.0147
1128,487.737,5.0137
1131,488.237,5.0133
1134,488.736,5.013
1137,489.233,5.013
1140,489.731,5.0117
1143,490.23,5.0159
1146,490.729,5.0163
1149,491.227,5.0147
1152,491.727,5.0137
1155,492.224,5.0127
1158,492.723,5.0113
1161,493.222,5.0127
1164,493.722,5.0137
1167,494.219,5.0127
1170,494.717,5.0127
1173,495.216,5.0113
1176,495.714,5.0113
1179,496.216,5.01
1182,496.714,5.01
1185,497.212,5.01
1188,497.713,5.0066
1191,498.21,5.0049
1194,498.708,5.0049
1197,499.205,5.0049
1200,499.704,5.0049
1203,500.202,5.0049
1206,500.704,5.0049
1209,501.2,5.0049
1212,501.703,5.0035
1215,502.2,5.0022
1218,502.701,5.0022
1221,503.199,5.0053
1224,503.697,5.0053
1227,504.197,5.0053
1230,504.699,5.004
1233,505.196,5.004
1236,505.696,5.004
1239,506.195,5.004
1242,506.694,5.004
1245,507.196,5.004
1248,507.694,5.0053
1251,508.191,5.0035
1254,508.694,5.0035
1257,509.195,5.0028
1260,509.693,5.0025
1263,510.192,5.0038
1266,510.691,5.0038
1269,511.189,5.0038
1272,511.692,5.0028
1275,512.194,5.0022
1278,512.695,5.0022
1281,513.194,5.0022
1284,513.695,5.0022
1287,514.192,5.0022
1290,514.692,5.0018
1293,515.192,5.0008
1296,515.69,4.9995
1299,516.19,4.9985
1302,516.69,4.9998
1305,517.19,4.9998
1308,517.69,4.9998
1311,518.193,4.9998
1314,518.692,4.9998
1317,519.193,4.9998
1320,519.69,4.9998
1323,520.195,4.9998
1326,520.694,4.9998
1329,521.192,4.9998
1332,521.696,4.9985
1335,522.195,4.9981
1338,522.694,4.9995
1341,523.196,4.9981
1344,523.695,4.9981
1347,524.195,4.9981
1350,524.696,4.9971
1353,525.195,4.9958
1356,525.694,4.9958
1359,526.195,4.9968
1362,526.694,4.9958
1365,527.195,4.9945
1368,527.696,4.9948
1371,528.195,4.9955
1374,528.694,4.9939
1377,529.194,4.9939
1380,529.694,4.9932
1383,530.193,4.9926
1386,530.695,4.9926
1389,531.194,4.9926
1392,531.696,4.9912
1395,532.193,4.9912
1398,532.692,4.9899
1401,533.194,4.9889
1404,533.692,4.9895
1407,534.193,4.9892
1410,534.689,4.9885
1413,535.191,4.9885
1416,535.693,4.9872
1419,536.193,4.9858
1422,536.691,4.9845
1425,537.19,4.9858
1428,537.689,4.9858
1431,538.187,4.9845
1434,538.687,4.9832
1437,539.189,4.9832
1440,539.687,4.9818
1443,540.187,4.9805
1446,540.688,4.9798
1449,541.183,4.9778
1452,541.684,4.9778
1455,542.184,4.9791
1458,542.681,4.9778
1461,543.179,4.9778
1464,543.677,4.9768
1467,544.176,4.9761
1470,544.675,4.9748
1473,545.175,4.9734
1476,545.673,4.9721
1479,546.17,4.9701
1482,546.669,4.968
1485,547.168,4.9666
1488,547.664,4.9676
1491,548.167,4.9663
1494,548.668,4.9649
1497,549.17,4.9636
1500,549.672,4.9623
1503,550.17,4.9609
1506,550.672,4.9596
1509,551.173,4.9581
1512,551.673,4.9568
1515,552.173,4.9554
1518,552.673,4.9541
1521,553.174,4.9528
1524,553.674,4.9514
1527,554.175,4.9497
1530,554.673,4.9486
1533,555.174,4.9473
1536,555.675,4.9458
1539,556.174,4.9445
1542,556.674,4.9422
1545,557.172,4.94
1548,557.669,4.939
1551,558.169,4.9377
1554,558.666,4.935
1557,559.168,4.9343
1560,559.664,4.9325
1563,560.164,4.9299
1566,560.659,4.9277
1569,561.161,4.9255
1572,561.662,4.924
1575,562.161,4.9219
1578,562.656,4.9197
1581,563.157,4.9174
1584,563.657,4.9151
1587,564.156,4.9119
1590,564.655,4.9105
1593,565.15,4.9075
1596,565.651,4.9046
1599,566.15,4.9019
1602,566.65,4.8988
1605,567.15,4.8961
1608,567.649,4.8954
1611,568.144,4.8921
1614,568.643,4.8885
1617,569.143,4.8867
1620,569.642,4.8823
1623,570.139,4.881
1626,570.64,4.8789
1629,571.14,4.8755
1632,571.639,4.8734
1635,572.139,4.8709
1638,572.636,4.8673
1641,573.135,4.8641
1644,573.634,4.8605
1647,574.134,4.859
1650,574.631,4.8573
1653,575.131,4.8538
1656,575.632,4.8497
1659,576.13,4.8468
1662,576.63,4.8443
1665,577.129,4.8406
1668,577.626,4.837
1671,578.124,4.8337
1674,578.622,4.8311
1677,579.122,4.8278
1680,579.619,4.8258
1683,580.118,4.8222
1686,580.62,4.818
1689,581.119,4.8144
1692,581.617,4.8106
1695,582.119,4.8066
1698,582.616,4.8035
1701,583.116,4.8006
1704,583.616,4.7969
1707,584.118,4.7922
1710,584.614,4.79
1713,585.116,4.7865
1716,585.617,4.7808
1719,586.112,4.7771
1722,586.612,4.7737
1725,587.112,4.7699
1728,587.609,4.7649
1731,588.111,4.7605
1734,588.609,4.7582
1737,589.109,4.7543
1740,589.605,4.7488
1743,590.105,4.7452
1746,590.605,4.7406
1749,591.104,4.7349
1752,591.602,4.7306
1755,592.099,4.7256
1758,592.599,4.7207
1761,593.097,4.715
1764,593.595,4.7099
1767,594.094,4.7049
1770,594.592,4.6993
1773,595.092,4.6954
1776,595.588,4.6885
1779,596.087,4.6822
1782,596.586,4.6765
1785,597.086,4.6699
1788,597.587,4.6629
1791,598.087,4.6573
1794,598.585,4.6502
1797,599.086,4.6437
1800,599.587,4.636
1803,600.087,4.6297
1806,600.588,4.6223
1809,601.088,4.6147
1812,601.589,4.6066
1815,602.088,4.5987
1818,602.588,4.5912
1821,603.085,4.5823
1824,603.587,4.5745
1827,604.086,4.5646
1830,604.587,4.5561
1833,605.087,4.5463
1836,605.584,4.5368
1839,606.085,4.5259
1842,606.585,4.5148
1845,607.085,4.5031
1848,607.585,4.4918
1851,608.086,4.481
1854,608.586,4.4705
1857,609.085,4.4586
1860,609.588,4.4456
1863,610.087,4.4337
1866,610.588,4.4201
1869,611.088,4.405
1872,611.59,4.3907
1875,612.089,4.3788
1878,612.59,4.3643
1881,613.089,4.3493
1884,613.588,4.3329
1887,614.087,4.3189
1890,614.588,4.3019
1893,615.087,4.284
1896,615.584,4.2671
1899,616.086,4.2504
1902,616.584,4.2333
1905,617.084,4.216
1908,617.583,4.1972
1911,618.083,4.1768
1914,618.583,4.1556
1917,619.08,4.1368
1920,619.583,4.1153
1923,620.079,4.093
1926,620.579,4.0702
1929,621.079,4.0471
1932,621.581,4.023
1935,622.083,3.9982
1938,622.589,3.975
1941,623.09,3.9504
1944,623.592,3.9246
1947,624.093,3.8974
1950,624.593,3.8697
1953,625.095,3.8434
1956,625.594,3.8155
1959,626.096,3.7863
1962,626.595,3.7564
1965,627.097,3.7267
1968,627.594,3.6963
1971,628.095,3.6649
1974,628.594,3.6319
1977,629.091,3.6004
1980,629.592,3.5691
1983,630.09,3.536
1986,630.59,3.4993
1989,631.085,3.4647
1992,631.583,3.4291
1995,632.082,3.3926
1998,632.579,3.3547
2001,633.075,3.3173
2004,633.572,3.2818
2007,634.068,3.2428
2010,634.565,3.2015
2013,635.061,3.1651
2016,635.557,3.1251
2019,636.051,3.0839
2022,636.544,3.042
2025,637.039,3.0038
2028,637.533,2.9645
2031,638.027,2.9233
2034,638.525,2.8816
2037,639.014,2.8419
2040,639.51,2.8019
2043,640.007,2.7605
2046,640.501,2.7189
2049,640.994,2.6812
2052,641.487,2.6406
2055,641.982,2.5992
2058,642.477,2.5585
2061,642.971,2.5221
2064,643.468,2.4844
2067,643.975,2.4461
2070,644.487,2.4018
2073,644.992,2.3592
2076,645.495,2.3203
2079,645.996,2.2773
2082,646.495,2.2329
2085,646.994,2.1889
2088,647.494,2.1464
2091,647.993,2.1041
2094,648.494,2.059
2097,648.992,2.0191
2100,649.489,1.9773
2103,649.989,1.9325
2106,650.487,1.8885
2109,650.985,1.8477
2112,651.481,1.8066
2115,651.979,1.765
2118,652.481,1.7222
2121,652.977,1.6835
2124,653.476,1.6439
2127,653.975,1.6036
2130,654.474,1.562
2133,654.976,1.5245
2136,655.473,1.4846
2139,655.975,1.4463
2142,656.472,1.4069
2145,656.969,1.3714
2148,657.472,1.3367
2151,657.97,1.3015
2154,658.471,1.2642
2157,658.972,1.2308
2160,659.473,1.1982
2163,659.971,1.1641
2166,660.47,1.1305
2169,660.968,1.0995
2172,661.468,1.0687
2175,661.966,1.0379
2178,662.465,1.0076
2181,662.963,0.98
2184,663.46,0.952
2187,663.96,0.9259
2190,664.458,0.8974
2193,664.959,0.8736
2196,665.458,0.849
2199,665.961,0.825
2202,666.458,0.8006
2205,666.96,0.781
2208,667.461,0.7595
2211,667.959,0.738
2214,668.463,0.717
2217,668.961,0.6985
2220,669.461,0.6798
2223,669.967,0.6612
2226,670.472,0.6445
2229,670.974,0.6267
2232,671.479,0.6091
2235,671.985,0.5933
2238,672.486,0.5763
2241,672.993,0.561
2244,673.496,0.5481
2247,673.999,0.5329
2250,674.502,0.5183
2253,675.005,0.5064
2256,675.505,0.4936
2259,676.011,0.48
2262,676.511,0.4681
2265,677.012,0.4577
2268,677.515,0.4473
2271,678.017,0.4371
2274,678.518,0.4274
2277,679.019,0.4187
2280,679.52,0.4083
2283,680.02,0.3998
2286,680.522,0.3911
2289,681.018,0.3844
2292,681.519,0.3768
2295,682.018,0.3704
2298,682.518,0.363
2301,683.018,0.3575
2304,683.517,0.3497
2307,684.015,0.3442
2310,684.513,0.3391
2313,685.011,0.3348
2316,685.507,0.331
2319,686.006,0.3258
2322,686.506,0.3207
2325,687.004,0.3173
2328,687.5,0.3137
2331,687.997,0.3083
2334,688.495,0.3058
2337,688.994,0.3033
2340,689.494,0.2994
2343,689.992,0.2976
2346,690.489,0.2945
2349,690.987,0.2915
2352,691.485,0.2879
2355,691.984,0.2845
2358,692.48,0.283
2361,692.98,0.2785
2364,693.479,0.2765
2367,693.977,0.2767
2370,694.474,0.275
2373,694.972,0.272
2376,695.473,0.2683
2379,695.973,0.2649
2382,696.468,0.2623
2385,696.97,0.2633
2388,697.468,0.2619
2391,697.965,0.2619
2394,698.463,0.2619
2397,698.958,0.2606
2400,699.457,0.2591
2403,699.956,0.2591
2406,700.454,0.2578
2409,700.953,0.2565
2412,701.451,0.2551
2415,701.947,0.2521
2418,702.446,0.2508
2421,702.946,0.2508
2424,703.446,0.2508
2427,703.945,0.2508
2430,704.441,0.2494
2433,704.94,0.2467
2436,705.437,0.2481
2439,705.935,0.2467
2442,706.436,0.2466
2445,706.933,0.2453
2448,707.43,0.2446
2451,707.928,0.2439
2454,708.428,0.2439
2457,708.925,0.2426
2460,709.422,0.2441
2463,709.921,0.2454
2466,710.422,0.2441
2469,710.919,0.2441
2472,711.42,0.2447
2475,711.919,0.2454
2478,712.416,0.2454
2481,712.914,0.2441
2484,713.413,0.2427
2487,713.91,0.2427
2490,714.409,0.2441
2493,714.908,0.2451
2496,715.405,0.2444
2499,715.905,0.2444
2502,716.402,0.2444
2505,716.899,0.2441
2508,717.397,0.2447
2511,717.894,0.2451
2514,718.39,0.2451
2517,718.889,0.2457
2520,719.389,0.2457
2523,719.884,0.2457
2526,720.383,0.2457
2529,720.882,0.2451
2532,721.38,0.2451
2535,721.878,0.2464
2538,722.377,0.2464
2541,722.875,0.2464
2544,723.375,0.2464
2547,723.873,0.2471
2550,724.373,0.2484
2553,724.87,0.2471
2556,725.372,0.2471
2559,725.872,0.2457
2562,726.371,0.2444
2565,726.869,0.2457
2568,727.371,0.2457
2571,727.867,0.2457
2574,728.37,0.2457
2577,728.867,0.2471
2580,729.369,0.2457
2583,729.866,0.2457
2586,730.365,0.2461
2589,730.863,0.2471
2592,731.364,0.2471
2595,731.864,0.2471
2598,732.362,0.2471
2601,732.864,0.2481
2604,733.365,0.2471
2607,733.864,0.2471
2610,734.362,0.2471
2613,734.867,0.2481
2616,735.371,0.2471
2619,735.875,0.2471
2622,736.381,0.2474
2625,736.884,0.2484
2628,737.39,0.2474
2631,737.895,0.2471
2634,738.399,0.2484
2637,738.901,0.2484
2640,739.403,0.2471
2643,739.906,0.2471
2646,740.41,0.2484
2649,740.914,0.2484
2652,741.415,0.2498
2655,741.918,0.2498
2658,742.42,0.2498
2661,742.92,0.2484
2664,743.422,0.2498
2667,743.921,0.2498
2670,744.424,0.2498
2673,744.925,0.2498
2676,745.424,0.2498
2679,745.925,0.2498
2682,746.423,0.2511
2685,746.923,0.2511
2688,747.424,0.2514
2691,747.921,0.2524
2694,748.421,0.2524
2697,748.921,0.2514
2700,749.421,0.2508
2703,749.917,0.2498
2706,750.418,0.2498
2709,750.918,0.2498
2712,751.415,0.2498
2715,751.914,0.2511
2718,752.413,0.2524
2721,752.914,0.2524
2724,753.411,0.2524
2727,753.91,0.2524
2730,754.41,0.2511
2733,754.909,0.2511
2736,755.408,0.2511
2739,755.907,0.2524
2742,756.406,0.2534
2745,756.904,0.2534
2748,757.405,0.2534
2751,757.903,0.2528
2754,758.401,0.2521
2757,758.899,0.2521
2760,759.399,0.2521
2763,759.895,0.2534
2766,760.393,0.2548
2769,760.892,0.2555
2772,761.39,0.2561
2775,761.887,0.2561
2778,762.384,0.2561
2781,762.883,0.2558
2784,763.38,0.2555
2787,763.879,0.2568
2790,764.378,0.2568
2793,764.872,0.2568
2796,765.367,0.2568
2799,765.87,0.2568
2802,766.366,0.2568
2805,766.866,0.2568
2808,767.365,0.2568
2811,767.863,0.2568
2814,768.362,0.2568
2817,768.864,0.2578
2820,769.363,0.2578
2823,769.862,0.2578
2826,770.364,0.2578
2829,770.864,0.2578
2832,771.365,0.2575
2835,771.865,0.2575
2838,772.365,0.2588
2841,772.866,0.2588
2844,773.368,0.2578
2847,773.87,0.2575
2850,774.373,0.2571
2853,774.871,0.2575
2856,775.372,0.2588
2859,775.873,0.2602
2862,776.376,0.2602
2865,776.878,0.2602
2868,777.381,0.2588
2871,777.881,0.2575
2874,778.384,0.2575
2877,778.885,0.2588
2880,779.387,0.2602
2883,779.89,0.2602
2886,780.391,0.2615
2889,780.889,0.2622
2892,781.395,0.2612
2895,781.901,0.2605
2898,782.408,0.2618
2901,782.915,0.2632
2904,783.421,0.2632
2907,783.929,0.2605
2910,784.433,0.2605
2913,784.938,0.2618
2916,785.442,0.2608
2919,785.947,0.2618
2922,786.452,0.2618
2925,786.954,0.2618
2928,787.457,0.2618
2931,787.96,0.2618
2934,788.463,0.2618
2937,788.965,0.2632
2940,789.467,0.2632
2943,789.967,0.2632
2946,790.471,0.2632
2949,790.973,0.2645
2952,791.477,0.2632
2955,791.977,0.2632
2958,792.48,0.2632
2961,792.979,0.2632
2964,793.482,0.2632
2967,793.979,0.2632
2970,794.48,0.2632
2973,794.983,0.2631
2976,795.485,0.2615
2979,795.983,0.2615
2982,796.487,0.2642
2985,796.99,0.2642
2988,797.486,0.2642
2991,797.987,0.2638
2994,798.487,0.2645
2997,798.985,0.2645
3000,799.485,0.2645
3003,799.986,0.2638
3006,800.48,0.2641
3009,800.981,0.2641
3012,801.479,0.2641
3015,801.977,0.2641
3018,802.478,0.2641
3021,802.973,0.2641
3024,803.468,0.2641
3027,803.966,0.2654
3030,804.464,0.2661
3033,804.963,0.2668
3036,805.46,0.2681
3039,805.96,0.2667
3042,806.459,0.2667
3045,806.956,0.2667
3048,807.456,0.2667
3051,807.952,0.2674
3054,808.451,0.2681
3057,808.948,0.2681
3060,809.447,0.2681
3063,809.945,0.2654
3066,810.445,0.2654
3069,810.942,0.2681
3072,811.439,0.2681
3075,811.937,0.268
3078,812.435,0.2666
3081,812.937,0.2666
3084,813.431,0.267
3087,813.934,0.2683
3090,814.431,0.2683
3093,814.929,0.2683
3096,815.426,0.2707
3099,815.925,0.2707
3102,816.426,0.2693
3105,816.926,0.2693
3108,817.428,0.2697
3111,817.931,0.2693
3114,818.431,0.2707
3117,818.933,0.2693
3120,819.438,0.2693
3123,819.938,0.2693
3126,820.44,0.2693
3129,820.94,0.2707
3132,821.443,0.2713
3135,821.949,0.2707