File: Non-charring/PMMA/TIFP/TIFP_Cone_65kW_3.csv
Time,Mass,HRR,Back Surface Temperature 1,Back Surface Temperature 2
[s],[g],[kW/m2],[K],[K]
0,69.86,2.99879,298.75,298.85
1,69.8289,3.12995,298.75,298.85
2,69.8525,3.24251,298.75,298.85
3,69.8711,3.43625,298.75,298.85
4,69.8321,3.248055,298.85,298.85
5,69.7808,2.85681,298.85,298.85
6,69.7157,2.51762,298.95,298.95
7,69.6728,2.52303,298.95,298.95
8,69.6902,0.952524,298.95,298.95
9,69.7089,-4.17883,298.95,298.95
10,69.6697,-8.7913,298.95,299.05
11,69.6376,3.427375,299.05,299.05
12,69.4755,32.8796,299.05,299.15
13,69.5538,84.8446,299.15,299.25
14,69.6928,127.805,299.35,299.35
15,69.7042,187.755,299.55,299.35
16,69.6554,265.067,299.55,299.55
17,69.6053,360.275,299.85,300.75
18,69.4845,422.534,301.35,300.75
19,69.3309,488.89,302.05,301.75
20,69.1373,530.15,302.05,301.75
21,68.9485,583.608,302.75,302.65
22,68.7247,586.953,303.55,303.55
23,68.5345,610.546,304.65,304.55
24,68.3118,637.135,304.65,304.55
25,68.0756,662.204,305.85,305.65
26,67.8549,659.777,307.05,306.75
27,67.6142,668.985,308.35,308.05
28,67.3803,705.91,308.35,308.05
29,67.1724,701.628,309.85,309.45
30,66.9327,712.669,311.45,310.85
31,66.6874,740.349,313.05,312.35
32,66.44285,758.203,314.85,312.35
33,66.1853,719.447,314.85,313.95
34,65.90682,761.009,316.75,315.75
35,65.6486,788.955,318.55,317.45
36,65.3869,784.88,320.45,317.45
37,65.5305,750.582,320.45,319.25
38,65.0302,802.268,322.25,321.15
39,64.6789,792.06,324.35,323.25
40,64.3773,798.62,326.35,323.25
41,64.0724,770.643,326.35,325.15
42,63.8501,766.733,328.35,327.25
43,63.6191,758.186,330.45,329.25
44,63.3361,756.797,332.55,331.45
45,63.0899,762.355,332.55,331.45
46,62.8202,759.068,334.55,333.65
47,62.5644,773.257,336.65,335.65
48,62.314,760.193,338.95,337.95
49,62.0276,762.523,338.95,337.95
50,61.7807,788.76,341.25,340.15
51,61.5001,851.856,343.25,342.35
52,61.2358,811.366,345.45,344.65
53,60.9708,817.39,347.65,344.65
54,60.7119,759.034,347.65,346.95
55,60.4417,774.406,349.85,349.15
56,60.1608,766.017,352.25,351.55
57,59.8986,789.786,354.65,351.55
58,59.6197,812.736,354.65,353.75
59,59.3593,790.953,356.85,356.15
60,59.0908,847.007,359.05,358.45
61,58.822,817.282,361.35,358.45
62,58.54197,828.807,361.35,360.75
63,58.3002,822.334,363.75,363.05
64,58.0274,795.985,365.95,365.25
65,57.7365,823.884,368.25,367.65
66,57.4745,818.976,368.25,367.65
67,57.183,797.727,370.65,369.95
68,56.9136,796.893,372.95,372.25
69,56.6341,846.124,375.25,374.55
70,56.36768,792.848,375.25,374.55
71,56.0948,833.867,377.65,376.75
72,55.82366,822.075,379.75,379.05
73,55.5517,827.772,382.15,381.15
74,55.2556,826.821,382.15,381.15
75,54.9671,854.784,384.45,383.45
76,54.6855,834.436,386.55,385.55
77,54.4074,855.296,388.55,387.65
78,54.1327,804.048,390.85,387.65
79,53.8573,791.601,390.85,389.75
80,53.5925,860.137,393.15,391.75
81,53.3204,823.512,395.25,393.95
82,53.0297,792.209,397.65,393.95
83,52.7447,800.979,397.65,396.25
84,52.4312,820.497,399.85,398.55
85,52.1206,836.418,402.15,400.65
86,51.8238,840.076,404.35,400.65
87,51.5548,847.636,406.85,403.05
88,51.2853,916.582,406.85,405.45
89,50.988,837.169,409.05,407.65
90,50.69738,807.126,411.55,409.95
91,50.4167,862.296,413.85,409.95
92,50.1265,849.468,413.85,412.25
93,49.8098,876.043,416.25,414.55
94,49.5274,853.827,418.75,416.85
95,49.2387,824.434,420.95,416.85
96,48.9327,899.553,420.95,419.15
97,48.6502,901.961,423.55,421.25
98,48.33491,867.943,426.05,423.35
99,48.0353,854.87,428.45,425.55
100,47.7304,905.126,428.45,425.55
101,47.4194,879.053,430.95,427.35
102,47.1104,866.995,433.25,429.85
103,46.8091,892.363,435.75,429.85
104,46.5192,903.707,435.75,431.75
105,46.2505,857.736,438.55,433.95
106,45.93601,820.198,441.25,436.45
107,45.5927,886.341,444.15,436.45
108,45.2949,879.136,447.35,438.95
109,44.98,866.936,447.35,441.45
110,44.6876,940.2,450.05,443.75
111,44.3706,909.728,453.05,446.45
112,44.0664,952.471,453.05,446.45
113,43.748,951.964,456.55,448.85
114,43.4515,909.745,459.55,451.65
115,43.1194,891.268,462.45,454.65
116,42.8211,938.888,462.45,454.65
117,42.5173,933.971,465.45,457.45
118,42.1882,925.645,468.75,460.55
119,41.87052,914.177,472.05,463.85
120,41.5584,934.378,475.55,463.85
121,41.2534,928.377,475.55,467.25
122,40.9314,925.558,478.75,470.65
123,40.6173,1004.41,482.05,474.15
124,40.2922,1031.99,485.35,474.15
125,39.95374,1011.92,485.35,477.65
126,39.6262,989.883,489.05,481.05
127,39.3087,966.25,492.25,484.85
128,39.0283,982.729,495.95,488.85
129,38.6987,1020.93,495.95,488.85
130,38.3644,934.954,499.95,492.75
131,37.982,1022.43,503.65,496.15
132,37.6284,983.833,507.45,499.85
133,37.3058,1033.32,507.45,499.85
134,36.9564,1062.65,511.35,503.75
135,36.65533,1070.84,515.15,507.75
136,36.2904,1045.92,519.05,511.85
137,35.9473,1056.45,523.55,511.85
138,35.5753,1005.04,523.55,515.95
139,35.2129,1059.67,527.65,520.15
140,34.8755,1096.59,532.05,524.65
141,34.5252,1127.71,535.95,524.65
142,34.1611,1043.11,535.95,529.35
143,33.7819,1047.54,540.15,534.05
144,33.42159,1107.33,544.95,538.65
145,33.0805,1071.66,549.65,543.45
146,32.6944,1126.72,549.65,543.45
147,32.3173,1053.2,553.85,548.45
148,31.92962,1125.32,558.35,553.65
149,31.5407,1105.83,562.25,553.65
150,31.1467,1183.57,567.15,559.25
151,30.7858,1258.57,567.15,564.45
152,30.3854,1118.5,572.35,569.95
153,29.9812,1102.79,577.05,577.05
154,29.5917,1061.09,577.05,577.05
155,29.2223,1103.12,580.45,583.95
156,28.8134,1112.3,584.35,591.65
157,28.4031,1125.07,588.15,599.75
158,27.9911,1144.79,592.25,599.75
159,27.5893,1126.27,592.25,607.75
160,27.0979,1101.03,596.85,616.05
161,26.6204,1125.66,,
162,26.3063,1137.37,,
163,25.939,1133.7,,
164,25.5289,1235.74,,
165,25.1255,1159.61,,
166,24.6903,1206.07,,
167,24.2835,1336.32,,
168,23.8805,1262.31,,
169,23.47584,1225.95,,
170,23.0949,1220.67,,
171,22.653,1231.8,,
172,22.1935,1244.02,,
173,21.8071,1167.54,,
174,21.4149,1218.01,,
175,21.0095,1164.24,,
176,20.576,1181.64,,
177,20.1583,1174.11,,
178,19.6984,1240.52,,
179,19.2763,1202.18,,
180,18.8196,1203.74,,
181,18.3487,1355.48,,
182,17.9309,1308.12,,
183,17.5613,1235.82,,
184,17.1561,1128.54,,
185,16.7657,1063.48,,
186,16.3783,1022.26,,
187,15.9726,992.554,,
188,15.6235,998.235,,
189,15.2726,877.606,,
190,14.9562,824.204,,
191,14.6529,745.204,,
192,14.37209,690.382,,
193,14.1452,707.591,,
194,13.9151,637.269,,
195,13.6908,608.767,,
196,13.48658,582.292,,
197,13.2956,537.574,,
198,13.0388,489.124,,
199,12.8252,477.347,,
200,12.6794,442.009,,
201,12.5293,428.693,,
202,12.3712,411.478,,
203,12.2342,392.232,,
204,12.1137,387.403,,
205,11.9668,361.95,,
206,11.81385,351.312,,
207,11.716,339.852,,
208,11.613,335.942,,
209,11.4705,324.68,,
210,11.3038,310.801,,
211,11.1723,300.887,,
212,11.0509,300.078,,
213,10.92778,297.519,,
214,10.8197,292.261,,
215,10.6749,293.219,,
216,10.5512,289.65,,
217,10.4286,289.363,,
218,10.2728,283.15,,
219,10.1582,276.589,,
220,10.0781,271.239,,
221,9.97555,277.249,,
222,9.83696,280.659,,
223,9.711409,275.909,,
224,9.651805,274.322,,
225,9.618347,275.117,,
226,9.482693,277.073,,
227,9.326946,282.155,,
228,9.222602,284.379,,
229,9.190726,275.044,,
230,9.078368,271.281,,
231,8.929748,273.681,,
232,8.819887,278.193,,
233,8.718673,277.819,,
234,8.614173,273.869,,
235,8.500703,281.979,,
236,8.405445,278.548,,
237,8.311177,281.777,,
238,8.171884,282.065,,
239,8.04784,286.548,,
240,7.953033,288.965,,
241,7.842179,283.173,,
242,7.702698,282.204,,
243,7.576284,288.174,,
244,7.454365,284.964,,
245,7.367482,283.802,,
246,7.346754,278.026,,
247,7.296939,282.777,,
248,7.20542,281.11,,
249,7.078327,273.142,,
250,6.955822,277.86,,
251,6.81964,278.727,,
252,6.69217,276.82,,
253,6.603335,275.978,,
254,6.491134,274.849,,
255,6.347972,264.651,,
256,6.213838,264.552,,
257,6.118861,267.209,,
258,6.016519,260.617,,
259,5.873878,256.729,,
260,5.744734,264.158,,
261,5.661014,255.975,,
262,5.587159,258.644,,
263,5.453284,254.08,,
264,5.293651,245.299,,
265,5.198669,242.403,,
266,5.119504,242.832,,
267,5.092147,245.186,,
268,5.12929,250.951,,
269,5.049355,242.766,,
270,4.951086,249.725,,
271,4.815206,253.29,,
272,4.66512,258.016,,
273,4.576581,250.903,,
274,4.588491,250.153,,
275,4.473063,252.785,,
276,4.290153,255.479,,
277,4.124315,252.164,,
278,4.03082,250.789,,
279,4.10082,248.634,,
280,4.137439,257.712,,
281,4.067239,251.836,,
282,4.014738,251.176,,
283,3.945165,243.62,,
284,3.799491,238.645,,
285,3.643102,240.504,,
286,3.498005,242.984,,
287,3.371796,233.972,,
288,3.19071,238.342,,
289,3.009066,237.586,,
290,2.906166,232.768,,
291,2.814385,228.705,,
292,2.689249,226.307,,
293,2.749698,219.048,,
294,2.746103,208.35,,
295,2.652978,206.23,,
296,2.586996,200.025,,
297,2.569486,191.696,,
298,2.476222,191.945,,
299,2.374414,180.942,,
300,2.262748,174.178,,
301,2.187236,170.897,,
302,2.153884,159.001,,
303,2.124106,154.032,,
304,2.057157,150.453,,
305,1.998546,151.136,,
306,1.984096,146.371,,
307,1.933674,143.136,,
308,1.891131,137.832,,
309,1.840298,137.503,,
310,1.773382,131.897,,
311,1.719261,129.629,,
312,1.66909,127.987,,
313,1.635812,128.652,,
314,1.593928,128.655,,
315,1.530337,128.656,,
316,1.454192,126.039,,
317,1.449646,120.911,,
318,1.415521,119.997,,
319,1.316786,118.585,,
320,1.249999,117.592,,
321,1.249784,117.023,,
322,1.249403,115.165,,
323,1.210228,115.866,,
324,1.133088,114.882,,
325,1.117671,115.218,,
326,1.078564,115.266,,
327,1.019972,111.903,,
328,0.952261,107.167,,
329,0.906329,100.794,,
330,0.897906,86.2144,,
331,0.865315,78.0888,,
332,0.796232,69.4954,,
333,0.799516,62.7762,,
334,0.818542,58.2663,,
335,0.804578,51.6502,,
336,0.763002,46.7703,,
337,0.743463,42.8413,,
338,0.75055,37.8732,,
339,0.70379,35.5908,,
340,0.659161,34.5836,,
341,0.645324,33.4839,,
342,0.651737,32.2937,,
343,0.669663,30.2643,,
344,0.630034,29.0944,,
345,0.571621,27.9164,,
346,0.580408,27.0967,,
347,0.631795,27.744,,
348,0.585588,27.5082,,
349,0.537347,27.4362,,
350,0.555494,27.1634,,
351,0.569702,26.5152,,
352,0.529733,26.2668,,
353,0.496407,25.8394,,
354,0.485177,24.1542,,
355,0.535406,22.7221,,
356,0.621328,21.963,,
357,0.639,21.1571,,
358,0.651085,20.0474,,
359,0.701827,18.9514,,
360,0.727577,17.893,,
361,0.705055,16.6842,,
362,0.694951,16.1177,,
363,0.716251,15.116,,
364,0.703827,13.9384,,
365,0.648351,12.8335,,
366,0.617797,12.0354,,
367,0.649211,11.1676,,
368,0.664375,10.2376,,
369,0.630843,9.87073,,
370,0.612042,9.72352,,
371,0.632348,9.3209,,
372,0.633032,8.59789,,
373,0.595046,8.51423,,
374,0.571708,8.56225,,
375,0.610817,8.80126,,
376,0.661379,8.85997,,
377,0.622532,8.10031,,
378,0.55044,7.6903,,
379,0.531022,7.82147,,
380,0.556722,7.87765,,
381,0.550082,7.62623,,
382,0.540564,7.38905,,
383,0.537391,7.21745,,
384,0.560684,7.11125,,
385,0.538136,7.23677,,
386,0.519749,6.70643,,
387,0.535305,6.73716,,
388,0.568335,6.47218,,
389,0.536077,5.54682,,
390,0.499436,5.45853,,
391,0.494939,5.39514,,
392,0.518321,5.72756,,
393,0.516596,5.47799,,
394,0.489734,4.9432,,
395,0.500375,4.69869,,
396,0.523206,3.93385,,
397,0.529587,3.86982,,
398,0.501729,4.17904,,
399,0.485156,4.45128,,
400,0.518351,3.46122,,
401,0.531116,3.03993,,
402,0.499967,3.07605,,
403,0.481396,3.20207,,
404,0.525846,2.67319,,
405,0.535388,2.56682,,
406,0.494619,2.4527,,
407,0.489044,2.24549,,
408,0.514319,2.33771,,
409,0.5208,2.49382,,
410,0.492623,2.76478,,
411,0.475253,2.76119,,
412,0.492929,2.62513,,
413,0.517643,2.42169,,
414,0.503043,2.41564,,
415,0.468832,2.70028,,
416,0.477898,3.01713,,
417,0.502718,2.88473,,
418,0.479359,2.72294,,
419,0.442046,2.6552,,
420,0.464942,2.19474,,
421,0.515517,2.02459,,
422,0.490417,2.29463,,
423,0.466274,2.14879,,
424,0.474501,1.894245,,
425,0.493109,1.83804,,
426,0.480019,1.865615,,
427,0.439559,1.41889,,
428,0.436592,1.43588,,
429,0.475487,1.25413,,
430,0.489358,1.03184,,
431,0.44945,1.07165,,
432,0.436397,0.517452,,
433,0.470995,0.492372,,
434,0.472657,0.585771,,
435,0.454123,0.90807,,
436,0.430899,1.11382,,
437,0.471292,1.10925,,
438,0.505645,1.27667,,
439,0.481371,1.58895,,
440,0.464258,1.60398,,
441,0.491308,1.33671,,
442,0.509141,1.17865,,
443,0.472851,1.16253,,
444,0.431002,1.16036,,
445,0.470692,0.782834,,
446,0.491057,0.518586,,
447,0.452311,-0.445025,,
448,0.427661,-0.729702,,
449,0.454316,-0.709745,,
450,0.473805,-0.459421,,
451,0.44267,-0.206866,,
452,0.425025,-0.206129,,
453,0.465,0.19166,,
454,0.48929,0.285568,,
455,0.44311,0.323618,,
456,0.413188,0.520407,,
457,0.432514,0.7660575,,
458,0.472964,0.604937,,
459,0.466294,0.416791,,
460,0.430997,0.37754,,
461,0.430332,0.433646,,
462,0.459428,0.640205,,
463,0.446998,1.59579,,
464,0.412324,1.54848,,
465,0.417824,1.37619,,
466,0.468339,1.33341,,
467,0.495775,1.39258,,
468,0.483251,1.64987,,
469,0.479812,1.67357,,
470,0.512954,1.41437,,
471,0.502559,1.25809,,
472,0.465052,1.26037,,
473,0.454621,1.48587,,
474,0.472484,1.65878,,
475,0.479388,2.45617,,
476,0.451406,2.34988,,
477,0.429951,2.26942,,
478,0.447156,2.31316,,
479,0.454571,2.4516,,
480,0.442046,1.89632,,
481,0.444721,1.55741,,
482,0.459309,1.36387,,
483,0.479784,0.533007,,
484,0.491949,0.408292,,
485,0.486858,0.608189,,
486,0.473873,0.848166,,
487,0.456443,0.657576,,
488,0.460969,0.44299,,
489,0.464055,0.380886,,
490,0.446497,0.434826,,
491,0.45241,0.594295,,
492,0.455678,0.806803,,
493,0.456,0.614239,,
494,0.466333,0.344841,,
495,0.473839,0.289293,,
496,0.466892,0.377183,,
497,0.45325,0.611588,,
498,0.44721,0.733878,,
499,0.44921,0.483879,,
500,0.45,0.283596,,