File: Non-charring/PMMA/TIFP/TIFP_TGA_N2_10K_1.csv
Time,Temperature,Mass
[s],[K],[mg]
0,300.105,5.4338
4.8,300.105,5.43648
9.6,300.105,5.43648
14.4,300.107,5.43782
19.2,300.103,5.43749
24,300.11,5.43749
28.8,300.109,5.43916
33.6,300.111,5.43917
38.4,300.11,5.44051
43.2,300.11,5.44185
48,300.114,5.44185
52.8,300.116,5.44219
57.6,300.116,5.44353
62.4,300.12,5.44487
67.2,300.118,5.4452
72,300.118,5.44487
76.8,300.123,5.44621
81.6,300.123,5.44621
86.4,300.124,5.44755
91.2,300.126,5.44755
96,300.125,5.44755
100.8,300.127,5.44755
105.6,300.127,5.44621
110.4,300.127,5.44889
115.2,300.132,5.44889
120,300.132,5.44889
124.8,300.131,5.45023
129.6,300.136,5.45191
134.4,300.135,5.45325
139.2,300.134,5.45057
144,300.131,5.45057
148.8,300.133,5.45225
153.6,300.139,5.45258
158.4,300.139,5.45326
163.2,300.139,5.45359
168,300.141,5.4546
172.8,300.14,5.45392
177.6,300.138,5.45258
182.4,300.139,5.45392
187.2,300.145,5.4566
192,300.143,5.4566
196.8,300.147,5.4566
201.6,300.147,5.45761
206.4,300.147,5.45761
211.2,300.148,5.45795
216,300.15,5.45828
220.8,300.146,5.45828
225.6,300.149,5.45963
230.4,300.148,5.45963
235.2,300.152,5.45963
240,300.151,5.46097
244.8,300.147,5.46097
249.6,300.152,5.46097
254.4,300.152,5.4613
259.2,300.152,5.46231
264,300.154,5.46097
268.8,300.154,5.46298
273.6,300.154,5.46264
278.4,300.156,5.46231
283.2,300.155,5.46499
288,300.156,5.46499
292.8,300.155,5.46365
297.6,300.157,5.46365
300.6498,300.154,5.46365
303.0498,300.157,5.46365
305.4498,300.159,5.46499
307.8498,300.157,5.46499
310.2498,300.159,5.46645
312.6498,300.163,5.46655
315.0498,300.169,5.46644
317.4498,300.177,5.46801
319.8498,300.196,5.46745
322.2498,300.212,5.46745
324.6498,300.236,5.46621
327.0498,300.267,5.46555
329.4498,300.305,5.46577
331.8498,300.353,5.46768
334.2498,300.41,5.46823
336.6498,300.475,5.46846
339.0498,300.548,5.46756
341.4498,300.633,5.46823
343.8498,300.731,5.4689
346.2498,300.839,5.46722
348.6498,300.957,5.46835
351.0498,301.09,5.46767
353.4498,301.239,5.46723
355.8498,301.398,5.46722
358.2498,301.572,5.46733
360.6498,301.764,5.46946
363.0498,301.966,5.46846
365.4498,302.186,5.46812
367.8498,302.423,5.46957
370.2498,302.676,5.47013
372.6498,302.942,5.47092
375.0498,303.228,5.47036
377.4498,303.527,5.46901
379.8498,303.839,5.4698
382.2498,304.171,5.47014
384.6498,304.517,5.47047
387.0498,304.879,5.47125
389.4498,305.259,5.47147
391.8498,305.649,5.4708
394.2498,306.058,5.47248
396.6498,306.481,5.47192
399.0498,306.911,5.4717
401.4498,307.362,5.4718
403.8498,307.818,5.47114
406.2498,308.295,5.47181
408.6498,308.78,5.47404
411.0498,309.277,5.47338
413.4498,309.783,5.47349
415.8498,310.299,5.47181
418.2498,310.824,5.4727
420.6498,311.36,5.47035
423.0498,311.908,5.46969
425.4498,312.457,5.46968
427.8498,313.016,5.47092
430.2498,313.581,5.47148
432.6498,314.152,5.47148
435.0498,314.723,5.4726
437.4498,315.307,5.47348
439.8498,315.894,5.47315
442.2498,316.476,5.47304
444.6498,317.067,5.47405
447.0498,317.663,5.47326
449.4498,318.255,5.47415
451.8498,318.85,5.4746
454.2498,319.448,5.47427
456.6498,320.043,5.47404
459.0498,320.643,5.47371
461.4498,321.236,5.47293
463.8498,321.834,5.47293
466.2498,322.425,5.47281
468.6498,323.02,5.47382
471.0498,323.614,5.47505
473.4498,324.2,5.47405
475.8498,324.786,5.47516
478.2498,325.368,5.47416
480.6498,325.948,5.4755
483.0498,326.527,5.4755
485.4498,327.098,5.47415
487.8498,327.665,5.47281
490.2498,328.232,5.47281
492.6498,328.794,5.47415
495.0498,329.351,5.47382
497.4498,329.901,5.47382
499.8498,330.451,5.47382
502.2498,330.993,5.47281
504.6498,331.538,5.47281
507.0498,332.074,5.47382
509.4498,332.6,5.47517
511.8498,333.125,5.4755
514.2498,333.65,5.47549
516.6498,334.166,5.47549
519.0498,334.675,5.47684
521.4498,335.183,5.47684
523.8498,335.684,5.47684
526.2498,336.184,5.47718
528.6498,336.678,5.47572
531.0498,337.165,5.47505
533.4498,337.648,5.47405
535.8498,338.131,5.47561
538.2498,338.608,5.47695
540.6498,339.078,5.47695
543.0498,339.549,5.47695
545.4498,340.013,5.47695
547.8498,340.473,5.47606
550.2498,340.931,5.47539
552.6498,341.385,5.47394
555.0498,341.838,5.47327
557.4498,342.286,5.47393
559.8498,342.728,5.47393
562.2498,343.172,5.47527
564.6498,343.61,5.47527
567.0498,344.044,5.47661
569.4498,344.477,5.47795
571.8498,344.907,5.47795
574.2498,345.335,5.47795
576.6498,345.762,5.47929
579.0498,346.188,5.47795
581.4498,346.61,5.47795
583.8498,347.032,5.47695
586.2498,347.447,5.47661
588.6498,347.864,5.47796
591.0498,348.278,5.47662
593.4498,348.693,5.47796
595.8498,349.104,5.47796
598.2498,349.517,5.47796
600.6498,349.927,5.47796
603.0498,350.333,5.4793
605.4498,350.74,5.4793
607.8498,351.146,5.48031
610.2498,351.551,5.48064
612.6498,351.956,5.48064
615.0498,352.36,5.48064
617.4498,352.763,5.4793
619.8498,353.165,5.4793
622.2498,353.566,5.4793
624.6498,353.969,5.4793
627.0498,354.371,5.4793
629.4498,354.775,5.4793
631.8498,355.173,5.47796
634.2498,355.573,5.4793
636.6498,355.972,5.4793
639.0498,356.372,5.4793
641.4498,356.768,5.47929
643.8498,357.168,5.47929
646.2498,357.57,5.47929
648.6498,357.965,5.47929
651.0498,358.364,5.47929
653.4498,358.762,5.47929
655.8498,359.158,5.4803
658.2498,359.56,5.4793
660.6498,359.957,5.4793
663.0498,360.355,5.4793
665.4498,360.75,5.47997
667.8498,361.151,5.48064
670.2498,361.544,5.48064
672.6498,361.946,5.4793
675.0498,362.343,5.47963
677.4498,362.739,5.48064
679.8498,363.138,5.48064
682.2498,363.532,5.48064
684.6498,363.929,5.48097
687.0498,364.324,5.48064
689.4498,364.727,5.48198
691.8498,365.121,5.48198
694.2498,365.52,5.48199
696.6498,365.916,5.48199
699.0498,366.315,5.48199
701.4498,366.713,5.48232
703.8498,367.109,5.48198
706.2498,367.504,5.48198
708.6498,367.902,5.48198
711.0498,368.298,5.48198
713.4498,368.698,5.48198
715.8498,369.092,5.48198
718.2498,369.488,5.48198
720.6498,369.885,5.48198
723.0498,370.283,5.48332
725.4498,370.68,5.48198
727.8498,371.077,5.48198
730.2498,371.476,5.48198
732.6498,371.869,5.48332
735.0498,372.262,5.48332
737.4498,372.66,5.48466
739.8498,373.054,5.4831
742.2498,373.449,5.48153
744.6498,373.85,5.48153
747.0498,374.247,5.48153
749.4498,374.642,5.48153
751.8498,375.037,5.48153
754.2498,375.433,5.48288
756.6498,375.828,5.48288
759.0498,376.227,5.48254
761.4498,376.623,5.48288
763.8498,377.017,5.48288
766.2498,377.413,5.48288
768.6498,377.809,5.48288
771.0498,378.204,5.48154
773.4498,378.599,5.48187
775.8498,378.993,5.48254
778.2498,379.393,5.48153
780.6498,379.786,5.48153
783.0498,380.187,5.48287
785.4498,380.58,5.48187
787.8498,380.976,5.48254
790.2498,381.372,5.48287
792.6498,381.769,5.48287
795.0498,382.168,5.48287
797.4498,382.562,5.48287
799.8498,382.96,5.48287
802.2498,383.358,5.48287
804.6498,383.754,5.48153
807.0498,384.151,5.48422
809.4498,384.546,5.48869
811.8498,384.944,5.46879
814.2498,385.34,5.50714
816.6498,385.737,5.47729
819.0498,386.134,5.48187
821.4498,386.533,5.49406
823.8498,386.931,5.49819
826.2498,387.327,5.50266
828.6498,387.727,5.48668
831.0498,388.126,5.49707
833.4498,388.527,5.48925
835.8498,388.923,5.49506
838.2498,389.323,5.48176
840.6498,389.724,5.5002
843.0498,390.12,5.48723
845.4498,390.521,5.48556
847.8498,390.918,5.48556
850.2498,391.322,5.48422
852.6498,391.722,5.48422
855.0498,392.124,5.48422
857.4498,392.524,5.4831
859.8498,392.924,5.48276
862.2498,393.327,5.48411
864.6498,393.728,5.48411
867.0498,394.127,5.48545
869.4498,394.53,5.48545
871.8498,394.93,5.48411
874.2498,395.332,5.48411
876.6498,395.735,5.48511
879.0498,396.137,5.48545
881.4498,396.54,5.48411
883.8498,396.941,5.48411
886.2498,397.345,5.48478
888.6498,397.745,5.48478
891.0498,398.148,5.48478
893.4498,398.554,5.48411
895.8498,398.956,5.48444
898.2498,399.358,5.4841
900.6498,399.762,5.4841
903.0498,400.165,5.4841
905.4498,400.565,5.4831
907.8498,400.97,5.4841
910.2498,401.372,5.4841
912.6498,401.78,5.48511
915.0498,402.18,5.48511
917.4498,402.585,5.48477
919.8498,402.987,5.48444
922.2498,403.393,5.48444
924.6498,403.797,5.48377
927.0498,404.199,5.48478
929.4498,404.601,5.48478
931.8498,405.006,5.48478
934.2498,405.408,5.48377
936.6498,405.814,5.48377
939.0498,406.218,5.48444
941.4498,406.622,5.48444
943.8498,407.023,5.48344
946.2498,407.426,5.48176
948.6498,407.829,5.48176
951.0498,408.233,5.48702
953.4498,408.637,5.46891
955.8498,409.039,5.46253
958.2498,409.442,5.45336
960.6498,409.846,5.49216
963.0498,410.249,5.47874
965.4498,410.651,5.4774
967.8498,411.055,5.4774
970.2498,411.456,5.47874
972.6498,411.859,5.47874
975.0498,412.262,5.47874
977.4498,412.663,5.47874
979.8498,413.063,5.4774
982.2498,413.469,5.4774
984.6498,413.871,5.4774
987.0498,414.274,5.4774
989.4498,414.679,5.4774
991.8498,415.081,5.47874
994.2498,415.482,5.47874
996.6498,415.887,5.4774
999.0498,416.289,5.4774
1001.45,416.69,5.47874
1003.85,417.096,5.47717
1006.25,417.495,5.47717
1008.65,417.899,5.47717
1011.05,418.302,5.47717
1013.45,418.704,5.47583
1015.85,419.108,5.47583
1018.25,419.51,5.47583
1020.65,419.916,5.47717
1023.05,420.315,5.47717
1025.45,420.717,5.47717
1027.85,421.122,5.47583
1030.25,421.522,5.47583
1032.65,421.927,5.47583
1035.05,422.328,5.47583
1037.45,422.728,5.47449
1039.85,423.131,5.47449
1042.25,423.535,5.47349
1044.65,423.938,5.47449
1047.05,424.339,5.47449
1049.45,424.742,5.47382
1051.85,425.146,5.47382
1054.25,425.549,5.47382
1056.65,425.951,5.47281
1059.05,426.351,5.47248
1061.45,426.754,5.47248
1063.85,427.157,5.47382
1066.25,427.559,5.47382
1068.65,427.958,5.47281
1071.05,428.36,5.47114
1073.45,428.761,5.47114
1075.85,429.166,5.47147
1078.25,429.567,5.47147
1080.65,429.965,5.47248
1083.05,430.367,5.47035
1085.45,430.768,5.46935
1087.85,431.167,5.47069
1090.25,431.573,5.4717
1092.65,431.97,5.47203
1095.05,432.372,5.47069
1097.45,432.773,5.47069
1099.85,433.174,5.47002
1102.25,433.575,5.46935
1104.65,433.972,5.47069
1107.05,434.373,5.46935
1109.45,434.773,5.46935
1111.85,435.172,5.46935
1114.25,435.573,5.47069
1116.65,435.974,5.47069
1119.05,436.374,5.47069
1121.45,436.771,5.46935
1123.85,437.172,5.46935
1126.25,437.572,5.46901
1128.65,437.971,5.46701
1131.05,438.369,5.46701
1133.45,438.769,5.46701
1135.85,439.171,5.46835
1138.25,439.568,5.46835
1140.65,439.968,5.46835
1143.05,440.366,5.46835
1145.45,440.766,5.46701
1147.85,441.165,5.46566
1150.25,441.564,5.467
1152.65,441.964,5.467
1155.05,442.365,5.46633
1157.45,442.764,5.46599
1159.85,443.163,5.46599
1162.25,443.559,5.46599
1164.65,443.96,5.46465
1167.05,444.359,5.46566
1169.45,444.757,5.46566
1171.85,445.156,5.467
1174.25,445.556,5.467
1176.65,445.954,5.467
1179.05,446.355,5.467
1181.45,446.755,5.46566
1183.85,447.155,5.46566
1186.25,447.552,5.46566
1188.65,447.949,5.46566
1191.05,448.35,5.46566
1193.45,448.748,5.46466
1195.85,449.148,5.46432
1198.25,449.545,5.46432
1200.65,449.943,5.46432
1203.05,450.346,5.46298
1205.45,450.741,5.46332
1207.85,451.142,5.46298
1210.25,451.542,5.46163
1212.65,451.939,5.4613
1215.05,452.339,5.45996
1217.45,452.738,5.45929
1219.85,453.134,5.45895
1222.25,453.534,5.46041
1224.65,453.933,5.46175
1227.05,454.331,5.46342
1229.45,454.729,5.46343
1231.85,455.128,5.46309
1234.25,455.524,5.46611
1236.65,455.925,5.45437
1239.05,456.325,5.45168
1241.45,456.724,5.46376
1243.85,457.12,5.46063
1246.25,457.521,5.46063
1248.65,457.919,5.4603
1251.05,458.314,5.45761
1253.45,458.715,5.45694
1255.85,459.114,5.45761
1258.25,459.512,5.45627
1260.65,459.914,5.45627
1263.05,460.312,5.45627
1265.45,460.709,5.45627
1267.85,461.112,5.45694
1270.25,461.51,5.45694
1272.65,461.907,5.45694
1275.05,462.307,5.45694
1277.45,462.707,5.45593
1279.85,463.105,5.45593
1282.25,463.504,5.45593
1284.65,463.905,5.4556
1287.05,464.302,5.45459
1289.45,464.699,5.45459
1291.85,465.099,5.45459
1294.25,465.5,5.45593
1296.65,465.9,5.45593
1299.05,466.298,5.4556
1301.45,466.699,5.45459
1303.85,467.099,5.45325
1306.25,467.497,5.45325
1308.65,467.896,5.45191
1311.05,468.292,5.45258
1313.45,468.695,5.45325
1315.85,469.093,5.45325
1318.25,469.494,5.45459
1320.65,469.891,5.4556
1323.05,470.29,5.4556
1325.45,470.689,5.45426
1327.85,471.089,5.45426
1330.25,471.491,5.45292
1332.65,471.888,5.45158
1335.05,472.288,5.45158
1337.45,472.687,5.45158
1339.85,473.086,5.45158
1342.25,473.491,5.45158
1344.65,473.886,5.45158
1347.05,474.285,5.45023
1349.45,474.682,5.45023
1351.85,475.087,5.45057
1354.25,475.485,5.45158
1356.65,475.882,5.45124
1359.05,476.283,5.45023
1361.45,476.683,5.44889
1363.85,477.084,5.44889
1366.25,477.484,5.44889
1368.65,477.883,5.44889
1371.05,478.284,5.44889
1373.45,478.684,5.45023
1375.85,479.082,5.45023
1378.25,479.485,5.45023
1380.65,479.882,5.45023
1383.05,480.283,5.45023
1385.45,480.683,5.45023
1387.85,481.081,5.45023
1390.25,481.483,5.45023
1392.65,481.882,5.44889
1395.05,482.282,5.44755
1397.45,482.682,5.44755
1399.85,483.08,5.44755
1402.25,483.481,5.44889
1404.65,483.883,5.44889
1407.05,484.28,5.44889
1409.45,484.679,5.44789
1411.85,485.08,5.44755
1414.25,485.479,5.44889
1416.65,485.88,5.44889
1419.05,486.282,5.44755
1421.45,486.678,5.44755
1423.85,487.079,5.44722
1426.25,487.479,5.44621
1428.65,487.877,5.44621
1431.05,488.276,5.44487
1433.45,488.678,5.44588
1435.85,489.078,5.44453
1438.25,489.477,5.44319
1440.65,489.876,5.44431
1443.05,490.274,5.44744
1445.45,490.676,5.45045
1447.85,491.074,5.45045
1450.25,491.474,5.44957
1452.65,491.871,5.44822
1455.05,492.269,5.44822
1457.45,492.669,5.44822
1459.85,493.064,5.44923
1462.25,493.466,5.4509
1464.65,493.864,5.45191
1467.05,494.264,5.45124
1469.45,494.664,5.44945
1471.85,495.063,5.44945
1474.25,495.465,5.44945
1476.65,495.859,5.44945
1479.05,496.26,5.44677
1481.45,496.658,5.44677
1483.85,497.057,5.44677
1486.25,497.454,5.44598
1488.65,497.853,5.44297
1491.05,498.251,5.44297
1493.45,498.649,5.44297
1495.85,499.049,5.44297
1498.25,499.449,5.4423
1500.65,499.846,5.44163
1503.05,500.244,5.44163
1505.45,500.641,5.44029
1507.85,501.041,5.44029
1510.25,501.44,5.43894
1512.65,501.837,5.43894
1515.05,502.237,5.43894
1517.45,502.634,5.44028
1519.85,503.032,5.44107
1522.25,503.432,5.44207
1524.65,503.831,5.44207
1527.05,504.231,5.44207
1529.45,504.63,5.44207
1531.85,505.027,5.44073
1534.25,505.425,5.44073
1536.65,505.824,5.44073
1539.05,506.225,5.44073
1541.45,506.622,5.44073
1543.85,507.022,5.44207
1546.25,507.421,5.44341
1548.65,507.819,5.44218
1551.05,508.218,5.44029
1553.45,508.617,5.44029
1555.85,509.015,5.44029
1558.25,509.416,5.43962
1560.65,509.815,5.43895
1563.05,510.216,5.44029
1565.45,510.616,5.44029
1567.85,511.017,5.44029
1570.25,511.418,5.44029
1572.65,511.814,5.43895
1575.05,512.211,5.44029
1577.45,512.615,5.44029
1579.85,513.011,5.43895
1582.25,513.412,5.43895
1584.65,513.812,5.43895
1587.05,514.209,5.4376
1589.45,514.611,5.4376
1591.85,515.007,5.4376
1594.25,515.412,5.4376
1596.65,515.807,5.43625
1599.05,516.211,5.43625
1601.45,516.606,5.4376
1603.85,517.009,5.4376
1606.25,517.409,5.4376
1608.65,517.81,5.4376
1611.05,518.207,5.4376
1613.45,518.609,5.4376
1615.85,519.006,5.43626
1618.25,519.407,5.43626
1620.65,519.806,5.43626
1623.05,520.204,5.43626
1625.45,520.604,5.43626
1627.85,521.007,5.43626
1630.25,521.406,5.43491
1632.65,521.801,5.43491
1635.05,522.202,5.43491
1637.45,522.602,5.43626
1639.85,523.002,5.43492
1642.25,523.402,5.43492
1644.65,523.8,5.43425
1647.05,524.2,5.43358
1649.45,524.6,5.43358
1651.85,525,5.43223
1654.25,525.398,5.43089
1656.65,525.798,5.43156
1659.05,526.198,5.43224
1661.45,526.596,5.43223
1663.85,526.993,5.43189
1666.25,527.393,5.43189
1668.65,527.793,5.43324
1671.05,528.192,5.4319
1673.45,528.589,5.43033
1675.85,528.989,5.43167
1678.25,529.39,5.43167
1680.65,529.79,5.43033
1683.05,530.19,5.43033
1685.45,530.586,5.43033
1687.85,530.987,5.42899
1690.25,531.386,5.42865
1692.65,531.784,5.42631
1695.05,532.184,5.42631
1697.45,532.582,5.42497
1699.85,532.979,5.42531
1702.25,533.379,5.42698
1704.65,533.779,5.42698
1707.05,534.176,5.42597
1709.45,534.578,5.42597
1711.85,534.976,5.42463
1714.25,535.375,5.42329
1716.65,535.776,5.42329
1719.05,536.175,5.42195
1721.45,536.574,5.42195
1723.85,536.974,5.42195
1726.25,537.375,5.42161
1728.65,537.775,5.42027
1731.05,538.176,5.41926
1733.45,538.579,5.41792
1735.85,538.979,5.41792
1738.25,539.382,5.41658
1740.65,539.78,5.41658
1743.05,540.183,5.41524
1745.45,540.586,5.4149
1747.85,540.991,5.4129
1750.25,541.391,5.41122
1752.65,541.792,5.40988
1755.05,542.196,5.40987
1757.45,542.598,5.40987
1759.85,543.001,5.40954
1762.25,543.405,5.40809
1764.65,543.807,5.40675
1767.05,544.212,5.40541
1769.45,544.613,5.40395
1771.85,545.015,5.4025
1774.25,545.42,5.40093
1776.65,545.821,5.39713
1779.05,546.226,5.39546
1781.45,546.63,5.39479
1783.85,547.029,5.39289
1786.25,547.433,5.39176
1788.65,547.833,5.38953
1791.05,548.239,5.38684
1793.45,548.642,5.38483
1795.85,549.044,5.38226
1798.25,549.448,5.38002
1800.65,549.848,5.37846
1803.05,550.249,5.37511
1805.45,550.654,5.37253
1807.85,551.054,5.36996
1810.25,551.456,5.36672
1812.65,551.858,5.36504
1815.05,552.258,5.36203
1817.45,552.66,5.35979
1819.85,553.061,5.35565
1822.25,553.463,5.3523
1824.65,553.863,5.34828
1827.05,554.267,5.34403
1829.45,554.669,5.34034
1831.85,555.07,5.33643
1834.25,555.471,5.3324
1836.65,555.875,5.32759
1839.05,556.273,5.32357
1841.45,556.673,5.32044
1843.85,557.073,5.31563
1846.25,557.475,5.31105
1848.65,557.872,5.30692
1851.05,558.273,5.3011
1853.45,558.675,5.29484
1855.85,559.076,5.28969
1858.25,559.478,5.28377
1860.65,559.877,5.27807
1863.05,560.281,5.27103
1865.45,560.678,5.26477
1867.85,561.082,5.25973
1870.25,561.478,5.25236
1872.65,561.882,5.24643
1875.05,562.282,5.24006
1877.45,562.682,5.23223
1879.85,563.081,5.2262
1882.25,563.48,5.21759
1884.65,563.88,5.21077
1887.05,564.285,5.20339
1889.45,564.682,5.194
1891.85,565.081,5.18405
1894.25,565.483,5.17489
1896.65,565.883,5.16561
1899.05,566.281,5.15611
1901.45,566.68,5.1465
1903.85,567.081,5.1361
1906.25,567.479,5.127369
1908.65,567.879,5.11642
1911.05,568.278,5.10602
1913.45,568.677,5.09596
1915.85,569.077,5.08344
1918.25,569.473,5.07014
1920.65,569.875,5.05874
1923.05,570.273,5.04823
1925.45,570.673,5.03593
1927.85,571.072,5.02218
1930.25,571.469,5.01044
1932.65,571.87,4.99714
1935.05,572.269,4.98406
1937.45,572.667,4.96975
1939.85,573.065,4.95533
1942.25,573.463,4.94024
1944.65,573.862,4.9247
1947.05,574.26,4.91061
1949.45,574.659,4.89474
1951.85,575.06,4.87797
1954.25,575.461,4.86131
1956.65,575.859,4.8442
1959.05,576.26,4.82687
1961.45,576.657,4.81011
1963.85,577.059,4.79233
1966.25,577.461,4.77422
1968.65,577.863,4.75611
1971.05,578.261,4.73565
1973.45,578.663,4.71654
1975.85,579.068,4.69742
1978.25,579.467,4.67887
1980.65,579.871,4.65964
1983.05,580.275,4.63896
1985.45,580.671,4.61805
1987.85,581.077,4.59726
1990.25,581.479,4.57445
1992.65,581.882,4.55298
1995.05,582.284,4.53197
1997.45,582.687,4.51084
1999.85,583.09,4.48837
2002.25,583.492,4.46791
2004.65,583.894,4.44611
2007.05,584.296,4.42398
2009.45,584.699,4.40173
2011.85,585.101,4.37848
2014.25,585.506,4.35612
2016.65,585.908,4.33253
2019.05,586.307,4.30839
2021.45,586.712,4.28513
2023.85,587.111,4.26076
2026.25,587.518,4.23684
2028.65,587.919,4.21415
2031.05,588.322,4.19067
2033.45,588.724,4.16842
2035.85,589.127,4.14439
2038.25,589.53,4.12047
2040.65,589.933,4.09721
2043.05,590.336,4.07361
2045.45,590.736,4.05059
2047.85,591.144,4.02723
2050.25,591.546,4.0024
2052.65,591.945,3.97893
2055.05,592.352,3.95646
2057.45,592.753,3.93186
2059.85,593.159,3.90727
2062.25,593.56,3.88547
2064.65,593.962,3.86199
2067.05,594.363,3.83885
2069.45,594.767,3.81381
2071.85,595.169,3.791
2074.25,595.575,3.77021
2076.65,595.975,3.7474
2079.05,596.376,3.72393
2081.45,596.777,3.70112
2083.85,597.179,3.67832
2086.25,597.581,3.65652
2088.65,597.982,3.63382
2091.05,598.382,3.6118
2093.45,598.781,3.58966
2095.85,599.184,3.56675
2098.25,599.586,3.5445
2100.65,599.989,3.52237
2103.05,600.387,3.50124
2105.45,600.791,3.47988
2107.85,601.189,3.45752
2110.25,601.591,3.43617
2112.65,601.992,3.41493
2115.05,602.392,3.3947
2117.45,602.79,3.37368
2119.85,603.19,3.35088
2122.25,603.592,3.33087
2124.65,603.989,3.30985
2127.05,604.393,3.28973
2129.45,604.789,3.26994
2131.85,605.189,3.24859
2134.25,605.589,3.2288
2136.65,605.989,3.20845
2139.05,606.388,3.18643
2141.45,606.787,3.16664
2143.85,607.186,3.14529
2146.25,607.585,3.12528
2148.65,607.984,3.10628
2151.05,608.382,3.08761
2153.45,608.779,3.06905
2155.85,609.178,3.0516
2158.25,609.572,3.03294
2160.65,609.971,3.0136
2163.05,610.366,2.99426
2165.45,610.763,2.97637
2167.85,611.162,2.95826
2170.25,611.559,2.93836
2172.65,611.957,2.92025
2175.05,612.351,2.90281
2177.45,612.752,2.88426
2179.85,613.147,2.86581
2182.25,613.543,2.8458
2184.65,613.941,2.82803
2187.05,614.34,2.8107
2189.45,614.734,2.79337
2191.85,615.132,2.77548
2194.25,615.53,2.75748
2196.65,615.929,2.73848
2199.05,616.323,2.72026
2201.45,616.718,2.70192
2203.85,617.114,2.68403
2206.25,617.512,2.66727
2208.65,617.911,2.64871
2211.05,618.312,2.62825
2213.45,618.71,2.61126
2215.85,619.109,2.59349
2218.25,619.511,2.57515
2220.65,619.906,2.55805
2223.05,620.306,2.54005
2225.45,620.706,2.52216
2227.85,621.106,2.50215
2230.25,621.507,2.4817
2232.65,621.906,2.4637
2235.05,622.309,2.44503
2237.45,622.709,2.42736
2239.85,623.113,2.40836
2242.25,623.516,2.38958
2244.65,623.919,2.36867
2247.05,624.326,2.34956
2249.45,624.73,2.32988
2251.85,625.132,2.31043
2254.25,625.542,2.29053
2256.65,625.949,2.26918
2259.05,626.354,2.25285
2261.45,626.757,2.23564
2263.85,627.171,2.21686
2266.25,627.573,2.19674
2268.65,627.98,2.17706
2271.05,628.383,2.15828
2273.45,628.798,2.13916
2275.85,629.21,2.11636
2278.25,629.621,2.095
2280.65,630.028,2.07678
2283.05,630.439,2.05744
2285.45,630.854,2.03665
2287.85,631.262,2.01552
2290.25,631.675,1.99618
2292.65,632.089,1.97673
2295.05,632.506,1.95526
2297.45,632.915,1.93413
2299.85,633.331,1.91513
2302.25,633.743,1.89489
2304.65,634.159,1.87522
2307.05,634.571,1.85398
2309.45,634.987,1.8314
2311.85,635.4,1.80859
2314.25,635.817,1.78601
2316.65,636.233,1.76398
2319.05,636.646,1.74185
2321.45,637.058,1.72228
2323.85,637.469,1.70239
2326.25,637.881,1.68215
2328.65,638.292,1.66102
2331.05,638.705,1.639
2333.45,639.115,1.61798
2335.85,639.527,1.59574
2338.25,639.94,1.5736
2340.65,640.354,1.55091
2343.05,640.765,1.52877
2345.45,641.172,1.50742
2347.85,641.582,1.48629
2350.25,641.989,1.46438
2352.65,642.394,1.44079
2355.05,642.797,1.41877
2357.45,643.202,1.39819
2359.85,643.608,1.37573
2362.25,644.006,1.35359
2364.65,644.409,1.33167
2367.05,644.808,1.30976
2369.45,645.204,1.28673
2371.85,645.594,1.26627
2374.25,645.991,1.2457
2376.65,646.38,1.2239
2379.05,646.768,1.20244
2381.45,647.161,1.18042
2383.85,647.551,1.15716
2386.25,647.942,1.13682
2388.65,648.327,1.1158
2391.05,648.711,1.09668
2393.45,649.089,1.07567
2395.85,649.47,1.0551
2398.25,649.845,1.03453
2400.65,650.221,1.01574
2403.05,650.6,0.995294
2405.45,650.971,0.975503
2407.85,651.343,0.957614
2410.25,651.712,0.940964
2412.65,652.083,0.922514
2415.05,652.46,0.902503
2417.45,652.841,0.882503
2419.85,653.222,0.862933
2422.25,653.602,0.841693
2424.65,653.978,0.822463
2427.05,654.35,0.803573
2429.45,654.718,0.785463
2431.85,655.087,0.769253
2434.25,655.459,0.751143
2436.65,655.824,0.733253
2439.05,656.192,0.715932
2441.45,656.56,0.698823
2443.85,656.925,0.681163
2446.25,657.291,0.664172
2448.65,657.652,0.648963
2451.05,658.016,0.634322
2453.45,658.379,0.618892
2455.85,658.745,0.602792
2458.25,659.111,0.589262
2460.65,659.48,0.574842
2463.05,659.848,0.560982
2465.45,660.216,0.546892
2467.85,660.584,0.533372
2470.25,660.952,0.519392
2472.65,661.322,0.506202
2475.05,661.693,0.494352
2477.45,662.063,0.480382
2479.85,662.437,0.467862
2482.25,662.809,0.455001
2484.65,663.18,0.443042
2487.05,663.555,0.433982
2489.45,663.93,0.424261
2491.85,664.305,0.413521
2494.25,664.683,0.401451
2496.65,665.058,0.392062
2499.05,665.438,0.383342
2501.45,665.816,0.373171
2503.85,666.195,0.363671
2506.25,666.58,0.356171
2508.65,666.961,0.3474513
2511.05,667.345,0.339291
2513.45,667.729,0.331691
2515.85,668.118,0.324651
2518.25,668.505,0.315371
2520.65,668.895,0.308661
2523.05,669.285,0.301511
2525.45,669.677,0.294911
2527.85,670.069,0.289321
2530.25,670.464,0.282281
2532.65,670.857,0.276131
2535.05,671.254,0.271101
2537.45,671.652,0.263941
2539.85,672.05,0.256901
2542.25,672.451,0.252201
2544.65,672.852,0.247281
2547.05,673.255,0.242251
2549.45,673.659,0.238341
2551.85,674.064,0.233531
2554.25,674.47,0.228841
2556.65,674.876,0.224371
2559.05,675.285,0.219341
2561.45,675.692,0.216541
2563.85,676.101,0.214311
2566.25,676.512,0.211181
2568.65,676.924,0.204581
2571.05,677.336,0.201011
2573.45,677.751,0.197551
2575.85,678.163,0.195201
2578.25,678.575,0.192631
2580.65,678.99,0.190731
2583.05,679.405,0.187481
2585.45,679.823,0.183791
2587.85,680.237,0.181331
2590.25,680.655,0.178091
2592.65,681.073,0.175861
2595.05,681.491,0.172611
2597.45,681.911,0.169481
2599.85,682.331,0.166911
2602.25,682.75,0.166461
2604.65,683.163,0.163561
2607.05,683.585,0.161991
2609.45,684.004,0.160431
2611.85,684.423,0.159981
2614.25,684.842,0.157631
2616.65,685.264,0.155281
2619.05,685.681,0.15338
2621.45,686.1,0.152381
2623.85,686.52,0.151041
2626.25,686.939,0.149581
2628.65,687.357,0.147241
2631.05,687.777,0.144661
2633.45,688.193,0.14455
2635.85,688.611,0.143211
2638.25,689.031,0.141641
2640.65,689.447,0.14131
2643.05,689.866,0.139861
2645.45,690.282,0.13841
2647.85,690.703,0.138071
2650.25,691.117,0.137061
2652.65,691.532,0.135721
2655.05,691.948,0.135721
2657.45,692.361,0.135721
2659.85,692.774,0.133041
2662.25,693.187,0.131701
2664.65,693.604,0.130581
2667.05,694.012,0.13025
2669.45,694.424,0.13025
2671.85,694.838,0.128901
2674.25,695.249,0.128901
2676.65,695.66,0.1279
2679.05,696.068,0.127561
2681.45,696.479,0.126221
2683.85,696.886,0.12722
2686.25,697.294,0.126221
2688.65,697.701,0.126221
2691.05,698.109,0.124881
2693.45,698.515,0.124881
2695.85,698.922,0.123541
2698.25,699.327,0.123201
2700.65,699.734,0.12219
2703.05,700.14,0.12353
2705.45,700.545,0.12353
2707.85,700.947,0.12353
2710.25,701.35,0.122531
2712.65,701.755,0.122531
2715.05,702.157,0.122531
2717.45,702.562,0.122531
2719.85,702.962,0.12286
2722.25,703.365,0.123201
2724.65,703.769,0.12219
2727.05,704.168,0.12085
2729.45,704.57,0.12085
2731.85,704.972,0.11984
2734.25,705.371,0.11951
2736.65,705.767,0.12085
2739.05,706.17,0.121861
2741.45,706.569,0.12219
2743.85,706.97,0.12219
2746.25,707.369,0.12353
2748.65,707.766,0.12353
2751.05,708.163,0.12353
2753.45,708.565,0.12487
2755.85,708.96,0.12353
2758.25,709.359,0.12353
2760.65,709.758,0.123541
2763.05,710.153,0.1222
2765.45,710.555,0.1222
2767.85,710.954,0.12086
2770.25,711.352,0.12086
2772.65,711.751,0.1222
2775.05,712.151,0.12085
2777.45,712.546,0.12085
2779.85,712.945,0.11951
2782.25,713.342,0.11951
2784.65,713.739,0.11951
2787.05,714.137,0.11951
2789.45,714.534,0.12085
2791.85,714.932,0.12219
2794.25,715.329,0.12219
2796.65,715.726,0.12219
2799.05,716.123,0.12219
2801.45,716.519,0.12219
2803.85,716.917,0.12219
2806.25,717.314,0.12219
2808.65,717.711,0.12219
2811.05,718.109,0.12219
2813.45,718.505,0.12219
2815.85,718.903,0.121861
2818.25,719.3,0.12152
2820.65,719.702,0.121191
2823.05,720.093,0.12018
2825.45,720.493,0.120521
2827.85,720.892,0.11951
2830.25,721.29,0.11951
2832.65,721.689,0.11884
2835.05,722.085,0.11951
2837.45,722.484,0.12085
2839.85,722.883,0.12085
2842.25,723.28,0.12085
2844.65,723.676,0.12085
2847.05,724.075,0.12085
2849.45,724.473,0.12219
2851.85,724.871,0.12085
2854.25,725.27,0.12085
2856.65,725.67,0.11951
2859.05,726.068,0.11951
2861.45,726.468,0.11817
2863.85,726.866,0.12018
2866.25,727.266,0.12085
2868.65,727.662,0.12085
2871.05,728.063,0.12085
2873.45,728.462,0.12085
2875.85,728.864,0.12219
2878.25,729.262,0.12085
2880.65,729.661,0.12085
2883.05,730.063,0.11984
2885.45,730.461,0.11951
2887.85,730.864,0.11951
2890.25,731.262,0.11984
2892.65,731.66,0.12085
2895.05,732.059,0.12085
2897.45,732.46,0.12085
2899.85,732.862,0.11939
2902.25,733.258,0.119401
2904.65,733.66,0.119401
2907.05,734.059,0.119061
2909.45,734.46,0.11805
2911.85,734.861,0.11805
2914.25,735.26,0.119401
2916.65,735.661,0.119401
2919.05,736.061,0.119401
2921.45,736.461,0.119731
2923.85,736.862,0.120741
2926.25,737.259,0.11974
2928.65,737.66,0.1184
2931.05,738.061,0.1184
2933.45,738.46,0.119401
2935.85,738.865,0.11795
2938.25,739.263,0.11795
2940.65,739.663,0.11661
2943.05,740.066,0.11661
2945.45,740.464,0.11795
2947.85,740.865,0.11929
2950.25,741.266,0.11929
2952.65,741.667,0.11929
2955.05,742.068,0.11795
2957.45,742.47,0.11795
2959.85,742.869,0.11795
2962.25,743.273,0.117941
2964.65,743.672,0.117941
2967.05,744.071,0.117941
2969.45,744.474,0.117941
2971.85,744.876,0.116601
2974.25,745.278,0.116601
2976.65,745.678,0.117941
2979.05,746.079,0.117941
2981.45,746.479,0.119281
2983.85,746.878,0.117941
2986.25,747.278,0.117941
2988.65,747.68,0.119281
2991.05,748.081,0.119281
2993.45,748.482,0.119281
2995.85,748.882,0.119281
2998.25,749.284,0.119281
3000.65,749.684,0.117941
3003.05,750.083,0.117941
3005.45,750.484,0.117941
3007.85,750.884,0.116601
3010.25,751.284,0.116601
3012.65,751.684,0.116601
3015.05,752.085,0.116601
3017.45,752.485,0.11795
3019.85,752.885,0.11728
3022.25,753.285,0.11728
3024.65,753.686,0.11728
3027.05,754.085,0.11728
3029.45,754.484,0.11728
3031.85,754.884,0.11728
3034.25,755.284,0.11728
3036.65,755.683,0.11728
3039.05,756.082,0.11795
3041.45,756.485,0.11694
3043.85,756.884,0.11661
3046.25,757.285,0.11661
3048.65,757.682,0.11661
3051.05,758.084,0.11661
3053.45,758.484,0.11661
3055.85,758.88,0.11661
3058.25,759.279,0.11661
3060.65,759.682,0.115261
3063.05,760.078,0.116601
3065.45,760.477,0.116601
3067.85,760.874,0.116601
3070.25,761.273,0.117941
3072.65,761.672,0.117941
3075.05,762.07,0.118611
3077.45,762.469,0.117941
3079.85,762.869,0.117941
3082.25,763.267,0.117941
3084.65,763.666,0.117941
3087.05,764.064,0.11895
3089.45,764.462,0.11895
3091.85,764.859,0.11895
3094.25,765.258,0.118611
3096.65,765.657,0.118611
3099.05,766.056,0.118611
3101.45,766.456,0.118611
3103.85,766.853,0.118611
3106.25,767.251,0.118611
3108.65,767.649,0.117941
3111.05,768.046,0.117941
3113.45,768.449,0.117941
3115.85,768.847,0.11795
3118.25,769.248,0.11761
3120.65,769.645,0.11761
3123.05,770.047,0.11761
3125.45,770.446,0.11761
3127.85,770.842,0.11761
3130.25,771.244,0.11694
3132.65,771.644,0.117271
3135.05,772.041,0.117271
3137.45,772.444,0.11862
3139.85,772.84,0.11862
3142.25,773.239,0.11795
3144.65,773.639,0.11795
3147.05,774.042,0.11795
3149.45,774.441,0.11761
3151.85,774.842,0.11728
3154.25,775.24,0.11694
3156.65,775.64,0.11795
3159.05,776.039,0.116601
3161.45,776.443,0.116601
3163.85,776.84,0.116601
3166.25,777.237,0.116601
3168.65,777.636,0.116601
3171.05,778.036,0.11761
3173.45,778.435,0.11795
3175.85,778.834,0.11795
3178.25,779.235,0.11929
3180.65,779.629,0.11929
3183.05,780.032,0.11929
3185.45,780.427,0.11929
3187.85,780.828,0.118961
3190.25,781.224,0.11693
3192.65,781.626,0.11693
3195.05,782.025,0.11693
3197.45,782.426,0.11828
3199.85,782.825,0.11761
3202.25,783.226,0.11828
3204.65,783.632,0.11828
3207.05,784.033,0.11694
3209.45,784.437,0.11694
3211.85,784.838,0.11828
3214.25,785.242,0.11828
3216.65,785.649,0.11828
3219.05,786.054,0.11828
3221.45,786.461,0.11828
3223.85,786.87,0.11828
3226.25,787.276,0.11828
3228.65,787.687,0.11828
3231.05,788.09,0.11828
3233.45,788.501,0.11761
3235.85,788.914,0.118291
3238.25,789.322,0.11862
3240.65,789.732,0.11862
3243.05,790.142,0.11862
3245.45,790.552,0.11862
3247.85,790.961,0.11962
3250.25,791.372,0.11828
3252.65,791.785,0.11828
3255.05,792.191,0.11828
3257.45,792.604,0.11828
3259.85,793.011,0.11895
3262.25,793.422,0.11895
3264.65,793.829,0.11761
3267.05,794.238,0.11627
3269.45,794.646,0.11627
3271.85,795.057,0.11627
3274.25,795.463,0.11627
3276.65,795.873,0.11627
3279.05,796.282,0.11627
3281.45,796.69,0.11761
3283.85,797.097,0.11761
3286.25,797.505,0.11761
3288.65,797.911,0.11761
3291.05,798.317,0.11761
3293.45,798.72,0.1176
3295.85,799.122,0.1176
3298.25,799.528,0.1176
3300.65,799.93,0.1176
3303.05,800.331,0.11626
3305.45,800.732,0.11761
3307.85,801.133,0.11761
3310.25,801.535,0.11761
3312.65,801.933,0.11761
3315.05,802.334,0.11761
3317.45,802.733,0.11761
3319.85,803.132,0.11694
3322.25,803.526,0.11694
3324.65,803.926,0.11627
3327.05,804.323,0.11627
3329.45,804.722,0.11694
3331.85,805.116,0.11761
3334.25,805.509,0.11761
3336.65,805.905,0.11761
3339.05,806.299,0.11761
3341.45,806.695,0.11761
3343.85,807.091,0.11761
3346.25,807.482,0.11627
3348.65,807.878,0.11627
3351.05,808.275,0.11761
3353.45,808.666,0.11761
3355.85,809.063,0.11761
3358.25,809.455,0.118611
3360.65,809.85,0.118611
3363.05,810.243,0.117271
3365.45,810.637,0.11582
3367.85,811.031,0.11716
3370.25,811.423,0.11582
3372.65,811.817,0.116831
3375.05,812.209,0.11716
3377.45,812.604,0.11716
3379.85,812.995,0.11582
3382.25,813.387,0.11582
3384.65,813.781,0.11582
3387.05,814.173,0.11716
3389.45,814.566,0.11716
3391.85,814.96,0.11716
3394.25,815.354,0.118511
3396.65,815.747,0.118511
3399.05,816.144,0.118511
3401.45,816.537,0.11615
3403.85,816.932,0.11582
3406.25,817.326,0.11649
3408.65,817.723,0.117171
3411.05,818.117,0.117171
3413.45,818.512,0.117171
3415.85,818.91,0.117171
3418.25,819.305,0.117171
3420.65,819.7,0.117171
3423.05,820.094,0.117171
3425.45,820.492,0.117171
3427.85,820.889,0.11582
3430.25,821.286,0.11582
3432.65,821.683,0.11716
3435.05,822.083,0.11716
3436.85,822.381,0.11716