File: Non-charring/PMMA/TIFP/TIFP_TGA_O2-21_10K_2.csv
Time,Temperature,Mass
[s],[K],[mg]
0,297.5898,5.20188
3,297.6763,5.20149
6,297.8595,5.2011
9,298.1643,5.20073
12,298.5236,5.19973
15,298.9133,5.19894
18,299.3451,5.19862
21,299.7543,5.19834
24,300.1911,5.19805
27,300.6278,5.19765
30,301.071,5.19739
33,301.4976,5.19709
36,301.9374,5.19683
39,302.3716,5.19652
42,302.8201,5.19624
45,303.2608,5.19587
48,303.6975,5.19545
51,304.142,5.19496
54,304.5882,5.19445
57,305.0347,5.19383
60,305.4848,5.1932
63,305.9348,5.19258
66,306.3904,5.19208
69,306.8447,5.1916
72,307.2957,5.19113
75,307.7528,5.19065
78,308.208,5.19017
81,308.6749,5.18974
84,309.1363,5.18939
87,309.5786,5.18903
90,310.0502,5.18857
93,310.5011,5.18812
96,310.9746,5.18772
99,311.4297,5.18737
102,311.8885,5.18698
105,312.3632,5.18658
108,312.8181,5.18618
111,313.2989,5.18581
114,313.7521,5.18544
117,314.2198,5.18503
120,314.6739,5.18465
123,315.1431,5.18431
126,315.6255,5.18394
129,316.094,5.18351
132,316.5504,5.18311
135,317.0269,5.18272
138,317.5001,5.1824
141,317.9661,5.1821
144,318.4349,5.18176
147,318.9168,5.18142
150,319.3781,5.18113
153,319.846,5.1808
156,320.314,5.18054
159,320.7863,5.18026
162,321.2693,5.17995
165,321.739,5.17968
168,322.2092,5.17933
171,322.6753,5.17901
174,323.1608,5.17875
177,323.6251,5.17851
180,324.1054,5.17831
183,324.5803,5.1781
186,325.0524,5.17796
189,325.5326,5.17783
192,326.009,5.17762
195,326.488,5.17743
198,326.9575,5.17716
201,327.4432,5.17697
204,327.9175,5.17674
207,328.3846,5.17651
210,328.8691,5.17629
213,329.3511,5.17602
216,329.8216,5.17584
219,330.2884,5.17562
222,330.7906,5.17547
225,331.2648,5.17529
228,331.7393,5.17511
231,332.2181,5.17491
234,332.7091,5.1747
237,333.1925,5.17458
240,333.6706,5.17444
243,334.1504,5.17434
246,334.6295,5.17423
249,335.1048,5.17411
252,335.5887,5.17402
255,336.0793,5.17386
258,336.5573,5.17372
261,337.0294,5.17359
264,337.5089,5.17346
267,338.007,5.17326
270,338.4749,5.17314
273,338.9676,5.17306
276,339.4482,5.17294
279,339.9404,5.17288
282,340.4251,5.17271
285,340.9009,5.17257
288,341.3989,5.17246
291,341.8797,5.1724
294,342.3556,5.1722
297,342.8461,5.17214
300,343.3283,5.172
303,343.8264,5.17193
306,344.3089,5.17184
309,344.7944,5.17164
312,345.2849,5.17145
315,345.7647,5.17138
318,346.2402,5.17129
321,346.74,5.17117
324,347.2293,5.17112
327,347.7163,5.17103
330,348.1989,5.17103
333,348.6839,5.17092
336,349.1658,5.17089
339,349.6627,5.17072
342,350.1513,5.17061
345,350.6356,5.17057
348,351.1335,5.17054
351,351.6134,5.17043
354,352.1018,5.17032
357,352.6047,5.17013
360,353.1,5.17006
363,353.5909,5.16986
366,354.0825,5.16975
369,354.5629,5.16969
372,355.0533,5.16968
375,355.5473,5.16962
378,356.036,5.16953
381,356.5273,5.16947
384,357.0075,5.16943
387,357.5169,5.1693
390,358.0112,5.16926
393,358.4939,5.16919
396,358.9849,5.16922
399,359.4808,5.16902
402,359.9762,5.16892
405,360.4646,5.16878
408,360.9531,5.16866
411,361.4555,5.16853
414,361.9571,5.16847
417,362.4419,5.16842
420,362.9407,5.1683
423,363.4308,5.16825
426,363.9261,5.16813
429,364.4362,5.16813
432,364.9194,5.16809
435,365.4177,5.16799
438,365.9143,5.16792
441,366.4104,5.16785
444,366.903,5.16779
447,367.4027,5.16765
450,367.8998,5.16756
453,368.3886,5.1675
456,368.8913,5.16739
459,369.3791,5.16726
462,369.8865,5.16716
465,370.3807,5.1671
468,370.876,5.16699
471,371.3761,5.16701
474,371.8692,5.16699
477,372.3757,5.16685
480,372.8682,5.16674
483,373.362,5.1667
486,373.854,5.16659
489,374.376,5.16649
492,374.866,5.16631
495,375.361,5.16626
498,375.873,5.16609
501,376.363,5.16604
504,376.859,5.16594
507,377.358,5.1658
510,377.856,5.16563
513,378.368,5.16559
516,378.863,5.16556
519,379.367,5.1654
522,379.862,5.16534
525,380.352,5.16521
528,380.861,5.16512
531,381.372,5.16508
534,381.866,5.16498
537,382.363,5.16491
540,382.88,5.16486
543,383.372,5.16471
546,383.872,5.16456
549,384.371,5.16438
552,384.87,5.16428
555,385.38,5.16422
558,385.886,5.16413
561,386.375,5.164
564,386.878,5.1639
567,387.383,5.16384
570,387.877,5.16367
573,388.393,5.16349
576,388.887,5.16342
579,389.386,5.16339
582,389.888,5.16315
585,390.406,5.16301
588,390.908,5.16294
591,391.406,5.16281
594,391.915,5.16265
597,392.407,5.16258
600,392.906,5.16233
603,393.416,5.16228
606,393.923,5.16219
609,394.433,5.16206
612,394.929,5.16203
615,395.431,5.16181
618,395.942,5.16147
621,396.446,5.16137
624,396.942,5.16126
627,397.449,5.16101
630,397.958,5.1609
633,398.466,5.1609
636,398.957,5.16067
639,399.466,5.16031
642,399.978,5.16021
645,400.476,5.16014
648,400.986,5.1598
651,401.496,5.15969
654,401.997,5.15972
657,402.509,5.15947
660,403.014,5.15911
663,403.515,5.15899
666,404.016,5.1589
669,404.525,5.15863
672,405.041,5.15834
675,405.549,5.15829
678,406.053,5.15826
681,406.564,5.15796
684,407.064,5.15765
687,407.575,5.15741
690,408.078,5.1574
693,408.587,5.15726
696,409.099,5.15691
699,409.603,5.1566
702,410.114,5.15654
705,410.617,5.15642
708,411.129,5.15613
711,411.633,5.15577
714,412.139,5.15532
717,412.64,5.15513
720,413.159,5.15506
723,413.661,5.15493
726,414.178,5.15462
729,414.683,5.1542
732,415.196,5.15385
735,415.689,5.1538
738,416.21,5.15377
741,416.71,5.15365
744,417.218,5.15319
747,417.735,5.1528
750,418.24,5.15247
753,418.749,5.15216
756,419.262,5.15211
759,419.77,5.15194
762,420.281,5.1516
765,420.781,5.15123
768,421.304,5.15084
771,421.801,5.15073
774,422.314,5.15076
777,422.82,5.15069
780,423.332,5.15031
783,423.837,5.1499
786,424.358,5.14957
789,424.858,5.14912
792,425.372,5.14883
795,425.879,5.14883
798,426.387,5.14867
801,426.907,5.14851
804,427.409,5.14816
807,427.92,5.14774
810,428.438,5.14744
813,428.943,5.14704
816,429.453,5.14674
819,429.969,5.14672
822,430.465,5.14662
825,430.986,5.14633
828,431.492,5.14598
831,432.004,5.14578
834,432.521,5.14568
837,433.035,5.14568
840,433.536,5.14542
843,434.043,5.14503
846,434.559,5.14469
849,435.058,5.14425
852,435.581,5.14413
855,436.09,5.1442
858,436.603,5.144
861,437.097,5.14369
864,437.622,5.14334
867,438.123,5.14296
870,438.64,5.14296
873,439.143,5.14293
876,439.666,5.14267
879,440.172,5.1424
882,440.696,5.14201
885,441.201,5.14176
888,441.704,5.14178
891,442.217,5.14166
894,442.73,5.14139
897,443.235,5.14105
900,443.75,5.14069
903,444.254,5.14034
906,444.767,5.14015
909,445.289,5.1402
912,445.802,5.14011
915,446.31,5.13982
918,446.816,5.13957
921,447.339,5.13953
924,447.843,5.13948
927,448.353,5.13947
930,448.87,5.13911
933,449.393,5.13872
936,449.898,5.13837
939,450.416,5.13807
942,450.919,5.13811
945,451.435,5.13808
948,451.948,5.13778
951,452.46,5.1375
954,452.964,5.13733
957,453.475,5.13731
960,453.991,5.13728
963,454.506,5.13703
966,455.014,5.13669
969,455.532,5.13668
972,456.035,5.1366
975,456.553,5.13651
978,457.065,5.13617
981,457.569,5.13577
984,458.086,5.13578
987,458.595,5.13576
990,459.103,5.13558
993,459.623,5.13542
996,460.143,5.13504
999,460.648,5.13501
1002,461.162,5.13509
1005,461.68,5.13484
1008,462.184,5.13465
1011,462.701,5.13446
1014,463.219,5.13446
1017,463.734,5.13445
1020,464.25,5.13422
1023,464.755,5.13389
1026,465.265,5.1339
1029,465.784,5.13394
1032,466.296,5.13377
1035,466.808,5.1335
1038,467.318,5.13326
1041,467.837,5.13324
1044,468.354,5.13328
1047,468.862,5.13313
1050,469.372,5.13297
1053,469.884,5.13311
1056,470.396,5.13312
1059,470.902,5.13282
1062,471.422,5.13277
1065,471.947,5.13268
1068,472.449,5.13271
1071,472.963,5.13258
1074,473.478,5.13241
1077,473.984,5.13238
1080,474.512,5.13251
1083,475.012,5.13232
1086,475.524,5.13211
1089,476.035,5.13222
1092,476.556,5.1322
1095,477.073,5.13194
1098,477.581,5.13205
1101,478.098,5.13198
1104,478.611,5.13182
1107,479.12,5.13167
1110,479.642,5.13166
1113,480.151,5.13161
1116,480.658,5.1315
1119,481.182,5.13138
1122,481.693,5.1314
1125,482.206,5.13141
1128,482.726,5.13117
1131,483.238,5.13107
1134,483.743,5.13122
1137,484.263,5.13108
1140,484.768,5.13077
1143,485.291,5.13097
1146,485.805,5.13099
1149,486.321,5.13083
1152,486.832,5.13062
1155,487.349,5.13066
1158,487.862,5.13056
1161,488.372,5.1305
1164,488.882,5.1305
1167,489.403,5.13052
1170,489.913,5.13056
1173,490.437,5.13036
1176,490.948,5.13025
1179,491.454,5.13036
1182,491.975,5.13041
1185,492.495,5.13028
1188,493.002,5.13029
1191,493.518,5.13038
1194,494.025,5.13019
1197,494.537,5.13008
1200,495.046,5.13028
1203,495.559,5.13029
1206,496.075,5.13021
1209,496.592,5.13022
1212,497.108,5.1303
1215,497.629,5.13006
1218,498.13,5.12976
1221,498.648,5.12985
1224,499.158,5.12989
1227,499.672,5.12975
1230,500.194,5.12963
1233,500.7,5.12972
1236,501.218,5.12962
1239,501.732,5.12959
1242,502.239,5.12966
1245,502.756,5.12972
1248,503.268,5.12956
1251,503.788,5.12966
1254,504.298,5.12967
1257,504.809,5.1296
1260,505.317,5.12954
1263,505.833,5.12943
1266,506.352,5.1294
1269,506.862,5.12945
1272,507.373,5.12933
1275,507.888,5.12909
1278,508.406,5.12906
1281,508.903,5.12925
1284,509.423,5.12909
1287,509.94,5.12892
1290,510.461,5.12909
1293,510.966,5.12919
1296,511.478,5.12896
1299,511.992,5.12892
1302,512.509,5.12919
1305,513.013,5.1291
1308,513.536,5.1288
1311,514.044,5.12861
1314,514.561,5.12873
1317,515.075,5.12867
1320,515.586,5.12863
1323,516.096,5.12851
1326,516.613,5.12844
1329,517.121,5.12844
1332,517.632,5.1285
1335,518.152,5.12843
1338,518.66,5.12812
1341,519.18,5.12789
1344,519.683,5.12799
1347,520.198,5.12816
1350,520.711,5.12787
1353,521.23,5.12765
1356,521.739,5.12761
1359,522.244,5.12761
1362,522.754,5.12754
1365,523.261,5.12751
1368,523.788,5.12745
1371,524.29,5.12712
1374,524.806,5.12672
1377,525.323,5.12656
1380,525.838,5.12638
1383,526.344,5.12634
1386,526.854,5.12634
1389,527.369,5.1264
1392,527.879,5.12611
1395,528.395,5.12574
1398,528.916,5.12552
1401,529.427,5.12542
1404,529.933,5.12512
1407,530.45,5.12474
1410,530.96,5.12452
1413,531.477,5.12422
1416,531.988,5.12356
1419,532.506,5.12289
1422,533.007,5.12238
1425,533.529,5.12185
1428,534.041,5.12107
1431,534.551,5.12025
1434,535.053,5.11951
1437,535.579,5.11876
1440,536.093,5.11768
1443,536.612,5.11643
1446,537.117,5.11538
1449,537.631,5.11429
1452,538.144,5.11293
1455,538.667,5.11142
1458,539.179,5.11004
1461,539.699,5.10827
1464,540.204,5.10629
1467,540.722,5.1044
1470,541.234,5.10259
1473,541.749,5.10054
1476,542.259,5.09825
1479,542.77,5.09591
1482,543.282,5.09366
1485,543.81,5.09115
1488,544.325,5.08839
1491,544.826,5.08559
1494,545.345,5.08286
1497,545.864,5.07978
1500,546.379,5.07636
1503,546.891,5.07301
1506,547.405,5.06968
1509,547.918,5.06616
1512,548.433,5.0623
1515,548.951,5.05843
1518,549.469,5.05459
1521,549.975,5.05073
1524,550.496,5.04649
1527,551.009,5.04207
1530,551.531,5.03772
1533,552.041,5.03342
1536,552.556,5.02886
1539,553.071,5.02432
1542,553.583,5.01982
1545,554.103,5.01536
1548,554.616,5.01066
1551,555.129,5.00603
1554,555.648,5.00156
1557,556.154,4.99725
1560,556.678,4.99275
1563,557.189,4.9883
1566,557.708,4.98397
1569,558.217,4.97961
1572,558.74,4.9751
1575,559.252,4.97076
1578,559.767,4.96654
1581,560.279,4.96235
1584,560.793,4.95786
1587,561.307,4.95335
1590,561.819,4.94893
1593,562.336,4.94452
1596,562.844,4.93977
1599,563.36,4.93499
1602,563.875,4.93027
1605,564.393,4.92538
1608,564.909,4.92017
1611,565.413,4.91486
1614,565.925,4.9096
1617,566.444,4.90406
1620,566.959,4.89815
1623,567.476,4.89205
1626,567.984,4.88592
1629,568.506,4.87941
1632,569.018,4.87257
1635,569.529,4.86554
1638,570.037,4.85843
1641,570.557,4.851
1644,571.069,4.84301
1647,571.585,4.83467
1650,572.093,4.82616
1653,572.615,4.81734
1656,573.123,4.80793
1659,573.632,4.79815
1662,574.159,4.78814
1665,574.665,4.7777
1668,575.182,4.76669
1671,575.7,4.7551
1674,576.215,4.74326
1677,576.724,4.73078
1680,577.243,4.71763
1683,577.756,4.70374
1686,578.271,4.68952
1689,578.789,4.67452
1692,579.294,4.65873
1695,579.817,4.64201
1698,580.331,4.62473
1701,580.845,4.6065
1704,581.366,4.58686
1707,581.877,4.56602
1710,582.394,4.54422
1713,582.911,4.52125
1716,583.43,4.49688
1719,583.944,4.47154
1722,584.468,4.44553
1725,584.978,4.41852
1728,585.489,4.39024
1731,586.01,4.36108
1734,586.53,4.33168
1737,587.051,4.30208
1740,587.572,4.27263
1743,588.087,4.24338
1746,588.609,4.21421
1749,589.125,4.18462
1752,589.652,4.15446
1755,590.164,4.12445
1758,590.687,4.09522
1761,591.203,4.066
1764,591.727,4.03663
1767,592.246,4.00729
1770,592.759,3.97817
1773,593.276,3.9484
1776,593.787,3.91762
1779,594.319,3.88672
1782,594.837,3.85634
1785,595.352,3.82686
1788,595.876,3.79779
1791,596.378,3.76868
1794,596.902,3.73877
1797,597.415,3.70659
1800,597.929,3.67156
1803,598.43,3.63466
1806,598.938,3.59664
1809,599.451,3.55683
1812,599.97,3.51506
1815,600.486,3.47202
1818,601.006,3.42817
1821,601.514,3.38319
1824,602.035,3.33705
1827,602.546,3.28998
1830,603.066,3.24202
1833,603.588,3.19289
1836,604.099,3.14227
1839,604.621,3.09052
1842,605.139,3.03784
1845,605.656,2.98489
1848,606.19,2.93133
1851,606.705,2.87717
1854,607.228,2.82264
1857,607.747,2.76778
1860,608.273,2.71258
1863,608.799,2.65727
1866,609.334,2.60303
1869,609.848,2.54996
1872,610.375,2.49778
1875,610.899,2.44574
1878,611.431,2.39419
1881,611.957,2.34274
1884,612.488,2.29201
1887,613.007,2.24147
1890,613.537,2.19164
1893,614.065,2.14186
1896,614.599,2.09177
1899,615.125,2.04156
1902,615.652,1.99225
1905,616.173,1.94483
1908,616.711,1.89853
1911,617.233,1.85267
1914,617.765,1.80744
1917,618.283,1.76309
1920,618.816,1.71943
1923,619.341,1.67606
1926,619.867,1.63307
1929,620.391,1.59094
1932,620.916,1.54966
1935,621.44,1.50968
1938,621.961,1.47095
1941,622.494,1.43399
1944,623.014,1.39822
1947,623.537,1.36363
1950,624.061,1.32908
1953,624.582,1.29497
1956,625.1,1.26141
1959,625.616,1.22858
1962,626.141,1.19605
1965,626.674,1.16417
1968,627.198,1.13352
1971,627.719,1.10484
1974,628.258,1.07756
1977,628.781,1.05132
1980,629.306,1.02603
1983,629.823,1.00164
1986,630.339,0.977604
1989,630.85,0.953867
1992,631.371,0.930716
1995,631.885,0.908345
1998,632.396,0.886227
2001,632.911,0.864382
2004,633.423,0.843399
2007,633.942,0.823103
2010,634.446,0.803108
2013,634.956,0.783278
2016,635.466,0.764207
2019,635.981,0.745763
2022,636.484,0.727574
2025,636.994,0.709537
2028,637.503,0.69219
2031,638.004,0.675509
2034,638.512,0.659253
2037,639.023,0.643099
2040,639.528,0.627434
2043,640.029,0.612216
2046,640.54,0.597489
2049,641.046,0.582829
2052,641.551,0.568651
2055,642.054,0.554997
2058,642.56,0.541721
2061,643.066,0.52853
2064,643.571,0.515666
2067,644.072,0.503402
2070,644.572,0.491529
2073,645.077,0.479824
2076,645.58,0.468325
2079,646.077,0.457189
2082,646.589,0.446529
2085,647.088,0.436214
2088,647.579,0.426013
2091,648.095,0.415995
2094,648.591,0.406405
2097,649.096,0.397201
2100,649.593,0.388007
2103,650.091,0.378999
2106,650.596,0.370442
2109,651.099,0.362212
2112,651.597,0.353974
2115,652.099,0.345926
2118,652.588,0.338292
2121,653.095,0.33098
2124,653.589,0.323662
2127,654.079,0.316424
2130,654.563,0.309578
2133,655.068,0.303044
2136,655.55,0.296717
2139,656.053,0.290349
2142,656.542,0.284168
2145,657.022,0.278289
2148,657.515,0.272717
2151,658.006,0.267026
2154,658.495,0.261439
2157,658.988,0.256102
2160,659.468,0.251116
2163,659.972,0.246032
2166,660.455,0.24108
2169,660.939,0.236285
2172,661.43,0.231739
2175,661.918,0.227032
2178,662.407,0.22251
2181,662.884,0.218264
2184,663.377,0.214242
2187,663.868,0.2101
2190,664.351,0.206105
2193,664.833,0.202265
2196,665.322,0.198689
2199,665.804,0.195084
2202,666.29,0.191418
2205,666.786,0.187822
2208,667.273,0.184584
2211,667.76,0.181489
2214,668.247,0.178361
2217,668.734,0.175166
2220,669.222,0.172173
2223,669.706,0.16938
2226,670.197,0.166623
2229,670.693,0.163721
2232,671.172,0.160968
2235,671.667,0.158393
2238,672.158,0.156044
2241,672.652,0.153573
2244,673.14,0.151022
2247,673.633,0.148666
2250,674.121,0.146623
2253,674.616,0.144544
2256,675.096,0.142276
2259,675.596,0.140178
2262,676.088,0.138385
2265,676.581,0.136752
2268,677.075,0.135046
2271,677.566,0.133398
2274,678.058,0.131831
2277,678.545,0.130482
2280,679.034,0.129086
2283,679.53,0.127626
2286,680.025,0.126286
2289,680.513,0.125261
2292,681.003,0.124247
2295,681.486,0.12335
2298,681.983,0.122693
2301,682.471,0.122078
2304,682.961,0.12164
2307,683.461,0.121172
2310,683.952,0.120711
2313,684.443,0.120505
2316,684.927,0.120413
2319,685.425,0.120274
2322,685.916,0.119904
2325,686.413,0.119608
2328,686.905,0.119433
2331,687.397,0.119411
2334,687.895,0.119211
2337,688.387,0.118806
2340,688.88,0.118509
2343,689.384,0.118436
2346,689.878,0.118324
2349,690.374,0.118221
2352,690.876,0.118318
2355,691.373,0.118424
2358,691.87,0.118472
2361,692.357,0.118253
2364,692.865,0.117918
2367,693.361,0.117609
2370,693.86,0.117537
2373,694.366,0.117498
2376,694.862,0.117512
2379,695.362,0.117504
2382,695.86,0.117501
2385,696.358,0.117497
2388,696.855,0.117378
2391,697.355,0.117017
2394,697.856,0.116715
2397,698.354,0.116737
2400,698.855,0.117109
2403,699.352,0.117176
2406,699.856,0.116904
2409,700.359,0.116613
2412,700.857,0.116536
2415,701.361,0.116391
2418,701.854,0.11626
2421,702.357,0.116331
2424,702.862,0.116434
2427,703.357,0.116483
2430,703.864,0.116401
2433,704.364,0.116088
2436,704.863,0.115969
2439,705.363,0.116242
2442,705.864,0.116451
2445,706.366,0.116222
2448,706.867,0.115827
2451,707.376,0.11562
2454,707.871,0.11555
2457,708.375,0.115764
2460,708.875,0.115811
2463,709.375,0.115655
2466,709.874,0.115529
2469,710.379,0.115715
2472,710.886,0.115817
2475,711.389,0.115664
2478,711.892,0.115528
2481,712.393,0.115625
2484,712.89,0.115912
2487,713.395,0.115857
2490,713.904,0.115677
2493,714.4,0.115547
2496,714.902,0.115514
2499,715.401,0.115374
2502,715.907,0.115378
2505,716.408,0.115415
2508,716.914,0.115478
2511,717.42,0.115463
2514,717.921,0.115164
2517,718.414,0.114779
2520,718.918,0.114805
2523,719.42,0.11507
2526,719.931,0.115339
2529,720.427,0.115089
2532,720.927,0.11479
2535,721.431,0.114961
2538,721.937,0.1153
2541,722.443,0.115382
2544,722.94,0.115101
2547,723.448,0.114798
2550,723.948,0.114784
2553,724.456,0.115124
2556,724.957,0.115155
2559,725.458,0.114885
2562,725.959,0.114599
2565,726.454,0.114696
2568,726.97,0.115003
2571,727.47,0.115209
2574,727.976,0.114943
2577,728.473,0.114661
2580,728.98,0.114739
2583,729.488,0.115055
2586,729.988,0.115204
2589,730.487,0.114943
2592,730.996,0.114696
2595,731.489,0.11468
2598,731.994,0.115036
2601,732.496,0.115128
2604,732.992,0.114886
2607,733.497,0.114608
2610,734,0.114647
2613,734.496,0.114994
2616,735.009,0.115103
2619,735.514,0.114878
2622,736.013,0.114632
2625,736.52,0.114576
2628,737.024,0.11482
2631,737.522,0.114922
2634,738.019,0.114697
2637,738.524,0.114574
2640,739.023,0.114515
2643,739.524,0.114718
2646,740.031,0.114924
2649,740.534,0.114809
2652,741.047,0.114576
2655,741.54,0.114525
2658,742.042,0.114534
2661,742.541,0.11464
2664,743.047,0.114689
2667,743.552,0.114526
2670,744.051,0.114514
2673,744.554,0.114509
2676,745.053,0.114447
2679,745.555,0.114443
2682,746.057,0.114438
2685,746.559,0.114514
2688,747.065,0.114488
2691,747.572,0.114442
2694,748.075,0.11445
2697,748.572,0.11452
2700,749.077,0.114484
2703,749.581,0.114494
2706,750.077,0.114336
2709,750.58,0.114088
2712,751.076,0.114064
2715,751.578,0.114302
2718,752.088,0.114466
2721,752.591,0.114272
2724,753.092,0.114029
2727,753.595,0.114135
2730,754.1,0.114346
2733,754.593,0.114446
2736,755.101,0.114459
2739,755.606,0.11446
2742,756.101,0.114449
2745,756.607,0.114458
2748,757.111,0.114489
2751,757.607,0.114455
2754,758.108,0.114135
2757,758.613,0.113979
2760,759.116,0.114136
2763,759.619,0.114348
2766,760.124,0.11446
2769,760.619,0.114199
2772,761.12,0.113962
2775,761.623,0.114176
2778,762.12,0.114389
2781,762.626,0.114466
2784,763.12,0.114504
2787,763.623,0.114524
2790,764.129,0.114524
2793,764.626,0.114505
2796,765.127,0.114502
2799,765.633,0.114348
2802,766.141,0.114022
2805,766.64,0.11386
2808,767.141,0.114164
2811,767.645,0.114416
2814,768.145,0.114312
2817,768.642,0.114003
2820,769.141,0.113993
2823,769.646,0.114205
2826,770.15,0.114412
2829,770.646,0.11447
2832,771.156,0.114311
2835,771.651,0.113915
2838,772.155,0.113856
2841,772.657,0.114178
2844,773.163,0.114369
2847,773.652,0.114281
2850,774.157,0.113928
2853,774.658,0.11383
2856,775.164,0.114128
2859,775.657,0.114387
2862,776.164,0.114458
2865,776.667,0.114272
2868,777.169,0.113928
2871,777.674,0.11394
2874,778.176,0.114282
2877,778.677,0.114397
2880,779.175,0.114154
2883,779.673,0.113838
2886,780.179,0.113839
2889,780.683,0.114178
2892,781.188,0.114432
2895,781.685,0.114417
2898,782.182,0.114095
2901,782.682,0.113709
2904,783.189,0.113731
2907,783.685,0.11403
2910,784.191,0.114325
2913,784.69,0.114177
2916,785.191,0.113826
2919,785.696,0.113608
2922,786.196,0.113886
2925,786.701,0.114219
2928,787.197,0.114194
2931,787.698,0.113891
2934,788.199,0.113636
2937,788.701,0.113682
2940,789.206,0.113974
2943,789.707,0.114298
2946,790.212,0.114147
2949,790.708,0.113808
2952,791.205,0.11356
2955,791.714,0.113771
2958,792.205,0.114154
2961,792.711,0.114253
2964,793.211,0.113966
2967,793.716,0.113618
2970,794.213,0.113547
2973,794.716,0.113733
2976,795.216,0.114091
2979,795.725,0.114216
2982,796.224,0.113946
2985,796.725,0.113697
2988,797.218,0.113764
2991,797.721,0.11415
2994,798.224,0.114348
2997,798.723,0.114169
3000,799.215,0.113852
3003,799.72,0.113622
3006,800.226,0.113636
3009,800.727,0.113927
3012,801.224,0.114303
3015,801.728,0.114152
3018,802.234,0.113803
3021,802.731,0.113553
3024,803.229,0.113663
3027,803.732,0.114018
3030,804.235,0.1142
3033,804.734,0.11404
3036,805.229,0.113673
3039,805.74,0.113561
3042,806.235,0.11355
3045,806.744,0.11385
3048,807.235,0.114059
3051,807.743,0.113837
3054,808.246,0.113656
3057,808.749,0.113545
3060,809.25,0.11382
3063,809.743,0.114182
3066,810.245,0.114149
3069,810.75,0.113849
3072,811.251,0.113591
3075,811.751,0.113531
3078,812.248,0.113536
3081,812.751,0.113715
3084,813.25,0.113769
3087,813.749,0.113598
3090,814.251,0.113545
3093,814.75,0.113502
3096,815.247,0.113632
3099,815.754,0.113981
3102,816.252,0.114
3105,816.749,0.113729
3108,817.254,0.113583
3111,817.75,0.113527
3114,818.255,0.113501
3117,818.756,0.113421
3120,819.249,0.113344
3123,819.747,0.113354
3126,820.261,0.113436
3129,820.763,0.113482
3132,821.264,0.113487
3135,821.764,0.113295
3138,822.26,0.113303
3141,822.76,0.113396
3144,823.261,0.113472
3147,823.761,0.113503
3150,824.259,0.113497
3153,824.758,0.113544
3156,825.264,0.11361
3159,825.763,0.113558
3162,826.264,0.113487
3165,826.763,0.113494
3168,827.265,0.113497
3171,827.763,0.113499
3174,828.259,0.11329
3177,828.758,0.113173
3180,829.262,0.113329
3183,829.76,0.113467
3186,830.259,0.113487
3189,830.76,0.113487
3192,831.259,0.113297
3195,831.759,0.113264
3198,832.261,0.11336
3201,832.762,0.113455
3204,833.254,0.1135
3207,833.761,0.113505
3210,834.26,0.113666
3213,834.76,0.113719
3216,835.254,0.113668
3219,835.753,0.113512
3222,836.254,0.113507
3225,836.757,0.113503
3228,837.256,0.113512
3231,837.757,0.11368
3234,838.255,0.11374
3237,838.761,0.113585
3240,839.261,0.113543
3243,839.76,0.113499
3246,840.262,0.113501
3249,840.761,0.11344
3252,841.262,0.113364
3255,841.763,0.113455
3258,842.262,0.113484
3261,842.764,0.113495
3264,843.264,0.113505
3267,843.756,0.113727
3270,844.259,0.114125
3273,844.758,0.114225
3276,845.262,0.11395
3279,845.765,0.113614
3282,846.265,0.11357
3285,846.768,0.113821
3288,847.264,0.114064
3291,847.762,0.11391
3294,848.26,0.113649
3297,848.758,0.113551
3300,849.259,0.113503
3303,849.762,0.113643
3306,850.256,0.114032
3309,850.76,0.114309
3312,851.254,0.11414
3315,851.759,0.113786
3318,852.257,0.1136
3321,852.755,0.113608
3324,853.26,0.113925
3327,853.757,0.114299
3330,854.256,0.114438
3333,854.753,0.114349
3336,855.248,0.113997
3339,855.755,0.113682
3342,856.256,0.1138
3345,856.752,0.114085
3348,857.25,0.114393
3351,857.752,0.114464
3354,858.255,0.114486
3357,858.755,0.114313
3360,859.254,0.11422
3363,859.751,0.114331
3366,860.25,0.11449
3369,860.754,0.114482
3372,861.25,0.114495
3375,861.75,0.114499
3378,862.251,0.114458
3381,862.748,0.114446
3384,863.246,0.114462
3387,863.747,0.114487
3390,864.248,0.114512
3393,864.751,0.114497
3396,865.249,0.114499
3399,865.747,0.114618
3402,866.243,0.114758
3405,866.749,0.11478
3408,867.243,0.114599
3411,867.743,0.114531
3414,868.242,0.114503
3417,868.742,0.114521
3420,869.241,0.114795
3423,869.742,0.114988
3426,870.244,0.114911
3429,870.748,0.114603
3432,871.247,0.114537
3435,871.744,0.11451
3438,872.241,0.114612
3441,872.74,0.11497
3444,873.238,0.115156
3447,873.74,0.114961
3450,874.234,0.11467
3453,874.738,0.114549
3456,875.235,0.114517
3459,875.735,0.114649
3462,876.238,0.114999
3465,876.738,0.115193
3468,877.233,0.11495
3471,877.734,0.114703
3474,878.239,0.11453
3477,878.733,0.114644
3480,879.239,0.115022
3483,879.736,0.115328
3486,880.236,0.115336
3489,880.73,0.115012
3492,881.229,0.114718
3495,881.723,0.114535
3498,882.226,0.11454
3501,882.733,0.11483
3504,883.231,0.115155
3507,883.729,0.115407
3510,884.227,0.11519
3513,884.737,0.114797
3516,885.228,0.114607
3519,885.73,0.11477
3522,886.229,0.115173
3525,886.726,0.11538
3528,887.228,0.115484
3531,887.724,0.115492
3534,888.232,0.115229
3537,888.722,0.114824
3540,889.223,0.114826
3543,889.718,0.115092
3546,890.223,0.11536
3549,890.718,0.115447
3552,891.209,0.115223
3555,891.715,0.114895
3558,892.21,0.11468
3561,892.709,0.114906
3564,893.208,0.115195
3567,893.708,0.115351
3570,894.199,0.11507
3573,894.7,0.11475
3576,895.195,0.114542
3579,895.696,0.114524
3582,896.199,0.114733
3585,896.694,0.115128
3588,897.195,0.115351
3591,897.687,0.115073
3594,898.188,0.114704
3597,898.684,0.114564
3600,899.183,0.114627
3603,899.682,0.114987
3606,900.181,0.115286
3609,900.682,0.115413
3612,901.173,0.11513
3615,901.675,0.114744
3618,902.176,0.114585
3621,902.678,0.114524
3624,903.171,0.114737
3627,903.673,0.115139
3630,904.17,0.115364
3633,904.665,0.115411
3636,905.17,0.115102
3639,905.667,0.114706
3642,906.165,0.114579
3645,906.664,0.114753
3648,907.158,0.115106
3651,907.662,0.115363
3654,908.17,0.115459
3657,908.663,0.115361
3660,909.16,0.115012
3663,909.656,0.114704
3666,910.152,0.114854
3669,910.652,0.115188
3672,911.147,0.115393
3675,911.655,0.11546
3678,912.147,0.115249
3681,912.643,0.114918
3684,913.154,0.114659
3687,913.643,0.114916
3690,914.139,0.115213
3693,914.635,0.115419
3696,915.137,0.1154
3699,915.632,0.115078
3702,916.127,0.11475
3705,916.628,0.114633
3708,917.126,0.114959
3711,917.62,0.115269
3714,918.119,0.115463
3717,918.614,0.115313
3720,919.114,0.114942
3723,919.609,0.114678
3726,920.109,0.114582
3729,920.606,0.114907
3732,921.113,0.115292
3735,921.608,0.115435
3738,922.1,0.115316
3741,922.602,0.114958
3744,923.104,0.114669
3747,923.595,0.114808
3750,924.097,0.115094
3753,924.594,0.11536
3756,925.093,0.115409
3759,925.589,0.115117
3762,926.089,0.114794
3765,926.582,0.114618
3768,927.084,0.114879
3771,927.581,0.115186
3774,928.076,0.115413
3777,928.579,0.115471
3780,929.071,0.115322
3783,929.574,0.114926
3786,930.068,0.114637
3789,930.577,0.114824
3792,931.068,0.115192
3795,931.567,0.115448
3798,932.064,0.115477
3801,932.557,0.1153
3804,933.055,0.114917
3807,933.556,0.114665
3810,934.056,0.11461
3813,934.552,0.114937
3816,935.048,0.115258
3819,935.545,0.115456
3822,936.045,0.115324
3825,936.542,0.114958
3828,937.04,0.114686
3831,937.533,0.114807
3834,938.031,0.115207
3837,938.528,0.115396
3840,939.027,0.115487
3843,939.524,0.115426
3846,940.022,0.115089
3849,940.515,0.114706
3852,941.021,0.114563
3855,941.519,0.114657
3858,942.011,0.115028
3861,942.512,0.115307
3864,943.007,0.115328
3867,943.503,0.115016
3870,943.999,0.114647
3873,944.493,0.11455
3876,944.996,0.114602
3879,945.493,0.114936
3882,945.989,0.115303
3885,946.488,0.115427
3888,946.991,0.115227
3891,947.478,0.114852
3894,947.981,0.114633
3897,948.474,0.114809
3900,948.976,0.115108
3903,949.471,0.115397
3906,949.967,0.115465
3909,950.471,0.115411
3912,950.967,0.115098
3915,951.455,0.1147
3918,951.957,0.11461
3921,952.445,0.114852
3924,952.95,0.115225
3927,953.447,0.115405
3930,953.946,0.1154
3933,954.444,0.115064
3936,954.938,0.114745
3939,955.435,0.114569
3942,955.93,0.114524
3945,956.431,0.114683
3948,956.924,0.115038
3951,957.419,0.115339
3954,957.911,0.11529
3957,958.409,0.115001
3960,958.911,0.114633
3963,959.405,0.11455
3966,959.902,0.114734
3969,960.399,0.115056
3972,960.893,0.115384
3975,961.39,0.115329
3978,961.888,0.114972
3981,962.389,0.114671
3984,962.879,0.114551
3987,963.382,0.114517
3990,963.872,0.114526
3993,964.379,0.114825
3996,964.875,0.115232
3999,965.371,0.115409
4002,965.864,0.115378
4005,966.364,0.115058
4008,966.861,0.114674
4011,967.355,0.11466
4014,967.845,0.11494
4017,968.343,0.115317
4020,968.839,0.115438
4023,969.332,0.115352
4026,969.833,0.114981
4029,970.323,0.114672
4032,970.824,0.114551
4035,971.32,0.114638
4038,971.812,0.114952
4041,972.314,0.115332
4044,972.814,0.115436
4047,973.308,0.115249
4050,973.801,0.11493
4053,974.298,0.114612
4056,974.794,0.114552
4059,975.29,0.114787
4062,975.787,0.115157
4065,976.278,0.115381
4068,976.776,0.115463
4071,977.27,0.115311
4074,977.766,0.114979
4077,978.264,0.114623
4080,978.764,0.114541
4083,979.259,0.114633
4086,979.754,0.114973
4089,980.248,0.115316
4092,980.745,0.115418
4095,981.241,0.115169
4098,981.741,0.114842
4101,982.232,0.114611
4104,982.721,0.114843
4107,983.22,0.11515
4110,983.724,0.115405
4113,984.214,0.115468
4116,984.715,0.115492
4119,985.209,0.115499
4122,985.712,0.115242
4125,986.208,0.114833
4128,986.698,0.114622
4131,987.198,0.114544
4134,987.694,0.114845
4137,988.193,0.115237
4140,988.683,0.115179
4143,989.185,0.114919
4146,989.675,0.114608
4149,990.174,0.114537
4152,990.665,0.114543
4155,991.169,0.114849
4158,991.662,0.115251
4161,992.161,0.115418
4164,992.652,0.11539
4167,993.153,0.115071
4170,993.649,0.114682
4173,994.145,0.114562
4176,994.64,0.114517
4179,995.133,0.114538
4182,995.626,0.114837
4185,996.125,0.115207
4188,996.621,0.11545
4191,997.112,0.115368
4194,997.608,0.115033
4197,998.108,0.114687
4200,998.601,0.114562
4203,999.1,0.114798
4206,999.593,0.115207
4209,1000.086,0.115397
4212,1000.584,0.115484
4215,1001.072,0.115494
4218,1001.577,0.115443
4221,1002.072,0.115107
4224,1002.56,0.114784
4227,1003.053,0.114578
4230,1003.546,0.114688
4233,1004.049,0.115001
4236,1004.54,0.115364
4239,1005.036,0.115454
4242,1005.532,0.115488
4245,1006.026,0.115368
4248,1006.519,0.11504
4251,1007.018,0.114659
4254,1007.507,0.114554
4257,1008.006,0.114514
4260,1008.499,0.114509
4263,1008.997,0.114739
4266,1009.49,0.115137
4269,1009.987,0.115417
4272,1010.48,0.11547
4275,1010.972,0.115368
4278,1011.469,0.114994
4281,1011.964,0.114685
4284,1012.454,0.114559
4287,1012.953,0.114734
4290,1013.449,0.11512
4293,1013.943,0.115404
4296,1014.433,0.115467
4299,1014.937,0.115489
4302,1015.43,0.115427
4305,1015.92,0.115111
4308,1016.412,0.114709
4311,1016.913,0.114571
4314,1017.409,0.11462
4317,1017.905,0.114949
4320,1018.397,0.115308
4323,1018.888,0.115442
4326,1019.389,0.115492
4329,1019.879,0.1155
4332,1020.374,0.1155
4335,1020.864,0.115358
4338,1021.36,0.115033
4341,1021.857,0.1147
4344,1022.343,0.114563
4347,1022.844,0.114856
4350,1023.341,0.115189