File: Non-charring/PMMA/TIFP/TIFP_TGA_N2_10K_2.csv
Time,Temperature,Mass
[s],[K],[mg]
0,300.631,5.3668
4.8,300.626,5.36613
9.6,300.616,5.36613
14.4,300.61,5.36513
19.2,300.603,5.36345
24,300.59,5.36479
28.8,300.581,5.36345
33.6,300.566,5.36211
38.4,300.556,5.36345
43.2,300.541,5.36312
48,300.526,5.36077
52.8,300.514,5.35943
57.6,300.495,5.36077
62.4,300.481,5.36077
67.2,300.462,5.35976
72,300.448,5.35675
76.8,300.432,5.35675
81.6,300.414,5.35809
86.4,300.397,5.35809
91.2,300.376,5.35573
96,300.36,5.35573
100.8,300.341,5.35573
105.6,300.323,5.3554
110.4,300.305,5.35674
115.2,300.285,5.3554
120,300.264,5.3554
124.8,300.244,5.35406
129.6,300.223,5.3544
134.4,300.206,5.3554
139.2,300.188,5.35306
144,300.165,5.35407
148.8,300.148,5.35474
153.6,300.134,5.35474
158.4,300.116,5.35407
163.2,300.099,5.35407
168,300.085,5.35407
172.8,300.07,5.35506
177.6,300.057,5.35372
182.4,300.045,5.35506
187.2,300.034,5.35506
192,300.027,5.35641
196.8,300.013,5.35574
201.6,300.009,5.35574
206.4,299.999,5.35708
211.2,299.996,5.35876
216,299.992,5.35876
220.8,299.985,5.35742
225.6,299.985,5.35876
230.4,299.981,5.3601
235.2,299.984,5.3601
240,299.984,5.36144
244.8,299.988,5.36245
249.6,299.988,5.36144
254.4,299.99,5.36278
259.2,299.996,5.36278
264,299.996,5.36279
268.8,300,5.36413
273.6,300.007,5.36379
278.4,300.011,5.36144
283.2,300.016,5.36278
288,300.021,5.36413
292.8,300.033,5.36279
297.6,300.032,5.36424
300.6,300.036,5.36558
303,300.042,5.36558
305.4,300.042,5.36558
307.8,300.046,5.36558
310.2,300.051,5.36558
312.6,300.053,5.36423
315,300.066,5.36423
317.4,300.08,5.36525
319.8,300.095,5.36479
322.2,300.116,5.36357
324.6,300.144,5.36322
327,300.177,5.36323
329.4,300.22,5.36356
331.8,300.27,5.36569
334.2,300.327,5.36479
336.6,300.396,5.36379
339,300.473,5.36279
341.4,300.561,5.36167
343.8,300.664,5.36278
346.2,300.772,5.36379
348.6,300.896,5.36334
351,301.031,5.36434
353.4,301.181,5.36636
355.8,301.345,5.36736
358.2,301.522,5.36669
360.6,301.714,5.36748
363,301.922,5.36659
365.4,302.144,5.36501
367.8,302.382,5.36658
370.2,302.64,5.36401
372.6,302.909,5.36357
375,303.197,5.36301
377.4,303.5,5.36255
379.8,303.812,5.36401
382.2,304.149,5.36402
384.6,304.5,5.36558
387,304.863,5.36691
389.4,305.243,5.36435
391.8,305.638,5.36457
394.2,306.046,5.36636
396.6,306.471,5.36558
399,306.909,5.36368
401.4,307.361,5.36244
403.8,307.823,5.36289
406.2,308.297,5.36301
408.6,308.787,5.3658
411,309.284,5.36524
413.4,309.793,5.36647
415.8,310.309,5.36524
418.2,310.842,5.36513
420.6,311.379,5.36457
423,311.924,5.36413
425.4,312.475,5.36345
427.8,313.037,5.36323
430.2,313.601,5.36245
432.6,314.173,5.36312
435,314.749,5.36379
437.4,315.332,5.36445
439.8,315.913,5.36424
442.2,316.503,5.36211
444.6,317.096,5.36301
447,317.689,5.36244
449.4,318.284,5.36323
451.8,318.883,5.36535
454.2,319.479,5.36345
456.6,320.077,5.36233
459,320.673,5.36244
461.4,321.269,5.36156
463.8,321.867,5.36122
466.2,322.464,5.36155
468.6,323.06,5.36244
471,323.648,5.36357
473.4,324.236,5.36189
475.8,324.821,5.36088
478.2,325.404,5.36122
480.6,325.985,5.36267
483,326.564,5.36267
485.4,327.134,5.36132
487.8,327.706,5.36133
490.2,328.27,5.36267
492.6,328.834,5.36267
495,329.384,5.36234
497.4,329.942,5.36234
499.8,330.49,5.36234
502.2,331.033,5.35999
504.6,331.568,5.35999
507,332.102,5.361
509.4,332.632,5.361
511.8,333.158,5.36133
514.2,333.679,5.36166
516.6,334.19,5.36121
519,334.705,5.36256
521.4,335.211,5.36122
523.8,335.713,5.36122
526.2,336.212,5.36122
528.6,336.707,5.36122
531,337.193,5.35988
533.4,337.678,5.35988
535.8,338.159,5.36144
538.2,338.633,5.36278
540.6,339.104,5.36278
543,339.577,5.36278
545.4,340.035,5.36278
547.8,340.497,5.36189
550.2,340.957,5.36044
552.6,341.41,5.35954
555,341.855,5.35954
557.4,342.305,5.36088
559.8,342.751,5.36021
562.2,343.191,5.36088
564.6,343.63,5.36088
567,344.067,5.36222
569.4,344.494,5.36289
571.8,344.929,5.36222
574.2,345.358,5.36188
576.6,345.784,5.36222
579,346.207,5.36088
581.4,346.629,5.36088
583.8,347.051,5.35954
586.2,347.466,5.35954
588.6,347.885,5.36156
591,348.296,5.36156
593.4,348.71,5.3629
595.8,349.12,5.3629
598.2,349.534,5.3629
600.6,349.942,5.3629
603,350.349,5.3629
605.4,350.756,5.3629
607.8,351.164,5.3629
610.2,351.57,5.36155
612.6,351.975,5.36155
615,352.378,5.36155
617.4,352.78,5.3629
619.8,353.183,5.3629
622.2,353.585,5.3629
624.6,353.988,5.3629
627,354.389,5.3629
629.4,354.791,5.3629
631.8,355.191,5.36156
634.2,355.592,5.36156
636.6,355.989,5.36156
639,356.386,5.36156
641.4,356.788,5.36021
643.8,357.185,5.36155
646.2,357.585,5.36021
648.6,357.982,5.36021
651,358.379,5.36021
653.4,358.78,5.36155
655.8,359.177,5.36289
658.2,359.575,5.36155
660.6,359.974,5.36155
663,360.371,5.36021
665.4,360.766,5.35987
667.8,361.164,5.35987
670.2,361.56,5.35987
672.6,361.958,5.35853
675,362.355,5.35988
677.4,362.753,5.36122
679.8,363.149,5.36122
682.2,363.547,5.36122
684.6,363.944,5.36021
687,364.339,5.35988
689.4,364.739,5.36122
691.8,365.137,5.36189
694.2,365.532,5.36122
696.6,365.93,5.36122
699,366.324,5.36122
701.4,366.723,5.36088
703.8,367.119,5.36121
706.2,367.517,5.35987
708.6,367.917,5.35987
711,368.311,5.36099
713.4,368.706,5.36144
715.8,369.102,5.3601
718.2,369.498,5.3601
720.6,369.894,5.36144
723,370.289,5.36144
725.4,370.689,5.3601
727.8,371.082,5.3601
730.2,371.479,5.3611
732.6,371.875,5.3611
735,372.273,5.3611
737.4,372.666,5.3611
739.8,373.062,5.35954
742.2,373.46,5.35831
744.6,373.855,5.35965
747,374.25,5.35965
749.4,374.646,5.35965
751.8,375.043,5.36144
754.2,375.438,5.36412
756.6,375.833,5.36412
759,376.23,5.36278
761.4,376.623,5.36144
763.8,377.021,5.36289
766.2,377.421,5.36312
768.6,377.815,5.36312
771,378.209,5.36077
773.4,378.608,5.36044
775.8,379.001,5.3601
778.2,379.397,5.35909
780.6,379.793,5.35909
783,380.189,5.35909
785.4,380.585,5.35809
787.8,380.983,5.35775
790.2,381.375,5.35775
792.6,381.775,5.35775
795,382.169,5.35775
797.4,382.564,5.35842
799.8,382.963,5.35909
802.2,383.364,5.36043
804.6,383.758,5.36043
807,384.158,5.36177
809.4,384.552,5.36524
811.8,384.951,5.34534
814.2,385.349,5.3838
816.6,385.744,5.35395
819,386.145,5.35987
821.4,386.543,5.37072
823.8,386.941,5.37586
826.2,387.338,5.38078
828.6,387.737,5.3648
831,388.134,5.37519
833.4,388.533,5.36737
835.8,388.935,5.37184
838.2,389.334,5.3572
840.6,389.73,5.37564
843,390.133,5.36267
845.4,390.533,5.36234
847.8,390.933,5.36368
850.2,391.332,5.36234
852.6,391.734,5.36234
855,392.134,5.36166
857.4,392.534,5.36122
859.8,392.936,5.36088
862.2,393.337,5.36021
864.6,393.736,5.35954
867,394.141,5.35954
869.4,394.539,5.35954
871.8,394.943,5.3582
874.2,395.343,5.35954
876.6,395.745,5.36088
879,396.146,5.36088
881.4,396.55,5.35954
883.8,396.95,5.36055
886.2,397.352,5.36088
888.6,397.756,5.36088
891,398.158,5.36021
893.4,398.559,5.36088
895.8,398.959,5.36211
898.2,399.363,5.3611
900.6,399.767,5.35976
903,400.171,5.35976
905.4,400.573,5.35842
907.8,400.977,5.35842
910.2,401.38,5.35976
912.6,401.783,5.36077
915,402.186,5.36077
917.4,402.588,5.3611
919.8,402.99,5.36077
922.2,403.397,5.35943
924.6,403.799,5.35809
927,404.201,5.35809
929.4,404.608,5.35943
931.8,405.012,5.36088
934.2,405.414,5.35953
936.6,405.816,5.35953
939,406.221,5.35953
941.4,406.625,5.35953
943.8,407.028,5.3592
946.2,407.432,5.35685
948.6,407.836,5.35685
951,408.24,5.36211
953.4,408.644,5.34501
955.8,409.045,5.33863
958.2,409.452,5.32846
960.6,409.854,5.36692
963,410.257,5.3535
965.4,410.661,5.35216
967.8,411.066,5.35216
970.2,411.467,5.35216
972.6,411.869,5.35082
975,412.271,5.35082
977.4,412.677,5.35082
979.8,413.078,5.34948
982.2,413.484,5.35082
984.6,413.881,5.35082
987,414.284,5.35082
989.4,414.689,5.35216
991.8,415.091,5.35216
994.2,415.496,5.35216
996.6,415.897,5.35082
999,416.301,5.35082
1001.4,416.703,5.35216
1003.8,417.105,5.35193
1006.2,417.508,5.35193
1008.6,417.908,5.35193
1011,418.31,5.35193
1013.4,418.713,5.34992
1015.8,419.113,5.34925
1018.2,419.517,5.34791
1020.6,419.918,5.34791
1023,420.322,5.34925
1025.4,420.719,5.34925
1027.8,421.122,5.34724
1030.2,421.522,5.34657
1032.6,421.925,5.34657
1035,422.324,5.34657
1037.4,422.728,5.34657
1039.8,423.13,5.34791
1042.2,423.53,5.34657
1044.6,423.929,5.34657
1047,424.332,5.34791
1049.4,424.736,5.34758
1051.8,425.134,5.34657
1054.2,425.539,5.34523
1056.6,425.94,5.34422
1059,426.34,5.34389
1061.4,426.74,5.34389
1063.8,427.14,5.34523
1066.2,427.544,5.34523
1068.6,427.944,5.34422
1071,428.345,5.34389
1073.4,428.747,5.3449
1075.8,429.145,5.34523
1078.2,429.547,5.34523
1080.6,429.946,5.3459
1083,430.347,5.34277
1085.4,430.746,5.34177
1087.8,431.148,5.34378
1090.2,431.549,5.34445
1092.6,431.949,5.34378
1095,432.35,5.34244
1097.4,432.752,5.34177
1099.8,433.15,5.34177
1102.2,433.551,5.34177
1104.6,433.951,5.34177
1107,434.351,5.3411
1109.4,434.756,5.3411
1111.8,435.151,5.3411
1114.2,435.55,5.34244
1116.6,435.953,5.34244
1119,436.355,5.34244
1121.4,436.754,5.3411
1123.8,437.154,5.3411
1126.2,437.554,5.34076
1128.6,437.953,5.33976
1131,438.351,5.33976
1133.4,438.755,5.33976
1135.8,439.152,5.33976
1138.2,439.55,5.34043
1140.6,439.951,5.34043
1143,440.354,5.33897
1145.4,440.75,5.33763
1147.8,441.15,5.33628
1150.2,441.549,5.33695
1152.6,441.949,5.33762
1155,442.348,5.33628
1157.4,442.748,5.33628
1159.8,443.147,5.33628
1162.2,443.546,5.33628
1164.6,443.946,5.33494
1167,444.346,5.33494
1169.4,444.743,5.33628
1171.8,445.143,5.33762
1174.2,445.543,5.33762
1176.6,445.94,5.33762
1179,446.341,5.33762
1181.4,446.743,5.33628
1183.8,447.138,5.33628
1186.2,447.539,5.33628
1188.6,447.937,5.33628
1191,448.337,5.33494
1193.4,448.736,5.33394
1195.8,449.136,5.33226
1198.2,449.532,5.33226
1200.6,449.934,5.33226
1203,450.332,5.33092
1205.4,450.73,5.33126
1207.8,451.131,5.3336
1210.2,451.529,5.3336
1212.6,451.923,5.33327
1215,452.325,5.33327
1217.4,452.726,5.33126
1219.8,453.124,5.33092
1222.2,453.522,5.33193
1224.6,453.92,5.33226
1227,454.319,5.33226
1229.4,454.719,5.33126
1231.8,455.12,5.33092
1234.2,455.512,5.33394
1236.6,455.915,5.32254
1239,456.313,5.32186
1241.4,456.71,5.33427
1243.8,457.112,5.33047
1246.2,457.508,5.3298
1248.6,457.909,5.32947
1251,458.303,5.32678
1253.4,458.704,5.32745
1255.8,459.104,5.32678
1258.2,459.503,5.32544
1260.6,459.904,5.32544
1263,460.301,5.3241
1265.4,460.698,5.32276
1267.8,461.1,5.32343
1270.2,461.497,5.32343
1272.6,461.899,5.32343
1275,462.294,5.32343
1277.4,462.692,5.32343
1279.8,463.092,5.32343
1282.2,463.492,5.32477
1284.6,463.89,5.32511
1287,464.289,5.32477
1289.4,464.687,5.32477
1291.8,465.086,5.32477
1294.2,465.486,5.32477
1296.6,465.884,5.32477
1299,466.282,5.32444
1301.4,466.682,5.32209
1303.8,467.081,5.32209
1306.2,467.481,5.32276
1308.6,467.88,5.32309
1311,468.276,5.32309
1313.4,468.676,5.32242
1315.8,469.078,5.32175
1318.2,469.476,5.32041
1320.6,469.876,5.32142
1323,470.272,5.32276
1325.4,470.671,5.32276
1327.8,471.076,5.32276
1330.2,471.475,5.32142
1332.6,471.872,5.32142
1335,472.274,5.32142
1337.4,472.675,5.32142
1339.8,473.076,5.32008
1342.2,473.474,5.32008
1344.6,473.87,5.32008
1347,474.272,5.31873
1349.4,474.677,5.31873
1351.8,475.074,5.31907
1354.2,475.476,5.32008
1356.6,475.874,5.31974
1359,476.277,5.31873
1361.4,476.677,5.31873
1363.8,477.078,5.31873
1366.2,477.477,5.31873
1368.6,477.878,5.31873
1371,478.28,5.31873
1373.4,478.681,5.31873
1375.8,479.08,5.31739
1378.2,479.483,5.31739
1380.6,479.883,5.31739
1383,480.281,5.31739
1385.4,480.684,5.31739
1387.8,481.083,5.31739
1390.2,481.487,5.31739
1392.6,481.886,5.31739
1395,482.289,5.31739
1397.4,482.689,5.31739
1399.8,483.089,5.31605
1402.2,483.49,5.31605
1404.6,483.89,5.31404
1407,484.292,5.31191
1409.4,484.697,5.31203
1411.8,485.096,5.31314
1414.2,485.497,5.31348
1416.6,485.9,5.31348
1419,486.299,5.31348
1421.4,486.7,5.31348
1423.8,487.099,5.31315
1426.2,487.501,5.31214
1428.6,487.9,5.31214
1431,488.298,5.31214
1433.4,488.7,5.31315
1435.8,489.101,5.31315
1438.2,489.501,5.31315
1440.6,489.901,5.31427
1443,490.301,5.3174
1445.4,490.7,5.31907
1447.8,491.099,5.31907
1450.2,491.499,5.31684
1452.6,491.896,5.31549
1455,492.294,5.31549
1457.4,492.693,5.31549
1459.8,493.094,5.3165
1462.2,493.49,5.31583
1464.6,493.889,5.3165
1467,494.289,5.31684
1469.4,494.686,5.31684
1471.8,495.086,5.31684
1474.2,495.48,5.31684
1476.6,495.879,5.31617
1479,496.276,5.31416
1481.4,496.678,5.31416
1483.8,497.076,5.31416
1486.2,497.475,5.31202
1488.6,497.874,5.30901
1491,498.275,5.30901
1493.4,498.672,5.30767
1495.8,499.074,5.30767
1498.2,499.468,5.30633
1500.6,499.87,5.30633
1503,500.266,5.30633
1505.4,500.666,5.30633
1507.8,501.067,5.30633
1510.2,501.464,5.30532
1512.6,501.864,5.30632
1515,502.263,5.30632
1517.4,502.662,5.30498
1519.8,503.059,5.30476
1522.2,503.458,5.30543
1524.6,503.857,5.30677
1527,504.254,5.30677
1529.4,504.652,5.30677
1531.8,505.05,5.30677
1534.2,505.449,5.30677
1536.6,505.847,5.30677
1539,506.246,5.30834
1541.4,506.643,5.30834
1543.8,507.042,5.30677
1546.2,507.443,5.30811
1548.6,507.842,5.30554
1551,508.239,5.30499
1553.4,508.639,5.30365
1555.8,509.04,5.30365
1558.2,509.44,5.30365
1560.6,509.838,5.30365
1563,510.233,5.30499
1565.4,510.634,5.30499
1567.8,511.033,5.30499
1570.2,511.434,5.30499
1572.6,511.833,5.30398
1575,512.231,5.30465
1577.4,512.632,5.30465
1579.8,513.03,5.30432
1582.2,513.432,5.30331
1584.6,513.832,5.30331
1587,514.232,5.30331
1589.4,514.632,5.30331
1591.8,515.033,5.30331
1594.2,515.429,5.30331
1596.6,515.83,5.30196
1599,516.228,5.30196
1601.4,516.63,5.30331
1603.8,517.031,5.30331
1606.2,517.427,5.30331
1608.6,517.827,5.30331
1611,518.228,5.30331
1613.4,518.629,5.30197
1615.8,519.025,5.30197
1618.2,519.427,5.30197
1620.6,519.825,5.30197
1623,520.228,5.30063
1625.4,520.628,5.30063
1627.8,521.027,5.29929
1630.2,521.428,5.29794
1632.6,521.828,5.29794
1635,522.23,5.29794
1637.4,522.629,5.29929
1639.8,523.031,5.29929
1642.2,523.43,5.29929
1644.6,523.829,5.29929
1647,524.23,5.29929
1649.4,524.63,5.29828
1651.8,525.031,5.29593
1654.2,525.433,5.29525
1656.6,525.834,5.29458
1659,526.23,5.29526
1661.4,526.634,5.29425
1663.8,527.031,5.29391
1666.2,527.436,5.29391
1668.6,527.833,5.29526
1671,528.234,5.29492
1673.4,528.632,5.29235
1675.8,529.031,5.29369
1678.2,529.432,5.29369
1680.6,529.833,5.29235
1683,530.237,5.29235
1685.4,530.631,5.29235
1687.8,531.03,5.29235
1690.2,531.431,5.29235
1692.6,531.83,5.29101
1695,532.23,5.28967
1697.4,532.628,5.28967
1699.8,533.028,5.28867
1702.2,533.428,5.28934
1704.6,533.825,5.28934
1707,534.225,5.28833
1709.4,534.624,5.28833
1711.8,535.023,5.28698
1714.2,535.424,5.28564
1716.6,535.823,5.2843
1719,536.223,5.28397
1721.4,536.621,5.28296
1723.8,537.023,5.2843
1726.2,537.42,5.28296
1728.6,537.819,5.28296
1731,538.22,5.28162
1733.4,538.617,5.28016
1735.8,539.016,5.27882
1738.2,539.419,5.27849
1740.6,539.818,5.27748
1743,540.216,5.27748
1745.4,540.615,5.27614
1747.8,541.014,5.2738
1750.2,541.416,5.27212
1752.6,541.815,5.27078
1755,542.215,5.27111
1757.4,542.614,5.27077
1759.8,543.016,5.26932
1762.2,543.413,5.26742
1764.6,543.813,5.26597
1767,544.213,5.26441
1769.4,544.612,5.26306
1771.8,545.01,5.26206
1774.2,545.41,5.26172
1776.6,545.809,5.26004
1779,546.211,5.25837
1781.4,546.611,5.25613
1783.8,547.008,5.25435
1786.2,547.407,5.25255
1788.6,547.808,5.25076
1791,548.206,5.24909
1793.4,548.606,5.24741
1795.8,549.009,5.24461
1798.2,549.405,5.24305
1800.6,549.806,5.24115
1803,550.207,5.23824
1805.4,550.607,5.23645
1807.8,551.005,5.23254
1810.2,551.406,5.22941
1812.6,551.804,5.22729
1815,552.206,5.22572
1817.4,552.605,5.22237
1819.8,553.007,5.21968
1822.2,553.406,5.21711
1824.6,553.805,5.21499
1827,554.208,5.21164
1829.4,554.606,5.20638
1831.8,555.008,5.20236
1834.2,555.407,5.19867
1836.6,555.809,5.19531
1839,556.209,5.19185
1841.4,556.61,5.18693
1843.8,557.012,5.18067
1846.2,557.41,5.17643
1848.6,557.812,5.17296
1851,558.213,5.16838
1853.4,558.616,5.16401
1855.8,559.017,5.15954
1858.2,559.416,5.15373
1860.6,559.816,5.14937
1863,560.216,5.14467
1865.4,560.619,5.1402
1867.8,561.019,5.13539
1870.2,561.421,5.12969
1872.6,561.82,5.12309
1875,562.22,5.11672
1877.4,562.621,5.11013
1879.8,563.022,5.10353
1882.2,563.423,5.09682
1884.6,563.821,5.0881
1887,564.224,5.08162
1889.4,564.624,5.07435
1891.8,565.025,5.0663
1894.2,565.429,5.05837
1896.6,565.827,5.04965
1899,566.226,5.04395
1901.4,566.628,5.0359
1903.8,567.031,5.02651
1906.2,567.429,5.01767
1908.6,567.832,5.00874
1911,568.23,5.00002
1913.4,568.63,4.99118
1915.8,569.03,4.98056
1918.2,569.431,4.96972
1920.6,569.831,4.95966
1923,570.233,4.94893
1925.4,570.634,4.93886
1927.8,571.033,4.92712
1930.2,571.433,4.91539
1932.6,571.835,4.90443
1935,572.234,4.89292
1937.4,572.635,4.88006
1939.8,573.034,4.86832
1942.2,573.436,4.85569
1944.6,573.836,4.84261
1947,574.235,4.83043
1949.4,574.637,4.81701
1951.8,575.037,4.80292
1954.2,575.435,4.78716
1956.6,575.837,4.77061
1959,576.235,4.75742
1961.4,576.635,4.74244
1963.8,577.036,4.72757
1966.2,577.434,4.71192
1968.6,577.834,4.69538
1971,578.235,4.6776
1973.4,578.635,4.66206
1975.8,579.036,4.64585
1978.2,579.433,4.62976
1980.6,579.833,4.61244
1983,580.231,4.5941
1985.4,580.631,4.57666
1987.8,581.031,4.55922
1990.2,581.431,4.53864
1992.6,581.831,4.51953
1995,582.231,4.49996
1997.4,582.63,4.48062
1999.8,583.033,4.46162
2002.2,583.432,4.44251
2004.6,583.832,4.4225
2007,584.232,4.40125
2009.4,584.631,4.38001
2011.8,585.033,4.36
2014.2,585.433,4.3401
2016.6,585.833,4.31886
2019,586.234,4.29561
2021.4,586.632,4.27314
2023.8,587.034,4.25112
2026.2,587.435,4.22932
2028.6,587.838,4.20708
2031,588.237,4.18338
2033.4,588.636,4.16336
2035.8,589.039,4.14168
2038.2,589.439,4.11842
2040.6,589.84,4.09539
2043,590.241,4.07192
2045.4,590.64,4.04934
2047.8,591.043,4.02586
2050.2,591.446,4.00238
2052.6,591.848,3.98025
2055,592.247,3.95644
2057.4,592.648,3.93363
2059.8,593.054,3.91094
2062.2,593.453,3.88735
2064.6,593.857,3.86499
2067,594.26,3.84218
2069.4,594.664,3.81848
2071.8,595.068,3.79422
2074.2,595.476,3.77153
2076.6,595.878,3.74861
2079,596.286,3.72536
2081.4,596.69,3.70267
2083.8,597.098,3.6802
2086.2,597.504,3.65806
2088.6,597.913,3.63425
2091,598.32,3.61033
2093.4,598.728,3.58674
2095.8,599.139,3.5646
2098.2,599.55,3.54247
2100.6,599.96,3.51944
2103,600.37,3.49741
2105.4,600.777,3.47483
2107.8,601.189,3.45404
2110.2,601.601,3.43291
2112.6,602.011,3.41111
2115,602.423,3.38797
2117.4,602.832,3.36717
2119.8,603.248,3.34337
2122.2,603.659,3.32336
2124.6,604.073,3.30223
2127,604.484,3.28043
2129.4,604.897,3.25975
2131.8,605.308,3.23839
2134.2,605.723,3.21626
2136.6,606.135,3.19569
2139,606.548,3.17523
2141.4,606.962,3.15444
2143.8,607.372,3.13186
2146.2,607.784,3.11151
2148.6,608.197,3.09139
2151,608.607,3.0716
2153.4,609.018,3.05327
2155.8,609.43,3.03459
2158.2,609.84,3.01425
2160.6,610.252,2.99346
2163,610.665,2.97188
2165.4,611.074,2.95321
2167.8,611.485,2.93264
2170.2,611.892,2.91252
2172.6,612.301,2.89362
2175,612.709,2.87563
2177.4,613.115,2.85685
2179.8,613.521,2.83918
2182.2,613.927,2.8185
2184.6,614.334,2.79873
2187,614.737,2.78206
2189.4,615.142,2.76339
2191.8,615.544,2.74417
2194.2,615.947,2.72504
2196.6,616.35,2.70605
2199,616.754,2.68615
2201.4,617.155,2.66871
2203.8,617.556,2.65138
2206.2,617.958,2.63416
2208.6,618.36,2.61459
2211,618.759,2.59426
2213.4,619.16,2.57637
2215.8,619.558,2.55927
2218.2,619.956,2.54026
2220.6,620.355,2.52148
2223,620.755,2.50371
2225.4,621.15,2.48582
2227.8,621.55,2.46637
2230.2,621.953,2.44703
2232.6,622.349,2.42668
2235,622.747,2.40835
2237.4,623.143,2.38957
2239.8,623.545,2.37079
2242.2,623.942,2.35234
2244.6,624.34,2.33166
2247,624.735,2.31321
2249.4,625.132,2.29499
2251.8,625.529,2.27621
2254.2,625.926,2.25721
2256.6,626.329,2.23843
2259,626.724,2.21897
2261.4,627.119,2.20053
2263.8,627.519,2.17962
2266.2,627.912,2.16129
2268.6,628.311,2.14217
2271,628.709,2.12361
2273.4,629.107,2.10371
2275.8,629.503,2.08314
2278.2,629.901,2.06481
2280.6,630.301,2.0458
2283,630.696,2.02691
2285.4,631.095,2.00701
2287.8,631.49,1.98611
2290.2,631.889,1.96733
2292.6,632.285,1.94642
2295,632.679,1.92641
2297.4,633.073,1.90729
2299.8,633.474,1.88672
2302.2,633.868,1.86582
2304.6,634.267,1.84581
2307,634.666,1.82591
2309.4,635.061,1.80545
2311.8,635.457,1.78555
2314.2,635.854,1.76487
2316.6,636.254,1.74251
2319,636.65,1.72049
2321.4,637.046,1.70103
2323.8,637.444,1.68225
2326.2,637.841,1.66079
2328.6,638.236,1.63832
2331,638.634,1.6182
2333.4,639.028,1.59752
2335.8,639.423,1.5756
2338.2,639.814,1.55492
2340.6,640.215,1.53379
2343,640.614,1.5111
2345.4,641.011,1.4902
2347.8,641.408,1.47097
2350.2,641.806,1.44984
2352.6,642.204,1.42614
2355,642.597,1.40456
2357.4,642.996,1.38333
2359.8,643.394,1.3604
2362.2,643.792,1.33793
2364.6,644.188,1.31557
2367,644.582,1.294
2369.4,644.978,1.27209
2371.8,645.369,1.25051
2374.2,645.762,1.23005
2376.6,646.151,1.20825
2379,646.54,1.18656
2381.4,646.929,1.16499
2383.8,647.32,1.14252
2386.2,647.712,1.12038
2388.6,648.103,1.09881
2391,648.497,1.07701
2393.4,648.884,1.05543
2395.8,649.27,1.03464
2398.2,649.656,1.01429
2400.6,650.038,0.994948
2403,650.428,0.972148
2405.4,650.813,0.947448
2407.8,651.192,0.926648
2410.2,651.571,0.906968
2412.6,651.947,0.886288
2415,652.324,0.865278
2417.4,652.697,0.847388
2419.8,653.07,0.828948
2422.2,653.442,0.809378
2424.6,653.82,0.790159
2427,654.195,0.7702587
2429.4,654.572,0.752148
2431.8,654.949,0.733808
2434.2,655.321,0.713689
2436.6,655.695,0.694909
2439,656.073,0.677359
2441.4,656.449,0.659359
2443.8,656.823,0.642259
2446.2,657.195,0.622689
2448.6,657.564,0.606819
2451,657.941,0.592059
2453.4,658.322,0.574279
2455.8,658.7,0.556619
2458.2,659.076,0.540519
2460.6,659.451,0.525989
2463,659.827,0.510559
2465.4,660.201,0.495359
2467.8,660.574,0.478809
2470.2,660.944,0.464279
2472.6,661.317,0.450859
2475,661.684,0.434099
2477.4,662.055,0.419119
2479.8,662.428,0.405359
2482.2,662.798,0.391839
2484.6,663.166,0.380429
2487,663.537,0.369369
2489.4,663.908,0.356849
2491.8,664.277,0.345779
2494.2,664.65,0.333929
2496.6,665.022,0.32062
2499,665.396,0.31067
2501.4,665.766,0.301399
2503.8,666.141,0.290329
2506.2,666.515,0.28138
2508.6,666.892,0.271989
2511,667.272,0.26383
2513.4,667.648,0.25388
2515.8,668.027,0.24494
2518.2,668.406,0.235879
2520.6,668.788,0.2275
2523,669.17,0.2198998
2525.4,669.557,0.213639
2527.8,669.943,0.20659
2530.2,670.328,0.199769
2532.6,670.718,0.19307
2535,671.106,0.18681
2537.4,671.497,0.18077
2539.8,671.888,0.17585
2542.2,672.281,0.16959
2544.6,672.678,0.16467
2547,673.073,0.15886
2549.4,673.47,0.15058
2551.8,673.872,0.14645
2554.2,674.27,0.14276
2556.6,674.673,0.13873
2559,675.075,0.13493
2561.4,675.479,0.13057
2563.8,675.888,0.12667
2566.2,676.295,0.12096
2568.6,676.703,0.11571
2571,677.115,0.11113
2573.4,677.527,0.10755
2575.8,677.937,0.1045297
2578.2,678.354,0.10185
2580.6,678.769,0.0979398
2583,679.182,0.0949199
2585.4,679.601,0.0914497
2587.8,680.015,0.0912297
2590.2,680.432,0.0893298
2592.6,680.849,0.0866497
2595,681.269,0.0847498
2597.4,681.689,0.0816199
2599.8,682.111,0.0786
2602.2,682.529,0.0762499
2604.6,682.952,0.0727797
2607,683.377,0.0695398
2609.4,683.797,0.0679796
2611.8,684.222,0.0672997
2614.2,684.642,0.0662998
2616.6,685.066,0.0649597
2619,685.488,0.06339
2621.4,685.912,0.06026004
2623.8,686.335,0.0592597
2626.2,686.76,0.0566798
2628.6,687.186,0.0532199
2631,687.608,0.0518798
2633.4,688.033,0.0532199
2635.8,688.455,0.0532199
2638.2,688.875,0.0510898
2640.6,689.298,0.0495297
2643,689.721,0.0472998
2645.4,690.143,0.0453999
2647.8,690.568,0.0450597
2650.2,690.987,0.0443899
2652.6,691.406,0.0437201
2655,691.828,0.04226999
2657.4,692.25,0.0409197
2659.8,692.669,0.0389098
2662.2,693.088,0.03824006
2664.6,693.507,0.0385701
2667,693.922,0.03958015
2669.4,694.341,0.03824006
2671.8,694.754,0.0366799
2674.2,695.171,0.0351101
2676.6,695.588,0.0333198
2679,696.003,0.0323199
2681.4,696.416,0.0309702
2683.8,696.831,0.03197
2686.2,697.24,0.0323097
2688.6,697.653,0.0309702
2691,698.063,0.0309702
2693.4,698.473,0.0296301
2695.8,698.885,0.0296301
2698.2,699.294,0.0296301
2700.6,699.7,0.02829
2703,700.11,0.0296301
2705.4,700.52,0.0296301
2707.8,700.926,0.0296301
2710.2,701.329,0.0296301
2712.6,701.735,0.0296301
2715,702.14,0.0296301
2717.4,702.543,0.0296301
2719.8,702.944,0.0289598
2722.2,703.351,0.0296301
2724.6,703.75,0.0296301
2727,704.156,0.0296301
2729.4,704.554,0.0296301
2731.8,704.956,0.0286201
2734.2,705.356,0.0269499
2736.6,705.757,0.02829
2739,706.155,0.0293
2741.4,706.555,0.0296301
2743.8,706.954,0.02829
2746.2,707.355,0.02829
2748.6,707.747,0.02829
2751,708.148,0.02829
2753.4,708.541,0.02829
2755.8,708.937,0.0269499
2758.2,709.336,0.0284
2760.6,709.73,0.0294101
2763,710.126,0.0284
2765.4,710.52,0.0284
2767.8,710.916,0.0284
2770.2,711.312,0.0284
2772.6,711.705,0.0284
2775,712.103,0.0284
2777.4,712.496,0.0270599
2779.8,712.89,0.0257199
2782.2,713.287,0.0263902
2784.6,713.681,0.0263902
2787,714.078,0.0263902
2789.4,714.47,0.0277297
2791.8,714.867,0.0290698
2794.2,715.261,0.0277297
2796.6,715.66,0.0277297
2799,716.057,0.0277297
2801.4,716.453,0.0277297
2803.8,716.849,0.0277297
2806.2,717.249,0.0277297
2808.6,717.648,0.0277297
2811,718.048,0.0263902
2813.4,718.449,0.0263902
2815.8,718.846,0.02739
2818.2,719.248,0.0284
2820.6,719.651,0.0284
2823,720.051,0.0284
2825.4,720.456,0.0284
2827.8,720.857,0.0277297
2830.2,721.265,0.0277297
2832.6,721.668,0.0277297
2835,722.072,0.0280598
2837.4,722.477,0.0280598
2839.8,722.881,0.0277297
2842.2,723.288,0.0277297
2844.6,723.694,0.0277297
2847,724.098,0.0277297
2849.4,724.505,0.0290698
2851.8,724.91,0.0280598
2854.2,725.317,0.0277297
2856.6,725.722,0.0277297
2859,726.127,0.0277297
2861.4,726.528,0.0263902
2863.8,726.935,0.0270599
2866.2,727.342,0.0277297
2868.6,727.745,0.0277297
2871,728.146,0.0277297
2873.4,728.552,0.0270497
2875.8,728.958,0.0280598
2878.2,729.36,0.0277201
2880.6,729.764,0.02638
2883,730.167,0.02638
2885.4,730.568,0.02638
2887.8,730.969,0.02638
2890.2,731.371,0.02638
2892.6,731.772,0.02638
2895,732.174,0.0267197
2897.4,732.574,0.0267197
2899.8,732.975,0.0267197
2902.2,733.376,0.02807
2904.6,733.777,0.02807
2907,734.176,0.0277297
2909.4,734.585,0.0253801
2911.8,734.983,0.0253801
2914.2,735.381,0.0253801
2916.6,735.778,0.0253801
2919,736.176,0.0253801
2921.4,736.576,0.0257102
2923.8,736.972,0.0267197
2926.2,737.369,0.0267197
2928.6,737.766,0.0260601
2931,738.164,0.0260601
2933.4,738.562,0.0274002
2935.8,738.962,0.0259399
2938.2,739.359,0.0245998
2940.6,739.758,0.0245998
2943,740.152,0.0245998
2945.4,740.548,0.0259399
2947.8,740.947,0.0259399
2950.2,741.344,0.0259399
2952.6,741.743,0.0245998
2955,742.141,0.0231497
2957.4,742.54,0.0221402
2959.8,742.936,0.0221402
2962.2,743.332,0.0244898
2964.6,743.729,0.0258299
2967,744.126,0.0258299
2969.4,744.523,0.0258299
2971.8,744.919,0.0244898
2974.2,745.319,0.02303
2976.6,745.713,0.02303
2979,746.111,0.02303
2981.4,746.508,0.0243701
2983.8,746.904,0.0243701
2986.2,747.299,0.0257102
2988.6,747.698,0.0270497
2991,748.096,0.0267197
2993.4,748.49,0.0257102
2995.8,748.887,0.0257102
2998.2,749.284,0.0270497
3000.6,749.683,0.0270497
3003,750.076,0.0257102
3005.4,750.476,0.0257102
3007.8,750.872,0.0257102
3010.2,751.272,0.02404
3012.6,751.67,0.02303
3015,752.068,0.02303
3017.4,752.467,0.0257199
3019.8,752.864,0.0257199
3022.2,753.26,0.0257199
3024.6,753.661,0.0243798
3027,754.059,0.02371
3029.4,754.456,0.0230402
3031.8,754.855,0.0243798
3034.2,755.252,0.0243798
3036.6,755.653,0.0243798
3039,756.052,0.0243798
3041.4,756.447,0.0243798
3043.8,756.847,0.0230402
3046.2,757.249,0.0230402
3048.6,757.645,0.0230402
3051,758.046,0.0230402
3053.4,758.445,0.0230402
3055.8,758.845,0.0230402
3058.2,759.244,0.0230402
3060.6,759.647,0.0216899
3063,760.045,0.02303
3065.4,760.445,0.02303
3067.8,760.844,0.02303
3070.2,761.245,0.0243701
3072.6,761.649,0.0243701
3075,762.05,0.0250399
3077.4,762.453,0.0270599
3079.8,762.853,0.0270599
3082.2,763.254,0.0270599
3084.6,763.656,0.0267197
3087,764.06,0.0270497
3089.4,764.461,0.0270497
3091.8,764.862,0.0270497
3094.2,765.265,0.0270497
3096.6,765.665,0.0270497
3099,766.068,0.0257102
3101.4,766.47,0.0257102
3103.8,766.872,0.0257102
3106.2,767.275,0.0243701
3108.6,767.674,0.0243701
3111,768.075,0.0243701
3113.4,768.475,0.0243701
3115.8,768.882,0.02404
3118.2,769.281,0.02404
3120.6,769.685,0.0227
3123,770.088,0.0227
3125.4,770.489,0.0227
3127.8,770.891,0.0227
3130.2,771.293,0.02404
3132.6,771.695,0.0243701
3135,772.096,0.0243701
3137.4,772.498,0.0270599
3139.8,772.901,0.0256098
3142.2,773.301,0.0242697
3144.6,773.703,0.0242697
3147,774.105,0.0249401
3149.4,774.507,0.0252701
3151.8,774.906,0.0256098
3154.2,775.306,0.02728
3156.6,775.704,0.02829
3159,776.107,0.02829
3161.4,776.508,0.02829
3163.8,776.906,0.0269499
3166.2,777.307,0.0269499
3168.6,777.71,0.0269499
3171,778.108,0.0259399
3173.4,778.511,0.0256098
3175.8,778.911,0.0256098
3178.2,779.313,0.0269499
3180.6,779.716,0.0269499
3183,780.115,0.0269499
3185.4,780.515,0.0256002
3187.8,780.914,0.0252701
3190.2,781.317,0.0245901
3192.6,781.718,0.0245901
3195,782.12,0.0245901
3197.4,782.52,0.0259399
3199.8,782.922,0.0262699
3202.2,783.323,0.02728
3204.6,783.724,0.0266102
3207,784.123,0.0252701
3209.4,784.527,0.0252701
3211.8,784.926,0.0266102
3214.2,785.327,0.0259399
3216.6,785.729,0.02728
3219,786.129,0.02728
3221.4,786.53,0.02728
3223.8,786.931,0.02728
3226.2,787.332,0.0259399
3228.6,787.732,0.02728
3231,788.136,0.02728
3233.4,788.535,0.0259399
3235.8,788.931,0.0269499
3238.2,789.335,0.02728
3240.6,789.736,0.0259399
3243,790.136,0.0259399
3245.4,790.536,0.0259399
3247.8,790.938,0.02728
3250.2,791.337,0.02728
3252.6,791.737,0.02728
3255,792.137,0.02728
3257.4,792.535,0.02728
3259.8,792.936,0.0259399
3262.2,793.337,0.0259399
3264.6,793.739,0.0245998
3267,794.136,0.0245998
3269.4,794.535,0.0245998
3271.8,794.939,0.0245998
3274.2,795.339,0.0245998
3276.6,795.736,0.0245998
3279,796.138,0.0232501
3281.4,796.54,0.0245901
3283.8,796.938,0.0245901
3286.2,797.337,0.0259399
3288.6,797.739,0.0259399
3291,798.138,0.0259399
3293.4,798.539,0.02728
3295.8,798.94,0.0257102
3298.2,799.345,0.0247098
3300.6,799.748,0.0247098
3303,800.148,0.0247098
3305.4,800.556,0.0260601
3307.8,800.956,0.0260601
3310.2,801.362,0.0260601
3312.6,801.763,0.0260601
3315,802.162,0.0260601
3317.4,802.563,0.0260601
3319.8,802.964,0.0274002
3322.2,803.364,0.0274002
3324.6,803.768,0.0258299
3327,804.167,0.0244898
3329.4,804.567,0.0251601
3331.8,804.969,0.0258299
3334.2,805.371,0.0258299
3336.6,805.773,0.0258299
3339,806.172,0.0258299
3341.4,806.574,0.0251601
3343.8,806.975,0.0244898
3346.2,807.373,0.0244898
3348.6,807.773,0.0244898
3351,808.174,0.0258299
3353.4,808.574,0.02615993
3355.8,808.973,0.02615993
3358.2,809.372,0.02615993
3360.6,809.772,0.02481984
3363,810.17,0.0221402
3365.4,810.57,0.0221402
3367.8,810.972,0.02481984
3370.2,811.371,0.02481984
3372.6,811.772,0.0258299
3375,812.168,0.02615993
3377.4,812.568,0.02615993
3379.8,812.968,0.02615993
3382.2,813.366,0.02615993
3384.6,813.767,0.02615993
3387,814.165,0.02750002
3389.4,814.565,0.02750002
3391.8,814.964,0.02750002
3394.2,815.361,0.02884977
3396.6,815.763,0.02884977
3399,816.163,0.0275102
3401.4,816.56,0.02481984
3403.8,816.955,0.02481984
3406.2,817.356,0.0268297
3408.6,817.75,0.0275102
3411,818.15,0.0275102
3413.4,818.547,0.0275102
3415.8,818.946,0.0265002
3418.2,819.342,0.0261701
3420.6,819.743,0.0261701
3423,820.138,0.0261701
3425.4,820.535,0.0261701
3427.8,820.933,0.02481984
3430.2,821.33,0.02481984
3432.6,821.727,0.02615993
3435,822.124,0.0258299
3436.8,822.421,0.02481984