File: Non-charring/PMMA/TIFP/TIFP_TGA_N2_10K_8.csv
Time,Temperature,Mass fraction
[s],[K],[mg]
0,300.149,5.0804
3,300.147,5.0811
6,300.148,5.0797
9,300.148,5.0813
12,300.149,5.0806
15,300.163,5.0829
18,300.17,5.0814
21,300.192,5.0812
24,300.221,5.0817
27,300.256,5.0817
30,300.306,5.0808
33,300.368,5.0808
36,300.444,5.0829
39,300.534,5.0834
42,300.643,5.0841
45,300.765,5.0838
48,300.91,5.0826
51,301.075,5.0836
54,301.259,5.0839
57,301.465,5.0822
60,301.695,5.0831
63,301.948,5.0833
66,302.223,5.0828
69,302.523,5.0841
72,302.851,5.0834
75,303.199,5.0827
78,303.575,5.0835
81,303.975,5.0834
84,304.399,5.0837
87,304.849,5.0849
90,305.326,5.085
93,305.819,5.0852
96,306.341,5.0853
99,306.88,5.0863
102,307.442,5.086
105,308.028,5.085
108,308.627,5.0864
111,309.246,5.0853
114,309.882,5.0875
117,310.537,5.0875
120,311.205,5.0893
123,311.883,5.0888
126,312.576,5.0869
129,313.28,5.087
132,313.992,5.088
135,314.716,5.0864
138,315.446,5.0852
141,316.181,5.0866
144,316.921,5.0872
147,317.666,5.0884
150,318.413,5.0879
153,319.161,5.0899
156,319.912,5.0893
159,320.666,5.0902
162,321.413,5.091
165,322.161,5.0909
168,322.909,5.0891
171,323.651,5.0902
174,324.389,5.091
177,325.124,5.0892
180,325.852,5.0887
183,326.575,5.0881
186,327.294,5.0889
189,328.005,5.0903
192,328.709,5.089
195,329.409,5.089
198,330.098,5.089
201,330.783,5.089
204,331.461,5.089
207,332.128,5.089
210,332.791,5.089
213,333.443,5.0903
216,334.091,5.0903
219,334.734,5.0903
222,335.364,5.0893
225,335.988,5.0893
228,336.605,5.0903
231,337.215,5.0903
234,337.818,5.0903
237,338.417,5.0903
240,339.006,5.0903
243,339.592,5.089
246,340.17,5.089
249,340.741,5.0897
252,341.308,5.0907
255,341.866,5.0903
258,342.424,5.0903
261,342.981,5.0907
264,343.523,5.0917
267,344.068,5.0917
270,344.606,5.0913
273,345.14,5.0917
276,345.672,5.0927
279,346.202,5.0917
282,346.726,5.093
285,347.25,5.0944
288,347.769,5.0944
291,348.287,5.0944
294,348.803,5.0944
297,349.315,5.093
300,349.825,5.0916
303,350.336,5.0902
306,350.845,5.0917
309,351.351,5.0934
312,351.856,5.0954
315,352.362,5.0954
318,352.866,5.094
321,353.362,5.0954
324,353.866,5.094
327,354.369,5.0954
330,354.867,5.0954
333,355.366,5.094
336,355.864,5.0954
339,356.363,5.0964
342,356.862,5.0974
345,357.358,5.0967
348,357.856,5.0967
351,358.352,5.098
354,358.851,5.0967
357,359.344,5.0954
360,359.844,5.0954
363,360.338,5.0967
366,360.836,5.0967
369,361.332,5.098
372,361.828,5.0959
375,362.323,5.0953
378,362.821,5.0953
381,363.317,5.0959
384,363.812,5.0969
387,364.311,5.0983
390,364.806,5.0983
393,365.3,5.0983
396,365.798,5.0979
399,366.293,5.0969
402,366.79,5.0969
405,367.284,5.0976
408,367.776,5.0983
411,368.275,5.0973
414,368.772,5.0969
417,369.265,5.0983
420,369.76,5.0969
423,370.254,5.0983
426,370.752,5.0983
429,371.246,5.0969
432,371.742,5.0986
435,372.238,5.1006
438,372.73,5.1003
441,373.225,5.0999
444,373.718,5.0986
447,374.211,5.0996
450,374.708,5.0997
453,375.202,5.0987
456,375.698,5.0997
459,376.192,5.0987
462,376.685,5.0984
465,377.18,5.0985
468,377.674,5.0996
471,378.169,5.0991
474,378.664,5.0987
477,379.162,5.0987
480,379.654,5.0998
483,380.15,5.1003
486,380.644,5.0996
489,381.141,5.0996
492,381.636,5.0989
495,382.132,5.1001
498,382.627,5.1005
501,383.125,5.0998
504,383.621,5.1005
507,384.117,5.1005
510,384.614,5.0998
513,385.109,5.1006
516,385.607,5.0993
519,386.106,5.0986
522,386.603,5.0979
525,387.102,5.0989
528,387.599,5.0993
531,388.101,5.0979
534,388.595,5.0979
537,389.099,5.0979
540,389.595,5.099
543,390.096,5.1008
546,390.597,5.1023
549,391.095,5.1023
552,391.597,5.102
555,392.099,5.1009
558,392.6,5.0999
561,393.099,5.101
564,393.604,5.101
567,394.107,5.102
570,394.612,5.101
573,395.114,5.1009
576,395.615,5.1009
579,396.119,5.0996
582,396.622,5.1009
585,397.126,5.1024
588,397.63,5.1024
591,398.135,5.1024
594,398.637,5.0997
597,399.144,5.0998
600,399.649,5.0998
603,400.155,5.1012
606,400.659,5.1012
609,401.165,5.1005
612,401.669,5.1008
615,402.174,5.1014
618,402.681,5.1014
621,403.187,5.1024
624,403.692,5.1024
627,404.199,5.1014
630,404.704,5.1027
633,405.21,5.1027
636,405.714,5.1021
639,406.223,5.1021
642,406.726,5.1027
645,407.233,5.1014
648,407.74,5.1001
651,408.245,5.1001
654,408.756,5.1001
657,409.255,5.1014
660,409.763,5.1027
663,410.27,5.1027
666,410.776,5.1014
669,411.281,5.1014
672,411.785,5.1007
675,412.292,5.1014
678,412.798,5.1024
681,413.304,5.1001
684,413.81,5.0987
687,414.319,5.1002
690,414.821,5.1002
693,415.327,5.1012
696,415.832,5.1002
699,416.334,5.1012
702,416.842,5.1002
705,417.347,5.1002
708,417.849,5.0988
711,418.358,5.0988
714,418.862,5.0988
717,419.368,5.0975
720,419.871,5.0975
723,420.372,5.0985
726,420.882,5.0988
729,421.384,5.0978
732,421.886,5.0975
735,422.391,5.0988
738,422.892,5.0975
741,423.397,5.0975
744,423.9,5.0968
747,424.401,5.0971
750,424.906,5.0958
753,425.408,5.0958
756,425.91,5.0958
759,426.412,5.0958
762,426.917,5.0948
765,427.416,5.0941
768,427.918,5.0935
771,428.418,5.0935
774,428.921,5.0921
777,429.424,5.0921
780,429.924,5.0908
783,430.423,5.0908
786,430.927,5.0908
789,431.426,5.0898
792,431.928,5.0894
795,432.428,5.0898
798,432.927,5.0904
801,433.426,5.0904
804,433.926,5.0904
807,434.423,5.0878
810,434.925,5.0864
813,435.424,5.0864
816,435.923,5.0854
819,436.421,5.0868
822,436.921,5.0864
825,437.416,5.0864
828,437.916,5.0858
831,438.415,5.0851
834,438.914,5.0851
837,439.412,5.0837
840,439.91,5.0837
843,440.41,5.0821
846,440.909,5.0811
849,441.406,5.0807
852,441.907,5.0787
855,442.405,5.0787
858,442.902,5.0787
861,443.398,5.0774
864,443.899,5.077
867,444.394,5.0747
870,444.896,5.0747
873,445.393,5.0743
876,445.891,5.0727
879,446.388,5.0717
882,446.886,5.0703
885,447.386,5.069
888,447.885,5.0676
891,448.38,5.0661
894,448.878,5.0661
897,449.373,5.0637
900,449.874,5.0637
903,450.372,5.0637
906,450.869,5.0624
909,451.367,5.0621
912,451.865,5.0607
915,452.361,5.058
918,452.86,5.0561
921,453.358,5.0529
924,453.859,5.0522
927,454.358,5.0509
930,454.853,5.0494
933,455.351,5.047
936,455.85,5.0446
939,456.349,5.0409
942,456.848,5.0396
945,457.343,5.0403
948,457.844,5.0406
951,458.341,5.0391
954,458.838,5.0363
957,459.336,5.0337
960,459.835,5.0323
963,460.334,5.0323
966,460.832,5.0323
969,461.331,5.0303
972,461.828,5.0283
975,462.327,5.0267
978,462.823,5.024
981,463.322,5.0227
984,463.818,5.0227
987,464.32,5.02
990,464.816,5.0171
993,465.314,5.0158
996,465.817,5.0144
999,466.313,5.012
1002,466.808,5.0116
1005,467.309,5.009
1008,467.804,5.0076
1011,468.305,5.0076
1014,468.8,5.0049
1017,469.298,5.0021
1020,469.799,5.0002
1023,470.3,4.9977
1026,470.794,4.995
1029,471.29,4.995
1032,471.79,4.995
1035,472.29,4.9963
1038,472.787,4.9936
1041,473.286,4.9915
1044,473.784,4.9886
1047,474.279,4.9863
1050,474.78,4.9875
1053,475.276,4.9859
1056,475.775,4.9838
1059,476.275,4.9818
1062,476.775,4.9805
1065,477.271,4.9801
1068,477.77,4.9791
1071,478.27,4.9791
1074,478.766,4.9778
1077,479.265,4.9744
1080,479.765,4.9717
1083,480.264,4.9711
1086,480.763,4.9684
1089,481.264,4.967
1092,481.762,4.967
1095,482.262,4.967
1098,482.761,4.9656
1101,483.26,4.9632
1104,483.758,4.9594
1107,484.257,4.9581
1110,484.756,4.9568
1113,485.256,4.9568
1116,485.755,4.9568
1119,486.253,4.9561
1122,486.751,4.9544
1125,487.251,4.9541
1128,487.748,4.9541
1131,488.248,4.9517
1134,488.747,4.9514
1137,489.248,4.9514
1140,489.743,4.95
1143,490.241,4.9477
1146,490.742,4.9474
1149,491.24,4.946
1152,491.74,4.9453
1155,492.238,4.9447
1158,492.738,4.9447
1161,493.237,4.9447
1164,493.737,4.942
1167,494.235,4.942
1170,494.734,4.9433
1173,495.231,4.9433
1176,495.73,4.9433
1179,496.232,4.942
1182,496.728,4.942
1185,497.231,4.9417
1188,497.729,4.9405
1191,498.229,4.9385
1194,498.727,4.9382
1197,499.226,4.9395
1200,499.725,4.9382
1203,500.226,4.9382
1206,500.725,4.9382
1209,501.223,4.9368
1212,501.723,4.9368
1215,502.22,4.9382
1218,502.718,4.9382
1221,503.219,4.9382
1224,503.72,4.9353
1227,504.218,4.9343
1230,504.717,4.936
1233,505.216,4.9373
1236,505.714,4.9346
1239,506.213,4.9346
1242,506.713,4.9346
1245,507.212,4.9346
1248,507.71,4.9333
1251,508.209,4.9333
1254,508.71,4.9333
1257,509.207,4.9333
1260,509.706,4.9333
1263,510.207,4.9319
1266,510.705,4.9333
1269,511.203,4.9333
1272,511.703,4.9313
1275,512.202,4.9313
1278,512.701,4.9326
1281,513.2,4.9326
1284,513.701,4.9333
1287,514.199,4.9309
1290,514.699,4.9309
1293,515.198,4.9323
1296,515.697,4.9319
1299,516.197,4.9323
1302,516.695,4.9323
1305,517.195,4.9323
1308,517.697,4.9309
1311,518.194,4.9292
1314,518.695,4.9279
1317,519.195,4.9266
1320,519.695,4.9256
1323,520.197,4.9266
1326,520.695,4.9269
1329,521.194,4.9256
1332,521.696,4.9256
1335,522.193,4.9262
1338,522.692,4.9262
1341,523.195,4.9256
1344,523.693,4.9252
1347,524.192,4.9252
1350,524.691,4.9252
1353,525.192,4.9252
1356,525.69,4.9239
1359,526.191,4.9228
1362,526.692,4.9214
1365,527.193,4.9211
1368,527.69,4.9201
1371,528.19,4.9214
1374,528.692,4.9214
1377,529.189,4.9211
1380,529.689,4.9201
1383,530.186,4.9201
1386,530.688,4.9211
1389,531.186,4.9211
1392,531.686,4.9197
1395,532.186,4.9197
1398,532.683,4.9183
1401,533.185,4.9165
1404,533.686,4.9139
1407,534.183,4.9139
1410,534.686,4.9139
1413,535.184,4.9139
1416,535.686,4.9139
1419,536.184,4.9139
1422,536.68,4.9126
1425,537.184,4.9126
1428,537.685,4.9126
1431,538.184,4.9112
1434,538.683,4.9099
1437,539.183,4.9099
1440,539.683,4.9092
1443,540.178,4.9085
1446,540.682,4.9071
1449,541.179,4.9071
1452,541.679,4.9054
1455,542.179,4.9036
1458,542.68,4.9016
1461,543.177,4.9016
1464,543.677,4.9003
1467,544.177,4.899
1470,544.674,4.8976
1473,545.172,4.8963
1476,545.67,4.8963
1479,546.166,4.8969
1482,546.665,4.8956
1485,547.164,4.8943
1488,547.663,4.8939
1491,548.165,4.8899
1494,548.664,4.8889
1497,549.161,4.8886
1500,549.661,4.8872
1503,550.158,4.8847
1506,550.659,4.8844
1509,551.156,4.8844
1512,551.652,4.8837
1515,552.15,4.8841
1518,552.649,4.8845
1521,553.147,4.8813
1524,553.644,4.8766
1527,554.145,4.8717
1530,554.643,4.8707
1533,555.143,4.8707
1536,555.642,4.8692
1539,556.14,4.8692
1542,556.64,4.8675
1545,557.138,4.8649
1548,557.638,4.8634
1551,558.14,4.8609
1554,558.637,4.8577
1557,559.136,4.8577
1560,559.636,4.855
1563,560.133,4.8519
1566,560.634,4.8503
1569,561.135,4.8503
1572,561.631,4.849
1575,562.131,4.849
1578,562.629,4.8474
1581,563.131,4.8434
1584,563.626,4.8391
1587,564.129,4.836
1590,564.624,4.8336
1593,565.124,4.8329
1596,565.623,4.8315
1599,566.121,4.8302
1602,566.621,4.8287
1605,567.119,4.827
1608,567.617,4.8228
1611,568.117,4.8181
1614,568.614,4.8154
1617,569.115,4.814
1620,569.614,4.8095
1623,570.112,4.8082
1626,570.613,4.8049
1629,571.113,4.8009
1632,571.611,4.7997
1635,572.112,4.7969
1638,572.611,4.794
1641,573.108,4.7908
1644,573.609,4.788
1647,574.108,4.7845
1650,574.606,4.7822
1653,575.106,4.7777
1656,575.604,4.774
1659,576.105,4.7702
1662,576.606,4.7668
1665,577.104,4.7655
1668,577.607,4.7637
1671,578.105,4.7606
1674,578.604,4.7572
1677,579.103,4.7559
1680,579.604,4.7517
1683,580.102,4.7487
1686,580.601,4.7439
1689,581.105,4.7402
1692,581.602,4.7364
1695,582.102,4.7334
1698,582.603,4.7307
1701,583.102,4.7265
1704,583.604,4.7231
1707,584.103,4.7181
1710,584.602,4.7146
1713,585.102,4.7128
1716,585.602,4.7098
1719,586.103,4.7064
1722,586.604,4.7013
1725,587.103,4.6969
1728,587.602,4.6949
1731,588.103,4.6901
1734,588.604,4.6831
1737,589.101,4.6789
1740,589.603,4.6755
1743,590.105,4.6709
1746,590.605,4.6663
1749,591.107,4.6621
1752,591.609,4.6582
1755,592.109,4.6511
1758,592.609,4.6453
1761,593.109,4.6417
1764,593.609,4.6357
1767,594.11,4.6311
1770,594.611,4.6274
1773,595.109,4.6228
1776,595.608,4.6177
1779,596.107,4.6113
1782,596.606,4.6052
1785,597.106,4.5972
1788,597.606,4.591
1791,598.104,4.5858
1794,598.606,4.5813
1797,599.101,4.5734
1800,599.603,4.5635
1803,600.1,4.5565
1806,600.604,4.5488
1809,601.101,4.5431
1812,601.598,4.5381
1815,602.099,4.5278
1818,602.602,4.5166
1821,603.096,4.5117
1824,603.593,4.5035
1827,604.094,4.4948
1830,604.596,4.4834
1833,605.096,4.4737
1836,605.595,4.4625
1839,606.093,4.455
1842,606.593,4.4438
1845,607.094,4.434
1848,607.595,4.4229
1851,608.092,4.4116
1854,608.593,4.4008
1857,609.093,4.3882
1860,609.593,4.3762
1863,610.091,4.3663
1866,610.59,4.3532
1869,611.087,4.3399
1872,611.587,4.3253
1875,612.088,4.3106
1878,612.589,4.295
1881,613.088,4.2811
1884,613.586,4.2678
1887,614.086,4.2516
1890,614.584,4.236
1893,615.081,4.2212
1896,615.583,4.203
1899,616.08,4.1847
1902,616.579,4.1645
1905,617.078,4.1478
1908,617.576,4.1313
1911,618.072,4.1139
1914,618.569,4.0927
1917,619.067,4.0725
1920,619.566,4.0509
1923,620.062,4.0303
1926,620.562,4.0062
1929,621.057,3.9856
1932,621.558,3.9627
1935,622.056,3.939
1938,622.556,3.9117
1941,623.054,3.8885
1944,623.555,3.8644
1947,624.053,3.8403
1950,624.55,3.8133
1953,625.048,3.788
1956,625.548,3.7602
1959,626.045,3.7301
1962,626.546,3.699
1965,627.044,3.6698
1968,627.542,3.6396
1971,628.043,3.6107
1974,628.538,3.5785
1977,629.04,3.5473
1980,629.54,3.5158
1983,630.038,3.4828
1986,630.535,3.4469
1989,631.034,3.413
1992,631.535,3.3791
1995,632.034,3.3431
1998,632.534,3.3047
2001,633.03,3.2692
2004,633.533,3.2319
2007,634.032,3.1924
2010,634.532,3.1538
2013,635.028,3.1164
2016,635.528,3.0779
2019,636.025,3.0367
2022,636.524,2.9955
2025,637.021,2.9569
2028,637.517,2.9162
2031,638.014,2.8756
2034,638.509,2.8332
2037,639.004,2.7916
2040,639.498,2.7499
2043,639.994,2.7098
2046,640.49,2.6649
2049,640.988,2.622
2052,641.486,2.5823
2055,641.983,2.5442
2058,642.481,2.5024
2061,642.981,2.4635
2064,643.491,2.4238
2067,643.992,2.3797
2070,644.491,2.3375
2073,644.989,2.2968
2076,645.49,2.2543
2079,645.989,2.2112
2082,646.491,2.1659
2085,646.994,2.1249
2088,647.497,2.0801
2091,647.995,2.0385
2094,648.496,1.9939
2097,648.995,1.9493
2100,649.493,1.9056
2103,649.994,1.8596
2106,650.491,1.8145
2109,650.991,1.7725
2112,651.489,1.7289
2115,651.987,1.6874
2118,652.486,1.6434
2121,652.984,1.6043
2124,653.481,1.5627
2127,653.98,1.52
2130,654.48,1.4773
2133,654.98,1.4415
2136,655.479,1.4027
2139,655.978,1.3631
2142,656.477,1.3253
2145,656.978,1.291
2148,657.476,1.2517
2151,657.975,1.2141
2154,658.476,1.1768
2157,658.979,1.144
2160,659.479,1.1114
2163,659.978,1.0754
2166,660.478,1.0416
2169,660.98,1.0098
2172,661.482,0.9799
2175,661.98,0.9499
2178,662.482,0.9195
2181,662.98,0.8938
2184,663.482,0.8667
2187,663.982,0.839
2190,664.48,0.8135
2193,664.978,0.7887
2196,665.479,0.764
2199,665.979,0.741
2202,666.481,0.7177
2205,666.982,0.695
2208,667.484,0.6719
2211,667.984,0.6504
2214,668.489,0.6306
2217,668.988,0.6126
2220,669.49,0.595
2223,669.991,0.5758
2226,670.493,0.5604
2229,670.991,0.5453
2232,671.492,0.5295
2235,671.994,0.5097
2238,672.495,0.493
2241,672.999,0.4765
2244,673.5,0.4627
2247,673.999,0.4492
2250,674.501,0.4355
2253,675.002,0.422
2256,675.502,0.4104
2259,676.001,0.399
2262,676.501,0.3899
2265,677.001,0.3785
2268,677.501,0.367
2271,678,0.3584
2274,678.501,0.3486
2277,679,0.3388
2280,679.503,0.3326
2283,679.997,0.3264
2286,680.497,0.3172
2289,680.996,0.3061
2292,681.497,0.2984
2295,681.994,0.2932
2298,682.495,0.2863
2301,682.996,0.277
2304,683.494,0.2704
2307,683.995,0.2655
2310,684.494,0.2629
2313,684.992,0.259
2316,685.489,0.2557
2319,685.99,0.2494
2322,686.49,0.2424
2325,686.99,0.2373
2328,687.487,0.2333
2331,687.987,0.2313
2334,688.482,0.2303
2337,688.982,0.2273
2340,689.478,0.2234
2343,689.974,0.2201
2346,690.474,0.2174
2349,690.973,0.214
2352,691.471,0.2102
2355,691.968,0.2066
2358,692.466,0.205
2361,692.966,0.2037
2364,693.463,0.2014
2367,693.962,0.1997
2370,694.461,0.197
2373,694.961,0.1944
2376,695.46,0.1918
2379,695.959,0.1888
2382,696.457,0.1875
2385,696.955,0.1875
2388,697.455,0.186
2391,697.954,0.1847
2394,698.453,0.1843
2397,698.95,0.1818
2400,699.449,0.1803
2403,699.948,0.1803
2406,700.447,0.179
2409,700.946,0.178
2412,701.445,0.1763
2415,701.946,0.1748
2418,702.443,0.1731
2421,702.942,0.1717
2424,703.44,0.1717
2427,703.94,0.1707
2430,704.438,0.1704
2433,704.937,0.169
2436,705.439,0.167
2439,705.937,0.1663
2442,706.438,0.1663
2445,706.935,0.1667
2448,707.434,0.1652
2451,707.934,0.1638
2454,708.431,0.1622
2457,708.931,0.1609
2460,709.432,0.1619
2463,709.929,0.1632
2466,710.429,0.1632
2469,710.925,0.1642
2472,711.426,0.1636
2475,711.923,0.1629
2478,712.421,0.1629
2481,712.919,0.1629
2484,713.418,0.1629
2487,713.919,0.1632
2490,714.414,0.1632
2493,714.912,0.1618
2496,715.411,0.1604
2499,715.91,0.1604
2502,716.409,0.1604
2505,716.908,0.1577
2508,717.404,0.1577
2511,717.902,0.1577
2514,718.4,0.1597
2517,718.897,0.1618
2520,719.395,0.1618
2523,719.893,0.1631
2526,720.389,0.1618
2529,720.886,0.1604
2532,721.385,0.1604
2535,721.882,0.1604
2538,722.379,0.1618
2541,722.88,0.1618
2544,723.377,0.1618
2547,723.874,0.1618
2550,724.372,0.1604
2553,724.871,0.1604
2556,725.369,0.1618
2559,725.867,0.1618
2562,726.366,0.1611
2565,726.867,0.1611
2568,727.365,0.1608
2571,727.866,0.1591
2574,728.364,0.1591
2577,728.865,0.1591
2580,729.367,0.1591
2583,729.864,0.1591
2586,730.364,0.1591
2589,730.864,0.1597
2592,731.365,0.1597
2595,731.866,0.1597
2598,732.366,0.1584
2601,732.865,0.1584
2604,733.363,0.1597
2607,733.863,0.1594
2610,734.362,0.1591
2613,734.861,0.1603
2616,735.362,0.1603
2619,735.86,0.1593
2622,736.363,0.1576
2625,736.864,0.1576
2628,737.364,0.1563
2631,737.862,0.1576
2634,738.364,0.159
2637,738.862,0.159
2640,739.361,0.159
2643,739.862,0.1603
2646,740.359,0.1603
2649,740.858,0.1604
2652,741.358,0.162
2655,741.857,0.1605
2658,742.359,0.1619
2661,742.856,0.1605
2664,743.357,0.1605
2667,743.857,0.1619
2670,744.355,0.1605
2673,744.856,0.1605
2676,745.358,0.1605
2679,745.858,0.1605
2682,746.357,0.1605
2685,746.857,0.1592
2688,747.361,0.1579
2691,747.86,0.1579
2694,748.361,0.1592
2697,748.863,0.1592
2700,749.362,0.1592
2703,749.864,0.1589
2706,750.366,0.1585
2709,750.871,0.1565
2712,751.371,0.1579
2715,751.872,0.1579
2718,752.376,0.1579
2721,752.879,0.1579
2724,753.381,0.1592
2727,753.883,0.1599
2730,754.384,0.1605
2733,754.888,0.1605
2736,755.389,0.1599
2739,755.895,0.1585
2742,756.397,0.1585
2745,756.898,0.1585
2748,757.402,0.1599
2751,757.905,0.1599
2754,758.405,0.1599
2757,758.909,0.1599
2760,759.409,0.1599
2763,759.911,0.1585
2766,760.413,0.1585
2769,760.915,0.1579
2772,761.414,0.1592
2775,761.917,0.1592
2778,762.416,0.1579
2781,762.918,0.1605
2784,763.419,0.1605
2787,763.918,0.1605
2790,764.418,0.1605
2793,764.918,0.16
2796,765.422,0.16
2799,765.92,0.16
2802,766.42,0.16
2805,766.92,0.16
2808,767.418,0.1586
2811,767.92,0.16
2814,768.421,0.16
2817,768.921,0.16
2820,769.42,0.1613
2823,769.92,0.1613
2826,770.416,0.16
2829,770.913,0.159
2832,771.414,0.159
2835,771.914,0.159
2838,772.413,0.1596
2841,772.911,0.1596
2844,773.411,0.16
2847,773.907,0.161
2850,774.408,0.1596
2853,774.907,0.1583
2856,775.406,0.1583
2859,775.906,0.1583
2862,776.408,0.1583
2865,776.906,0.1583
2868,777.405,0.1596
2871,777.904,0.1596
2874,778.406,0.1596
2877,778.905,0.1583
2880,779.404,0.1583
2883,779.904,0.1586
2886,780.402,0.1593
2889,780.904,0.16
2892,781.402,0.161
2895,781.903,0.161
2898,782.405,0.1595
2901,782.906,0.1595
2904,783.407,0.1595
2907,783.908,0.1595
2910,784.41,0.1595
2913,784.912,0.1592
2916,785.415,0.1582
2919,785.918,0.1565
2922,786.417,0.1565
2925,786.919,0.1565
2928,787.421,0.1575
2931,787.918,0.1582
2934,788.421,0.1592
2937,788.923,0.1592
2940,789.424,0.1592
2943,789.926,0.1585
2946,790.426,0.1585
2949,790.928,0.1585
2952,791.431,0.1585
2955,791.931,0.1585
2958,792.434,0.1585
2961,792.935,0.1599
2964,793.435,0.1599
2967,793.937,0.1599
2970,794.438,0.1599
2973,794.937,0.1614
2976,795.439,0.1614
2979,795.939,0.1599
2982,796.439,0.1585
2985,796.94,0.1559
2988,797.441,0.156
2991,797.943,0.1573
2994,798.443,0.1573
2997,798.944,0.1591
3000,799.446,0.1574
3003,799.948,0.157
3006,800.448,0.1603
3009,800.95,0.1564
3012,801.451,0.1621
3015,801.951,0.1566
3018,802.452,0.1583
3021,802.951,0.1583
3024,803.452,0.1583
3027,803.953,0.1583
3030,804.455,0.1583
3033,804.956,0.1583
3036,805.456,0.1583
3039,805.954,0.1583
3042,806.456,0.1596
3045,806.958,0.1596
3048,807.458,0.1593
3051,807.958,0.1593
3054,808.458,0.1593
3057,808.959,0.1583
3060,809.463,0.158
3063,809.962,0.158
3066,810.464,0.158
3069,810.966,0.158
3072,811.469,0.1583
3075,811.974,0.158
3078,812.475,0.1563
3081,812.976,0.1556
3084,813.477,0.1556
3087,813.978,0.1546
3090,814.482,0.1566
3093,814.981,0.1587
3096,815.483,0.1601
3099,815.986,0.1611
3102,816.486,0.1601
3105,816.99,0.159
3108,817.49,0.1572
3111,817.994,0.1558
3114,818.494,0.1576
3117,818.993,0.1602
3120,819.496,0.1605
3123,819.998,0.1612
3126,820.5,0.159
3129,821,0.158
3132,821.5,0.1566
3135,821.998,0.158