File: Non-charring/PMMA/TIFP/TIFP_DSC_N2_10K_1.csv
Time,Temperature,Heat Flow
[s],[K],[mW/mg]
0,300.105,8.82E-03
4.8,300.105,8.87E-03
9.6,300.105,8.33E-03
14.4,300.107,8.79E-03
19.2,300.103,9.03E-03
24,300.11,8.93E-03
28.8,300.109,9.19E-03
33.6,300.111,9.32E-03
38.4,300.11,9.03E-03
43.2,300.11,8.85E-03
48,300.114,9.06E-03
52.8,300.116,8.48E-03
57.6,300.116,9.00E-03
62.4,300.12,9.26E-03
67.2,300.118,8.72E-03
72,300.118,8.79E-03
76.8,300.123,8.87E-03
81.6,300.123,8.77E-03
86.4,300.124,9.03E-03
91.2,300.126,8.79E-03
96,300.125,8.93E-03
100.8,300.127,8.59E-03
105.6,300.127,8.51E-03
110.4,300.127,8.79E-03
115.2,300.132,8.87E-03
120,300.132,8.79E-03
124.8,300.131,8.66E-03
129.6,300.136,8.79E-03
134.4,300.135,8.66E-03
139.2,300.134,8.72E-03
144,300.131,8.64E-03
148.8,300.133,8.38E-03
153.6,300.139,8.51E-03
158.4,300.139,8.61E-03
163.2,300.139,8.53E-03
168,300.141,8.48E-03
172.8,300.14,8.56E-03
177.6,300.138,8.30E-03
182.4,300.139,8.46E-03
187.2,300.145,8.66E-03
192,300.143,8.66E-03
196.8,300.147,8.30E-03
201.6,300.147,8.82E-03
206.4,300.147,8.66E-03
211.2,300.148,8.30E-03
216,300.15,8.59E-03
220.8,300.146,8.38E-03
225.6,300.149,8.22E-03
230.4,300.148,8.27E-03
235.2,300.152,8.35E-03
240,300.151,8.22E-03
244.8,300.147,8.25E-03
249.6,300.152,8.17E-03
254.4,300.152,8.19E-03
259.2,300.152,7.88E-03
264,300.154,8.06E-03
268.8,300.154,8.17E-03
273.6,300.154,8.12E-03
278.4,300.156,8.17E-03
283.2,300.155,7.88E-03
288,300.156,8.04E-03
292.8,300.155,7.67E-03
297.6,300.157,7.86E-03
300.6498,300.154,7.72E-03
303.0498,300.157,7.67E-03
305.4498,300.159,7.86E-03
307.8498,300.157,7.91E-03
310.2498,300.159,7.96E-03
312.6498,300.163,8.06E-03
315.0498,300.169,7.99E-03
317.4498,300.177,8.30E-03
319.8498,300.196,8.14E-03
322.2498,300.212,8.46E-03
324.6498,300.236,9.03E-03
327.0498,300.267,9.21E-03
329.4498,300.305,9.84E-03
331.8498,300.353,1.06E-02
334.2498,300.41,1.13E-02
336.6498,300.475,1.24E-02
339.0498,300.548,1.33E-02
341.4498,300.633,1.45E-02
343.8498,300.731,1.58E-02
346.2498,300.839,1.72E-02
348.6498,300.957,1.89E-02
351.0498,301.09,2.09E-02
353.4498,301.239,2.27E-02
355.8498,301.398,2.47E-02
358.2498,301.572,2.72E-02
360.6498,301.764,2.96E-02
363.0498,301.966,3.24E-02
365.4498,302.186,3.53E-02
367.8498,302.423,3.83E-02
370.2498,302.676,4.16E-02
372.6498,302.942,4.49E-02
375.0498,303.228,4.84E-02
377.4498,303.527,5.19E-02
379.8498,303.839,5.55E-02
382.2498,304.171,5.96E-02
384.6498,304.517,6.39E-02
387.0498,304.879,6.78E-02
389.4498,305.259,7.20E-02
391.8498,305.649,7.64E-02
394.2498,306.058,8.07E-02
396.6498,306.481,8.50E-02
399.0498,306.911,8.93E-02
401.4498,307.362,9.34E-02
403.8498,307.818,9.76E-02
406.2498,308.295,0.10169
408.6498,308.78,0.10544
411.0498,309.277,0.10985
413.4498,309.783,0.11327
415.8498,310.299,0.11682
418.2498,310.824,0.12021
420.6498,311.36,0.12358
423.0498,311.908,0.1266
425.4498,312.457,0.12942
427.8498,313.016,0.13193
430.2498,313.581,0.13498
432.6498,314.152,0.13707
435.0498,314.723,0.13931
437.4498,315.307,0.14114
439.8498,315.894,0.14304
442.2498,316.476,0.14461
444.6498,317.067,0.14602
447.0498,317.663,0.14771
449.4498,318.255,0.14852
451.8498,318.85,0.14986
454.2498,319.448,0.15067
456.6498,320.043,0.15095
459.0498,320.643,0.15129
461.4498,321.236,0.1519
463.8498,321.834,0.15145
466.2498,322.425,0.15185
468.6498,323.02,0.15193
471.0498,323.614,0.15159
473.4498,324.2,0.15099
475.8498,324.786,0.15058
478.2498,325.368,0.15058
480.6498,325.948,0.14972
483.0498,326.527,0.14936
485.4498,327.098,0.14876
487.8498,327.665,0.14787
490.2498,328.232,0.14678
492.6498,328.794,0.14642
495.0498,329.351,0.14519
497.4498,329.901,0.14462
499.8498,330.451,0.14358
502.2498,330.993,0.14301
504.6498,331.538,0.14191
507.0498,332.074,0.14121
509.4498,332.6,0.14014
511.8498,333.125,0.13918
514.2498,333.65,0.13817
516.6498,334.166,0.13746
519.0498,334.675,0.13695
521.4498,335.183,0.13546
523.8498,335.684,0.13489
526.2498,336.184,0.13411
528.6498,336.678,0.13333
531.0498,337.165,0.13244
533.4498,337.648,0.13179
535.8498,338.131,0.13141
538.2498,338.608,0.13068
540.6498,339.078,0.13032
543.0498,339.549,0.12951
545.4498,340.013,0.12896
547.8498,340.473,0.12858
550.2498,340.931,0.12795
552.6498,341.385,0.12756
555.0498,341.838,0.12723
557.4498,342.286,0.12689
559.8498,342.728,0.12645
562.2498,343.172,0.12638
564.6498,343.61,0.1263
567.0498,344.044,0.12612
569.4498,344.477,0.12576
571.8498,344.907,0.12571
574.2498,345.335,0.12587
576.6498,345.762,0.12632
579.0498,346.188,0.1263
581.4498,346.61,0.12593
583.8498,347.032,0.12607
586.2498,347.447,0.12649
588.6498,347.864,0.1266
591.0498,348.278,0.12704
593.4498,348.693,0.12747
595.8498,349.104,0.12771
598.2498,349.517,0.12776
600.6498,349.927,0.12831
603.0498,350.333,0.12858
605.4498,350.74,0.12911
607.8498,351.146,0.12927
610.2498,351.551,0.12992
612.6498,351.956,0.13035
615.0498,352.36,0.13079
617.4498,352.763,0.13098
619.8498,353.165,0.13164
622.2498,353.566,0.13175
624.6498,353.969,0.13209
627.0498,354.371,0.13233
629.4498,354.775,0.13267
631.8498,355.173,0.13289
634.2498,355.573,0.13274
636.6498,355.972,0.13292
639.0498,356.372,0.13256
641.4498,356.768,0.13238
643.8498,357.168,0.13239
646.2498,357.57,0.13195
648.6498,357.965,0.13182
651.0498,358.364,0.1313
653.4498,358.762,0.13113
655.8498,359.158,0.13092
658.2498,359.56,0.13087
660.6498,359.957,0.13033
663.0498,360.355,0.12989
665.4498,360.75,0.12948
667.8498,361.151,0.12935
670.2498,361.544,0.12891
672.6498,361.946,0.12855
675.0498,362.343,0.12806
677.4498,362.739,0.12793
679.8498,363.138,0.12781
682.2498,363.532,0.12737
684.6498,363.929,0.12721
687.0498,364.324,0.12714
689.4498,364.727,0.12699
691.8498,365.121,0.12713
694.2498,365.52,0.12679
696.6498,365.916,0.12695
699.0498,366.315,0.12651
701.4498,366.713,0.12654
703.8498,367.109,0.1266
706.2498,367.504,0.12661
708.6498,367.902,0.12674
711.0498,368.298,0.12712
713.4498,368.698,0.12673
715.8498,369.092,0.12707
718.2498,369.488,0.127
720.6498,369.885,0.12724
723.0498,370.283,0.12722
725.4498,370.68,0.12746
727.8498,371.077,0.1275
730.2498,371.476,0.1275
732.6498,371.869,0.12766
735.0498,372.262,0.12767
737.4498,372.66,0.12825
739.8498,373.054,0.12797
742.2498,373.449,0.12813
744.6498,373.85,0.12861
747.0498,374.247,0.12862
749.4498,374.642,0.12896
751.8498,375.037,0.1291
754.2498,375.433,0.12908
756.6498,375.828,0.12969
759.0498,376.227,0.12985
761.4498,376.623,0.12968
763.8498,377.017,0.12995
766.2498,377.413,0.1305
768.6498,377.809,0.13088
771.0498,378.204,0.1308
773.4498,378.599,0.13105
775.8498,378.993,0.13132
778.2498,379.393,0.13151
780.6498,379.786,0.13201
783.0498,380.187,0.13233
785.4498,380.58,0.13247
787.8498,380.976,0.13253
790.2498,381.372,0.13314
792.6498,381.769,0.13378
795.0498,382.168,0.13402
797.4498,382.562,0.1339
799.8498,382.96,0.13419
802.2498,383.358,0.13506
804.6498,383.754,0.13502
807.0498,384.151,0.13558
809.4498,384.546,0.13708
811.8498,384.944,0.13806
814.2498,385.34,0.13869
816.6498,385.737,0.13928
819.0498,386.134,0.13966
821.4498,386.533,0.14032
823.8498,386.931,0.1408
826.2498,387.327,0.14152
828.6498,387.727,0.14145
831.0498,388.126,0.1419
833.4498,388.527,0.14233
835.8498,388.923,0.14284
838.2498,389.323,0.14261
840.6498,389.724,0.14225
843.0498,390.12,0.14239
845.4498,390.521,0.14253
847.8498,390.918,0.14256
850.2498,391.322,0.14239
852.6498,391.722,0.14248
855.0498,392.124,0.14272
857.4498,392.524,0.1427
859.8498,392.924,0.14248
862.2498,393.327,0.14299
864.6498,393.728,0.14263
867.0498,394.127,0.14256
869.4498,394.53,0.14249
871.8498,394.93,0.14189
874.2498,395.332,0.14164
876.6498,395.735,0.14039
879.0498,396.137,0.13961
881.4498,396.54,0.1382
883.8498,396.941,0.13684
886.2498,397.345,0.13512
888.6498,397.745,0.13321
891.0498,398.148,0.13109
893.4498,398.554,0.12852
895.8498,398.956,0.12572
898.2498,399.358,0.12273
900.6498,399.762,0.11961
903.0498,400.165,0.11583
905.4498,400.565,0.11219
907.8498,400.97,0.10878
910.2498,401.372,0.10516
912.6498,401.78,0.10159
915.0498,402.18,9.79E-02
917.4498,402.585,9.45E-02
919.8498,402.987,9.13E-02
922.2498,403.393,8.83E-02
924.6498,403.797,8.53E-02
927.0498,404.199,8.25E-02
929.4498,404.601,7.97E-02
931.8498,405.006,7.70E-02
934.2498,405.408,7.47E-02
936.6498,405.814,7.24E-02
939.0498,406.218,7.06E-02
941.4498,406.622,6.89E-02
943.8498,407.023,6.72E-02
946.2498,407.426,6.62E-02
948.6498,407.829,6.48E-02
951.0498,408.233,6.17E-02
953.4498,408.637,5.96E-02
955.8498,409.039,5.87E-02
958.2498,409.442,5.80E-02
960.6498,409.846,5.70E-02
963.0498,410.249,5.61E-02
965.4498,410.651,5.53E-02
967.8498,411.055,5.47E-02
970.2498,411.456,5.41E-02
972.6498,411.859,5.35E-02
975.0498,412.262,5.26E-02
977.4498,412.663,5.19E-02
979.8498,413.063,5.21E-02
982.2498,413.469,5.17E-02
984.6498,413.871,5.12E-02
987.0498,414.274,5.06E-02
989.4498,414.679,5.02E-02
991.8498,415.081,5.03E-02
994.2498,415.482,4.99E-02
996.6498,415.887,4.98E-02
999.0498,416.289,4.97E-02
1001.45,416.69,5.01E-02
1003.85,417.096,4.98E-02
1006.25,417.495,4.95E-02
1008.65,417.899,4.95E-02
1011.05,418.302,4.90E-02
1013.45,418.704,4.87E-02
1015.85,419.108,4.82E-02
1018.25,419.51,4.79E-02
1020.65,419.916,4.76E-02
1023.05,420.315,4.71E-02
1025.45,420.717,4.67E-02
1027.85,421.122,4.64E-02
1030.25,421.522,4.58E-02
1032.65,421.927,4.53E-02
1035.05,422.328,4.49E-02
1037.45,422.728,4.45E-02
1039.85,423.131,4.41E-02
1042.25,423.535,4.37E-02
1044.65,423.938,4.35E-02
1047.05,424.339,4.31E-02
1049.45,424.742,4.28E-02
1051.85,425.146,4.25E-02
1054.25,425.549,4.22E-02
1056.65,425.951,4.19E-02
1059.05,426.351,4.15E-02
1061.45,426.754,4.63E-02
1063.85,427.157,4.72E-02
1066.25,427.559,4.71E-02
1068.65,427.958,4.73E-02
1071.05,428.36,4.71E-02
1073.45,428.761,4.75E-02
1075.85,429.166,4.74E-02
1078.25,429.567,4.72E-02
1080.65,429.965,4.73E-02
1083.05,430.367,4.72E-02
1085.45,430.768,4.71E-02
1087.85,431.167,4.73E-02
1090.25,431.573,4.69E-02
1092.65,431.97,4.71E-02
1095.05,432.372,4.68E-02
1097.45,432.773,4.64E-02
1099.85,433.174,4.63E-02
1102.25,433.575,4.64E-02
1104.65,433.972,4.60E-02
1107.05,434.373,4.59E-02
1109.45,434.773,4.56E-02
1111.85,435.172,4.56E-02
1114.25,435.573,4.63E-02
1116.65,435.974,4.66E-02
1119.05,436.374,4.65E-02
1121.45,436.771,4.66E-02
1123.85,437.172,4.62E-02
1126.25,437.572,4.59E-02
1128.65,437.971,4.59E-02
1131.05,438.369,4.57E-02
1133.45,438.769,4.55E-02
1135.85,439.171,4.53E-02
1138.25,439.568,4.49E-02
1140.65,439.968,4.48E-02
1143.05,440.366,4.48E-02
1145.45,440.766,4.44E-02
1147.85,441.165,4.43E-02
1150.25,441.564,4.43E-02
1152.65,441.964,4.40E-02
1155.05,442.365,4.38E-02
1157.45,442.764,4.40E-02
1159.85,443.163,4.37E-02
1162.25,443.559,4.38E-02
1164.65,443.96,4.38E-02
1167.05,444.359,4.37E-02
1169.45,444.757,4.39E-02
1171.85,445.156,4.38E-02
1174.25,445.556,4.38E-02
1176.65,445.954,4.42E-02
1179.05,446.355,4.55E-02
1181.45,446.755,4.67E-02
1183.85,447.155,4.81E-02
1186.25,447.552,5.08E-02
1188.65,447.949,5.11E-02
1191.05,448.35,5.15E-02
1193.45,448.748,5.19E-02
1195.85,449.148,5.29E-02
1198.25,449.545,5.31E-02
1200.65,449.943,5.36E-02
1203.05,450.346,5.37E-02
1205.45,450.741,5.46E-02
1207.85,451.142,5.50E-02
1210.25,451.542,5.57E-02
1212.65,451.939,5.60E-02
1215.05,452.339,5.67E-02
1217.45,452.738,5.70E-02
1219.85,453.134,5.73E-02
1222.25,453.534,5.81E-02
1224.65,453.933,5.81E-02
1227.05,454.331,5.83E-02
1229.45,454.729,5.89E-02
1231.85,455.128,5.91E-02
1234.25,455.524,5.91E-02
1236.65,455.925,5.91E-02
1239.05,456.325,6.00E-02
1241.45,456.724,6.02E-02
1243.85,457.12,6.05E-02
1246.25,457.521,6.10E-02
1248.65,457.919,6.14E-02
1251.05,458.314,6.22E-02
1253.45,458.715,6.23E-02
1255.85,459.114,6.27E-02
1258.25,459.512,6.28E-02
1260.65,459.914,6.33E-02
1263.05,460.312,6.38E-02
1265.45,460.709,6.43E-02
1267.85,461.112,6.45E-02
1270.25,461.51,6.51E-02
1272.65,461.907,6.56E-02
1275.05,462.307,6.58E-02
1277.45,462.707,6.64E-02
1279.85,463.105,6.67E-02
1282.25,463.504,6.71E-02
1284.65,463.905,6.74E-02
1287.05,464.302,6.79E-02
1289.45,464.699,6.88E-02
1291.85,465.099,6.90E-02
1294.25,465.5,6.95E-02
1296.65,465.9,7.02E-02
1299.05,466.298,7.06E-02
1301.45,466.699,7.12E-02
1303.85,467.099,7.19E-02
1306.25,467.497,7.25E-02
1308.65,467.896,7.36E-02
1311.05,468.292,7.38E-02
1313.45,468.695,7.47E-02
1315.85,469.093,7.51E-02
1318.25,469.494,7.56E-02
1320.65,469.891,7.61E-02
1323.05,470.29,7.67E-02
1325.45,470.689,7.74E-02
1327.85,471.089,7.82E-02
1330.25,471.491,7.91E-02
1332.65,471.888,7.98E-02
1335.05,472.288,8.07E-02
1337.45,472.687,8.16E-02
1339.85,473.086,8.25E-02
1342.25,473.491,8.33E-02
1344.65,473.886,8.41E-02
1347.05,474.285,8.51E-02
1349.45,474.682,8.57E-02
1351.85,475.087,8.65E-02
1354.25,475.485,8.75E-02
1356.65,475.882,8.82E-02
1359.05,476.283,8.90E-02
1361.45,476.683,9.01E-02
1363.85,477.084,9.12E-02
1366.25,477.484,9.18E-02
1368.65,477.883,9.29E-02
1371.05,478.284,9.32E-02
1373.45,478.684,9.40E-02
1375.85,479.082,9.47E-02
1378.25,479.485,9.56E-02
1380.65,479.882,9.60E-02
1383.05,480.283,9.66E-02
1385.45,480.683,9.74E-02
1387.85,481.081,9.81E-02
1390.25,481.483,9.88E-02
1392.65,481.882,9.95E-02
1395.05,482.282,0.10062
1397.45,482.682,0.10157
1399.85,483.08,0.10258
1402.25,483.481,0.10297
1404.65,483.883,0.104
1407.05,484.28,0.10509
1409.45,484.679,0.10546
1411.85,485.08,0.10671
1414.25,485.479,0.10761
1416.65,485.88,0.10808
1419.05,486.282,0.10877
1421.45,486.678,0.10921
1423.85,487.079,0.10984
1426.25,487.479,0.11024
1428.65,487.877,0.11087
1431.05,488.276,0.11175
1433.45,488.678,0.11287
1435.85,489.078,0.11428
1438.25,489.477,0.11613
1440.65,489.876,0.11749
1443.05,490.274,0.11855
1445.45,490.676,0.11959
1447.85,491.074,0.11958
1450.25,491.474,0.12057
1452.65,491.871,0.1211
1455.05,492.269,0.12155
1457.45,492.669,0.12216
1459.85,493.064,0.12269
1462.25,493.466,0.12292
1464.65,493.864,0.12369
1467.05,494.264,0.1243
1469.45,494.664,0.12497
1471.85,495.063,0.12561
1474.25,495.465,0.12611
1476.65,495.859,0.12694
1479.05,496.26,0.12752
1481.45,496.658,0.12816
1483.85,497.057,0.12867
1486.25,497.454,0.1295
1488.65,497.853,0.12992
1491.05,498.251,0.13099
1493.45,498.649,0.13177
1495.85,499.049,0.13289
1498.25,499.449,0.13378
1500.65,499.846,0.13436
1503.05,500.244,0.13541
1505.45,500.641,0.13608
1507.85,501.041,0.13656
1510.25,501.44,0.1372
1512.65,501.837,0.13809
1515.05,502.237,0.13859
1517.45,502.634,0.13921
1519.85,503.032,0.13958
1522.25,503.432,0.14004
1524.65,503.831,0.14054
1527.05,504.231,0.14108
1529.45,504.63,0.14148
1531.85,505.027,0.14237
1534.25,505.425,0.14271
1536.65,505.824,0.14333
1539.05,506.225,0.14422
1541.45,506.622,0.145
1543.85,507.022,0.14529
1546.25,507.421,0.1461
1548.65,507.819,0.14675
1551.05,508.218,0.14742
1553.45,508.617,0.14804
1555.85,509.015,0.14893
1558.25,509.416,0.14963
1560.65,509.815,0.15087
1563.05,510.216,0.15174
1565.45,510.616,0.15225
1567.85,511.017,0.15314
1570.25,511.418,0.15406
1572.65,511.814,0.15498
1575.05,512.211,0.15596
1577.45,512.615,0.15658
1579.85,513.011,0.15761
1582.25,513.412,0.15799
1584.65,513.812,0.15902
1587.05,514.209,0.16048
1589.45,514.611,0.16113
1591.85,515.007,0.16227
1594.25,515.412,0.16303
1596.65,515.807,0.16428
1599.05,516.211,0.1655
1601.45,516.606,0.16616
1603.85,517.009,0.16741
1606.25,517.409,0.16798
1608.65,517.81,0.16918
1611.05,518.207,0.17007
1613.45,518.609,0.171
1615.85,519.006,0.17182
1618.25,519.407,0.1728
1620.65,519.806,0.17405
1623.05,520.204,0.1752
1625.45,520.604,0.17591
1627.85,521.007,0.17705
1630.25,521.406,0.17817
1632.65,521.801,0.1794
1635.05,522.202,0.17984
1637.45,522.602,0.18164
1639.85,523.002,0.18257
1642.25,523.402,0.18396
1644.65,523.8,0.18487
1647.05,524.2,0.18653
1649.45,524.6,0.18796
1651.85,525,0.18905
1654.25,525.398,0.19034
1656.65,525.798,0.19138
1659.05,526.198,0.193
1661.45,526.596,0.19464
1663.85,526.993,0.19577
1666.25,527.393,0.19648
1668.65,527.793,0.19693
1671.05,528.192,0.19833
1673.45,528.589,0.1997
1675.85,528.989,0.20143
1678.25,529.39,0.20247
1680.65,529.79,0.20409
1683.05,530.19,0.20561
1685.45,530.586,0.20728
1687.85,530.987,0.20923
1690.25,531.386,0.21072
1692.65,531.784,0.21283
1695.05,532.184,0.21457
1697.45,532.582,0.21597
1699.85,532.979,0.21774
1702.25,533.379,0.21988
1704.65,533.779,0.22209
1707.05,534.176,0.22374
1709.45,534.578,0.22581
1711.85,534.976,0.22777
1714.25,535.375,0.22986
1716.65,535.776,0.23188
1719.05,536.175,0.23389
1721.45,536.574,0.23624
1723.85,536.974,0.23872
1726.25,537.375,0.24123
1728.65,537.775,0.24413
1731.05,538.176,0.2468
1733.45,538.579,0.24965
1735.85,538.979,0.2528
1738.25,539.382,0.25619
1740.65,539.78,0.25929
1743.05,540.183,0.26279
1745.45,540.586,0.26597
1747.85,540.991,0.26915
1750.25,541.391,0.27291
1752.65,541.792,0.27648
1755.05,542.196,0.28002
1757.45,542.598,0.28395
1759.85,543.001,0.28791
1762.25,543.405,0.29223
1764.65,543.807,0.29621
1767.05,544.212,0.30059
1769.45,544.613,0.30505
1771.85,545.015,0.30998
1774.25,545.42,0.31469
1776.65,545.821,0.31956
1779.05,546.226,0.32447
1781.45,546.63,0.32979
1783.85,547.029,0.33531
1786.25,547.433,0.34042
1788.65,547.833,0.34594
1791.05,548.239,0.3521
1793.45,548.642,0.35831
1795.85,549.044,0.36425
1798.25,549.448,0.37089
1800.65,549.848,0.37708
1803.05,550.249,0.38419
1805.45,550.654,0.39122
1807.85,551.054,0.39844
1810.25,551.456,0.40617
1812.65,551.858,0.41378
1815.05,552.258,0.4222
1817.45,552.66,0.43002
1819.85,553.061,0.43914
1822.25,553.463,0.44798
1824.65,553.863,0.45755
1827.05,554.267,0.46695
1829.45,554.669,0.47708
1831.85,555.07,0.48705
1834.25,555.471,0.4976
1836.65,555.875,0.50868
1839.05,556.273,0.51974
1841.45,556.673,0.53121
1843.85,557.073,0.543
1846.25,557.475,0.55515
1848.65,557.872,0.56731
1851.05,558.273,0.58002
1853.45,558.675,0.59346
1855.85,559.076,0.60713
1858.25,559.478,0.62086
1860.65,559.877,0.63562
1863.05,560.281,0.65063
1865.45,560.678,0.66582
1867.85,561.082,0.68157
1870.25,561.478,0.69782
1872.65,561.882,0.71461
1875.05,562.282,0.73171
1877.45,562.682,0.74929
1879.85,563.081,0.76787
1882.25,563.48,0.78641
1884.65,563.88,0.8061
1887.05,564.285,0.82557
1889.45,564.682,0.84557
1891.85,565.081,0.86659
1894.25,565.483,0.89006
1896.65,565.883,0.91754
1899.05,566.281,0.94609
1901.45,566.68,0.97421
1903.85,567.081,1.00237
1906.25,567.479,1.03288
1908.65,567.879,1.0639
1911.05,568.278,1.0956
1913.45,568.677,1.12762
1915.85,569.077,1.16119
1918.25,569.473,1.19357
1920.65,569.875,1.22766
1923.05,570.273,1.2623
1925.45,570.673,1.29807
1927.85,571.072,1.33466
1930.25,571.469,1.37188
1932.65,571.87,1.4104
1935.05,572.269,1.44958
1937.45,572.667,1.48933
1939.85,573.065,1.52952
1942.25,573.463,1.56955
1944.65,573.862,1.60913
1947.05,574.26,1.64752
1949.45,574.659,1.68873
1951.85,575.06,1.7299
1954.25,575.461,1.76988
1956.65,575.859,1.80672
1959.05,576.26,1.83545
1961.45,576.657,1.86566
1963.85,577.059,1.90361
1966.25,577.461,1.94169
1968.65,577.863,1.97095
1971.05,578.261,1.99602
1973.45,578.663,2.03828
1975.85,579.068,2.10398
1978.25,579.467,2.13984
1980.65,579.871,2.19828
1983.05,580.275,2.2587
1985.45,580.671,2.29479
1987.85,581.077,2.33253
1990.25,581.479,2.36269
1992.65,581.882,2.40508
1995.05,582.284,2.43404
1997.45,582.687,2.46974
1999.85,583.09,2.5151
2002.25,583.492,2.54262
2004.65,583.894,2.56388
2007.05,584.296,2.58139
2009.45,584.699,2.61018
2011.85,585.101,2.65057
2014.25,585.506,2.68756
2016.65,585.908,2.70475
2019.05,586.307,2.71782
2021.45,586.712,2.73486
2023.85,587.111,2.74741
2026.25,587.518,2.76154
2028.65,587.919,2.77447
2031.05,588.322,2.78763
2033.45,588.724,2.80429
2035.85,589.127,2.8196
2038.25,589.53,2.82816
2040.65,589.933,2.83676
2043.05,590.336,2.84643
2045.45,590.736,2.85799
2047.85,591.144,2.87391
2050.25,591.546,2.89454
2052.65,591.945,2.91294
2055.05,592.352,2.92569
2057.45,592.753,2.94183
2059.85,593.159,2.95677
2062.25,593.56,2.97101
2064.65,593.962,2.97571
2067.05,594.363,2.98998
2069.45,594.767,3.00196
2071.85,595.169,3.01255
2074.25,595.575,3.01956
2076.65,595.975,3.0166
2079.05,596.376,3.02287
2081.45,596.777,3.03077
2083.85,597.179,3.03318
2086.25,597.581,3.03992
2088.65,597.982,3.04873
2091.05,598.382,3.0561
2093.45,598.781,3.05937
2095.85,599.184,3.06044
2098.25,599.586,3.06117
2100.65,599.989,3.05542
2103.05,600.387,3.04898
2105.45,600.791,3.04487
2107.85,601.189,3.03885
2110.25,601.591,3.03413
2112.65,601.992,3.02522
2115.05,602.392,3.02025
2117.45,602.79,3.01975
2119.85,603.19,3.01381
2122.25,603.592,3.00983
2124.65,603.989,3.00334
2127.05,604.393,2.99362
2129.45,604.789,2.98357
2131.85,605.189,2.986
2134.25,605.589,2.99329
2136.65,605.989,2.99129
2139.05,606.388,2.97751
2141.45,606.787,2.97338
2143.85,607.186,2.97009
2146.25,607.585,2.96888
2148.65,607.984,2.956
2151.05,608.382,2.94272
2153.45,608.779,2.93518
2155.85,609.178,2.92682
2158.25,609.572,2.91859
2160.65,609.971,2.90475
2163.05,610.366,2.88614
2165.45,610.763,2.86895
2167.85,611.162,2.87302
2170.25,611.559,2.88442
2172.65,611.957,2.86551
2175.05,612.351,2.87317
2177.45,612.752,2.92464
2179.85,613.147,2.93387
2182.25,613.543,2.9296
2184.65,613.941,2.91787
2187.05,614.34,2.92968
2189.45,614.734,2.93543
2191.85,615.132,2.92991
2194.25,615.53,2.9513
2196.65,615.929,2.94389
2199.05,616.323,2.94462
2201.45,616.718,2.92828
2203.85,617.114,2.90329
2206.25,617.512,2.89821
2208.65,617.911,2.92699
2211.05,618.312,2.92478
2213.45,618.71,2.9669
2215.85,619.109,3.00253
2218.25,619.511,3.02828
2220.65,619.906,3.04273
2223.05,620.306,3.03187
2225.45,620.706,3.02782
2227.85,621.106,3.02203
2230.25,621.507,3.03755
2232.65,621.906,3.05519
2235.05,622.309,3.0511
2237.45,622.709,3.02338
2239.85,623.113,3.04836
2242.25,623.516,3.05283
2244.65,623.919,3.05499
2247.05,624.326,3.10375
2249.45,624.73,3.09519
2251.85,625.132,3.08624
2254.25,625.542,3.15883
2256.65,625.949,3.1714
2259.05,626.354,3.1461
2261.45,626.757,3.14698
2263.85,627.171,3.20859
2266.25,627.573,3.17398
2268.65,627.98,3.15524
2271.05,628.383,3.12326
2273.45,628.798,3.2393
2275.85,629.21,3.23812
2278.25,629.621,3.22169
2280.65,630.028,3.22113
2283.05,630.439,3.23206
2285.45,630.854,3.28167
2287.85,631.262,3.28154
2290.25,631.675,3.2714
2292.65,632.089,3.30549
2295.05,632.506,3.34259
2297.45,632.915,3.31208
2299.85,633.331,3.34501
2302.25,633.743,3.34447
2304.65,634.159,3.35583
2307.05,634.571,3.36068
2309.45,634.987,3.38081
2311.85,635.4,3.36999
2314.25,635.817,3.36938
2316.65,636.233,3.39168
2319.05,636.646,3.39209
2321.45,637.058,3.38256
2323.85,637.469,3.3947
2326.25,637.881,3.37034
2328.65,638.292,3.36407
2331.05,638.705,3.35729
2333.45,639.115,3.34624
2335.85,639.527,3.37336
2338.25,639.94,3.38523
2340.65,640.354,3.3858
2343.05,640.765,3.35506
2345.45,641.172,3.34253
2347.85,641.582,3.33318
2350.25,641.989,3.30469
2352.65,642.394,3.29234
2355.05,642.797,3.25707
2357.45,643.202,3.27341
2359.85,643.608,3.24214
2362.25,644.006,3.23211
2364.65,644.409,3.21323
2367.05,644.808,3.18139
2369.45,645.204,3.12864
2371.85,645.594,3.11191
2374.25,645.991,3.05601
2376.65,646.38,2.99854
2379.05,646.768,2.97174
2381.45,647.161,2.97703
2383.85,647.551,2.94456
2386.25,647.942,2.91825
2388.65,648.327,2.86563
2391.05,648.711,2.8096
2393.45,649.089,2.75151
2395.85,649.47,2.69246
2398.25,649.845,2.64675
2400.65,650.221,2.6102
2403.05,650.6,2.55653
2405.45,650.971,2.49411
2407.85,651.343,2.43123
2410.25,651.712,2.36819
2412.65,652.083,2.32985
2415.05,652.46,2.39034
2417.45,652.841,2.46803
2419.85,653.222,2.48438
2422.25,653.602,2.4794
2424.65,653.978,2.46258
2427.05,654.35,2.43745
2429.45,654.718,2.40667
2431.85,655.087,2.37558
2434.25,655.459,2.41149
2436.65,655.824,2.42505
2439.05,656.192,2.40836
2441.45,656.56,2.38261
2443.85,656.925,2.34893
2446.25,657.291,2.31464
2448.65,657.652,2.28135
2451.05,658.016,2.24826
2453.45,658.379,2.21542
2455.85,658.745,2.26785
2458.25,659.111,2.26113
2460.65,659.48,2.26782
2463.05,659.848,2.25534
2465.45,660.216,2.24723
2467.85,660.584,2.23671
2470.25,660.952,2.22524
2472.65,661.322,2.20603
2475.05,661.693,2.18534
2477.45,662.063,2.1636
2479.85,662.437,2.14422
2482.25,662.809,2.12586
2484.65,663.18,2.10686
2487.05,663.555,2.08784
2489.45,663.93,2.06815
2491.85,664.305,2.04863
2494.25,664.683,2.02911
2496.65,665.058,2.00939
2499.05,665.438,1.99024
2501.45,665.816,1.97142
2503.85,666.195,1.9528
2506.25,666.58,1.93413
2508.65,666.961,1.91635
2511.05,667.345,1.89881
2513.45,667.729,1.88116
2515.85,668.118,1.86429
2518.25,668.505,1.8487
2520.65,668.895,1.83305
2523.05,669.285,1.81728
2525.45,669.677,1.80253
2527.85,670.069,1.78814
2530.25,670.464,1.77376
2532.65,670.857,1.75935
2535.05,671.254,1.74568
2537.45,671.652,1.73224
2539.85,672.05,1.71962
2542.25,672.451,1.70709
2544.65,672.852,1.69511
2547.05,673.255,1.68266
2549.45,673.659,1.67035
2551.85,674.064,1.65862
2554.25,674.47,1.64681
2556.65,674.876,1.63549
2559.05,675.285,1.62414
2561.45,675.692,1.61281
2563.85,676.101,1.60207
2566.25,676.512,1.59157
2568.65,676.924,1.581
2571.05,677.336,1.57117
2573.45,677.751,1.56101
2575.85,678.163,1.55078
2578.25,678.575,1.54147
2580.65,678.99,1.53144
2583.05,679.405,1.52236
2585.45,679.823,1.5128
2587.85,680.237,1.50341
2590.25,680.655,1.49507
2592.65,681.073,1.48615
2595.05,681.491,1.4781
2597.45,681.911,1.47016
2599.85,682.331,1.46209
2602.25,682.75,1.45441
2604.65,683.163,1.44642
2607.05,683.585,1.43904
2609.45,684.004,1.43155
2611.85,684.423,1.42421
2614.25,684.842,1.4169
2616.65,685.264,1.40944
2619.05,685.681,1.40232
2621.45,686.1,1.39497
2623.85,686.52,1.3877
2626.25,686.939,1.38061
2628.65,687.357,1.37351
2631.05,687.777,1.36638
2633.45,688.193,1.35906
2635.85,688.611,1.35126
2638.25,689.031,1.34399
2640.65,689.447,1.33606
2643.05,689.866,1.32767
2645.45,690.282,1.3188
2647.85,690.703,1.30989
2650.25,691.117,1.30038
2652.65,691.532,1.29025
2655.05,691.948,1.27943
2657.45,692.361,1.26827
2659.85,692.774,1.25667
2662.25,693.187,1.24517
2664.65,693.604,1.23341
2667.05,694.012,1.22122
2669.45,694.424,1.20891
2671.85,694.838,1.19611
2674.25,695.249,1.18351
2676.65,695.66,1.17102
2679.05,696.068,1.15774
2681.45,696.479,1.1455
2683.85,696.886,1.13248
2686.25,697.294,1.12001
2688.65,697.701,1.10812
2691.05,698.109,1.09722
2693.45,698.515,1.08676
2695.85,698.922,1.07817
2698.25,699.327,1.07145
2700.65,699.734,1.06592
2703.05,700.14,1.0621
2705.45,700.545,1.05986
2707.85,700.947,1.05816
2710.25,701.35,1.05752
2712.65,701.755,1.05663
2715.05,702.157,1.05705
2717.45,702.562,1.05778
2719.85,702.962,1.05896
2722.25,703.365,1.06045
2724.65,703.769,1.0619
2727.05,704.168,1.06357
2729.45,704.57,1.06506
2731.85,704.972,1.06667
2734.25,705.371,1.06837
2736.65,705.767,1.07001
2739.05,706.17,1.07233
2741.45,706.569,1.07397
2743.85,706.97,1.07571
2746.25,707.369,1.07702
2748.65,707.766,1.079
2751.05,708.163,1.08053
2753.45,708.565,1.08191
2755.85,708.96,1.08356
2758.25,709.359,1.08503
2760.65,709.758,1.08662
2763.05,710.153,1.08849
2765.45,710.555,1.09012
2767.85,710.954,1.09199
2770.25,711.352,1.09374
2772.65,711.751,1.09528
2775.05,712.151,1.09752
2777.45,712.546,1.09851
2779.85,712.945,1.0999
2782.25,713.342,1.10172
2784.65,713.739,1.10295
2787.05,714.137,1.10425
2789.45,714.534,1.10555
2791.85,714.932,1.10686
2794.25,715.329,1.10797
2796.65,715.726,1.10906
2799.05,716.123,1.11025
2801.45,716.519,1.11124
2803.85,716.917,1.11209
2806.25,717.314,1.11321
2808.65,717.711,1.11428
2811.05,718.109,1.11497
2813.45,718.505,1.1161
2815.85,718.903,1.11704
2818.25,719.3,1.11789
2820.65,719.702,1.11881
2823.05,720.093,1.11975
2825.45,720.493,1.12027
2827.85,720.892,1.12088
2830.25,721.29,1.12161
2832.65,721.689,1.12142
2835.05,722.085,1.12212
2837.45,722.484,1.12221
2839.85,722.883,1.12217
2842.25,723.28,1.12247
2844.65,723.676,1.12182
2847.05,724.075,1.12163
2849.45,724.473,1.12169
2851.85,724.871,1.12165
2854.25,725.27,1.12143
2856.65,725.67,1.12125
2859.05,726.068,1.12106
2861.45,726.468,1.12
2863.85,726.866,1.11941
2866.25,727.266,1.11826
2868.65,727.662,1.11699
2871.05,728.063,1.11628
2873.45,728.462,1.11528
2875.85,728.864,1.11398
2878.25,729.262,1.11283
2880.65,729.661,1.11134
2883.05,730.063,1.10975
2885.45,730.461,1.1081
2887.85,730.864,1.10571
2890.25,731.262,1.10372
2892.65,731.66,1.10151
2895.05,732.059,1.09923
2897.45,732.46,1.09649
2899.85,732.862,1.09431
2902.25,733.258,1.0911
2904.65,733.66,1.08863
2907.05,734.059,1.08511
2909.45,734.46,1.08155
2911.85,734.861,1.07821
2914.25,735.26,1.07424
2916.65,735.661,1.07027
2919.05,736.061,1.06576
2921.45,736.461,1.0616
2923.85,736.862,1.05681
2926.25,737.259,1.05177
2928.65,737.66,1.04675
2931.05,738.061,1.04127
2933.45,738.46,1.03628
2935.85,738.865,1.03038
2938.25,739.263,1.02485
2940.65,739.663,1.01876
2943.05,740.066,1.01257
2945.45,740.464,1.00531
2947.85,740.865,0.99861
2950.25,741.266,0.99143
2952.65,741.667,0.98372
2955.05,742.068,0.97613
2957.45,742.47,0.96762
2959.85,742.869,0.95927
2962.25,743.273,0.95053
2964.65,743.672,0.94138
2967.05,744.071,0.932
2969.45,744.474,0.92221
2971.85,744.876,0.91245
2974.25,745.278,0.9023
2976.65,745.678,0.89126
2979.05,746.079,0.88009
2981.45,746.479,0.86853
2983.85,746.878,0.85709
2986.25,747.278,0.84483
2988.65,747.68,0.8324
2991.05,748.081,0.81971
2993.45,748.482,0.80654
2995.85,748.882,0.79386
2998.25,749.284,0.78052
3000.65,749.684,0.767
3003.05,750.083,0.75357
3005.45,750.484,0.74017
3007.85,750.884,0.72593
3010.25,751.284,0.71206
3012.65,751.684,0.69825
3015.05,752.085,0.68493
3017.45,752.485,0.67088
3019.85,752.885,0.65742
3022.25,753.285,0.64429
3024.65,753.686,0.63075
3027.05,754.085,0.61783
3029.45,754.484,0.60537
3031.85,754.884,0.5937
3034.25,755.284,0.58189
3036.65,755.683,0.57062
3039.05,756.082,0.55994
3041.45,756.485,0.54986
3043.85,756.884,0.54034
3046.25,757.285,0.5311
3048.65,757.682,0.52207
3051.05,758.084,0.51348
3053.45,758.484,0.50613
3055.85,758.88,0.49871
3058.25,759.279,0.49144
3060.65,759.682,0.48538
3063.05,760.078,0.47963
3065.45,760.477,0.47317
3067.85,760.874,0.46793
3070.25,761.273,0.46274
3072.65,761.672,0.4579
3075.05,762.07,0.45344
3077.45,762.469,0.44904
3079.85,762.869,0.44511
3082.25,763.267,0.44106
3084.65,763.666,0.43748
3087.05,764.064,0.43409
3089.45,764.462,0.43133
3091.85,764.859,0.42852
3094.25,765.258,0.42601
3096.65,765.657,0.42406
3099.05,766.056,0.4213
3101.45,766.456,0.41898
3103.85,766.853,0.41689
3106.25,767.251,0.4157
3108.65,767.649,0.4137
3111.05,768.046,0.41263
3113.45,768.449,0.41153
3115.85,768.847,0.41027
3118.25,769.248,0.40884
3120.65,769.645,0.40799
3123.05,770.047,0.40705
3125.45,770.446,0.40588
3127.85,770.842,0.405
3130.25,771.244,0.40454
3132.65,771.644,0.40411
3135.05,772.041,0.40332
3137.45,772.444,0.40305
3139.85,772.84,0.40239
3142.25,773.239,0.40177
3144.65,773.639,0.40082
3147.05,774.042,0.40032
3149.45,774.441,0.40034
3151.85,774.842,0.39958
3154.25,775.24,0.39973
3156.65,775.64,0.39884
3159.05,776.039,0.39877
3161.45,776.443,0.39849
3163.85,776.84,0.39796
3166.25,777.237,0.39753
3168.65,777.636,0.39735
3171.05,778.036,0.39743
3173.45,778.435,0.39709
3175.85,778.834,0.39692
3178.25,779.235,0.39664
3180.65,779.629,0.39601
3183.05,780.032,0.39619
3185.45,780.427,0.39592
3187.85,780.828,0.39587
3190.25,781.224,0.39589
3192.65,781.626,0.39603
3195.05,782.025,0.39612
3197.45,782.426,0.39588
3199.85,782.825,0.39628
3202.25,783.226,0.39663
3204.65,783.632,0.39642
3207.05,784.033,0.3966
3209.45,784.437,0.39614
3211.85,784.838,0.39668
3214.25,785.242,0.39686
3216.65,785.649,0.39717
3219.05,786.054,0.39746
3221.45,786.461,0.39813
3223.85,786.87,0.39789
3226.25,787.276,0.39841
3228.65,787.687,0.39895
3231.05,788.09,0.3995
3233.45,788.501,0.39995
3235.85,788.914,0.40053
3238.25,789.322,0.40091
3240.65,789.732,0.40225
3243.05,790.142,0.40257
3245.45,790.552,0.40335
3247.85,790.961,0.40436
3250.25,791.372,0.40543
3252.65,791.785,0.40657
3255.05,792.191,0.40722
3257.45,792.604,0.40791
3259.85,793.011,0.40873
3262.25,793.422,0.40954
3264.65,793.829,0.41013
3267.05,794.238,0.41111
3269.45,794.646,0.41183
3271.85,795.057,0.41242
3274.25,795.463,0.41364
3276.65,795.873,0.41436
3279.05,796.282,0.41511
3281.45,796.69,0.4164
3283.85,797.097,0.41669
3286.25,797.505,0.41739
3288.65,797.911,0.41821
3291.05,798.317,0.41926
3293.45,798.72,0.41976
3295.85,799.122,0.42081
3298.25,799.528,0.42124
3300.65,799.93,0.42246
3303.05,800.331,0.42306
3305.45,800.732,0.42339
3307.85,801.133,0.42455
3310.25,801.535,0.42501
3312.65,801.933,0.42564
3315.05,802.334,0.4264
3317.45,802.733,0.42736
3319.85,803.132,0.42779
3322.25,803.526,0.42859
3324.65,803.926,0.42992
3327.05,804.323,0.43025
3329.45,804.722,0.43082
3331.85,805.116,0.43155
3334.25,805.509,0.43188
3336.65,805.905,0.43245
3339.05,806.299,0.43265
3341.45,806.695,0.43265
3343.85,807.091,0.43362
3346.25,807.482,0.43389
3348.65,807.878,0.43459
3351.05,808.275,0.43493
3353.45,808.666,0.43539
3355.85,809.063,0.43613
3358.25,809.455,0.43623
3360.65,809.85,0.43704
3363.05,810.243,0.43701
3365.45,810.637,0.43761
3367.85,811.031,0.43812
3370.25,811.423,0.43836
3372.65,811.817,0.4391
3375.05,812.209,0.43987
3377.45,812.604,0.44051
3379.85,812.995,0.44092
3382.25,813.387,0.44116
3384.65,813.781,0.44213
3387.05,814.173,0.44241
3389.45,814.566,0.44292
3391.85,814.96,0.44349
3394.25,815.354,0.4439
3396.65,815.747,0.44485
3399.05,816.144,0.446
3401.45,816.537,0.44662
3403.85,816.932,0.44642
3406.25,817.326,0.44663
3408.65,817.723,0.44728
3411.05,818.117,0.4482
3413.45,818.512,0.44841
3415.85,818.91,0.44903
3418.25,819.305,0.44931
3420.65,819.7,0.44993
3423.05,820.094,0.45061
3425.45,820.492,0.4513
3427.85,820.889,0.45084
3430.25,821.286,0.45133
3432.65,821.683,0.451
3435.05,822.083,0.45172
3436.85,822.381,0.45132