File: Non-charring/PMMA/TIFP/TIFP_Cone_65kW_2.csv
Time,Mass,HRR
[s],[g],[kW/m2]
0,73.72,4.3929
1,73.7243,3.18774
2,73.729,2.491625
3,74.0073,2.27382
4,74.2367,2.8432
5,74.2416,4.68928
6,74.1644,6.2198
7,74.1255,7.84583
8,74.2548,8.10772
9,74.1025,7.78362
10,74.0172,6.42028
11,73.9622,2.61331
12,73.8667,-2.2749
13,73.7549,6.24775
14,73.6693,35.0581
15,73.6076,90.1737
16,73.551,148.565
17,73.5146,212.219
18,73.45201,291.026
19,73.3824,368.762
20,73.2342,435.121
21,73.0641,489.139
22,72.9166,540.509
23,72.6617,556.906
24,72.5189,594.695
25,72.35221,634.844
26,72.0569,638.787
27,71.7516,643.688
28,71.5393,653.666
29,71.2914,698.801
30,71.0318,694.433
31,70.765,704.309
32,70.5048,709.56
33,70.2205,756.231
34,70.0193,735.969
35,69.9037,814.068
36,69.6726,755.736
37,69.4058,742.921
38,69.126,751.941
39,68.83447,778.128
40,68.553,771.322
41,68.2625,750.301
42,67.9842,755.747
43,67.6974,746.464
44,67.4341,808.624
45,67.1695,779.441
46,66.91709,778.973
47,66.6302,772.781
48,66.3288,757.356
49,66.0543,769.251
50,65.804,763.92
51,65.5319,820.089
52,65.2307,782.05
53,64.945,775.457
54,64.6793,794.531
55,64.4166,775.442
56,64.1534,790.555
57,63.8796,811.225
58,63.5995,792.38
59,63.3202,752.2
60,63.02593,792.1
61,62.7415,783.789
62,62.4459,782.075
63,62.1474,754.661
64,61.8539,802.238
65,61.5769,793.732
66,61.8014,782.11
67,61.825,803.277
68,61.528,876.95
69,61.162,817.278
70,60.8692,795.322
71,60.5785,750.36
72,60.2541,807.62
73,59.9457,801.867
74,59.6264,835.577
75,59.3148,831.666
76,58.9971,806.462
77,58.6668,826.021
78,58.3478,832.559
79,58.05995,786.671
80,57.822,804.833
81,57.5366,825.902
82,57.237,788.743
83,56.9213,770.204
84,56.6279,791.669
85,56.3329,788.374
86,56.0468,828.028
87,55.7149,815.625
88,55.4503,771.498
89,55.4165,837.011
90,55.1195,789.743
91,54.7607,804.696
92,54.4512,813.148
93,54.1089,844.226
94,53.7992,808.448
95,53.4397,835.569
96,53.0904,819.887
97,52.9792,845.318
98,52.9073,834.004
99,52.6546,833.308
100,52.3318,814.072
101,52.0104,835.307
102,51.6942,854.499
103,51.3718,865.314
104,51.0866,905.93
105,50.7935,841.407
106,50.51277,881.64
107,50.1973,846.037
108,49.8927,831.043
109,49.6004,846.693
110,49.2972,874.493
111,48.969,823.499
112,48.6665,829.441
113,48.3848,887.345
114,48.0591,843.352
115,47.646,879.679
116,47.40824,857.263
117,47.1027,922.196
118,47.4862,873.045
119,46.8222,884.851
120,46.3014,874.858
121,45.9601,861.853
122,45.6546,901.684
123,45.3469,856.241
124,45.0435,919.36
125,44.7041,894.644
126,44.3512,970.973
127,44.0781,902.152
128,43.7682,863.457
129,43.4683,903.236
130,43.2152,879.196
131,42.9474,891.348
132,42.6295,890.222
133,42.3017,895.137
134,41.9779,933.229
135,41.6448,923.576
136,41.2978,1045.71
137,40.9283,1030.79
138,40.5962,984.332
139,40.2696,957.941
140,39.9149,921.124
141,39.5242,980.319
142,39.1724,948.687
143,38.8071,976.324
144,38.426,961.5629
145,38.0715,959.13
146,37.6892,991.01
147,37.3315,1025.13
148,36.9768,1047.56
149,36.8612,992.513
150,36.6524,1089.69
151,36.2736,1121.68
152,35.8352,1049.03
153,35.4244,988.734
154,34.9908,1024.3
155,34.6004,1066.8
156,34.1999,1057.6
157,33.816,1160.1
158,33.3762,1068.65
159,32.966,1129.86
160,32.5547,1115.21
161,32.19694,1091.36
162,31.827,1184.14
163,31.4158,1135.62
164,31.036,1161.73
165,30.6184,1169.24
166,30.1839,1068.81
167,29.8327,1138.18
168,29.5013,1108.36
169,29.063,1032.31
170,28.6171,1116.87
171,28.1791,1063.43
172,27.8112,1092.85
173,27.4689,1079.81
174,27.0407,1175.67
175,26.6595,1148.09
176,26.3024,1110.3
177,25.9016,1103.45
178,25.50894,1206.85
179,25.1715,1197.09
180,24.78195,1182.78
181,24.8761,1243.83
182,24.7712,1141.63
183,24.3297,1211.07
184,23.91315,1161.66
185,23.4598,1074.7
186,23.0179,1216.43
187,22.6279,1116.29
188,22.2105,1198.6
189,21.7312,1159.32
190,21.238,1235.82
191,20.8075,1287.77
192,20.4257,1274.37
193,19.9789,1381.21
194,19.5108,1329.64
195,19.07933,1242.25
196,18.663,1155.05
197,18.2389,1121.26
198,17.7882,1100.779
199,17.36818,1108.03
200,17.0692,983.126
201,16.6883,977.198
202,16.3167,908.673
203,15.99726,918.934
204,15.7259,822.817
205,15.4085,797.233
206,15.0937,769.101
207,14.8542,742.09
208,14.62073,712.441
209,14.35347,688.824
210,14.0547,624.892
211,13.8211,596.904
212,13.6779,561.228
213,13.4297,518.853
214,13.5057,523.064
215,13.4827,507.039
216,13.3674,505.779
217,13.1889,473.108
218,12.9829,453.173
219,12.8102,434.146
220,12.6994,416.865
221,12.7336,399.691
222,12.8866,388.63
223,12.8231,388.018
224,12.724,377.225
225,12.5824,363.708
226,12.4096,350.903
227,12.2741,329.348
228,12.1646,317.636
229,12.0256,306.344
230,11.86356,288.363
231,11.7189,284.843
232,11.6476,275.113
233,11.5415,269.077
234,11.3492,261.16
235,11.1804,252.165
236,11.0196,247.363
237,10.8461,240.195
238,10.6113,231.507
239,10.4194,221.795
240,10.29072,216.667
241,10.1454,210.78
242,9.996194,206.134
243,9.85232,200.471
244,9.747805,198.529
245,9.629185,196.978
246,9.488605,187.29
247,9.321655,187.211
248,9.354451,180.548
249,9.433218,179.335
250,9.311523,178.444
251,9.180694,178.393
252,9.477529,180.111
253,9.644046,172.46
254,9.496866,173.74
255,9.324167,167.994
256,9.303919,165.221
257,9.235951,163.833
258,9.142741,161.401
259,8.995781,160.874
260,8.853336,163.586
261,8.77023,164.167
262,8.738152,165.781
263,8.606538,162.621
264,8.491421,163.083
265,8.793154,161.766
266,8.720543,161.078
267,8.461114,163.301
268,8.240835,164.249
269,8.291768,162.174
270,8.41258,157.891
271,8.308598,158.121
272,8.117866,160.29
273,7.86324,163.815
274,7.738521,162.986
275,7.691533,158.927
276,7.586334,158.078
277,7.489284,155.301
278,7.407001,159.716
279,7.376972,156.515
280,7.37489,157.309
281,7.462089,153.784
282,7.346563,158.869
283,7.225951,158.35
284,7.158734,158.446
285,7.042692,158.058
286,6.911391,158.248
287,6.804078,160.148
288,6.744546,162.745
289,6.66301,159.794
290,6.513628,160.892
291,6.410561,160.017
292,6.388443,160.67
293,6.38011,161.992
294,6.313877,160.97
295,6.252154,161.148
296,6.224365,158.887
297,6.225313,164.838
298,6.180482,159.916
299,6.086423,161.3
300,6.032751,165
301,6.032273,163.853
302,6.028722,160.45
303,5.936601,162.338
304,5.865691,166.12
305,5.853381,163.641
306,5.833132,162.353
307,5.771204,163.899
308,5.741547,162.22
309,5.736394,161.889
310,5.746523,164.29
311,5.696027,161.91
312,5.608211,161.383
313,5.543205,162.67
314,5.536884,164.744
315,5.498548,165.38
316,5.419936,165.7
317,5.346251,166.238
318,5.32192,165.075
319,5.280636,166.091
320,5.21353,167.632
321,5.153214,170.295
322,5.140712,168.73
323,5.129446,171.331
324,5.048111,166.99
325,4.963726,167.02
326,4.928886,167.257
327,4.913389,165.104
328,4.879534,167.631
329,4.796942,167.329
330,4.718403,165.598
331,4.715158,165.308
332,4.698382,164.903
333,4.621848,163.237
334,4.537477,163.048
335,4.493253,161.919
336,4.482051,160.698
337,4.431401,163.891
338,4.330655,158.789
339,4.280229,161.387
340,4.272542,160.449
341,4.231049,160.652
342,4.142918,160.501
343,4.056007,157.982
344,4.027901,156.712
345,3.957903,156.324
346,3.878728,155.56
347,3.832229,157.525
348,3.818634,157.931
349,3.846918,156.07
350,3.838751,157.479
351,3.772704,154.061
352,3.722552,154.2
353,3.683748,154.417
354,3.658607,147.317
355,3.628523,149.787
356,3.582535,147.659
357,3.524341,146.82
358,3.484162,147.207
359,3.417077,148.874
360,3.336476,142.312
361,3.281094,140.447
362,3.207397,136.9
363,3.165129,134.333
364,3.122796,130.162
365,3.131493,128.045
366,3.130118,127.672
367,3.085118,124.774
368,3.064191,122.441
369,3.005006,123.047
370,2.967968,115.135
371,2.930527,111.077
372,2.896869,106.402
373,2.878171,101.541
374,2.847028,96.651
375,2.830103,89.8383
376,2.80063,85.0221
377,2.770676,81.8518
378,2.750342,78.2947
379,2.707577,76.6431
380,2.637446,69.965
381,2.600497,67.8353
382,2.587025,65.6384
383,2.549538,63.6876
384,2.521404,59.5464
385,2.504615,56.8429
386,2.481329,55.5965
387,2.436396,52.2236
388,2.396167,50.0414
389,2.361698,48.6687
390,2.34414,46.8208
391,2.301645,45.2505
392,2.289255,42.6427
393,2.238625,42.6621
394,2.199137,41.4072
395,2.167399,40.0541
396,2.158622,38.6223
397,2.127358,37.6318
398,2.099301,35.3474
399,2.090727,35.1441
400,2.082073,34.1985
401,2.053634,33.3004
402,2.040694,31.9611
403,2.038968,30.8214
404,2.038175,29.9369
405,2.023947,28.8957
406,1.994086,28.3526
407,1.987131,27.5112
408,1.988756,27.4367
409,1.978443,27.5756
410,1.866761,26.4862
411,1.825448,25.9529
412,1.894091,25.0095
413,1.900921,26.0054
414,1.893312,25.3772
415,1.892824,24.6031
416,1.909023,25.0124
417,1.905439,24.3502
418,1.873682,24.141
419,1.85666,23.8708
420,1.863474,22.9543
421,1.906469,22.609
422,1.866941,21.3286
423,1.844803,21.2386
424,1.871254,21.375
425,1.895304,21.7606
426,1.912049,20.6795
427,1.904191,19.7134
428,1.882735,19.9122
429,1.877358,19.3386
430,1.882291,19.2759
431,1.892514,18.689
432,1.889095,17.6397
433,1.853911,17.1272
434,1.846,16.6856
435,1.860898,16.9092
436,1.849214,16.395
437,1.834807,16.2651
438,1.835452,16.0752
439,1.847437,15.4447
440,1.838883,15.4791
441,1.840298,14.9624
442,1.835983,14.443
443,1.811378,14.143
444,1.793643,13.8712
445,1.793243,13.4242
446,1.78523,13.0647
447,1.78118,13.222
448,1.759627,12.9217
449,1.753836,12.7413
450,1.764554,11.7135
451,1.751701,11.5441
452,1.730848,11.036
453,1.723701,11.2148
454,1.694524,11.2946
455,1.676544,11.0817
456,1.644668,10.3062
457,1.620746,10.3244
458,1.626345,9.69363
459,1.627984,9.7912
460,1.608653,9.33493
461,1.610531,8.87883
462,1.590574,8.00913
463,1.600627,7.98777
464,1.618008,8.04221
465,1.613657,8.18797
466,1.61996,7.72072
467,1.598135,7.34866
468,1.582257,6.64745
469,1.555957,5.72179
470,1.522546,5.10704
471,1.525254,4.88651
472,1.530299,4.13909
473,1.544213,3.47188
474,1.577955,2.5707
475,1.560219,1.90845
476,1.530473,1.21804
477,1.479353,0.6076025
478,1.451819,0.0972561
479,1.441217,-0.242887
480,1.440777,-0.422862
481,1.366123,0.26
482,1.412496,1.34668
483,1.437538,1.807
484,1.495277,2.34953
485,1.524413,2.42036
486,1.536909,2.53643
487,1.581436,1.84706
488,1.519888,1.97685
489,1.499195,2.07091
490,1.524342,1.11092
491,1.506541,0.798553
492,1.500345,0.766349
493,1.539053,0.908431
494,1.513438,0.396389
495,1.493986,0.215933
496,1.487606,-0.021082
497,1.44633,-0.673833
498,1.458788,-0.936239
499,1.474529,-0.783155
500,1.481858,-0.539944