File: Non-charring/PMMA/TIFP/TIFP_DSC_O2-21_10K_2.csv
Time,Temperature,Heat flow
s,K,W g-1
0,297.5898,-0.178378
3,297.6763,-0.175025
6,297.8595,-0.18136
9,298.1643,-0.181957
12,298.5236,-0.177853
15,298.9133,-0.167026
18,299.3451,-0.149701
21,299.7543,-0.132863
24,300.1911,-0.117678
27,300.6278,-0.103315
30,301.071,-0.089332
33,301.4976,-0.07938
36,301.9374,-0.069567
39,302.3716,-0.060038
42,302.8201,-0.052512
45,303.2608,-0.04574
48,303.6975,-0.039977
51,304.142,-0.032913
54,304.5882,-0.029132
57,305.0347,-0.023157
60,305.4848,-0.016735
63,305.9348,-0.012054
66,306.3904,-0.007236
69,306.8447,-0.004701
72,307.2957,-0.001077
75,307.7528,0.003134
78,308.208,0.007558
81,308.6749,0.011015
84,309.1363,0.01438
87,309.5786,0.016538
90,310.0502,0.018647
93,310.5011,0.020552
96,310.9746,0.023115
99,311.4297,0.025887
102,311.8885,0.028689
105,312.3632,0.032727
108,312.8181,0.035181
111,313.2989,0.036893
114,313.7521,0.038818
117,314.2198,0.041243
120,314.6739,0.04238
123,315.1431,0.042946
126,315.6255,0.043594
129,316.094,0.043012
132,316.5504,0.044809
135,317.0269,0.046709
138,317.5001,0.049488
141,317.9661,0.051824
144,318.4349,0.053921
147,318.9168,0.055032
150,319.3781,0.05519
153,319.846,0.056304
156,320.314,0.057283
159,320.7863,0.058553
162,321.2693,0.060952
165,321.739,0.062607
168,322.2092,0.063525
171,322.6753,0.063945
174,323.1608,0.064491
177,323.6251,0.062582
180,324.1054,0.061982
183,324.5803,0.061504
186,325.0524,0.061681
189,325.5326,0.061455
192,326.009,0.061581
195,326.488,0.062893
198,326.9575,0.064677
201,327.4432,0.067953
204,327.9175,0.069552
207,328.3846,0.070981
210,328.8691,0.072353
213,329.3511,0.073827
216,329.8216,0.075067
219,330.2884,0.075421
222,330.7906,0.075728
225,331.2648,0.075329
228,331.7393,0.077177
231,332.2181,0.07854
234,332.7091,0.079288
237,333.1925,0.080456
240,333.6706,0.079544
243,334.1504,0.081483
246,334.6295,0.082898
249,335.1048,0.0865
252,335.5887,0.088052
255,336.0793,0.087577
258,336.5573,0.088292
261,337.0294,0.088056
264,337.5089,0.089562
267,338.007,0.091042
270,338.4749,0.092072
273,338.9676,0.093406
276,339.4482,0.09554
279,339.9404,0.0969
282,340.4251,0.098304
285,340.9009,0.099045
288,341.3989,0.098414
291,341.8797,0.097728
294,342.3556,0.099611
297,342.8461,0.09936
300,343.3283,0.099982
303,343.8264,0.099591
306,344.3089,0.099896
309,344.7944,0.101958
312,345.2849,0.104901
315,345.7647,0.107439
318,346.2402,0.109176
321,346.74,0.109992
324,347.2293,0.110068
327,347.7163,0.110604
330,348.1989,0.111091
333,348.6839,0.111434
336,349.1658,0.111329
339,349.6627,0.111939
342,350.1513,0.113467
345,350.6356,0.114414
348,351.1335,0.113649
351,351.6134,0.11354
354,352.1018,0.113238
357,352.6047,0.113354
360,353.1,0.113297
363,353.5909,0.114802
366,354.0825,0.114929
369,354.5629,0.115702
372,355.0533,0.117546
375,355.5473,0.118358
378,356.036,0.117755
381,356.5273,0.115102
384,357.0075,0.11324
387,357.5169,0.111366
390,358.0112,0.111952
393,358.4939,0.11315
396,358.9849,0.11218
399,359.4808,0.113244
402,359.9762,0.112457
405,360.4646,0.112123
408,360.9531,0.111446
411,361.4555,0.109215
414,361.9571,0.108085
417,362.4419,0.108195
420,362.9407,0.108575
423,363.4308,0.11262
426,363.9261,0.115366
429,364.4362,0.115621
432,364.9194,0.11696
435,365.4177,0.115259
438,365.9143,0.113648
441,366.4104,0.113519
444,366.903,0.114604
447,367.4027,0.115659
450,367.8998,0.117023
453,368.3886,0.118627
456,368.8913,0.119312
459,369.3791,0.119727
462,369.8865,0.121452
465,370.3807,0.121835
468,370.876,0.122188
471,371.3761,0.1234
474,371.8692,0.123199
477,372.3757,0.123312
480,372.8682,0.123655
483,373.362,0.123722
486,373.854,0.123611
489,374.376,0.124674
492,374.866,0.125394
495,375.361,0.127894
498,375.873,0.129345
501,376.363,0.129586
504,376.859,0.12989
507,377.358,0.129123
510,377.856,0.12924
513,378.368,0.12986
516,378.863,0.131885
519,379.367,0.133475
522,379.862,0.133527
525,380.352,0.134954
528,380.861,0.134885
531,381.372,0.135241
534,381.866,0.1357
537,382.363,0.135319
540,382.88,0.136813
543,383.372,0.137457
546,383.872,0.137064
549,384.371,0.138145
552,384.87,0.139257
555,385.38,0.14169
558,385.886,0.143227
561,386.375,0.145289
564,386.878,0.145174
567,387.383,0.147059
570,387.877,0.149221
573,388.393,0.151878
576,388.887,0.154826
579,389.386,0.156955
582,389.888,0.157327
585,390.406,0.156639
588,390.908,0.156714
591,391.406,0.156844
594,391.915,0.158536
597,392.407,0.162121
600,392.906,0.164677
603,393.416,0.16827
606,393.923,0.171038
609,394.433,0.171873
612,394.929,0.172805
615,395.431,0.174335
618,395.942,0.175038
621,396.446,0.176274
624,396.942,0.178072
627,397.449,0.179338
630,397.958,0.179149
633,398.466,0.181515
636,398.957,0.182806
639,399.466,0.184844
642,399.978,0.188519
645,400.476,0.189794
648,400.986,0.190779
651,401.496,0.19284
654,401.997,0.193513
657,402.509,0.19684
660,403.014,0.199718
663,403.515,0.200531
666,404.016,0.201262
669,404.525,0.200841
672,405.041,0.200902
675,405.549,0.199299
678,406.053,0.199118
681,406.564,0.198738
684,407.064,0.199526
687,407.575,0.200781
690,408.078,0.200808
693,408.587,0.200301
696,409.099,0.199393
699,409.603,0.197853
702,410.114,0.196831
705,410.617,0.195051
708,411.129,0.195031
711,411.633,0.194735
714,412.139,0.194326
717,412.64,0.194018
720,413.159,0.194153
723,413.661,0.194799
726,414.178,0.194824
729,414.683,0.19378
732,415.196,0.193922
735,415.689,0.192834
738,416.21,0.193063
741,416.71,0.192534
744,417.218,0.192105
747,417.735,0.191347
750,418.24,0.190542
753,418.749,0.189502
756,419.262,0.189417
759,419.77,0.189324
762,420.281,0.189693
765,420.781,0.189408
768,421.304,0.190146
771,421.801,0.192469
774,422.314,0.194099
777,422.82,0.195658
780,423.332,0.196346
783,423.837,0.195637
786,424.358,0.194457
789,424.858,0.193851
792,425.372,0.192423
795,425.879,0.191885
798,426.387,0.19269
801,426.907,0.19397
804,427.409,0.196771
807,427.92,0.199201
810,428.438,0.199955
813,428.943,0.200779
816,429.453,0.199511
819,429.969,0.19919
822,430.465,0.199245
825,430.986,0.198632
828,431.492,0.199672
831,432.004,0.199468
834,432.521,0.199834
837,433.035,0.19992
840,433.536,0.198263
843,434.043,0.198376
846,434.559,0.197225
849,435.058,0.197175
852,435.581,0.198167
855,436.09,0.198905
858,436.603,0.198711
861,437.097,0.198788
864,437.622,0.197771
867,438.123,0.19745
870,438.64,0.197336
873,439.143,0.197609
876,439.666,0.198597
879,440.172,0.199935
882,440.696,0.201266
885,441.201,0.203248
888,441.704,0.204461
891,442.217,0.205939
894,442.73,0.206973
897,443.235,0.208006
900,443.75,0.20691
903,444.254,0.206879
906,444.767,0.206298
909,445.289,0.205797
912,445.802,0.2063
915,446.31,0.207446
918,446.816,0.207808
921,447.339,0.208038
924,447.843,0.20844
927,448.353,0.208578
930,448.87,0.20899
933,449.393,0.209613
936,449.898,0.211637
939,450.416,0.212977
942,450.919,0.213794
945,451.435,0.21394
948,451.948,0.213909
951,452.46,0.215247
954,452.964,0.216243
957,453.475,0.217942
960,453.991,0.218335
963,454.506,0.2188
966,455.014,0.218335
969,455.532,0.217533
972,456.035,0.217381
975,456.553,0.21696
978,457.065,0.215899
981,457.569,0.217208
984,458.086,0.217919
987,458.595,0.218971
990,459.103,0.220295
993,459.623,0.220649
996,460.143,0.22187
999,460.648,0.222548
1002,461.162,0.221824
1005,461.68,0.221364
1008,462.184,0.221902
1011,462.701,0.222433
1014,463.219,0.222379
1017,463.734,0.221416
1020,464.25,0.219978
1023,464.755,0.218959
1026,465.265,0.219632
1029,465.784,0.221316
1032,466.296,0.222506
1035,466.808,0.224096
1038,467.318,0.22559
1041,467.837,0.225791
1044,468.354,0.225345
1047,468.862,0.224571
1050,469.372,0.224032
1053,469.884,0.223485
1056,470.396,0.223152
1059,470.902,0.222831
1062,471.422,0.2223
1065,471.947,0.221622
1068,472.449,0.222164
1071,472.963,0.221283
1074,473.478,0.220799
1077,473.984,0.220555
1080,474.512,0.220203
1083,475.012,0.219063
1086,475.524,0.218385
1089,476.035,0.219257
1092,476.556,0.21968
1095,477.073,0.220611
1098,477.581,0.221222
1101,478.098,0.22137
1104,478.611,0.220818
1107,479.12,0.221314
1110,479.642,0.219934
1113,480.151,0.220197
1116,480.658,0.222197
1119,481.182,0.22252
1122,481.693,0.224528
1125,482.206,0.225113
1128,482.726,0.224392
1131,483.238,0.225705
1134,483.743,0.226262
1137,484.263,0.225943
1140,484.768,0.227385
1143,485.291,0.225524
1146,485.805,0.223488
1149,486.321,0.222397
1152,486.832,0.220178
1155,487.349,0.219961
1158,487.862,0.219209
1161,488.372,0.220138
1164,488.882,0.22072
1167,489.403,0.220843
1170,489.913,0.221578
1173,490.437,0.221212
1176,490.948,0.222643
1179,491.454,0.22339
1182,491.975,0.223638
1185,492.495,0.223444
1188,493.002,0.220501
1191,493.518,0.217771
1194,494.025,0.216414
1197,494.537,0.215885
1200,495.046,0.217973
1203,495.559,0.217965
1206,496.075,0.218171
1209,496.592,0.217985
1212,497.108,0.21766
1215,497.629,0.218348
1218,498.13,0.218365
1221,498.648,0.219202
1224,499.158,0.219657
1227,499.672,0.220151
1230,500.194,0.221578
1233,500.7,0.221816
1236,501.218,0.221599
1239,501.732,0.221422
1242,502.239,0.220747
1245,502.756,0.220889
1248,503.268,0.222539
1251,503.788,0.223877
1254,504.298,0.22658
1257,504.809,0.227552
1260,505.317,0.228625
1263,505.833,0.228506
1266,506.352,0.228785
1269,506.862,0.228248
1272,507.373,0.228306
1275,507.888,0.228408
1278,508.406,0.22871
1281,508.903,0.229573
1284,509.423,0.231103
1287,509.94,0.231655
1290,510.461,0.231505
1293,510.966,0.23176
1296,511.478,0.232358
1299,511.992,0.232597
1302,512.509,0.233669
1305,513.013,0.23375
1308,513.536,0.235055
1311,514.044,0.236732
1314,514.561,0.238381
1317,515.075,0.239669
1320,515.586,0.240844
1323,516.096,0.241889
1326,516.613,0.243137
1329,517.121,0.245465
1332,517.632,0.247574
1335,518.152,0.249106
1338,518.66,0.249598
1341,519.18,0.248649
1344,519.683,0.248126
1347,520.198,0.246784
1350,520.711,0.246484
1353,521.23,0.246611
1356,521.739,0.247107
1359,522.244,0.247849
1362,522.754,0.248787
1365,523.261,0.25059
1368,523.788,0.251578
1371,524.29,0.25341
1374,524.806,0.254352
1377,525.323,0.255604
1380,525.838,0.256934
1383,526.344,0.258122
1386,526.854,0.259449
1389,527.369,0.261723
1392,527.879,0.262876
1395,528.395,0.264789
1398,528.916,0.26462
1401,529.427,0.265419
1404,529.933,0.266709
1407,530.45,0.266815
1410,530.96,0.269157
1413,531.477,0.272182
1416,531.988,0.274647
1419,532.506,0.277709
1422,533.007,0.280439
1425,533.529,0.282838
1428,534.041,0.285797
1431,534.551,0.290408
1434,535.053,0.295103
1437,535.579,0.299897
1440,536.093,0.305313
1443,536.612,0.310444
1446,537.117,0.31657
1449,537.631,0.323001
1452,538.144,0.330411
1455,538.667,0.337111
1458,539.179,0.345266
1461,539.699,0.354182
1464,540.204,0.363161
1467,540.722,0.372104
1470,541.234,0.380407
1473,541.749,0.38928
1476,542.259,0.399584
1479,542.77,0.410477
1482,543.282,0.421511
1485,543.81,0.432255
1488,544.325,0.442317
1491,544.826,0.453313
1494,545.345,0.466128
1497,545.864,0.478648
1500,546.379,0.492874
1503,546.891,0.505288
1506,547.405,0.517488
1509,547.918,0.530729
1512,548.433,0.544105
1515,548.951,0.557992
1518,549.469,0.57124
1521,549.975,0.583877
1524,550.496,0.595406
1527,551.009,0.605677
1530,551.531,0.615839
1533,552.041,0.623477
1536,552.556,0.633042
1539,553.071,0.642039
1542,553.583,0.650103
1545,554.103,0.659404
1548,554.616,0.665755
1551,555.129,0.672103
1554,555.648,0.67477
1557,556.154,0.676427
1560,556.678,0.677574
1563,557.189,0.67902
1566,557.708,0.680725
1569,558.217,0.682734
1572,558.74,0.68368
1575,559.252,0.684341
1578,559.767,0.683837
1581,560.279,0.684635
1584,560.793,0.685691
1587,561.307,0.686604
1590,561.819,0.687707
1593,562.336,0.689749
1596,562.844,0.692402
1599,563.36,0.694635
1602,563.875,0.700429
1605,564.393,0.703978
1608,564.909,0.70919
1611,565.413,0.716527
1614,565.925,0.72346
1617,566.444,0.732733
1620,566.959,0.742458
1623,567.476,0.754281
1626,567.984,0.769018
1629,568.506,0.783945
1632,569.018,0.801314
1635,569.529,0.81974
1638,570.037,0.838095
1641,570.557,0.857824
1644,571.069,0.878463
1647,571.585,0.90167
1650,572.093,0.925815
1653,572.615,0.952017
1656,573.123,0.97741
1659,573.632,1.006309
1662,574.159,1.036881
1665,574.665,1.068514
1668,575.182,1.101409
1671,575.7,1.135941
1674,576.215,1.173022
1677,576.724,1.212946
1680,577.243,1.255148
1683,577.756,1.302273
1686,578.271,1.352903
1689,578.789,1.405626
1692,579.294,1.459991
1695,579.817,1.519916
1698,580.331,1.580957
1701,580.845,1.645951
1704,581.366,1.716485
1707,581.877,1.789463
1710,582.394,1.865654
1713,582.911,1.944739
1716,583.43,2.030535
1719,583.944,2.122617
1722,584.468,2.21839
1725,584.978,2.312702
1728,585.489,2.404208
1731,586.01,2.495944
1734,586.53,2.587526
1737,587.051,2.643698
1740,587.572,2.7115
1743,588.087,2.777861
1746,588.609,2.842242
1749,589.125,2.907007
1752,589.652,2.937169
1755,590.164,2.982364
1758,590.687,3.0315
1761,591.203,3.082366
1764,591.727,3.134886
1767,592.246,3.190731
1770,592.759,3.240617
1773,593.276,3.297077
1776,593.787,3.341811
1779,594.319,3.345906
1782,594.837,3.37651
1785,595.352,3.439853
1788,595.876,3.527821
1791,596.378,3.639819
1794,596.902,3.758141
1797,597.415,3.877906
1800,597.929,3.999054
1803,598.43,4.12026
1806,598.938,4.240371
1809,599.451,4.360327
1812,599.97,4.48236
1815,600.486,4.600875
1818,601.006,4.717679
1821,601.514,4.832445
1824,602.035,4.940906
1827,602.546,5.049559
1830,603.066,5.154233
1833,603.588,5.251409
1836,604.099,5.346298
1839,604.621,5.438534
1842,605.139,5.525579
1845,605.656,5.610106
1848,606.19,5.689155
1851,606.705,5.767607
1854,607.228,5.839543
1857,607.747,5.894523
1860,608.273,5.933816
1863,608.799,5.972475
1866,609.334,6.002061
1869,609.848,6.026956
1872,610.375,6.049178
1875,610.899,6.048775
1878,611.431,6.023764
1881,611.957,6.014672
1884,612.488,5.999812
1887,613.007,5.984413
1890,613.537,5.964901
1893,614.065,5.92332
1896,614.599,5.829565
1899,615.125,5.753439
1902,615.652,5.690308
1905,616.173,5.625889
1908,616.711,5.567045
1911,617.233,5.508931
1914,617.765,5.449357
1917,618.283,5.38736
1920,618.816,5.321211
1923,619.341,5.25437
1926,619.867,5.185587
1929,620.391,5.112267
1932,620.916,5.038928
1935,621.44,4.964705
1938,621.961,4.89673
1941,622.494,4.834944
1944,623.014,4.775062
1947,623.537,4.717871
1950,624.061,4.6582
1953,624.582,4.590956
1956,625.1,4.525845
1959,625.616,4.447892
1962,626.141,4.297369
1965,626.674,4.102959
1968,627.198,3.914777
1971,627.719,3.731093
1974,628.258,3.53576
1977,628.781,3.376798
1980,629.306,3.245346
1983,629.823,3.135386
1986,630.339,3.037017
1989,630.85,2.94953
1992,631.371,2.867406
1995,631.885,2.813675
1998,632.396,2.753966
2001,632.911,2.696813
2004,633.423,2.643487
2007,633.942,2.593274
2010,634.446,2.544388
2013,634.956,2.49802
2016,635.466,2.457688
2019,635.981,2.421009
2022,636.484,2.387752
2025,636.994,2.355052
2028,637.503,2.325217
2031,638.004,2.293459
2034,638.512,2.258087
2037,639.023,2.219928
2040,639.528,2.173426
2043,640.029,2.121906
2046,640.54,2.06781
2049,641.046,2.012715
2052,641.551,1.956946
2055,642.054,1.900653
2058,642.56,1.842328
2061,643.066,1.782869
2064,643.571,1.719273
2067,644.072,1.651332
2070,644.572,1.58222
2073,645.077,1.512824
2076,645.58,1.439218
2079,646.077,1.365845
2082,646.589,1.290583
2085,647.088,1.215228
2088,647.579,1.137641
2091,648.095,1.059407
2094,648.591,0.979125
2097,649.096,0.891937
2100,649.593,0.800699
2103,650.091,0.702856
2106,650.596,0.592501
2109,651.099,0.476401
2112,651.597,0.365727
2115,652.099,0.25956
2118,652.588,0.155032
2121,653.095,0.063494
2124,653.589,-0.021717
2127,654.079,-0.096841
2130,654.563,-0.161441
2133,655.068,-0.209715
2136,655.55,-0.256786
2139,656.053,-0.297239
2142,656.542,-0.333727
2145,657.022,-0.3621
2148,657.515,-0.38494
2151,658.006,-0.403591
2154,658.495,-0.419466
2157,658.988,-0.429529
2160,659.468,-0.437369
2163,659.972,-0.441254
2166,660.455,-0.437538
2169,660.939,-0.431492
2172,661.43,-0.42203
2175,661.918,-0.412028
2178,662.407,-0.39651
2181,662.884,-0.381229
2184,663.377,-0.367281
2187,663.868,-0.352334
2190,664.351,-0.337092
2193,664.833,-0.321926
2196,665.322,-0.30608
2199,665.804,-0.289192
2202,666.29,-0.271346
2205,666.786,-0.254643
2208,667.273,-0.235774
2211,667.76,-0.218308
2214,668.247,-0.202035
2217,668.734,-0.185623
2220,669.222,-0.172701
2223,669.706,-0.158829
2226,670.197,-0.14478
2229,670.693,-0.13166
2232,671.172,-0.117079
2235,671.667,-0.102876
2238,672.158,-0.090157
2241,672.652,-0.077145
2244,673.14,-0.066019
2247,673.633,-0.053689
2250,674.121,-0.041586
2253,674.616,-0.030042
2256,675.096,-0.01902
2259,675.596,-0.007957
2262,676.088,0.001025
2265,676.581,0.010852
2268,677.075,0.020241
2271,677.566,0.028722
2274,678.058,0.037066
2277,678.545,0.045329
2280,679.034,0.053578
2283,679.53,0.061745
2286,680.025,0.072942
2289,680.513,0.082798
2292,681.003,0.093873
2295,681.486,0.10594
2298,681.983,0.117623
2301,682.471,0.130138
2304,682.961,0.143105
2307,683.461,0.156383
2310,683.952,0.167754
2313,684.443,0.180392
2316,684.927,0.191816
2319,685.425,0.199489
2322,685.916,0.207067
2325,686.413,0.212308
2328,686.905,0.216356
2331,687.397,0.222058
2334,687.895,0.22617
2337,688.387,0.229375
2340,688.88,0.231932
2343,689.384,0.233531
2346,689.878,0.236682
2349,690.374,0.239888
2352,690.876,0.242833
2355,691.373,0.245231
2358,691.87,0.245231
2361,692.357,0.245504
2364,692.865,0.243716
2367,693.361,0.243058
2370,693.86,0.242359
2373,694.366,0.241688
2376,694.862,0.242455
2379,695.362,0.24251
2382,695.86,0.244214
2385,696.358,0.245671
2388,696.855,0.246868
2391,697.355,0.247972
2394,697.856,0.248241
2397,698.354,0.2504
2400,698.855,0.24945
2403,699.352,0.25124
2406,699.856,0.252063
2409,700.359,0.253108
2412,700.857,0.254393
2415,701.361,0.255852
2418,701.854,0.256882
2421,702.357,0.256719
2424,702.862,0.255886
2427,703.357,0.254329
2430,703.864,0.252551
2433,704.364,0.251786
2436,704.863,0.252147
2439,705.363,0.252657
2442,705.864,0.253239
2445,706.366,0.253975
2448,706.867,0.253045
2451,707.376,0.25402
2454,707.871,0.254383
2457,708.375,0.254631
2460,708.875,0.254606
2463,709.375,0.253889
2466,709.874,0.252068
2469,710.379,0.248685
2472,710.886,0.246111
2475,711.389,0.242755
2478,711.892,0.239969
2481,712.393,0.237412
2484,712.89,0.233983
2487,713.395,0.231864
2490,713.904,0.22901
2493,714.4,0.226855
2496,714.902,0.225292
2499,715.401,0.223733
2502,715.907,0.223104
2505,716.408,0.222033
2508,716.914,0.221278
2511,717.42,0.220993
2514,717.921,0.219813
2517,718.414,0.217767
2520,718.918,0.214599
2523,719.42,0.213794
2526,719.931,0.210485
2529,720.427,0.209688
2532,720.927,0.206673
2535,721.431,0.205012
2538,721.937,0.202277
2541,722.443,0.199687
2544,722.94,0.197231
2547,723.448,0.193251
2550,723.948,0.187772
2553,724.456,0.184744
2556,724.957,0.180755
2559,725.458,0.178218
2562,725.959,0.177159
2565,726.454,0.173323
2568,726.97,0.170579
2571,727.47,0.168555
2574,727.976,0.165604
2577,728.473,0.162148
2580,728.98,0.1591
2583,729.488,0.155899
2586,729.988,0.153916
2589,730.487,0.152102
2592,730.996,0.149996
2595,731.489,0.147999
2598,731.994,0.146199
2601,732.496,0.14371
2604,732.992,0.142462
2607,733.497,0.139854
2610,734,0.136902
2613,734.496,0.133826
2616,735.009,0.130438
2619,735.514,0.128175
2622,736.013,0.125024
2625,736.52,0.121626
2628,737.024,0.118453
2631,737.522,0.115772
2634,738.019,0.11407
2637,738.524,0.11184
2640,739.023,0.11117
2643,739.524,0.10987
2646,740.031,0.109338
2649,740.534,0.108268
2652,741.047,0.106577
2655,741.54,0.10444
2658,742.042,0.101398
2661,742.541,0.100039
2664,743.047,0.098358
2667,743.552,0.095584
2670,744.051,0.09339
2673,744.554,0.091474
2676,745.053,0.08909
2679,745.555,0.087556
2682,746.057,0.084156
2685,746.559,0.078862
2688,747.065,0.07603
2691,747.572,0.071958
2694,748.075,0.071488
2697,748.572,0.071058
2700,749.077,0.072148
2703,749.581,0.074572
2706,750.077,0.076161
2709,750.58,0.077577
2712,751.076,0.078114
2715,751.578,0.077645
2718,752.088,0.076674
2721,752.591,0.074624
2724,753.092,0.072469
2727,753.595,0.068972
2730,754.1,0.066359
2733,754.593,0.062123
2736,755.101,0.058774
2739,755.606,0.05763
2742,756.101,0.057445
2745,756.607,0.057371
2748,757.111,0.05987
2751,757.607,0.059926
2754,758.108,0.059522
2757,758.613,0.059853
2760,759.116,0.057207
2763,759.619,0.056142
2766,760.124,0.054907
2769,760.619,0.052246
2772,761.12,0.049885
2775,761.623,0.046929
2778,762.12,0.044364
2781,762.626,0.041432
2784,763.12,0.040849
2787,763.623,0.039172
2790,764.129,0.037786
2793,764.626,0.037407
2796,765.127,0.035533
2799,765.633,0.035476
2802,766.141,0.036291
2805,766.64,0.037673
2808,767.141,0.037816
2811,767.645,0.036375
2814,768.145,0.034461
2817,768.642,0.03406
2820,769.141,0.031257
2823,769.646,0.030328
2826,770.15,0.028326
2829,770.646,0.025741
2832,771.156,0.024376
2835,771.651,0.022426
2838,772.155,0.019697
2841,772.657,0.01829
2844,773.163,0.017634
2847,773.652,0.017516
2850,774.157,0.018588
2853,774.658,0.018419
2856,775.164,0.018074
2859,775.657,0.017106
2862,776.164,0.016342
2865,776.667,0.014777
2868,777.169,0.014227
2871,777.674,0.014354
2874,778.176,0.014791
2877,778.677,0.015919
2880,779.175,0.016833
2883,779.673,0.015801
2886,780.179,0.013234
2889,780.683,0.010455
2892,781.188,0.008312
2895,781.685,0.006805
2898,782.182,0.005881
2901,782.682,0.005559
2904,783.189,0.003645
2907,783.685,0.000476
2910,784.191,-0.001591
2913,784.69,-0.004421
2916,785.191,-0.005334
2919,785.696,-0.003572
2922,786.196,-0.004667
2925,786.701,-0.003375
2928,787.197,-0.003023
2931,787.698,-0.004314
2934,788.199,-0.003073
2937,788.701,-0.004141
2940,789.206,-0.004066
2943,789.707,-0.003766
2946,790.212,-0.00281
2949,790.708,-0.003758
2952,791.205,-0.004676
2955,791.714,-0.005656
2958,792.205,-0.006046
2961,792.711,-0.005619
2964,793.211,-0.005025
2967,793.716,-0.005836
2970,794.213,-0.007467
2973,794.716,-0.009169
2976,795.216,-0.011125
2979,795.725,-0.012707
2982,796.224,-0.01566
2985,796.725,-0.017989
2988,797.218,-0.019188
2991,797.721,-0.017333
2994,798.224,-0.016711
2997,798.723,-0.017531
3000,799.215,-0.017383
3003,799.72,-0.019537
3006,800.226,-0.022144
3009,800.727,-0.022774
3012,801.224,-0.023182
3015,801.728,-0.024118
3018,802.234,-0.023725
3021,802.731,-0.023232
3024,803.229,-0.021949
3027,803.732,-0.019301
3030,804.235,-0.018725
3033,804.734,-0.019131
3036,805.229,-0.019498
3039,805.74,-0.021613
3042,806.235,-0.024153
3045,806.744,-0.028047
3048,807.235,-0.032743
3051,807.743,-0.035828
3054,808.246,-0.037466
3057,808.749,-0.040276
3060,809.25,-0.04223
3063,809.743,-0.042579
3066,810.245,-0.043771
3069,810.75,-0.044849
3072,811.251,-0.045974
3075,811.751,-0.048932
3078,812.248,-0.050465
3081,812.751,-0.053284
3084,813.25,-0.054457
3087,813.749,-0.056766
3090,814.251,-0.058389
3093,814.75,-0.058146
3096,815.247,-0.058116
3099,815.754,-0.056095
3102,816.252,-0.055691
3105,816.749,-0.054987
3108,817.254,-0.055849
3111,817.75,-0.056296
3114,818.255,-0.05605
3117,818.756,-0.057125
3120,819.249,-0.057483
3123,819.747,-0.058693
3126,820.261,-0.059706
3129,820.763,-0.059759
3132,821.264,-0.059893
3135,821.764,-0.060833
3138,822.26,-0.059472
3141,822.76,-0.061403
3144,823.261,-0.061824
3147,823.761,-0.062995
3150,824.259,-0.064056
3153,824.758,-0.065332
3156,825.264,-0.06833
3159,825.763,-0.070653
3162,826.264,-0.073132
3165,826.763,-0.073467
3168,827.265,-0.07326
3171,827.763,-0.073909
3174,828.259,-0.073519
3177,828.758,-0.074512
3180,829.262,-0.073694
3183,829.76,-0.072361
3186,830.259,-0.071003
3189,830.76,-0.069307
3192,831.259,-0.068657
3195,831.759,-0.069272
3198,832.261,-0.069752
3201,832.762,-0.070034
3204,833.254,-0.071154
3207,833.761,-0.07152
3210,834.26,-0.074037
3213,834.76,-0.07471
3216,835.254,-0.07711
3219,835.753,-0.076372
3222,836.254,-0.076903
3225,836.757,-0.07619
3228,837.256,-0.076659
3231,837.757,-0.077531
3234,838.255,-0.078509
3237,838.761,-0.080311
3240,839.261,-0.081571
3243,839.76,-0.081268
3246,840.262,-0.0811
3249,840.761,-0.081526
3252,841.262,-0.081369
3255,841.763,-0.082563
3258,842.262,-0.084747
3261,842.764,-0.087093
3264,843.264,-0.090417
3267,843.756,-0.094271
3270,844.259,-0.096632
3273,844.758,-0.098353
3276,845.262,-0.098863
3279,845.765,-0.097571
3282,846.265,-0.098714
3285,846.768,-0.099409
3288,847.264,-0.099759
3291,847.762,-0.099199
3294,848.26,-0.098766
3297,848.758,-0.098706
3300,849.259,-0.0984
3303,849.762,-0.098592
3306,850.256,-0.097741
3309,850.76,-0.097265
3312,851.254,-0.097116
3315,851.759,-0.098967
3318,852.257,-0.098852
3321,852.755,-0.097778
3324,853.26,-0.097419
3327,853.757,-0.095943
3330,854.256,-0.094751
3333,854.753,-0.093607
3336,855.248,-0.093905
3339,855.755,-0.093658
3342,856.256,-0.096546
3345,856.752,-0.099281
3348,857.25,-0.102596
3351,857.752,-0.106755
3354,858.255,-0.108207
3357,858.755,-0.110121
3360,859.254,-0.111419
3363,859.751,-0.112654
3366,860.25,-0.113779
3369,860.754,-0.116198
3372,861.25,-0.117789
3375,861.75,-0.120102
3378,862.251,-0.121434
3381,862.748,-0.121877
3384,863.246,-0.121746
3387,863.747,-0.124101
3390,864.248,-0.12454
3393,864.751,-0.125559
3396,865.249,-0.126538
3399,865.747,-0.127168
3402,866.243,-0.128006
3405,866.749,-0.12683
3408,867.243,-0.12707
3411,867.743,-0.127717
3414,868.242,-0.126684
3417,868.742,-0.128516
3420,869.241,-0.13131
3423,869.742,-0.135203
3426,870.244,-0.137057
3429,870.748,-0.139337
3432,871.247,-0.13938
3435,871.744,-0.139215
3438,872.241,-0.139446
3441,872.74,-0.14026
3444,873.238,-0.140824
3447,873.74,-0.142032
3450,874.234,-0.1429
3453,874.738,-0.143593
3456,875.235,-0.144566
3459,875.735,-0.145663
3462,876.238,-0.145283
3465,876.738,-0.145887
3468,877.233,-0.146239
3471,877.734,-0.146933
3474,878.239,-0.149189
3477,878.733,-0.150406
3480,879.239,-0.152137
3483,879.736,-0.153971
3486,880.236,-0.154294
3489,880.73,-0.153904
3492,881.229,-0.153457
3495,881.723,-0.154105
3498,882.226,-0.152776
3501,882.733,-0.152336
3504,883.231,-0.151943
3507,883.729,-0.151556
3510,884.227,-0.155399
3513,884.737,-0.157634
3516,885.228,-0.159398
3519,885.73,-0.160489
3522,886.229,-0.158309
3525,886.726,-0.15863
3528,887.228,-0.157986
3531,887.724,-0.158096
3534,888.232,-0.160473
3537,888.722,-0.163679
3540,889.223,-0.1658
3543,889.718,-0.168091
3546,890.223,-0.169242
3549,890.718,-0.168227
3552,891.209,-0.16937
3555,891.715,-0.171416
3558,892.21,-0.175037
3561,892.709,-0.17922
3564,893.208,-0.182049
3567,893.708,-0.183045
3570,894.199,-0.182492
3573,894.7,-0.181991
3576,895.195,-0.17896
3579,895.696,-0.177528
3582,896.199,-0.176504
3585,896.694,-0.175116
3588,897.195,-0.175504
3591,897.687,-0.17794
3594,898.188,-0.183359
3597,898.684,-0.188897
3600,899.183,-0.196441
3603,899.682,-0.203205
3606,900.181,-0.207946
3609,900.682,-0.210641
3612,901.173,-0.210601
3615,901.675,-0.209993
3618,902.176,-0.208573
3621,902.678,-0.208721
3624,903.171,-0.210218
3627,903.673,-0.210278
3630,904.17,-0.210149
3633,904.665,-0.210028
3636,905.17,-0.207287
3639,905.667,-0.206693
3642,906.165,-0.206933
3645,906.664,-0.209961
3648,907.158,-0.215253
3651,907.662,-0.22004
3654,908.17,-0.223402
3657,908.663,-0.227871
3660,909.16,-0.22979
3663,909.656,-0.232779
3666,910.152,-0.232774
3669,910.652,-0.233692
3672,911.147,-0.233521
3675,911.655,-0.235457
3678,912.147,-0.236343
3681,912.643,-0.236311
3684,913.154,-0.234375
3687,913.643,-0.232049
3690,914.139,-0.230692
3693,914.635,-0.228708
3696,915.137,-0.227312
3699,915.632,-0.228267
3702,916.127,-0.230192
3705,916.628,-0.234158
3708,917.126,-0.238262
3711,917.62,-0.241353
3714,918.119,-0.243873
3717,918.614,-0.244648
3720,919.114,-0.245898
3723,919.609,-0.246717
3726,920.109,-0.246511
3729,920.606,-0.246413
3732,921.113,-0.246722
3735,921.608,-0.249729
3738,922.1,-0.252468
3741,922.602,-0.255073
3744,923.104,-0.256246
3747,923.595,-0.256173
3750,924.097,-0.254923
3753,924.594,-0.255761
3756,925.093,-0.258026
3759,925.589,-0.263011
3762,926.089,-0.269287
3765,926.582,-0.273028
3768,927.084,-0.275227
3771,927.581,-0.27785
3774,928.076,-0.278595
3777,928.579,-0.282702
3780,929.071,-0.286716
3783,929.574,-0.289263
3786,930.068,-0.290889
3789,930.577,-0.289786
3792,931.068,-0.288469
3795,931.567,-0.288021
3798,932.064,-0.286618
3801,932.557,-0.287064
3804,933.055,-0.288021
3807,933.556,-0.29091
3810,934.056,-0.294899
3813,934.552,-0.300759
3816,935.048,-0.305536
3819,935.545,-0.309732
3822,936.045,-0.315259
3825,936.542,-0.320794
3828,937.04,-0.323906
3831,937.533,-0.327247
3834,938.031,-0.325307
3837,938.528,-0.323871
3840,939.027,-0.322958
3843,939.524,-0.319263
3846,940.022,-0.318427
3849,940.515,-0.31677
3852,941.021,-0.31723
3855,941.519,-0.31805
3858,942.011,-0.321751
3861,942.512,-0.32554
3864,943.007,-0.328866
3867,943.503,-0.331334
3870,943.999,-0.332968
3873,944.493,-0.331469
3876,944.996,-0.331632
3879,945.493,-0.331415
3882,945.989,-0.332862
3885,946.488,-0.337292
3888,946.991,-0.342899
3891,947.478,-0.349691
3894,947.981,-0.353886
3897,948.474,-0.356256
3900,948.976,-0.357048
3903,949.471,-0.35546
3906,949.967,-0.356346
3909,950.471,-0.35738
3912,950.967,-0.358947
3915,951.455,-0.361596
3918,951.957,-0.3611
3921,952.445,-0.360091
3924,952.95,-0.359503
3927,953.447,-0.361423
3930,953.946,-0.363966
3933,954.444,-0.366944
3936,954.938,-0.370795
3939,955.435,-0.371537
3942,955.93,-0.376304
3945,956.431,-0.380341
3948,956.924,-0.382685
3951,957.419,-0.38408
3954,957.911,-0.38286
3957,958.409,-0.381001
3960,958.911,-0.382095
3963,959.405,-0.383021
3966,959.902,-0.386641
3969,960.399,-0.390461
3972,960.893,-0.393719
3975,961.39,-0.397898
3978,961.888,-0.399386
3981,962.389,-0.399836
3984,962.879,-0.399319
3987,963.382,-0.400863
3990,963.872,-0.404056
3993,964.379,-0.407274
3996,964.875,-0.413287
3999,965.371,-0.41732
4002,965.864,-0.420621
4005,966.364,-0.422663
4008,966.861,-0.423358
4011,967.355,-0.424347
4014,967.845,-0.425023
4017,968.343,-0.425625
4020,968.839,-0.424948
4023,969.332,-0.428197
4026,969.833,-0.431208
4029,970.323,-0.433578
4032,970.824,-0.439697
4035,971.32,-0.443222
4038,971.812,-0.447742
4041,972.314,-0.453375
4044,972.814,-0.457638
4047,973.308,-0.461691
4050,973.801,-0.465759
4053,974.298,-0.466689
4056,974.794,-0.467639
4059,975.29,-0.468921
4062,975.787,-0.467577
4065,976.278,-0.468442
4068,976.776,-0.472145
4071,977.27,-0.476893
4074,977.766,-0.480997
4077,978.264,-0.486267
4080,978.764,-0.486445
4083,979.259,-0.487553
4086,979.754,-0.489002
4089,980.248,-0.489804
4092,980.745,-0.494129
4095,981.241,-0.498958
4098,981.741,-0.505446
4101,982.232,-0.513289
4104,982.721,-0.518103
4107,983.22,-0.521817
4110,983.724,-0.523595
4113,984.214,-0.529057
4116,984.715,-0.529443
4119,985.209,-0.547108
4122,985.712,-0.569977
4125,986.208,-0.582311
4128,986.698,-0.59258
4131,987.198,-0.603243
4134,987.694,-0.610727
4137,988.193,-0.618265
4140,988.683,-0.62305
4143,989.185,-0.63003
4146,989.675,-0.635518
4149,990.174,-0.642969
4152,990.665,-0.649488
4155,991.169,-0.655715
4158,991.662,-0.662151
4161,992.161,-0.666353
4164,992.652,-0.668695
4167,993.153,-0.6715
4170,993.649,-0.673041
4173,994.145,-0.677269
4176,994.64,-0.680788
4179,995.133,-0.682984
4182,995.626,-0.687107
4185,996.125,-0.691569
4188,996.621,-0.698521
4191,997.112,-0.704088
4194,997.608,-0.711216
4197,998.108,-0.717925
4200,998.601,-0.725128
4203,999.1,-0.731872
4206,999.593,-0.739463
4209,1000.086,-0.745381
4212,1000.584,-0.750127
4215,1001.072,-0.753253
4218,1001.577,-0.757022
4221,1002.072,-0.761625
4224,1002.56,-0.766469
4227,1003.053,-0.770977
4230,1003.546,-0.774101
4233,1004.049,-0.776952
4236,1004.54,-0.777013
4239,1005.036,-0.775318
4242,1005.532,-0.772634
4245,1006.026,-0.769358
4248,1006.519,-0.761707
4251,1007.018,-0.75678
4254,1007.507,-0.753395
4257,1008.006,-0.754145
4260,1008.499,-0.757284
4263,1008.997,-0.763585
4266,1009.49,-0.771452
4269,1009.987,-0.777577
4272,1010.48,-0.785326
4275,1010.972,-0.789568
4278,1011.469,-0.79325
4281,1011.964,-0.797496
4284,1012.454,-0.799459
4287,1012.953,-0.80593
4290,1013.449,-0.812445
4293,1013.943,-0.818769
4296,1014.433,-0.822447
4299,1014.937,-0.822462
4302,1015.43,-0.820142
4305,1015.92,-0.818283
4308,1016.412,-0.818814
4311,1016.913,-0.821222
4314,1017.409,-0.824214
4317,1017.905,-0.829602
4320,1018.397,-0.835163
4323,1018.888,-0.840913
4326,1019.389,-0.844714
4329,1019.879,-0.84719
4332,1020.374,-0.848685
4335,1020.864,-0.850152
4338,1021.36,-0.852071
4341,1021.857,-0.855422
4344,1022.343,-0.859756
4347,1022.844,-0.867882
4350,1023.341,-0.880501