File: Wood/Calibration_Data/UCantabria/UCantabria_Wood_TGA_N2_10K_R2.csv
Time (s),Temperature (K),Mass (mg)
0,305,4.765
3,305.5,4.760
6,306,4.756
9,306.5,4.753
12,307,4.749
15,307.5,4.746
18,308,4.743
21,308.5,4.740
24,309,4.737
27,309.5,4.734
30,310,4.732
33,310.5,4.729
36,311,4.727
39,311.5,4.724
42,312,4.721
45,312.5,4.719
48,313,4.716
51,313.5,4.714
54,314,4.711
57,314.5,4.708
60,315,4.706
63,315.5,4.703
66,316,4.700
69,316.5,4.697
72,317,4.694
75,317.5,4.691
78,318,4.688
81,318.5,4.685
84,319,4.682
87,319.5,4.678
90,320,4.675
93,320.5,4.672
96,321,4.669
99,321.5,4.666
102,322,4.662
105,322.5,4.659
108,323,4.656
111,323.5,4.653
114,324,4.649
117,324.5,4.646
120,325,4.643
123,325.5,4.640
126,326,4.637
129,326.5,4.634
132,327,4.631
135,327.5,4.628
138,328,4.625
141,328.5,4.622
144,329,4.620
147,329.5,4.617
150,330,4.614
153,330.5,4.611
156,331,4.609
159,331.5,4.606
162,332,4.604
165,332.5,4.601
168,333,4.599
171,333.5,4.596
174,334,4.594
177,334.5,4.592
180,335,4.589
183,335.5,4.587
186,336,4.585
189,336.5,4.583
192,337,4.581
195,337.5,4.579
198,338,4.577
201,338.5,4.574
204,339,4.572
207,339.5,4.570
210,340,4.569
213,340.5,4.567
216,341,4.565
219,341.5,4.563
222,342,4.561
225,342.5,4.560
228,343,4.558
231,343.5,4.556
234,344,4.555
237,344.5,4.553
240,345,4.551
243,345.5,4.550
246,346,4.548
249,346.5,4.547
252,347,4.546
255,347.5,4.544
258,348,4.543
261,348.5,4.542
264,349,4.541
267,349.5,4.539
270,350,4.538
273,350.5,4.537
276,351,4.536
279,351.5,4.535
282,352,4.534
285,352.5,4.533
288,353,4.532
291,353.5,4.531
294,354,4.530
297,354.5,4.529
300,355,4.528
303,355.5,4.528
306,356,4.527
309,356.5,4.526
312,357,4.525
315,357.5,4.525
318,358,4.524
321,358.5,4.523
324,359,4.523
327,359.5,4.522
330,360,4.522
333,360.5,4.521
336,361,4.521
339,361.5,4.520
342,362,4.520
345,362.5,4.520
348,363,4.519
351,363.5,4.519
354,364,4.518
357,364.5,4.518
360,365,4.518
363,365.5,4.518
366,366,4.517
369,366.5,4.517
372,367,4.517
375,367.5,4.517
378,368,4.516
381,368.5,4.516
384,369,4.516
387,369.5,4.516
390,370,4.516
393,370.5,4.516
396,371,4.515
399,371.5,4.515
402,372,4.515
405,372.5,4.515
408,373,4.515
411,373.5,4.515
414,374,4.515
417,374.5,4.515
420,375,4.515
423,375.5,4.515
426,376,4.515
429,376.5,4.515
432,377,4.515
435,377.5,4.515
438,378,4.515
441,378.5,4.515
444,379,4.515
447,379.5,4.515
450,380,4.515
453,380.5,4.515
456,381,4.515
459,381.5,4.515
462,382,4.515
465,382.5,4.515
468,383,4.515
471,383.5,4.515
474,384,4.515
477,384.5,4.515
480,385,4.515
483,385.5,4.515
486,386,4.515
489,386.5,4.515
492,387,4.515
495,387.5,4.515
498,388,4.515
501,388.5,4.515
504,389,4.515
507,389.5,4.515
510,390,4.515
513,390.5,4.515
516,391,4.515
519,391.5,4.515
522,392,4.515
525,392.5,4.515
528,393,4.515
531,393.5,4.515
534,394,4.515
537,394.5,4.515
540,395,4.515
543,395.5,4.515
546,396,4.515
549,396.5,4.515
552,397,4.515
555,397.5,4.515
558,398,4.515
561,398.5,4.515
564,399,4.515
567,399.5,4.515
570,400,4.516
573,400.5,4.516
576,401,4.516
579,401.5,4.516
582,402,4.516
585,402.5,4.516
588,403,4.516
591,403.5,4.516
594,404,4.516
597,404.5,4.516
600,405,4.516
603,405.5,4.516
606,406,4.516
609,406.5,4.515
612,407,4.515
615,407.5,4.515
618,408,4.515
621,408.5,4.515
624,409,4.515
627,409.5,4.515
630,410,4.515
633,410.5,4.515
636,411,4.515
639,411.5,4.515
642,412,4.515
645,412.5,4.515
648,413,4.515
651,413.5,4.515
654,414,4.515
657,414.5,4.515
660,415,4.515
663,415.5,4.515
666,416,4.515
669,416.5,4.515
672,417,4.514
675,417.5,4.514
678,418,4.514
681,418.5,4.514
684,419,4.514
687,419.5,4.514
690,420,4.514
693,420.5,4.514
696,421,4.514
699,421.5,4.514
702,422,4.513
705,422.5,4.513
708,423,4.513
711,423.5,4.513
714,424,4.513
717,424.5,4.513
720,425,4.513
723,425.5,4.513
726,426,4.512
729,426.5,4.512
732,427,4.512
735,427.5,4.512
738,428,4.512
741,428.5,4.512
744,429,4.511
747,429.5,4.511
750,430,4.511
753,430.5,4.511
756,431,4.511
759,431.5,4.510
762,432,4.510
765,432.5,4.510
768,433,4.510
771,433.5,4.509
774,434,4.509
777,434.5,4.509
780,435,4.509
783,435.5,4.508
786,436,4.508
789,436.5,4.508
792,437,4.508
795,437.5,4.507
798,438,4.507
801,438.5,4.507
804,439,4.506
807,439.5,4.506
810,440,4.506
813,440.5,4.505
816,441,4.505
819,441.5,4.504
822,442,4.504
825,442.5,4.504
828,443,4.503
831,443.5,4.503
834,444,4.502
837,444.5,4.502
840,445,4.501
843,445.5,4.501
846,446,4.500
849,446.5,4.500
852,447,4.499
855,447.5,4.499
858,448,4.498
861,448.5,4.498
864,449,4.497
867,449.5,4.497
870,450,4.496
873,450.5,4.496
876,451,4.495
879,451.5,4.494
882,452,4.494
885,452.5,4.493
888,453,4.492
891,453.5,4.492
894,454,4.491
897,454.5,4.490
900,455,4.490
903,455.5,4.489
906,456,4.488
909,456.5,4.487
912,457,4.486
915,457.5,4.486
918,458,4.485
921,458.5,4.484
924,459,4.483
927,459.5,4.482
930,460,4.481
933,460.5,4.480
936,461,4.479
939,461.5,4.478
942,462,4.477
945,462.5,4.476
948,463,4.475
951,463.5,4.474
954,464,4.473
957,464.5,4.472
960,465,4.471
963,465.5,4.469
966,466,4.468
969,466.5,4.467
972,467,4.466
975,467.5,4.465
978,468,4.463
981,468.5,4.462
984,469,4.461
987,469.5,4.459
990,470,4.458
993,470.5,4.457
996,471,4.455
999,471.5,4.454
1002,472,4.452
1005,472.5,4.451
1008,473,4.449
1011,473.5,4.448
1014,474,4.446
1017,474.5,4.445
1020,475,4.443
1023,475.5,4.442
1026,476,4.440
1029,476.5,4.438
1032,477,4.437
1035,477.5,4.435
1038,478,4.433
1041,478.5,4.431
1044,479,4.430
1047,479.5,4.428
1050,480,4.426
1053,480.5,4.424
1056,481,4.422
1059,481.5,4.420
1062,482,4.419
1065,482.5,4.417
1068,483,4.415
1071,483.5,4.413
1074,484,4.411
1077,484.5,4.409
1080,485,4.407
1083,485.5,4.405
1086,486,4.403
1089,486.5,4.401
1092,487,4.399
1095,487.5,4.397
1098,488,4.395
1101,488.5,4.393
1104,489,4.390
1107,489.5,4.388
1110,490,4.386
1113,490.5,4.384
1116,491,4.382
1119,491.5,4.379
1122,492,4.377
1125,492.5,4.375
1128,493,4.373
1131,493.5,4.370
1134,494,4.368
1137,494.5,4.366
1140,495,4.363
1143,495.5,4.361
1146,496,4.359
1149,496.5,4.356
1152,497,4.354
1155,497.5,4.352
1158,498,4.349
1161,498.5,4.347
1164,499,4.344
1167,499.5,4.342
1170,500,4.339
1173,500.5,4.337
1176,501,4.334
1179,501.5,4.331
1182,502,4.329
1185,502.5,4.326
1188,503,4.323
1191,503.5,4.321
1194,504,4.318
1197,504.5,4.315
1200,505,4.312
1203,505.5,4.309
1206,506,4.306
1209,506.5,4.303
1212,507,4.300
1215,507.5,4.297
1218,508,4.294
1221,508.5,4.291
1224,509,4.288
1227,509.5,4.285
1230,510,4.282
1233,510.5,4.279
1236,511,4.275
1239,511.5,4.272
1242,512,4.269
1245,512.5,4.265
1248,513,4.262
1251,513.5,4.258
1254,514,4.255
1257,514.5,4.251
1260,515,4.248
1263,515.5,4.244
1266,516,4.240
1269,516.5,4.237
1272,517,4.233
1275,517.5,4.229
1278,518,4.225
1281,518.5,4.221
1284,519,4.217
1287,519.5,4.213
1290,520,4.209
1293,520.5,4.205
1296,521,4.201
1299,521.5,4.197
1302,522,4.192
1305,522.5,4.188
1308,523,4.184
1311,523.5,4.179
1314,524,4.175
1317,524.5,4.171
1320,525,4.166
1323,525.5,4.161
1326,526,4.157
1329,526.5,4.152
1332,527,4.148
1335,527.5,4.143
1338,528,4.138
1341,528.5,4.133
1344,529,4.128
1347,529.5,4.124
1350,530,4.119
1353,530.5,4.114
1356,531,4.109
1359,531.5,4.104
1362,532,4.098
1365,532.5,4.093
1368,533,4.088
1371,533.5,4.083
1374,534,4.078
1377,534.5,4.072
1380,535,4.067
1383,535.5,4.061
1386,536,4.056
1389,536.5,4.050
1392,537,4.045
1395,537.5,4.039
1398,538,4.034
1401,538.5,4.028
1404,539,4.022
1407,539.5,4.016
1410,540,4.011
1413,540.5,4.005
1416,541,3.999
1419,541.5,3.993
1422,542,3.987
1425,542.5,3.981
1428,543,3.975
1431,543.5,3.969
1434,544,3.963
1437,544.5,3.956
1440,545,3.950
1443,545.5,3.944
1446,546,3.938
1449,546.5,3.931
1452,547,3.925
1455,547.5,3.918
1458,548,3.912
1461,548.5,3.906
1464,549,3.899
1467,549.5,3.893
1470,550,3.886
1473,550.5,3.880
1476,551,3.873
1479,551.5,3.866
1482,552,3.860
1485,552.5,3.853
1488,553,3.846
1491,553.5,3.839
1494,554,3.833
1497,554.5,3.826
1500,555,3.819
1503,555.5,3.813
1506,556,3.806
1509,556.5,3.799
1512,557,3.792
1515,557.5,3.785
1518,558,3.778
1521,558.5,3.771
1524,559,3.764
1527,559.5,3.757
1530,560,3.750
1533,560.5,3.743
1536,561,3.736
1539,561.5,3.729
1542,562,3.722
1545,562.5,3.714
1548,563,3.707
1551,563.5,3.700
1554,564,3.693
1557,564.5,3.685
1560,565,3.678
1563,565.5,3.670
1566,566,3.662
1569,566.5,3.655
1572,567,3.647
1575,567.5,3.639
1578,568,3.632
1581,568.5,3.624
1584,569,3.616
1587,569.5,3.608
1590,570,3.600
1593,570.5,3.592
1596,571,3.584
1599,571.5,3.576
1602,572,3.568
1605,572.5,3.559
1608,573,3.551
1611,573.5,3.542
1614,574,3.534
1617,574.5,3.525
1620,575,3.517
1623,575.5,3.508
1626,576,3.499
1629,576.5,3.490
1632,577,3.481
1635,577.5,3.472
1638,578,3.463
1641,578.5,3.453
1644,579,3.444
1647,579.5,3.435
1650,580,3.425
1653,580.5,3.415
1656,581,3.406
1659,581.5,3.396
1662,582,3.386
1665,582.5,3.376
1668,583,3.365
1671,583.5,3.355
1674,584,3.345
1677,584.5,3.334
1680,585,3.324
1683,585.5,3.313
1686,586,3.302
1689,586.5,3.291
1692,587,3.281
1695,587.5,3.269
1698,588,3.258
1701,588.5,3.247
1704,589,3.235
1707,589.5,3.224
1710,590,3.212
1713,590.5,3.200
1716,591,3.189
1719,591.5,3.177
1722,592,3.165
1725,592.5,3.153
1728,593,3.140
1731,593.5,3.128
1734,594,3.116
1737,594.5,3.103
1740,595,3.091
1743,595.5,3.078
1746,596,3.065
1749,596.5,3.052
1752,597,3.040
1755,597.5,3.027
1758,598,3.013
1761,598.5,3.000
1764,599,2.987
1767,599.5,2.974
1770,600,2.960
1773,600.5,2.947
1776,601,2.934
1779,601.5,2.920
1782,602,2.906
1785,602.5,2.893
1788,603,2.879
1791,603.5,2.865
1794,604,2.851
1797,604.5,2.838
1800,605,2.824
1803,605.5,2.810
1806,606,2.796
1809,606.5,2.782
1812,607,2.768
1815,607.5,2.753
1818,608,2.739
1821,608.5,2.725
1824,609,2.710
1827,609.5,2.696
1830,610,2.681
1833,610.5,2.667
1836,611,2.653
1839,611.5,2.638
1842,612,2.623
1845,612.5,2.608
1848,613,2.594
1851,613.5,2.579
1854,614,2.564
1857,614.5,2.549
1860,615,2.533
1863,615.5,2.518
1866,616,2.503
1869,616.5,2.487
1872,617,2.472
1875,617.5,2.457
1878,618,2.441
1881,618.5,2.425
1884,619,2.409
1887,619.5,2.393
1890,620,2.377
1893,620.5,2.360
1896,621,2.344
1899,621.5,2.328
1902,622,2.311
1905,622.5,2.295
1908,623,2.278
1911,623.5,2.260
1914,624,2.244
1917,624.5,2.226
1920,625,2.209
1923,625.5,2.191
1926,626,2.174
1929,626.5,2.156
1932,627,2.138
1935,627.5,2.120
1938,628,2.102
1941,628.5,2.083
1944,629,2.065
1947,629.5,2.047
1950,630,2.028
1953,630.5,2.009
1956,631,1.991
1959,631.5,1.972
1962,632,1.953
1965,632.5,1.934
1968,633,1.914
1971,633.5,1.895
1974,634,1.876
1977,634.5,1.857
1980,635,1.837
1983,635.5,1.818
1986,636,1.799
1989,636.5,1.779
1992,637,1.760
1995,637.5,1.740
1998,638,1.721
2001,638.5,1.702
2004,639,1.683
2007,639.5,1.664
2010,640,1.645
2013,640.5,1.626
2016,641,1.608
2019,641.5,1.590
2022,642,1.572
2025,642.5,1.554
2028,643,1.537
2031,643.5,1.520
2034,644,1.503
2037,644.5,1.487
2040,645,1.471
2043,645.5,1.455
2046,646,1.440
2049,646.5,1.425
2052,647,1.411
2055,647.5,1.398
2058,648,1.385
2061,648.5,1.372
2064,649,1.360
2067,649.5,1.349
2070,650,1.338
2073,650.5,1.328
2076,651,1.318
2079,651.5,1.309
2082,652,1.301
2085,652.5,1.293
2088,653,1.286
2091,653.5,1.279
2094,654,1.273
2097,654.5,1.267
2100,655,1.262
2103,655.5,1.257
2106,656,1.252
2109,656.5,1.247
2112,657,1.242
2115,657.5,1.238
2118,658,1.233
2121,658.5,1.229
2124,659,1.225
2127,659.5,1.221
2130,660,1.217
2133,660.5,1.213
2136,661,1.210
2139,661.5,1.207
2142,662,1.204
2145,662.5,1.201
2148,663,1.198
2151,663.5,1.196
2154,664,1.194
2157,664.5,1.191
2160,665,1.189
2163,665.5,1.187
2166,666,1.185
2169,666.5,1.183
2172,667,1.181
2175,667.5,1.179
2178,668,1.177
2181,668.5,1.175
2184,669,1.173
2187,669.5,1.171
2190,670,1.169
2193,670.5,1.167
2196,671,1.166
2199,671.5,1.164
2202,672,1.162
2205,672.5,1.161
2208,673,1.159
2211,673.5,1.157
2214,674,1.155
2217,674.5,1.154
2220,675,1.152
2223,675.5,1.150
2226,676,1.149
2229,676.5,1.147
2232,677,1.145
2235,677.5,1.144
2238,678,1.142
2241,678.5,1.141
2244,679,1.139
2247,679.5,1.137
2250,680,1.136
2253,680.5,1.134
2256,681,1.133
2259,681.5,1.131
2262,682,1.129
2265,682.5,1.128
2268,683,1.126
2271,683.5,1.125
2274,684,1.123
2277,684.5,1.122
2280,685,1.120
2283,685.5,1.118
2286,686,1.117
2289,686.5,1.115
2292,687,1.114
2295,687.5,1.112
2298,688,1.111
2301,688.5,1.109
2304,689,1.108
2307,689.5,1.106
2310,690,1.105
2313,690.5,1.103
2316,691,1.102
2319,691.5,1.100
2322,692,1.099
2325,692.5,1.097
2328,693,1.096
2331,693.5,1.094
2334,694,1.093
2337,694.5,1.091
2340,695,1.090
2343,695.5,1.088
2346,696,1.087
2349,696.5,1.085
2352,697,1.084
2355,697.5,1.082
2358,698,1.081
2361,698.5,1.079
2364,699,1.078
2367,699.5,1.076
2370,700,1.075
2373,700.5,1.074
2376,701,1.072
2379,701.5,1.071
2382,702,1.069
2385,702.5,1.068
2388,703,1.066
2391,703.5,1.065
2394,704,1.064
2397,704.5,1.062
2400,705,1.061
2403,705.5,1.060
2406,706,1.058
2409,706.5,1.057
2412,707,1.055
2415,707.5,1.054
2418,708,1.053
2421,708.5,1.051
2424,709,1.050
2427,709.5,1.049
2430,710,1.047
2433,710.5,1.046
2436,711,1.045
2439,711.5,1.044
2442,712,1.042
2445,712.5,1.041
2448,713,1.040
2451,713.5,1.038
2454,714,1.037
2457,714.5,1.036
2460,715,1.035
2463,715.5,1.033
2466,716,1.032
2469,716.5,1.031
2472,717,1.030
2475,717.5,1.029
2478,718,1.027
2481,718.5,1.026
2484,719,1.025
2487,719.5,1.024
2490,720,1.023
2493,720.5,1.022
2496,721,1.021
2499,721.5,1.019
2502,722,1.018
2505,722.5,1.017
2508,723,1.016
2511,723.5,1.015
2514,724,1.014
2517,724.5,1.013
2520,725,1.012
2523,725.5,1.011
2526,726,1.010
2529,726.5,1.009
2532,727,1.008
2535,727.5,1.007
2538,728,1.006
2541,728.5,1.005
2544,729,1.004
2547,729.5,1.003
2550,730,1.002
2553,730.5,1.001
2556,731,1.000
2559,731.5,0.999
2562,732,0.998
2565,732.5,0.997
2568,733,0.996
2571,733.5,0.995
2574,734,0.994
2577,734.5,0.993
2580,735,0.992
2583,735.5,0.991
2586,736,0.991
2589,736.5,0.990
2592,737,0.989
2595,737.5,0.988
2598,738,0.987
2601,738.5,0.986
2604,739,0.985
2607,739.5,0.985
2610,740,0.984
2613,740.5,0.983
2616,741,0.982
2619,741.5,0.981
2622,742,0.981
2625,742.5,0.980
2628,743,0.979
2631,743.5,0.978
2634,744,0.977
2637,744.5,0.977
2640,745,0.976
2643,745.5,0.975
2646,746,0.974
2649,746.5,0.974
2652,747,0.973
2655,747.5,0.972
2658,748,0.971
2661,748.5,0.971
2664,749,0.970
2667,749.5,0.969
2670,750,0.969
2673,750.5,0.968
2676,751,0.967
2679,751.5,0.967
2682,752,0.966
2685,752.5,0.965
2688,753,0.965
2691,753.5,0.964
2694,754,0.963
2697,754.5,0.963
2700,755,0.962
2703,755.5,0.961
2706,756,0.961
2709,756.5,0.960
2712,757,0.959
2715,757.5,0.959
2718,758,0.958
2721,758.5,0.957
2724,759,0.957
2727,759.5,0.956
2730,760,0.956
2733,760.5,0.955
2736,761,0.954
2739,761.5,0.954
2742,762,0.953
2745,762.5,0.952
2748,763,0.952
2751,763.5,0.951
2754,764,0.951
2757,764.5,0.950
2760,765,0.949
2763,765.5,0.949
2766,766,0.948
2769,766.5,0.948
2772,767,0.947
2775,767.5,0.947
2778,768,0.946
2781,768.5,0.945
2784,769,0.945
2787,769.5,0.944
2790,770,0.944
2793,770.5,0.943
2796,771,0.943
2799,771.5,0.942
2802,772,0.942
2805,772.5,0.941
2808,773,0.940
2811,773.5,0.940
2814,774,0.939
2817,774.5,0.939
2820,775,0.938
2823,775.5,0.938
2826,776,0.937
2829,776.5,0.937
2832,777,0.936
2835,777.5,0.936
2838,778,0.935
2841,778.5,0.935
2844,779,0.934
2847,779.5,0.934
2850,780,0.933
2853,780.5,0.933
2856,781,0.932
2859,781.5,0.932
2862,782,0.931
2865,782.5,0.931
2868,783,0.930
2871,783.5,0.930
2874,784,0.929
2877,784.5,0.929
2880,785,0.928
2883,785.5,0.928
2886,786,0.927
2889,786.5,0.927
2892,787,0.926
2895,787.5,0.926
2898,788,0.925
2901,788.5,0.925
2904,789,0.924
2907,789.5,0.924
2910,790,0.923
2913,790.5,0.923
2916,791,0.922
2919,791.5,0.922
2922,792,0.921
2925,792.5,0.921
2928,793,0.920
2931,793.5,0.920
2934,794,0.919
2937,794.5,0.919
2940,795,0.919
2943,795.5,0.918
2946,796,0.918
2949,796.5,0.917
2952,797,0.917
2955,797.5,0.916
2958,798,0.916
2961,798.5,0.915
2964,799,0.915
2967,799.5,0.914
2970,800,0.914
2973,800.5,0.914
2976,801,0.913
2979,801.5,0.913
2982,802,0.912
2985,802.5,0.912
2988,803,0.911
2991,803.5,0.911
2994,804,0.911
2997,804.5,0.910
3000,805,0.910
3003,805.5,0.909
3006,806,0.909
3009,806.5,0.908
3012,807,0.908
3015,807.5,0.908
3018,808,0.907
3021,808.5,0.907
3024,809,0.906
3027,809.5,0.906
3030,810,0.905
3033,810.5,0.905
3036,811,0.905
3039,811.5,0.904
3042,812,0.904
3045,812.5,0.903
3048,813,0.903
3051,813.5,0.903
3054,814,0.902
3057,814.5,0.902
3060,815,0.901
3063,815.5,0.901
3066,816,0.901
3069,816.5,0.900
3072,817,0.900
3075,817.5,0.899
3078,818,0.899
3081,818.5,0.899
3084,819,0.898
3087,819.5,0.898
3090,820,0.897
3093,820.5,0.897
3096,821,0.897
3099,821.5,0.896
3102,822,0.896
3105,822.5,0.895
3108,823,0.895
3111,823.5,0.895
3114,824,0.894
3117,824.5,0.894
3120,825,0.893
3123,825.5,0.893
3126,826,0.893
3129,826.5,0.892
3132,827,0.892
3135,827.5,0.892
3138,828,0.891
3141,828.5,0.891
3144,829,0.890
3147,829.5,0.890
3150,830,0.890
3153,830.5,0.889
3156,831,0.889
3159,831.5,0.889
3162,832,0.888
3165,832.5,0.888
3168,833,0.887
3171,833.5,0.887
3174,834,0.887
3177,834.5,0.886
3180,835,0.886
3183,835.5,0.886
3186,836,0.885
3189,836.5,0.885
3192,837,0.885
3195,837.5,0.884
3198,838,0.884
3201,838.5,0.883
3204,839,0.883
3207,839.5,0.883
3210,840,0.882
3213,840.5,0.882
3216,841,0.882
3219,841.5,0.881
3222,842,0.881
3225,842.5,0.880
3228,843,0.880
3231,843.5,0.880
3234,844,0.879
3237,844.5,0.879
3240,845,0.879
3243,845.5,0.878
3246,846,0.878
3249,846.5,0.878
3252,847,0.877
3255,847.5,0.877
3258,848,0.877
3261,848.5,0.876
3264,849,0.876
3267,849.5,0.876
3270,850,0.875
3273,850.5,0.875
3276,851,0.874
3279,851.5,0.874
3282,852,0.874
3285,852.5,0.873
3288,853,0.873
3291,853.5,0.873
3294,854,0.872
3297,854.5,0.872
3300,855,0.872
3303,855.5,0.871
3306,856,0.871
3309,856.5,0.871
3312,857,0.870
3315,857.5,0.870
3318,858,0.870
3321,858.5,0.869
3324,859,0.869
3327,859.5,0.869
3330,860,0.868
3333,860.5,0.868
3336,861,0.868
3339,861.5,0.867
3342,862,0.867
3345,862.5,0.867
3348,863,0.866
3351,863.5,0.866
3354,864,0.866
3357,864.5,0.865
3360,865,0.865
3363,865.5,0.865
3366,866,0.864
3369,866.5,0.864
3372,867,0.864
3375,867.5,0.863
3378,868,0.863
3381,868.5,0.863
3384,869,0.862
3387,869.5,0.862
3390,870,0.862
3393,870.5,0.861
3396,871,0.861
3399,871.5,0.861
3402,872,0.860
3405,872.5,0.860
3408,873,0.860
3411,873.5,0.859
3414,874,0.859
3417,874.5,0.859
3420,875,0.858
3423,875.5,0.858
3426,876,0.858
3429,876.5,0.858
3432,877,0.857
3435,877.5,0.857
3438,878,0.857
3441,878.5,0.856
3444,879,0.856
3447,879.5,0.856
3450,880,0.855
3453,880.5,0.855
3456,881,0.855
3459,881.5,0.855
3462,882,0.854
3465,882.5,0.854
3468,883,0.854
3471,883.5,0.853
3474,884,0.853
3477,884.5,0.853
3480,885,0.852
3483,885.5,0.852
3486,886,0.852
3489,886.5,0.852
3492,887,0.851
3495,887.5,0.851
3498,888,0.851
3501,888.5,0.850
3504,889,0.850
3507,889.5,0.850
3510,890,0.850
3513,890.5,0.849
3516,891,0.849
3519,891.5,0.849
3522,892,0.848
3525,892.5,0.848
3528,893,0.848
3531,893.5,0.848
3534,894,0.847
3537,894.5,0.847
3540,895,0.847
3543,895.5,0.847
3546,896,0.846
3549,896.5,0.846
3552,897,0.846
3555,897.5,0.845
3558,898,0.845
3561,898.5,0.845
3564,899,0.845
3567,899.5,0.844
3570,900,0.844
3573,900.5,0.844
3576,901,0.844
3579,901.5,0.843
3582,902,0.843
3585,902.5,0.843
3588,903,0.843
3591,903.5,0.842
3594,904,0.842
3597,904.5,0.842
3600,905,0.842
3603,905.5,0.841
3606,906,0.841
3609,906.5,0.841
3612,907,0.841
3615,907.5,0.840
3618,908,0.840
3621,908.5,0.840
3624,909,0.840
3627,909.5,0.839
3630,910,0.839
3633,910.5,0.839
3636,911,0.839
3639,911.5,0.838
3642,912,0.838
3645,912.5,0.838
3648,913,0.838
3651,913.5,0.838
3654,914,0.837
3657,914.5,0.837
3660,915,0.837
3663,915.5,0.837
3666,916,0.836
3669,916.5,0.836
3672,917,0.836
3675,917.5,0.836
3678,918,0.836
3681,918.5,0.835
3684,919,0.835
3687,919.5,0.835
3690,920,0.835
3693,920.5,0.835
3696,921,0.834
3699,921.5,0.834
3702,922,0.834
3705,922.5,0.834
3708,923,0.833
3711,923.5,0.833
3714,924,0.833
3717,924.5,0.833
3720,925,0.833
3723,925.5,0.832
3726,926,0.832
3729,926.5,0.832
3732,927,0.832
3735,927.5,0.832
3738,928,0.831
3741,928.5,0.831
3744,929,0.831
3747,929.5,0.831
3750,930,0.831
3753,930.5,0.830
3756,931,0.830
3759,931.5,0.830
3762,932,0.830
3765,932.5,0.830
3768,933,0.829
3771,933.5,0.829
3774,934,0.829
3777,934.5,0.829
3780,935,0.829
3783,935.5,0.828
3786,936,0.828
3789,936.5,0.828
3792,937,0.828
3795,937.5,0.828
3798,938,0.827
3801,938.5,0.827
3804,939,0.827
3807,939.5,0.827
3810,940,0.827
3813,940.5,0.827
3816,941,0.826
3819,941.5,0.826
3822,942,0.826
3825,942.5,0.826
3828,943,0.826
3831,943.5,0.825
3834,944,0.825
3837,944.5,0.825
3840,945,0.825
3843,945.5,0.825
3846,946,0.825
3849,946.5,0.825
3852,947,0.824
3855,947.5,0.824
3858,948,0.824
3861,948.5,0.824
3864,949,0.824
3867,949.5,0.824
3870,950,0.823
3873,950.5,0.823
3876,951,0.823
3879,951.5,0.823
3882,952,0.823
3885,952.5,0.822
3888,953,0.822
3891,953.5,0.822
3894,954,0.822
3897,954.5,0.822
3900,955,0.822
3903,955.5,0.821
3906,956,0.821
3909,956.5,0.821
3912,957,0.821
3915,957.5,0.821
3918,958,0.821
3921,958.5,0.820
3924,959,0.820
3927,959.5,0.820
3930,960,0.820
3933,960.5,0.820
3936,961,0.820
3939,961.5,0.819
3942,962,0.819
3945,962.5,0.819
3948,963,0.819
3951,963.5,0.819
3954,964,0.819
3957,964.5,0.818
3960,965,0.818
3963,965.5,0.818
3966,966,0.818
3969,966.5,0.818
3972,967,0.817
3975,967.5,0.817
3978,968,0.817
3981,968.5,0.817
3984,969,0.817
3987,969.5,0.817
3990,970,0.817
3993,970.5,0.816
3996,971,0.816
3999,971.5,0.816
4002,972,0.816
4005,972.5,0.816
4008,973,0.816
4011,973.5,0.815
4014,974,0.815
4017,974.5,0.815
4020,975,0.815
4023,975.5,0.815
4026,976,0.814
4029,976.5,0.814
4032,977,0.814
4035,977.5,0.814
4038,978,0.814
4041,978.5,0.814
4044,979,0.813
4047,979.5,0.813
4050,980,0.813
4053,980.5,0.813
4056,981,0.813
4059,981.5,0.813
4062,982,0.812
4065,982.5,0.812
4068,983,0.812
4071,983.5,0.812
4074,984,0.812
4077,984.5,0.812
4080,985,0.811
4083,985.5,0.811
4086,986,0.811
4089,986.5,0.811
4092,987,0.811
4095,987.5,0.811
4098,988,0.810
4101,988.5,0.810
4104,989,0.810
4107,989.5,0.810