File: Non-charring/PMMA/HKPolyU/HKPolyU_TGA_N2_1.csv
Time,Temperature,Mass
[s],[k],[mg]
0.004,300.03,4.104
0.03766667,300.305,4.1036
0.07933334,300.599,4.1032
0.121,300.907,4.1027
0.1626666,301.246,4.1021
0.2043333,301.602,4.1017
0.246,301.972,4.1013
0.2876667,302.347,4.1008
0.3293334,302.749,4.1004
0.371,303.152,4.1
0.4126667,303.579,4.0996
0.4543334,304.021,4.0992
0.496,304.473,4.0989
0.5376668,304.948,4.0986
0.5793332,305.413,4.0982
0.621,305.896,4.0979
0.6626668,306.384,4.0977
0.7043334,306.886,4.0975
0.746,307.395,4.0972
0.7876668,307.905,4.0969
0.8293334,308.435,4.0968
0.871,308.955,4.0967
0.9126668,309.48,4.0964
0.9543334,310.006,4.0963
0.996,310.538,4.0962
1.037667,311.066,4.096
1.079334,311.595,4.0959
1.121,312.134,4.0958
1.162667,312.666,4.0957
1.204334,313.193,4.0956
1.246,313.722,4.0955
1.287666,314.247,4.0955
1.329334,314.777,4.0954
1.371,315.299,4.0954
1.412666,315.811,4.0954
1.454334,316.323,4.0953
1.496,316.835,4.0953
1.537666,317.345,4.0952
1.579334,317.85,4.0951
1.621,318.342,4.0952
1.662666,318.831,4.0952
1.704334,319.323,4.0953
1.746,319.807,4.0952
1.787666,320.286,4.0951
1.829334,320.763,4.0952
1.871,321.236,4.0952
1.912666,321.703,4.0952
1.954334,322.168,4.0952
1.996,322.618,4.0953
2.037666,323.072,4.0953
2.079333,323.521,4.0953
2.121,323.953,4.0953
2.162666,324.401,4.0953
2.204333,324.838,4.0953
2.246,325.268,4.0954
2.287666,325.695,4.0953
2.329333,326.117,4.0953
2.371,326.538,4.0953
2.412666,326.953,4.0953
2.454333,327.368,4.0954
2.496,327.775,4.0954
2.537666,328.191,4.0953
2.579333,328.602,4.0953
2.621,329.002,4.0953
2.662666,329.401,4.0954
2.704333,329.802,4.0955
2.746,330.213,4.0953
2.787666,330.609,4.0953
2.829333,331.004,4.0954
2.871,331.404,4.0953
2.912666,331.798,4.0951
2.954333,332.194,4.0951
2.996,332.588,4.0952
3.037666,332.991,4.0952
3.079333,333.376,4.0953
3.121,333.775,4.0953
3.162666,334.161,4.0951
3.204334,334.566,4.0951
3.246,334.949,4.0951
3.287666,335.344,4.0951
3.329334,335.746,4.0951
3.371,336.136,4.0951
3.412666,336.537,4.095
3.454334,336.939,4.095
3.496,337.333,4.0951
3.537666,337.736,4.095
3.579334,338.139,4.0949
3.621,338.541,4.0948
3.662666,338.94,4.0949
3.704334,339.34,4.0949
3.746,339.751,4.0949
3.787666,340.156,4.0949
3.829334,340.568,4.095
3.871,340.973,4.0949
3.912666,341.381,4.0948
3.954334,341.789,4.0948
3.996,342.199,4.0949
4.037666,342.614,4.0948
4.079334,343.024,4.0948
4.121,343.433,4.0947
4.162666,343.852,4.0947
4.204334,344.266,4.0948
4.246,344.678,4.0947
4.287666,345.099,4.0947
4.329334,345.518,4.0948
4.371,345.943,4.0948
4.412666,346.36,4.0948
4.454334,346.781,4.0948
4.496,347.2,4.0948
4.537666,347.622,4.0948
4.579334,348.037,4.0947
4.621,348.46,4.0947
4.662666,348.886,4.0947
4.704334,349.303,4.0947
4.746,349.727,4.0947
4.787666,350.15,4.0947
4.829334,350.578,4.0946
4.871,351.004,4.0945
4.912666,351.424,4.0946
4.954334,351.842,4.0945
4.996,352.276,4.0945
5.037666,352.698,4.0946
5.079334,353.117,4.0946
5.121,353.545,4.0946
5.162666,353.966,4.0946
5.204334,354.393,4.0945
5.246,354.811,4.0944
5.287666,355.237,4.0944
5.329334,355.662,4.0944
5.371,356.09,4.0944
5.412666,356.513,4.0945
5.454334,356.928,4.0945
5.496,357.355,4.0945
5.537666,357.783,4.0944
5.579334,358.203,4.0945
5.621,358.627,4.0945
5.662666,359.051,4.0945
5.704334,359.466,4.0944
5.746,359.89,4.0944
5.787666,360.315,4.0945
5.829334,360.74,4.0945
5.871,361.161,4.0945
5.912666,361.589,4.0945
5.954334,362.01,4.0945
5.996,362.424,4.0944
6.037666,362.848,4.0945
6.079334,363.277,4.0945
6.121,363.693,4.0945
6.162666,364.117,4.0945
6.204334,364.54,4.0945
6.246,364.955,4.0945
6.287666,365.373,4.0946
6.329334,365.794,4.0946
6.371,366.21,4.0945
6.412668,366.633,4.0945
6.454334,367.05,4.0946
6.496,367.468,4.0946
6.537668,367.886,4.0946
6.579334,368.309,4.0946
6.621,368.726,4.0949
6.662668,369.143,4.0951
6.704334,369.555,4.0951
6.746,369.972,4.095
6.787668,370.397,4.095
6.829334,370.81,4.095
6.871,371.23,4.0951
6.912668,371.654,4.0952
6.954334,372.071,4.095
6.996,372.483,4.095
7.037668,372.903,4.095
7.079334,373.326,4.095
7.121,373.74,4.095
7.162668,374.162,4.095
7.204334,374.583,4.0952
7.246,375.002,4.0954
7.287668,375.414,4.0956
7.329334,375.843,4.0956
7.371,376.258,4.0956
7.412668,376.679,4.0956
7.454334,377.098,4.0955
7.496,377.513,4.0956
7.537668,377.932,4.0956
7.579334,378.352,4.0957
7.621,378.773,4.0957
7.662668,379.198,4.0957
7.704334,379.618,4.0957
7.746,380.036,4.0956
7.787668,380.457,4.0956
7.829334,380.877,4.0956
7.871,381.291,4.0955
7.912668,381.713,4.0956
7.954334,382.132,4.0956
7.996,382.553,4.0955
8.037666,382.976,4.0955
8.079334,383.392,4.0955
8.121,383.813,4.0955
8.162666,384.234,4.0954
8.204334,384.658,4.0954
8.246,385.081,4.0954
8.287666,385.498,4.0954
8.329334,385.917,4.0954
8.371,386.339,4.0953
8.412666,386.759,4.0953
8.454334,387.18,4.0952
8.496001,387.597,4.0952
8.537666,388.019,4.0952
8.579334,388.44,4.0951
8.621001,388.861,4.095
8.662666,389.281,4.0949
8.704334,389.707,4.095
8.746001,390.131,4.0951
8.787666,390.547,4.095
8.829334,390.966,4.0951
8.871001,391.387,4.0949
8.912666,391.81,4.0949
8.954334,392.233,4.0949
8.996001,392.657,4.0947
9.037666,393.079,4.0946
9.079334,393.499,4.0946
9.121001,393.922,4.0946
9.162666,394.344,4.0944
9.204334,394.762,4.0943
9.246001,395.188,4.0942
9.287666,395.604,4.0941
9.329334,396.028,4.094
9.371001,396.445,4.0939
9.412666,396.864,4.0939
9.454334,397.283,4.0938
9.496001,397.707,4.0936
9.537666,398.131,4.0935
9.579334,398.552,4.0934
9.621001,398.97,4.0933
9.662666,399.393,4.0933
9.704334,399.815,4.0932
9.746001,400.228,4.093
9.787666,400.65,4.0928
9.829334,401.068,4.0927
9.871001,401.496,4.0925
9.912666,401.914,4.0925
9.954334,402.335,4.0924
9.996001,402.754,4.0922
10.03767,403.177,4.0921
10.07933,403.593,4.0921
10.121,404.016,4.0919
10.16267,404.436,4.0918
10.20433,404.859,4.0917
10.246,405.27,4.0916
10.28767,405.693,4.0915
10.32933,406.113,4.0914
10.371,406.532,4.0913
10.41267,406.95,4.0911
10.45433,407.372,4.091
10.496,407.797,4.0909
10.53766,408.215,4.0907
10.57934,408.631,4.0906
10.621,409.05,4.0904
10.66266,409.475,4.0903
10.70434,409.898,4.0901
10.746,410.312,4.09
10.78766,410.734,4.0899
10.82934,411.155,4.0898
10.871,411.573,4.0896
10.91266,411.993,4.0894
10.95434,412.414,4.0893
10.996,412.831,4.0892
11.03766,413.251,4.089
11.07934,413.668,4.0888
11.121,414.089,4.0887
11.16266,414.508,4.0885
11.20434,414.929,4.0884
11.246,415.344,4.0882
11.28766,415.766,4.0881
11.32934,416.19,4.088
11.371,416.603,4.0878
11.41266,417.027,4.0877
11.45434,417.448,4.0875
11.496,417.866,4.0874
11.53766,418.28,4.0873
11.57934,418.696,4.087
11.621,419.122,4.0868
11.66266,419.54,4.0867
11.70434,419.957,4.0866
11.746,420.374,4.0864
11.78766,420.793,4.0861
11.82934,421.213,4.086
11.871,421.634,4.086
11.91266,422.052,4.0858
11.95434,422.475,4.0856
11.996,422.894,4.0853
12.03766,423.308,4.0851
12.07934,423.73,4.0849
12.121,424.146,4.0847
12.16266,424.569,4.0845
12.20434,424.98,4.0843
12.246,425.403,4.0841
12.28766,425.815,4.0839
12.32934,426.245,4.0836
12.371,426.658,4.0834
12.41266,427.086,4.0832
12.45434,427.506,4.083
12.496,427.923,4.0828
12.53766,428.348,4.0826
12.57934,428.766,4.0823
12.621,429.184,4.0821
12.66266,429.607,4.0819
12.70434,430.024,4.0817
12.746,430.443,4.0815
12.78766,430.861,4.0812
12.82934,431.282,4.0809
12.871,431.698,4.0806
12.91266,432.118,4.0803
12.95434,432.532,4.0801
12.996,432.952,4.0798
13.03766,433.369,4.0795
13.07934,433.792,4.0792
13.121,434.205,4.0788
13.16266,434.631,4.0785
13.20434,435.045,4.0782
13.246,435.46,4.0779
13.28766,435.883,4.0775
13.32934,436.303,4.0771
13.371,436.722,4.0767
13.41266,437.142,4.0763
13.45434,437.557,4.0758
13.496,437.98,4.0755
13.53766,438.4,4.0751
13.57934,438.816,4.0748
13.621,439.234,4.0744
13.66266,439.651,4.0739
13.70434,440.067,4.0734
13.746,440.489,4.073
13.78766,440.908,4.0726
13.82934,441.326,4.0721
13.871,441.746,4.0716
13.91266,442.162,4.0711
13.95434,442.577,4.0706
13.996,443.001,4.07
14.03766,443.418,4.0695
14.07934,443.841,4.0689
14.121,444.26,4.0684
14.16266,444.682,4.0678
14.20434,445.096,4.0672
14.246,445.511,4.0666
14.28766,445.931,4.066
14.32934,446.349,4.0653
14.371,446.77,4.0647
14.41266,447.187,4.0641
14.45434,447.604,4.0633
14.496,448.023,4.0626
14.53766,448.443,4.062
14.57934,448.858,4.0614
14.621,449.275,4.0607
14.66266,449.694,4.0599
14.70434,450.111,4.0591
14.746,450.527,4.0584
14.78766,450.946,4.0577
14.82934,451.361,4.057
14.871,451.781,4.0561
14.91266,452.192,4.0553
14.95434,452.607,4.0545
14.996,453.026,4.0536
15.03766,453.445,4.0528
15.07934,453.865,4.052
15.121,454.278,4.0511
15.16266,454.703,4.0503
15.20434,455.116,4.0494
15.246,455.54,4.0486
15.28766,455.947,4.0477
15.32934,456.37,4.0469
15.371,456.784,4.046
15.41266,457.2,4.0451
15.45434,457.622,4.0443
15.496,458.046,4.0435
15.53766,458.458,4.0425
15.57934,458.878,4.0417
15.621,459.294,4.0409
15.66266,459.711,4.04
15.70434,460.126,4.0391
15.746,460.542,4.0382
15.78766,460.965,4.0373
15.82934,461.382,4.0365
15.871,461.799,4.0356
15.91266,462.213,4.0347
15.95434,462.639,4.0339
15.996,463.056,4.0331
16.03766,463.469,4.0322
16.07934,463.891,4.0314
16.121,464.307,4.0306
16.16266,464.727,4.0297
16.20434,465.141,4.0289
16.246,465.563,4.0281
16.28766,465.982,4.0274
16.32934,466.398,4.0266
16.371,466.814,4.0258
16.41266,467.231,4.025
16.45434,467.654,4.0241
16.496,468.07,4.0233
16.53766,468.488,4.0225
16.57934,468.907,4.0218
16.621,469.322,4.021
16.66266,469.74,4.0202
16.70434,470.158,4.0193
16.746,470.579,4.0185
16.78766,470.989,4.0177
16.82934,471.409,4.0169
16.871,471.825,4.0162
16.91266,472.243,4.0154
16.95434,472.659,4.0146
16.996,473.075,4.0138
17.03766,473.498,4.013
17.07934,473.906,4.0122
17.121,474.326,4.0114
17.16266,474.739,4.0106
17.20434,475.158,4.0098
17.246,475.579,4.0088
17.28766,475.992,4.008
17.32934,476.413,4.0072
17.371,476.825,4.0064
17.41266,477.243,4.0056
17.45434,477.66,4.0048
17.496,478.078,4.004
17.53766,478.495,4.0031
17.57934,478.919,4.0022
17.621,479.337,4.0015
17.66266,479.75,4.0007
17.70434,480.168,3.9999
17.746,480.59,3.9991
17.78766,481.009,3.9983
17.82934,481.428,3.9975
17.871,481.847,3.9967
17.91266,482.262,3.996
17.95434,482.677,3.9953
17.996,483.098,3.9946
18.03766,483.514,3.994
18.07934,483.93,3.9932
18.121,484.351,3.9925
18.16266,484.762,3.9919
18.20434,485.182,3.9913
18.246,485.596,3.9906
18.28766,486.013,3.99
18.32934,486.432,3.9894
18.371,486.848,3.9889
18.41266,487.264,3.9883
18.45434,487.682,3.9878
18.496,488.1,3.9873
18.53766,488.518,3.9868
18.57934,488.933,3.9862
18.621,489.351,3.9858
18.66266,489.77,3.9854
18.70434,490.186,3.9849
18.746,490.601,3.9844
18.78766,491.022,3.984
18.82934,491.438,3.9837
18.871,491.855,3.9833
18.91266,492.277,3.983
18.95434,492.688,3.9826
18.996,493.111,3.9822
19.03766,493.53,3.982
19.07934,493.942,3.9817
19.121,494.365,3.9814
19.16266,494.782,3.981
19.20434,495.191,3.9808
19.246,495.607,3.9805
19.28766,496.028,3.9802
19.32934,496.446,3.98
19.371,496.865,3.9798
19.41266,497.278,3.9796
19.45434,497.692,3.9794
19.496,498.114,3.9792
19.53766,498.526,3.9789
19.57934,498.945,3.9787
19.621,499.364,3.9786
19.66266,499.78,3.9784
19.70434,500.194,3.9783
19.746,500.614,3.9781
19.78766,501.032,3.9779
19.82934,501.453,3.9777
19.871,501.87,3.9775
19.91266,502.283,3.9775
19.95434,502.699,3.9775
19.996,503.116,3.9772
20.03766,503.526,3.977
20.07934,503.953,3.9769
20.121,504.364,3.9768
20.16266,504.781,3.9765
20.20434,505.191,3.9762
20.246,505.603,3.976
20.28766,506.019,3.9759
20.32934,506.439,3.9757
20.371,506.853,3.9756
20.41266,507.269,3.9754
20.45434,507.685,3.9753
20.496,508.102,3.9751
20.53766,508.513,3.9748
20.57934,508.93,3.9747
20.621,509.347,3.9745
20.66266,509.765,3.9744
20.70434,510.18,3.9742
20.746,510.597,3.974
20.78766,511.013,3.9738
20.82934,511.428,3.9736
20.871,511.844,3.9734
20.91266,512.258,3.9733
20.95434,512.676,3.9731
20.996,513.088,3.9729
21.03766,513.503,3.9727
21.07934,513.924,3.9724
21.121,514.338,3.9723
21.16266,514.749,3.972
21.20434,515.168,3.9717
21.246,515.58,3.9715
21.28766,516,3.9712
21.32934,516.414,3.971
21.371,516.829,3.9708
21.41266,517.242,3.9706
21.45434,517.653,3.9703
21.496,518.07,3.9701
21.53766,518.486,3.9698
21.57934,518.903,3.9696
21.621,519.317,3.9693
21.66266,519.733,3.969
21.70434,520.146,3.9687
21.746,520.563,3.9684
21.78766,520.973,3.9681
21.82934,521.394,3.9678
21.871,521.809,3.9675
21.91266,522.225,3.9672
21.95434,522.646,3.9668
21.996,523.058,3.9665
22.03766,523.472,3.9662
22.07934,523.883,3.9658
22.121,524.302,3.9654
22.16266,524.72,3.965
22.20434,525.133,3.9647
22.246,525.55,3.9644
22.28766,525.966,3.9639
22.32934,526.378,3.9636
22.371,526.792,3.9632
22.41266,527.208,3.9628
22.45434,527.624,3.9623
22.496,528.044,3.962
22.53766,528.457,3.9615
22.57934,528.869,3.961
22.621,529.285,3.9605
22.66266,529.702,3.9601
22.70434,530.118,3.9596
22.746,530.537,3.9592
22.78766,530.956,3.9588
22.82934,531.365,3.9582
22.871,531.779,3.9576
22.91266,532.188,3.9571
22.95434,532.607,3.9566
22.996,533.023,3.9562
23.03766,533.429,3.9557
23.07934,533.85,3.9551
23.121,534.263,3.9545
23.16266,534.678,3.9539
23.20434,535.094,3.9533
23.246,535.507,3.9527
23.28766,535.918,3.9521
23.32934,536.335,3.9515
23.371,536.75,3.9509
23.41266,537.166,3.9504
23.45434,537.576,3.9498
23.496,537.992,3.9491
23.53766,538.402,3.9483
23.57934,538.817,3.9477
23.621,539.238,3.947
23.66266,539.648,3.9463
23.70434,540.058,3.9456
23.746,540.476,3.9448
23.78766,540.89,3.944
23.82934,541.306,3.9433
23.871,541.721,3.9425
23.91266,542.141,3.9418
23.95434,542.551,3.941
23.996,542.964,3.94
24.03766,543.38,3.9391
24.07934,543.798,3.9384
24.121,544.212,3.9376
24.16266,544.619,3.9366
24.20434,545.034,3.9357
24.246,545.45,3.9348
24.28766,545.862,3.9337
24.32934,546.277,3.9329
24.371,546.69,3.9319
24.41266,547.107,3.9309
24.45434,547.519,3.9298
24.496,547.934,3.9287
24.53766,548.347,3.9276
24.57934,548.758,3.9265
24.621,549.172,3.9255
24.66266,549.59,3.9244
24.70434,550.003,3.9233
24.746,550.414,3.9221
24.78766,550.83,3.9208
24.82934,551.245,3.9196
24.871,551.658,3.9185
24.91266,552.07,3.9172
24.95434,552.484,3.9159
24.996,552.901,3.9146
25.03766,553.314,3.9133
25.07934,553.726,3.912
25.121,554.144,3.9107
25.16266,554.56,3.9094
25.20434,554.971,3.908
25.246,555.387,3.9064
25.28766,555.798,3.905
25.32934,556.215,3.9036
25.371,556.631,3.9021
25.41266,557.041,3.9006
25.45434,557.454,3.8991
25.496,557.871,3.8975
25.53766,558.284,3.896
25.57934,558.702,3.8944
25.621,559.111,3.8928
25.66266,559.528,3.8911
25.70434,559.942,3.8895
25.746,560.354,3.8879
25.78766,560.768,3.8862
25.82934,561.174,3.8845
25.871,561.594,3.8828
25.91266,562.01,3.8811
25.95434,562.423,3.8794
25.996,562.839,3.8776
26.03766,563.252,3.8758
26.07934,563.661,3.874
26.121,564.073,3.8722
26.16266,564.489,3.8703
26.20434,564.9,3.8685
26.246,565.314,3.8667
26.28766,565.728,3.8648
26.32934,566.144,3.8629
26.371,566.56,3.861
26.41266,566.974,3.8592
26.45434,567.385,3.8572
26.496,567.798,3.8553
26.53766,568.213,3.8534
26.57934,568.626,3.8514
26.621,569.039,3.8494
26.66266,569.454,3.8474
26.70434,569.865,3.8455
26.746,570.277,3.8434
26.78766,570.69,3.8413
26.82934,571.105,3.8392
26.871,571.515,3.8371
26.91266,571.931,3.835
26.95434,572.348,3.8329
26.996,572.758,3.8308
27.03766,573.172,3.8288
27.07934,573.59,3.8266
27.121,573.999,3.8244
27.16266,574.411,3.8222
27.20434,574.827,3.82
27.246,575.24,3.8178
27.28766,575.653,3.8154
27.32934,576.07,3.813
27.371,576.483,3.8108
27.41266,576.895,3.8084
27.45434,577.314,3.8061
27.496,577.723,3.8037
27.53766,578.136,3.8011
27.57934,578.548,3.7986
27.621,578.958,3.7962
27.66266,579.374,3.7937
27.70434,579.79,3.791
27.746,580.207,3.788
27.78766,580.621,3.7852
27.82934,581.031,3.7824
27.871,581.442,3.7798
27.91266,581.856,3.777
27.95434,582.271,3.7741
27.996,582.678,3.7711
28.03766,583.097,3.7682
28.07934,583.508,3.7653
28.121,583.922,3.7621
28.16266,584.334,3.7589
28.20434,584.747,3.7557
28.246,585.159,3.7525
28.28766,585.572,3.7492
28.32934,585.987,3.7458
28.371,586.395,3.7423
28.41266,586.811,3.7389
28.45434,587.223,3.7352
28.496,587.633,3.7314
28.53766,588.047,3.7276
28.57934,588.46,3.7238
28.621,588.875,3.7199
28.66266,589.291,3.7158
28.70434,589.702,3.7116
28.746,590.114,3.7074
28.78766,590.528,3.703
28.82934,590.94,3.6986
28.871,591.355,3.6942
28.91266,591.767,3.6894
28.95434,592.183,3.6847
28.996,592.592,3.6798
29.03766,593.009,3.6747
29.07934,593.419,3.6697
29.121,593.829,3.6646
29.16266,594.241,3.6592
29.20434,594.651,3.6536
29.246,595.062,3.6479
29.28766,595.475,3.6422
29.32934,595.88,3.6362
29.371,596.293,3.6302
29.41266,596.702,3.624
29.45434,597.111,3.6176
29.496,597.526,3.6111
29.53766,597.937,3.6044
29.57934,598.35,3.5975
29.621,598.758,3.5904
29.66266,599.168,3.5831
29.70434,599.577,3.5756
29.746,599.993,3.568
29.78766,600.401,3.5602
29.82934,600.812,3.5522
29.871,601.224,3.544
29.91266,601.631,3.5356
29.95434,602.041,3.5269
29.996,602.451,3.518
30.03766,602.861,3.5089
30.07934,603.265,3.4996
30.121,603.684,3.49
30.16266,604.091,3.4803
30.20434,604.505,3.4702
30.246,604.913,3.4599
30.28766,605.324,3.4493
30.32934,605.74,3.4384
30.371,606.145,3.4273
30.41266,606.552,3.416
30.45434,606.965,3.4043
30.496,607.373,3.3923
30.53766,607.779,3.3801
30.57934,608.193,3.3676
30.621,608.598,3.3547
30.66266,609.004,3.3416
30.70434,609.415,3.3283
30.746,609.825,3.3145
30.78766,610.229,3.3005
30.82934,610.64,3.2862
30.871,611.045,3.2716
30.91266,611.454,3.2566
30.95434,611.865,3.2412
30.996,612.271,3.2255
31.03766,612.684,3.2096
31.07934,613.09,3.1933
31.121,613.501,3.1767
31.16266,613.909,3.1597
31.20434,614.313,3.1422
31.246,614.722,3.1246
31.28766,615.131,3.1066
31.32934,615.538,3.0882
31.371,615.946,3.0695
31.41266,616.357,3.0503
31.45434,616.768,3.0309
31.496,617.173,3.0111
31.53766,617.577,2.991
31.57934,617.988,2.9706
31.621,618.394,2.9499
31.66266,618.798,2.9289
31.70434,619.208,2.9075
31.746,619.615,2.8857
31.78766,620.02,2.8636
31.82934,620.431,2.8411
31.871,620.84,2.8183
31.91266,621.245,2.7953
31.95434,621.648,2.7719
31.996,622.058,2.7482
32.03766,622.47,2.7243
32.07934,622.874,2.7
32.121,623.278,2.6754
32.16266,623.685,2.6505
32.20434,624.091,2.6254
32.246,624.5,2.5999
32.28766,624.907,2.5742
32.32934,625.312,2.5481
32.371,625.719,2.5218
32.41266,626.13,2.4953
32.45434,626.534,2.4686
32.496,626.945,2.4415
32.53766,627.352,2.4142
32.57934,627.759,2.3867
32.621,628.167,2.3589
32.66266,628.576,2.331
32.70434,628.985,2.3032
32.746,629.396,2.275
32.78766,629.808,2.2468
32.82933,630.219,2.2186
32.871,630.627,2.1904
32.91266,631.039,2.1619
32.95433,631.449,2.1327
32.996,631.859,2.1037
33.03766,632.271,2.075
33.07933,632.683,2.0463
33.121,633.093,2.0177
33.16266,633.505,1.989
33.20433,633.915,1.9599
33.246,634.327,1.9308
33.28766,634.739,1.9014
33.32933,635.148,1.872
33.371,635.567,1.843
33.41266,635.974,1.8139
33.45433,636.389,1.7848
33.496,636.804,1.7561
33.53766,637.217,1.7271
33.57933,637.628,1.6977
33.621,638.046,1.6692
33.66266,638.456,1.6411
33.70433,638.871,1.6123
33.746,639.283,1.5832
33.78766,639.697,1.5549
33.82933,640.113,1.5269
33.871,640.526,1.4986
33.91266,640.938,1.4713
33.95433,641.354,1.4433
33.996,641.768,1.4149
34.03766,642.188,1.3877
34.07933,642.598,1.3614
34.121,643.011,1.3347
34.16266,643.435,1.3066
34.20433,643.852,1.2801
34.246,644.262,1.2559
34.28766,644.674,1.231
34.32933,645.09,1.2009
34.371,645.509,1.1712
34.41266,645.923,1.1445
34.45433,646.341,1.1177
34.496,646.755,1.0932
34.53766,647.17,1.0681
34.57933,647.589,1.0403
34.621,648.004,1.0141
34.66266,648.419,0.9886
34.70433,648.837,0.9628
34.746,649.255,0.939
34.78766,649.67,0.9141
34.82933,650.088,0.8894
34.871,650.507,0.8661
34.91266,650.923,0.8429
34.95433,651.341,0.8186
34.996,651.759,0.7949
35.03766,652.176,0.7724
35.07933,652.595,0.7499
35.121,653.013,0.7277
35.16266,653.431,0.7061
35.20433,653.848,0.6849
35.246,654.267,0.6637
35.28766,654.686,0.643
35.32933,655.108,0.6226
35.371,655.523,0.6026
35.41266,655.94,0.5831
35.45433,656.358,0.564
35.496,656.778,0.5452
35.53766,657.201,0.5268
35.57933,657.622,0.5091
35.621,658.036,0.4918
35.66266,658.458,0.4748
35.70433,658.879,0.4583
35.746,659.296,0.4422
35.78766,659.712,0.4265
35.82933,660.133,0.4114
35.871,660.559,0.3966
35.91266,660.977,0.3822
35.95433,661.398,0.368
35.996,661.813,0.3542
36.03766,662.235,0.3408
36.07933,662.657,0.3278
36.121,663.08,0.3151
36.16266,663.501,0.3029
36.20433,663.92,0.291
36.246,664.338,0.2794
36.28766,664.759,0.2682
36.32933,665.176,0.2573
36.371,665.593,0.2467
36.41266,666.016,0.2365
36.45433,666.433,0.2264
36.496,666.854,0.2168
36.53766,667.27,0.2075
36.57933,667.698,0.1984
36.621,668.116,0.1896
36.66266,668.536,0.1812
36.70433,668.952,0.173
36.746,669.369,0.1651
36.78766,669.791,0.1574
36.82933,670.212,0.1501
36.871,670.627,0.143
36.91266,671.045,0.1362
36.95433,671.462,0.1296
36.996,671.882,0.1233
37.03766,672.3,0.1171
37.07933,672.716,0.1112
37.121,673.138,0.1055
37.16266,673.556,0.1
37.20433,673.975,0.0947
37.246,674.396,0.0896
37.28766,674.811,0.0848
37.32933,675.229,0.0801
37.371,675.647,0.0756
37.41266,676.068,0.0712
37.45433,676.482,0.0671
37.496,676.901,0.0631
37.53766,677.313,0.0592
37.57933,677.736,0.0555
37.621,678.15,0.0519
37.66266,678.566,0.0483
37.70433,678.986,0.045
37.746,679.405,0.0419
37.78766,679.821,0.0389
37.82933,680.236,0.0359
37.871,680.648,0.0332
37.91266,681.066,0.0306
37.95433,681.483,0.028
37.996,681.903,0.0255
38.03766,682.314,0.0231
38.07933,682.73,0.0209
38.121,683.149,0.0187
38.16266,683.563,0.0166
38.20433,683.98,0.0146
38.246,684.398,0.0127
38.28766,684.809,0.0109
38.32933,685.223,0.0091
38.371,685.64,0.0074
38.41266,686.053,0.0059
38.45433,686.469,0.0043
38.496,686.883,0.0028
38.53766,687.298,0.0014
38.57933,687.715,0.0001
38.621,688.132,-0.0011
38.66266,688.547,-0.0022
38.70433,688.961,-0.0034
38.746,689.377,-0.0046
38.78766,689.787,-0.0057
38.82933,690.201,-0.0066
38.871,690.617,-0.0076
38.91266,691.037,-0.0085
38.95433,691.451,-0.0093
38.996,691.864,-0.0102
39.03766,692.277,-0.011
39.07933,692.691,-0.0117
39.121,693.105,-0.0125
39.16266,693.52,-0.0131
39.20433,693.939,-0.0138
39.246,694.352,-0.0144
39.28766,694.764,-0.015
39.32933,695.175,-0.0155
39.371,695.597,-0.016
39.41266,696.005,-0.0166
39.45433,696.417,-0.0171
39.496,696.833,-0.0175
39.53766,697.243,-0.018
39.57933,697.661,-0.0184
39.621,698.075,-0.0187
39.66266,698.484,-0.0192
39.70433,698.9,-0.0196
39.746,699.315,-0.0199
39.78766,699.722,-0.0203
39.82933,700.142,-0.0205
39.871,700.555,-0.0207
39.91266,700.968,-0.021
39.95433,701.377,-0.0213
39.996,701.796,-0.0215
40.03766,702.206,-0.0217
40.07933,702.618,-0.0219
40.121,703.032,-0.0222
40.16266,703.443,-0.0223
40.20433,703.858,-0.0223
40.246,704.273,-0.0224
40.28766,704.69,-0.0225
40.32933,705.099,-0.0227
40.371,705.51,-0.0227
40.41266,705.924,-0.0228
40.45433,706.338,-0.0229
40.496,706.748,-0.023
40.53766,707.164,-0.023
40.57933,707.572,-0.023
40.621,707.99,-0.023
40.66266,708.4,-0.0231
40.70433,708.818,-0.0231
40.746,709.229,-0.023
40.78766,709.643,-0.023
40.82933,710.057,-0.023
40.871,710.469,-0.0231
40.91266,710.883,-0.0231
40.95433,711.294,-0.0231
40.996,711.706,-0.0232
41.03766,712.119,-0.0231
41.07934,712.534,-0.023
41.121,712.945,-0.023
41.16266,713.357,-0.0229
41.20434,713.775,-0.0229
41.246,714.186,-0.0229
41.28766,714.595,-0.023
41.32934,715.008,-0.0229
41.371,715.425,-0.0229
41.41266,715.838,-0.0229
41.45434,716.248,-0.0228
41.496,716.668,-0.0228
41.53766,717.075,-0.0228
41.57934,717.488,-0.0228
41.621,717.904,-0.0228
41.66266,718.319,-0.0227
41.70434,718.728,-0.0227
41.746,719.14,-0.0227
41.78766,719.558,-0.0226
41.82934,719.971,-0.0226
41.871,720.384,-0.0226
41.91266,720.794,-0.0226
41.95434,721.208,-0.0226
41.996,721.627,-0.0226
42.03766,722.036,-0.0225
42.07934,722.447,-0.0225
42.121,722.863,-0.0225
42.16266,723.272,-0.0225
42.20434,723.686,-0.0225
42.246,724.096,-0.0225
42.28766,724.514,-0.0224
42.32934,724.921,-0.0224
42.371,725.333,-0.0224
42.41266,725.748,-0.0223
42.45434,726.16,-0.0223
42.496,726.568,-0.0223
42.53766,726.985,-0.0223
42.57934,727.398,-0.0222
42.621,727.808,-0.0221
42.66266,728.221,-0.0221
42.70434,728.637,-0.0221
42.746,729.045,-0.0221
42.78766,729.458,-0.022
42.82934,729.873,-0.0219
42.871,730.286,-0.0219
42.91266,730.698,-0.0219
42.95434,731.111,-0.0219
42.996,731.525,-0.0218
43.03766,731.938,-0.0218
43.07934,732.351,-0.0218
43.121,732.761,-0.0217
43.16266,733.177,-0.0217
43.20434,733.588,-0.0216
43.246,734,-0.0217
43.28766,734.415,-0.0217
43.32934,734.83,-0.0217
43.371,735.24,-0.0216
43.41266,735.654,-0.0216
43.45434,736.064,-0.0215
43.496,736.479,-0.0215
43.53766,736.888,-0.0214
43.57934,737.305,-0.0214
43.621,737.716,-0.0214
43.66266,738.126,-0.0213
43.70434,738.538,-0.0213
43.746,738.952,-0.0213
43.78766,739.368,-0.0212
43.82934,739.779,-0.0212
43.871,740.193,-0.0211
43.91266,740.605,-0.0211
43.95434,741.017,-0.0212
43.996,741.43,-0.021
44.03766,741.841,-0.0209
44.07934,742.253,-0.0209
44.121,742.668,-0.021
44.16266,743.083,-0.0209
44.20434,743.49,-0.0208
44.246,743.904,-0.0208
44.28766,744.317,-0.0208
44.32934,744.734,-0.0208
44.371,745.145,-0.0208
44.41266,745.558,-0.0207
44.45434,745.97,-0.0207
44.496,746.382,-0.0206
44.53766,746.799,-0.0206
44.57934,747.208,-0.0206
44.621,747.625,-0.0206
44.66266,748.035,-0.0205
44.70434,748.445,-0.0204
44.746,748.867,-0.0204
44.78766,749.28,-0.0204
44.82934,749.692,-0.0204
44.871,750.102,-0.0203
44.91266,750.516,-0.0204
44.95434,750.928,-0.0204
44.996,751.335,-0.0203
45.03766,751.748,-0.0202
45.07934,752.161,-0.0201
45.121,752.572,-0.0201
45.16266,752.988,-0.0201
45.20434,753.4,-0.0201
45.246,753.811,-0.0201
45.28766,754.223,-0.02
45.32934,754.634,-0.02
45.371,755.047,-0.0199
45.41266,755.456,-0.02
45.45434,755.871,-0.0199
45.496,756.281,-0.0198
45.53766,756.688,-0.0198
45.57934,757.106,-0.0199
45.621,757.521,-0.0198
45.66266,757.929,-0.0197
45.70434,758.343,-0.0197
45.746,758.757,-0.0197
45.78766,759.17,-0.0196
45.82934,759.581,-0.0195
45.871,759.999,-0.0195
45.91266,760.409,-0.0196
45.95434,760.823,-0.0196
45.996,761.234,-0.0195
46.03766,761.65,-0.0196
46.07934,762.062,-0.0195
46.121,762.474,-0.0195
46.16266,762.89,-0.0195
46.20434,763.301,-0.0194
46.246,763.715,-0.0192
46.28766,764.128,-0.0192
46.32934,764.538,-0.0192
46.371,764.95,-0.0191
46.41266,765.363,-0.0191
46.45434,765.778,-0.0191
46.496,766.19,-0.019
46.53766,766.605,-0.0189
46.57934,767.02,-0.0189
46.621,767.432,-0.0189
46.66266,767.841,-0.0189
46.70434,768.256,-0.0189
46.746,768.673,-0.0188
46.78766,769.084,-0.0188
46.82934,769.499,-0.0187
46.871,769.907,-0.0187
46.91266,770.321,-0.0187
46.95434,770.734,-0.0187
46.996,771.151,-0.0186
47.03766,771.559,-0.0186
47.07934,771.972,-0.0186
47.121,772.389,-0.0186
47.16266,772.798,-0.0186
47.20434,773.212,-0.0185
47.246,773.626,-0.0185
47.28766,774.04,-0.0185
47.32934,774.447,-0.0184
47.371,774.86,-0.0184
47.41266,775.274,-0.0183
47.45434,775.683,-0.0183
47.496,776.096,-0.0184
47.53766,776.509,-0.0184
47.57934,776.922,-0.0183
47.621,777.337,-0.0182
47.66266,777.751,-0.0182
47.70434,778.166,-0.0181
47.746,778.571,-0.0181
47.78766,778.987,-0.0181
47.82934,779.4,-0.0181
47.871,779.81,-0.018
47.91266,780.224,-0.018
47.95434,780.635,-0.018
47.996,781.048,-0.018
48.03766,781.461,-0.0179
48.07934,781.875,-0.0179
48.121,782.285,-0.0179
48.16266,782.698,-0.0179
48.20434,783.114,-0.0178
48.246,783.526,-0.0177
48.28766,783.941,-0.0177
48.32934,784.356,-0.0178
48.371,784.761,-0.0177
48.41266,785.179,-0.0177
48.45434,785.59,-0.0177
48.496,786.005,-0.0177
48.53766,786.416,-0.0176
48.57934,786.83,-0.0175
48.621,787.243,-0.0176
48.66266,787.655,-0.0176
48.70434,788.068,-0.0176
48.746,788.481,-0.0175
48.78766,788.892,-0.0175
48.82934,789.304,-0.0175
48.871,789.722,-0.0174
48.91266,790.131,-0.0174
48.95434,790.549,-0.0174
48.996,790.963,-0.0174
49.03766,791.375,-0.0173
49.07934,791.785,-0.0173
49.121,792.196,-0.0172
49.16266,792.611,-0.0172
49.20434,793.026,-0.0172
49.246,793.441,-0.0173
49.28766,793.85,-0.0172
49.32934,794.267,-0.017
49.371,794.677,-0.017
49.41266,795.087,-0.0171
49.45434,795.499,-0.017
49.496,795.912,-0.0169
49.53766,796.326,-0.017
49.57934,796.739,-0.017
49.621,797.153,-0.0169
49.66266,797.562,-0.0168
49.70434,797.976,-0.0169
49.746,798.394,-0.0168
49.78766,798.804,-0.0168
49.82934,799.218,-0.0168
49.871,799.63,-0.0168
49.91266,800.046,-0.0167
49.95434,800.455,-0.0167
49.996,800.868,-0.0167
50.03766,801.283,-0.0167
50.07934,801.693,-0.0167
50.121,802.108,-0.0166
50.16266,802.52,-0.0166
50.20434,802.928,-0.0167
50.22934,803.176,-0.0166