File: Non-charring/PMMA/HKPolyU/HKPolyU_TGA_N2_2.csv
Time,Temperature,Mass
[s],[k],[mg]
0.15,300.048,4.189604
2.26,300.61,4.18934
4.76,301.167,4.189033
7.26,301.718,4.188735
9.76,302.282,4.188398
12.26,302.827,4.188034
14.76,303.3721,4.187721
17.26,303.916,4.187406
19.76,304.458,4.187145
22.26,304.994,4.186887
24.76,305.524,4.18667
27.26,306.048,4.186509
29.76,306.561,4.186287
32.26,307.083,4.186072
34.76,307.582,4.18591
37.26,308.0947,4.185809
39.76,308.591,4.185641
42.26,309.088,4.185494
44.76,309.581,4.185384
47.26,310.061,4.185272
49.76,310.532,4.185154
52.26,311.002,4.184952
54.76,311.472,4.184817
57.26,311.934,4.184684
59.76,312.392,4.184512
62.26,312.847,4.184316
64.76,313.282,4.184182
67.26,313.728,4.184088
69.76,314.167,4.184039
72.26,314.603,4.184052
74.76,315.022,4.18397
77.26,315.448,4.183852
79.76,315.866,4.183746
82.26,316.297,4.183671
84.76,316.71,4.183547
87.26,317.1207,4.183364
89.76,317.534,4.183256
92.26,317.939,4.183145
94.76,318.35,4.182964
97.26,318.754,4.18275
99.76,319.155,4.182622
102.26,319.553,4.18263
104.76,319.951,4.182574
107.26,320.3509,4.18245
109.76,320.743,4.18241
112.26,321.14,4.182432
114.76,321.53,4.182436
117.26,321.932,4.182324
119.76,322.325,4.182182
122.26,322.7231,4.182002
124.76,323.1152,4.181845
127.26,323.518,4.181772
129.76,323.911,4.181668
132.26,324.313,4.181602
134.76,324.711,4.181496
137.26,325.11,4.181356
139.76,325.505,4.181312
142.26,325.912,4.181204
144.76,326.314,4.181188
147.26,326.716,4.181277
149.76,327.1207,4.181132
152.26,327.524,4.180883
154.76,327.939,4.18075
157.26,328.344,4.180717
159.76,328.755,4.180685
162.26,329.163,4.180513
164.76,329.574,4.180411
167.26,329.989,4.180422
169.76,330.412,4.180392
172.26,330.829,4.180339
174.76,331.2522,4.18024
177.26,331.67,4.180164
179.76,332.087,4.180193
182.26,332.516,4.180156
184.76,332.9381,4.180031
187.26,333.364,4.179958
189.76,333.804,4.179848
192.26,334.226,4.179716
194.76,334.661,4.17968
197.26,335.089,4.179725
199.76,335.523,4.17959
202.26,335.951,4.17942
204.76,336.39,4.179341
207.26,336.824,4.179329
209.76,337.265,4.179254
212.26,337.7,4.179213
214.76,338.135,4.179218
217.26,338.572,4.179223
219.76,339.0086,4.17923
222.26,339.448,4.179154
224.76,339.8831,4.179105
227.26,340.3192,4.178942
229.76,340.763,4.178761
232.26,341.205,4.178806
234.76,341.643,4.178784
237.26,342.087,4.178756
239.76,342.517,4.178874
242.26,342.965,4.178961
244.76,343.392,4.17897
247.26,343.836,4.17884
249.76,344.268,4.178752
252.26,344.708,4.178692
254.76,345.154,4.17872
257.26,345.585,4.1787
259.76,346.0248,4.178502
262.26,346.454,4.178445
264.76,346.889,4.178461
267.26,347.331,4.178481
269.76,347.768,4.178454
272.26,348.198,4.178344
274.76,348.633,4.178331
277.26,349.067,4.178308
279.76,349.507,4.178322
282.26,349.934,4.178395
284.76,350.3639,4.178445
287.26,350.798,4.178424
289.76,351.23,4.178278
292.26,351.66,4.178146
294.76,352.095,4.17809
297.26,352.523,4.178105
299.76,352.95,4.178113
302.26,353.38,4.178164
304.76,353.805,4.178235
307.26,354.23,4.178226
309.76,354.655,4.17815
312.26,355.0804,4.178162
314.76,355.511,4.1782
317.26,355.931,4.178133
319.76,356.359,4.177994
322.26,356.786,4.177914
324.76,357.2059,4.177902
327.26,357.628,4.177861
329.76,358.049,4.177832
332.26,358.471,4.17785
334.76,358.897,4.177919
337.26,359.322,4.17793
339.76,359.746,4.177902
342.26,360.164,4.177956
344.76,360.591,4.17804
347.26,361.017,4.177994
349.76,361.433,4.177844
352.26,361.853,4.17775
354.76,362.275,4.177772
357.26,362.694,4.177766
359.76,363.114,4.177637
362.26,363.539,4.177534
364.76,363.957,4.177559
367.26,364.379,4.177567
369.76,364.795,4.177602
372.26,365.214,4.177654
374.76,365.639,4.177618
377.26,366.066,4.177618
379.76,366.485,4.17765
382.26,366.907,4.177631
384.76,367.325,4.177621
387.26,367.748,4.177661
389.76,368.169,4.177566
392.26,368.592,4.177471
394.76,369.0164,4.177469
397.26,369.439,4.177395
399.76,369.856,4.17735
402.26,370.2822,4.177329
404.76,370.709,4.17731
407.26,371.126,4.177308
409.76,371.551,4.177342
412.26,371.975,4.177428
414.76,372.4,4.17741
417.26,372.822,4.177355
419.76,373.2419,4.17729
422.26,373.6744,4.177246
424.76,374.0902,4.177228
427.26,374.5135,4.177106
429.76,374.9413,4.177063
432.26,375.3667,4.177087
434.76,375.7835,4.177119
437.26,376.2129,4.177078
439.76,376.6376,4.177097
442.26,377.0639,4.177174
444.76,377.4867,4.177094
447.26,377.9139,4.177094
449.76,378.3455,4.177089
452.26,378.7676,4.177006
454.76,379.1915,4.176952
457.26,379.6162,4.176948
459.76,380.0406,4.17692
462.26,380.4676,4.17677
464.76,380.8907,4.176666
467.26,381.3118,4.176636
469.76,381.7402,4.176566
472.26,382.1685,4.17651
474.76,382.5903,4.176476
477.26,383.0122,4.176442
479.76,383.4395,4.176408
482.26,383.8615,4.176534
484.76,384.2881,4.176722
487.26,384.7108,4.176716
489.76,385.1364,4.176734
492.26,385.5666,4.176734
494.76,385.9888,4.176657
497.26,386.4058,4.176607
499.76,386.8351,4.176514
502.26,387.2599,4.176374
504.76,387.6909,4.176285
507.26,388.1132,4.176267
509.76,388.5318,4.176209
512.26,388.9549,4.176135
514.76,389.3751,4.176069
517.26,389.7971,4.176019
519.76,390.2258,4.17597
522.26,390.6451,4.175961
524.76,391.0704,4.175985
527.26,391.4915,4.175958
529.76,391.9127,4.175924
532.26,392.3388,4.17584
534.76,392.7557,4.175638
537.26,393.1784,4.175546
539.76,393.6015,4.175484
542.26,394.0244,4.175369
544.76,394.4435,4.175313
547.26,394.869,4.17523
549.76,395.2874,4.175128
552.26,395.7104,4.175059
554.76,396.1346,4.175048
557.26,396.567,4.17505
559.76,396.9829,4.174981
562.26,397.4074,4.174878
564.76,397.8315,4.174778
567.26,398.2556,4.17467
569.76,398.6751,4.1745
572.26,399.0933,4.17431
574.76,399.5175,4.174096
577.26,399.9391,4.173955
579.76,400.362,4.173892
582.26,400.7811,4.173834
584.76,401.2018,4.173725
587.26,401.6198,4.173566
589.76,402.0405,4.173534
592.26,402.4591,4.173428
594.76,402.8805,4.173242
597.26,403.2987,4.173134
599.76,403.7146,4.173039
602.26,404.142,4.172885
604.76,404.5659,4.172727
607.26,404.9836,4.172536
609.76,405.4043,4.172309
612.26,405.8221,4.172168
614.76,406.246,4.171947
617.26,406.6612,4.171741
619.76,407.0799,4.171645
622.26,407.5023,4.17144
624.76,407.9252,4.171225
627.26,408.3499,4.17106
629.76,408.768,4.17093
632.26,409.1887,4.170876
634.76,409.6124,4.170745
637.26,410.0338,4.170571
639.76,410.4532,4.170439
642.26,410.8703,4.170235
644.76,411.2953,4.169974
647.26,411.7154,4.169766
649.76,412.1316,4.169648
652.26,412.5586,4.169492
654.76,412.9809,4.169316
657.26,413.4005,4.169076
659.76,413.8241,4.168898
662.26,414.245,4.168782
664.76,414.6643,4.168536
667.26,415.0792,4.168336
669.76,415.4995,4.168133
672.26,415.9171,4.167913
674.76,416.3446,4.167783
677.26,416.7628,4.167568
679.76,417.1811,4.167316
682.26,417.6036,4.167133
684.76,418.0272,4.166953
687.26,418.4476,4.16676
689.76,418.8618,4.166587
692.26,419.2895,4.166391
694.76,419.7061,4.166174
697.26,420.1304,4.16601
699.76,420.5512,4.165808
702.26,420.968,4.165555
704.76,421.3884,4.16538
707.26,421.8078,4.165165
709.76,422.2251,4.164913
712.26,422.6463,4.16475
714.76,423.0669,4.164406
717.26,423.4858,4.16411
719.76,423.908,4.16396
722.26,424.3324,4.163693
724.76,424.7565,4.163402
727.26,425.1708,4.163113
729.76,425.5996,4.16291
732.26,426.0117,4.162736
734.76,426.4331,4.162507
737.26,426.8589,4.16222
739.76,427.2762,4.161938
742.26,427.6922,4.161742
744.76,428.1171,4.161506
747.26,428.5335,4.161182
749.76,428.9537,4.16086
752.26,429.3713,4.160542
754.76,429.7891,4.160168
757.26,430.2142,4.159838
759.76,430.6347,4.15959
762.26,431.0574,4.159238
764.76,431.4729,4.15884
767.26,431.8886,4.15855
769.76,432.3131,4.158194
772.26,432.7304,4.157797
774.76,433.1543,4.15745
777.26,433.5716,4.157089
779.76,433.9863,4.156745
782.26,434.4055,4.156411
784.76,434.8286,4.15604
787.26,435.2527,4.155646
789.76,435.6695,4.15516
792.26,436.0891,4.154664
794.76,436.5013,4.154236
797.26,436.9216,4.153846
799.76,437.3362,4.15342
802.26,437.7519,4.152906
804.76,438.1722,4.152412
807.26,438.5959,4.151924
809.76,439.0122,4.15144
812.26,439.429,4.150926
814.76,439.8496,4.150372
817.26,440.2652,4.149817
819.76,440.6874,4.149262
822.26,441.1009,4.148718
824.76,441.5217,4.148133
827.26,441.9436,4.14759
829.76,442.3594,4.147031
832.26,442.779,4.146414
834.76,443.195,4.145766
837.26,443.6166,4.145085
839.76,444.0322,4.144398
842.26,444.4505,4.143676
844.76,444.8772,4.143041
847.26,445.295,4.1424
849.76,445.71,4.141684
852.26,446.1306,4.140971
854.76,446.551,4.140156
857.26,446.9668,4.139291
859.76,447.3849,4.138535
862.26,447.8027,4.13776
864.76,448.2224,4.136918
867.26,448.6377,4.136082
869.76,449.0573,4.135196
872.26,449.474,4.134392
874.76,449.8901,4.133588
877.26,450.3164,4.132657
879.76,450.7373,4.131863
882.26,451.1527,4.13102
884.76,451.5746,4.130069
887.26,451.9912,4.129148
889.76,452.4078,4.128206
892.26,452.8293,4.127359
894.76,453.2401,4.126456
897.26,453.6584,4.125507
899.76,454.0808,4.124594
902.26,454.4936,4.123641
904.76,454.9125,4.122704
907.26,455.3356,4.121759
909.76,455.7511,4.120786
912.26,456.1704,4.119794
914.76,456.5875,4.118868
917.26,457.0095,4.117958
919.76,457.4262,4.116972
922.26,457.8402,4.116022
924.76,458.2628,4.115056
927.26,458.6825,4.114112
929.76,459.0984,4.113216
932.26,459.5148,4.112128
934.76,459.9345,4.111063
937.26,460.3482,4.110181
939.76,460.7657,4.109366
942.26,461.1848,4.108448
944.76,461.6041,4.107459
947.26,462.0267,4.106544
949.76,462.4404,4.105578
952.26,462.8562,4.1047
954.76,463.2748,4.103782
957.26,463.6974,4.102822
959.76,464.1198,4.101992
962.26,464.533,4.101084
964.76,464.9548,4.100133
967.26,465.3746,4.099238
969.76,465.7974,4.098338
972.26,466.2103,4.097438
974.76,466.6301,4.09652
977.26,467.0439,4.095666
979.76,467.4612,4.094798
982.26,467.8772,4.093872
984.76,468.2982,4.092952
987.26,468.713,4.092036
989.76,469.1312,4.091145
992.26,469.5471,4.090302
994.76,469.9651,4.089452
997.26,470.3808,4.08855
999.76,470.7982,4.08766
1002.26,471.2191,4.086726
1004.76,471.6358,4.085776
1007.26,472.0513,4.08484
1009.76,472.4672,4.08384
1012.26,472.8855,4.082916
1014.76,473.3023,4.08197
1017.26,473.7207,4.080951
1019.76,474.1336,4.080019
1022.26,474.5547,4.079067
1024.76,474.9713,4.078022
1027.26,475.3861,4.076994
1029.76,475.8076,4.076079
1032.26,476.2236,4.075088
1034.76,476.6411,4.074039
1037.26,477.0556,4.072994
1039.76,477.4726,4.072015
1042.26,477.8926,4.071146
1044.76,478.3086,4.070153
1047.26,478.7271,4.069125
1049.76,479.1438,4.068146
1052.26,479.5607,4.06715
1054.76,479.9826,4.0661
1057.26,480.4003,4.065138
1059.76,480.8189,4.064224
1062.26,481.2354,4.063247
1064.76,481.6468,4.062282
1067.26,482.0712,4.061369
1069.76,482.4865,4.060463
1072.26,482.9074,4.059536
1074.76,483.3262,4.058684
1077.26,483.7408,4.057836
1079.76,484.1592,4.056908
1082.26,484.5778,4.056079
1084.76,485.0023,4.055352
1087.26,485.4184,4.054598
1089.76,485.8383,4.053816
1092.26,486.2541,4.052986
1094.76,486.673,4.052282
1097.26,487.0919,4.051588
1099.76,487.508,4.050886
1102.26,487.9272,4.050278
1104.76,488.3468,4.049565
1107.26,488.7636,4.048878
1109.76,489.1776,4.048348
1112.26,489.5944,4.047785
1114.76,490.0165,4.047138
1117.26,490.4363,4.046642
1119.76,490.8494,4.046162
1122.26,491.2616,4.04557
1124.76,491.677,4.045208
1127.26,492.0941,4.044826
1129.76,492.5115,4.044353
1132.26,492.93,4.044028
1134.76,493.348,4.043684
1137.26,493.767,4.043347
1139.76,494.1814,4.042878
1142.26,494.5984,4.04246
1144.76,495.0167,4.042168
1147.26,495.4356,4.041863
1149.76,495.8546,4.04157
1152.26,496.2684,4.041208
1154.76,496.6822,4.040938
1157.26,497.099,4.040691
1159.76,497.5131,4.040428
1162.26,497.936,4.04018
1164.76,498.3542,4.039946
1167.26,498.772,4.039664
1169.76,499.1951,4.039404
1172.26,499.607,4.03916
1174.76,500.0202,4.03887
1177.26,500.4406,4.038649
1179.76,500.8582,4.038465
1182.26,501.2748,4.038239
1184.76,501.696,4.03802
1187.26,502.1116,4.037825
1189.76,502.5265,4.037625
1192.26,502.9496,4.037395
1194.76,503.3643,4.037144
1197.26,503.7846,4.036902
1199.76,504.1938,4.03677
1202.26,504.6121,4.036726
1204.76,505.028,4.036597
1207.26,505.4497,4.036325
1209.76,505.8623,4.03612
1212.26,506.273,4.035931
1214.76,506.6933,4.035672
1217.26,507.1087,4.035479
1219.76,507.5242,4.035262
1222.26,507.94,4.035042
1224.76,508.353,4.034846
1227.26,508.7741,4.034608
1229.76,509.1922,4.034378
1232.26,509.6068,4.034144
1234.76,510.0238,4.03386
1237.26,510.44,4.03358
1239.76,510.8506,4.03341
1242.26,511.2668,4.033252
1244.76,511.6815,4.033034
1247.26,512.0998,4.032814
1249.76,512.5116,4.032591
1252.26,512.9283,4.032367
1254.76,513.3444,4.032105
1257.26,513.7573,4.031819
1259.76,514.171,4.03154
1262.26,514.5911,4.031256
1264.76,515.0108,4.031032
1267.26,515.4211,4.030789
1269.76,515.8362,4.03043
1272.26,516.2526,4.030094
1274.76,516.6699,4.02977
1277.26,517.0834,4.02953
1279.76,517.5013,4.02927
1282.26,517.9191,4.02888
1284.76,518.3265,4.02853
1287.26,518.7432,4.02822
1289.76,519.1558,4.027874
1292.26,519.5764,4.027496
1294.76,519.9854,4.02711
1297.26,520.402,4.026836
1299.76,520.817,4.02655
1302.26,521.2328,4.026137
1304.76,521.649,4.025741
1307.26,522.0674,4.02532
1309.76,522.4759,4.024956
1312.26,522.902,4.024594
1314.76,523.3139,4.024131
1317.26,523.737,4.02367
1319.76,524.1455,4.023242
1322.26,524.5672,4.02284
1324.76,524.9762,4.022342
1327.26,525.3968,4.021884
1329.76,525.8039,4.021373
1332.26,526.2218,4.020856
1334.76,526.6358,4.020422
1337.26,527.0561,4.019888
1339.76,527.4685,4.01936
1342.26,527.8869,4.018946
1344.76,528.299,4.018498
1347.26,528.715,4.017937
1349.76,529.1272,4.017394
1352.26,529.5377,4.016859
1354.76,529.957,4.016334
1357.26,530.3758,4.015736
1359.76,530.7899,4.015114
1362.26,531.2004,4.014526
1364.76,531.6174,4.013855
1367.26,532.0364,4.013222
1369.76,532.4516,4.012594
1372.26,532.8669,4.011926
1374.76,533.2816,4.011268
1377.26,533.6929,4.010632
1379.76,534.111,4.009933
1382.26,534.5264,4.0092
1384.76,534.9374,4.00854
1387.26,535.3581,4.007825
1389.76,535.767,4.007053
1392.26,536.1876,4.006339
1394.76,536.6017,4.005598
1397.26,537.0178,4.004864
1399.76,537.4328,4.004128
1402.26,537.8454,4.003296
1404.76,538.2613,4.002496
1407.26,538.6748,4.001743
1409.76,539.0901,4.00084
1412.26,539.5073,3.999862
1414.76,539.9195,3.999019
1417.26,540.335,3.998106
1419.76,540.7505,3.997131
1422.26,541.1654,3.996238
1424.76,541.5772,3.995308
1427.26,541.9962,3.994336
1429.76,542.4082,3.993466
1432.26,542.8188,3.99245
1434.76,543.232,3.991286
1437.26,543.6492,3.990156
1439.76,544.0646,3.98907
1442.26,544.48,3.988008
1444.76,544.895,3.98691
1447.26,545.3064,3.985828
1449.76,545.7159,3.984594
1452.26,546.135,3.983372
1454.76,546.5488,3.982225
1457.26,546.9674,3.980958
1459.76,547.3787,3.979739
1462.26,547.7936,3.978463
1464.76,548.2006,3.977116
1467.26,548.6271,3.97581
1469.76,549.0379,3.97448
1472.26,549.4544,3.973114
1474.76,549.8654,3.971652
1477.26,550.2854,3.970144
1479.76,550.6936,3.968704
1482.26,551.1105,3.967186
1484.76,551.5205,3.96562
1487.26,551.932,3.964061
1489.76,552.3524,3.962534
1492.26,552.7648,3.960964
1494.76,553.1788,3.959278
1497.26,553.5938,3.957619
1499.76,554.0078,3.955862
1502.26,554.426,3.954105
1504.76,554.8404,3.952383
1507.26,555.2541,3.950683
1509.76,555.6641,3.94893
1512.26,556.0798,3.947021
1514.76,556.4946,3.945211
1517.26,556.9095,3.943341
1519.76,557.3256,3.941356
1522.26,557.7344,3.939485
1524.76,558.1459,3.937586
1527.26,558.559,3.935656
1529.76,558.9747,3.9337
1532.26,559.3885,3.931654
1534.76,559.8023,3.929528
1537.26,560.2174,3.927389
1539.76,560.632,3.925339
1542.26,561.042,3.923274
1544.76,561.4542,3.92117
1547.26,561.871,3.919035
1549.76,562.285,3.91688
1552.26,562.695,3.914765
1554.76,563.1119,3.912552
1557.26,563.5269,3.910232
1559.76,563.9389,3.907952
1562.26,564.3511,3.905701
1564.76,564.7688,3.903374
1567.26,565.1764,3.90101
1569.76,565.5896,3.898657
1572.26,566.0033,3.896228
1574.76,566.4175,3.893828
1577.26,566.8359,3.891482
1579.76,567.2492,3.889026
1582.26,567.6678,3.886596
1584.76,568.0775,3.884134
1587.26,568.4944,3.881604
1589.76,568.9025,3.879165
1592.26,569.3166,3.876634
1594.76,569.7305,3.874055
1597.26,570.1444,3.871456
1599.76,570.5572,3.868789
1602.26,570.9655,3.866133
1604.76,571.3853,3.863489
1607.26,571.7984,3.860858
1609.76,572.2094,3.85825
1612.26,572.6258,3.85558
1614.76,573.0382,3.852769
1617.26,573.4524,3.849951
1619.76,573.8688,3.847264
1622.26,574.2802,3.844512
1624.76,574.6951,3.841598
1627.26,575.1104,3.838648
1629.76,575.5252,3.835656
1632.26,575.9362,3.832771
1634.76,576.3489,3.829836
1637.26,576.7631,3.826784
1639.76,577.174,3.823754
1642.26,577.589,3.820676
1644.76,578.0007,3.817559
1647.26,578.4137,3.814381
1649.76,578.8275,3.811061
1652.26,579.2447,3.807683
1654.76,579.6581,3.804425
1657.26,580.0694,3.801136
1659.76,580.4826,3.797644
1662.26,580.8935,3.794136
1664.76,581.3074,3.790604
1667.26,581.7169,3.786958
1669.76,582.1332,3.783247
1672.26,582.5471,3.779492
1674.76,582.96,3.775647
1677.26,583.3756,3.771672
1679.76,583.785,3.767748
1682.26,584.1997,3.763786
1684.76,584.6102,3.759616
1687.26,585.0281,3.755369
1689.76,585.439,3.751052
1692.26,585.8492,3.74665
1694.76,586.2631,3.74225
1697.26,586.6789,3.737676
1699.76,587.0858,3.732799
1702.26,587.5026,3.728004
1704.76,587.9118,3.723282
1707.26,588.3306,3.718312
1709.76,588.7425,3.713178
1712.26,589.1532,3.708056
1714.76,589.5668,3.702795
1717.26,589.9833,3.69732
1719.76,590.3893,3.691778
1722.26,590.8058,3.686139
1724.76,591.2167,3.68037
1727.26,591.6273,3.674456
1729.76,592.0374,3.668361
1732.26,592.4555,3.662208
1734.76,592.8654,3.655925
1737.26,593.2766,3.649454
1739.76,593.6914,3.642822
1742.26,594.0963,3.636087
1744.76,594.5089,3.629318
1747.26,594.9257,3.622307
1749.76,595.3365,3.61501
1752.26,595.7463,3.607586
1754.76,596.1575,3.600094
1757.26,596.5711,3.592368
1759.76,596.981,3.584425
1762.26,597.3898,3.576384
1764.76,597.801,3.5682
1767.26,598.2086,3.559782
1769.76,598.6211,3.551118
1772.26,599.0332,3.542292
1774.76,599.4413,3.533274
1777.26,599.8548,3.524054
1779.76,600.2666,3.514594
1782.26,600.6725,3.504931
1784.76,601.0856,3.495056
1787.26,601.4946,3.484918
1789.76,601.904,3.474672
1792.26,602.3088,3.464168
1794.76,602.7168,3.453303
1797.26,603.1285,3.442178
1799.76,603.5358,3.43084
1802.26,603.9464,3.419285
1804.76,604.3557,3.407471
1807.26,604.7671,3.395431
1809.76,605.1788,3.383072
1812.26,605.5897,3.370379
1814.76,605.9975,3.3574
1817.26,606.401,3.344195
1819.76,606.8116,3.330718
1822.26,607.221,3.31695
1824.76,607.6274,3.302906
1827.26,608.0372,3.288568
1829.76,608.4473,3.2738
1832.26,608.8546,3.258742
1834.76,609.2639,3.243442
1837.26,609.6806,3.227728
1839.76,610.085,3.211755
1842.26,610.4966,3.195434
1844.76,610.9042,3.178656
1847.26,611.3109,3.161643
1849.76,611.716,3.144339
1852.26,612.1275,3.126598
1854.76,612.5297,3.108644
1857.26,612.9403,3.090262
1859.76,613.3512,3.071453
1862.26,613.759,3.052365
1864.76,614.171,3.032905
1867.26,614.5754,3.013113
1869.76,614.9843,2.992974
1872.26,615.3919,2.972391
1874.76,615.7989,2.951494
1877.26,616.205,2.93034
1879.76,616.61,2.908765
1882.26,617.0224,2.886725
1884.76,617.4314,2.864406
1887.26,617.8356,2.841788
1889.76,618.2428,2.818735
1892.26,618.6487,2.795404
1894.76,619.0553,2.771802
1897.26,619.4634,2.74775
1899.76,619.8648,2.72332
1902.26,620.2738,2.698564
1904.76,620.6789,2.673474
1907.26,621.0866,2.648146
1909.76,621.493,2.622436
1912.26,621.9026,2.596367
1914.76,622.3078,2.569977
1917.26,622.715,2.543276
1919.76,623.1232,2.516233
1922.26,623.5256,2.488862
1924.76,623.9348,2.461225
1927.26,624.3408,2.433323
1929.76,624.7489,2.405192
1932.26,625.1517,2.37667
1934.76,625.5554,2.347841
1937.26,625.9678,2.318789
1939.76,626.3758,2.28949
1942.26,626.7867,2.259944
1944.76,627.191,2.230158
1947.26,627.6045,2.200226
1949.76,628.0119,2.170067
1952.26,628.4191,2.139795
1954.76,628.8314,2.109338
1957.26,629.2377,2.078753
1959.76,629.648,2.048082
1962.26,630.0575,2.017198
1964.76,630.4706,1.986198
1967.26,630.8819,1.955185
1969.76,631.291,1.924014
1972.26,631.6963,1.892486
1974.76,632.1122,1.860862
1977.26,632.5285,1.829408
1979.76,632.9396,1.797978
1982.26,633.35,1.766458
1984.76,633.7619,1.735054
1987.26,634.174,1.703721
1989.76,634.587,1.672182
1992.26,635.001,1.640608
1994.76,635.416,1.609592
1997.26,635.8325,1.57899
1999.76,636.2399,1.548109
2002.26,636.656,1.517171
2004.76,637.0707,1.486542
2007.26,637.4802,1.455359
2009.76,637.8864,1.422573
2012.26,638.3026,1.390211
2014.76,638.7169,1.358524
2017.26,639.1378,1.326636
2019.76,639.5496,1.295408
2022.26,639.9645,1.265077
2024.76,640.3797,1.235296
2027.26,640.7958,1.20644
2029.76,641.2067,1.177847
2032.26,641.6241,1.14667
2034.76,642.0378,1.115384
2037.26,642.4524,1.084261
2039.76,642.8605,1.05344
2042.26,643.2779,1.023754
2044.76,643.693,0.9938765
2047.26,644.1097,0.9647501
2049.76,644.5262,0.9345184
2052.26,644.9406,0.90478
2054.76,645.3572,0.8760304
2057.26,645.7706,0.8468561
2059.76,646.1886,0.8182148
2062.26,646.607,0.7898804
2064.76,647.0217,0.7632774
2067.26,647.4368,0.7354031
2069.76,647.8528,0.7064284
2072.26,648.2726,0.6783464
2074.76,648.6871,0.6507984
2077.26,649.1036,0.6243199
2079.76,649.5258,0.5979859
2082.26,649.9363,0.5712473
2084.76,650.3574,0.5448896
2087.26,650.7764,0.5197066
2089.76,651.1922,0.4947044
2092.26,651.6125,0.4699602
2094.76,652.0272,0.4452668
2097.26,652.4512,0.4208622
2099.76,652.87,0.3969956
2102.26,653.282,0.3733541
2104.76,653.7031,0.3499058
2107.26,654.1217,0.3269012
2109.76,654.5448,0.3043213
2112.26,654.966,0.2821701
2114.76,655.3825,0.2605381
2117.26,655.8029,0.2392918
2119.76,656.2225,0.2184753
2122.26,656.6426,0.1981514
2124.76,657.0618,0.1783265
2127.26,657.4811,0.1589617
2129.76,657.9028,0.1401185
2132.26,658.3187,0.1217941
2134.76,658.7379,0.1038077
2137.26,659.1571,0.08627656
2139.76,659.5832,0.06926501
2142.26,660.0021,0.05259313
2144.76,660.4241,0.03634131
2147.26,660.8424,0.02053518
2149.76,661.2634,0.00507283
2152.26,661.6859,-0.01002835
2154.76,662.1128,-0.02463077
2157.26,662.5288,-0.03882518
2159.76,662.9536,-0.05267364
2162.26,663.3719,-0.06607676
2164.76,663.7936,-0.07912741
2167.26,664.212,-0.09181336
2169.76,664.6336,-0.1041206
2172.26,665.0522,-0.116039
2174.76,665.4746,-0.1275707
2177.26,665.892,-0.138754
2179.76,666.3131,-0.1496182
2182.26,666.7298,-0.1601692
2184.76,667.1488,-0.170386
2187.26,667.5738,-0.1802465
2189.76,667.9882,-0.1896866
2192.26,668.41,-0.1987096
2194.76,668.831,-0.2075563
2197.26,669.2494,-0.2161848
2199.76,669.6714,-0.2244109
2202.26,670.087,-0.23237
2204.76,670.512,-0.2400786
2207.26,670.932,-0.2475053
2209.76,671.3464,-0.2546592
2212.26,671.7662,-0.2615347
2214.76,672.1836,-0.2681566
2217.26,672.6024,-0.274581
2219.76,673.0195,-0.2808186
2222.26,673.4404,-0.2867742
2224.76,673.8553,-0.292471
2227.26,674.2763,-0.2979365
2229.76,674.696,-0.3032934
2232.26,675.112,-0.3084155
2234.76,675.5272,-0.3132269
2237.26,675.943,-0.317877
2239.76,676.3633,-0.3224867
2242.26,676.7804,-0.3269415
2244.76,677.1997,-0.3310511
2247.26,677.6143,-3.35E-01
2249.76,678.035,-3.39E-01
2252.26,678.4524,-3.43E-01
2254.76,678.868,-3.46E-01
2257.26,679.2863,-3.50E-01
2259.76,679.7025,-3.53E-01
2262.26,680.1225,-3.56E-01
2264.76,680.5396,-3.59E-01
2267.26,680.953,-3.62E-01
2269.76,681.373,-3.65E-01
2272.26,681.7896,-0.3673519
2274.76,682.2076,-0.369867
2277.26,682.6186,-0.3723484
2279.76,683.036,-0.374648
2282.26,683.4507,-0.3768306
2284.76,683.8644,-0.3790248
2287.26,684.282,-0.3811302
2289.76,684.6982,-0.383065
2292.26,685.1094,-0.3848973
2294.76,685.5256,-0.386652
2297.26,685.9437,-0.3883331
2299.76,686.3602,-0.3899278
2302.26,686.774,-0.3914885
2304.76,687.1882,-0.3930056
2307.26,687.6062,-0.3944694
2309.76,688.0206,-0.3958725
2312.26,688.4347,-0.3970671
2314.76,688.8569,-0.398252
2317.26,689.2674,-0.3995139
2319.76,689.6808,-0.4006915
2322.26,690.0945,-0.401742
2324.76,690.515,-0.4027709
2327.26,690.9281,-0.4037844
2329.76,691.342,-0.404705
2332.26,691.754,-0.4056235
2334.76,692.1691,-0.4064905
2337.26,692.5862,-0.4073076
2339.76,692.996,-0.4080475
2342.26,693.414,-0.408661
2344.76,693.8274,-0.4093548
2347.26,694.243,-0.4100422
2349.76,694.6578,-0.4106568
2352.26,695.0706,-0.4113025
2354.76,695.4817,-0.4119102
2357.26,695.8973,-0.4124069
2359.76,696.3089,-0.4129332
2362.26,696.7219,-0.4134358
2364.76,697.1361,-0.4139422
2367.26,697.5518,-0.4144198
2369.76,697.9648,-0.4147497
2372.26,698.38,-0.4150828
2374.76,698.7926,-0.4154489
2377.26,699.2047,-0.4158742
2379.76,699.616,-0.416266
2382.26,700.0363,-0.4165724
2384.76,700.4446,-0.4168774
2387.26,700.8604,-0.4171853
2389.76,701.2719,-0.4173832
2392.26,701.6873,-0.4175992
2394.76,702.1,-0.4178232
2397.26,702.5118,-0.4179851
2399.76,702.928,-0.418154
2402.26,703.3387,-0.4182578
2404.76,703.7524,-0.4183205
2407.26,704.1657,-0.4185
2409.76,704.5818,-0.418616
2412.26,704.9926,-0.4186218
2414.76,705.4096,-0.4187559
2417.26,705.8204,-0.4188922
2419.76,706.2309,-0.4188955
2422.26,706.6526,-0.4188991
2424.76,707.0664,-0.4189328
2427.26,707.4776,-0.4189419
2429.76,707.8929,-0.4190188
2432.26,708.3036,-0.41912
2434.76,708.7159,-0.419108
2437.26,709.1309,-0.4190574
2439.76,709.5471,-0.4189971
2442.26,709.9619,-0.4189549
2444.76,710.3738,-0.4190145
2447.26,710.7874,-0.4189821
2449.76,711.1977,-0.4189316
2452.26,711.6176,-0.4189665
2454.76,712.0324,-0.4190537
2457.26,712.4422,-0.419031
2459.76,712.8517,-0.4190105
2462.26,713.2663,-0.4190772
2464.76,713.6779,-0.4190454
2467.26,714.0876,-0.4189772
2469.76,714.505,-0.4189698
2472.26,714.915,-0.4189615
2474.76,715.3322,-0.4189394
2477.26,715.7464,-0.4189787
2479.76,716.157,-0.4189462
2482.26,716.5668,-0.4189362
2484.76,716.9844,-0.418957
2487.26,717.3921,-0.4189013
2489.76,717.8032,-0.4188836
2492.26,718.2196,-0.4189287
2494.76,718.6302,-0.4189037
2497.26,719.0459,-0.4188361
2499.76,719.4547,-0.4188033
2502.26,719.8709,-0.4187883
2504.76,720.2821,-0.4187728
2507.26,720.6972,-0.4187737
2509.76,721.1087,-0.4188135
2512.26,721.5186,-0.418801
2514.76,721.9317,-0.4187674
2517.26,722.345,-0.418738
2519.76,722.76,-0.4186731
2522.26,723.1722,-0.4187052
2524.76,723.583,-0.4187626
2527.26,723.9981,-0.4187452
2529.76,724.41,-0.4187021
2532.26,724.8228,-0.4187098
2534.76,725.2368,-0.4186994
2537.26,725.6463,-0.418688
2539.76,726.0597,-0.4186468
2542.26,726.4739,-0.4185309
2544.76,726.8846,-0.4185629
2547.26,727.2994,-0.4185782
2549.76,727.7159,-0.4185567
2552.26,728.1246,-0.4185753
2554.76,728.5358,-0.4185832
2557.26,728.9479,-0.4186081
2559.76,729.3594,-0.4185818
2562.26,729.7726,-0.4185528
2564.76,730.1874,-0.4184929
2567.26,730.5963,-0.4185026
2569.76,731.0164,-0.4184753
2572.26,731.4294,-0.4184086
2574.76,731.8396,-0.418431
2577.26,732.2528,-0.4184296
2579.76,732.6656,-0.4184389
2582.26,733.0776,-0.4184006
2584.76,733.4896,-0.418365
2587.26,733.9068,-0.418368
2589.76,734.3146,-0.4183799
2592.26,734.7231,-0.418396
2594.76,735.142,-0.4184013
2597.26,735.5502,-0.4183203
2599.76,735.9628,-0.4182257
2602.26,736.3722,-0.4182824
2604.76,736.7874,-0.418302
2607.26,737.2024,-0.4182783
2609.76,737.614,-0.4182543
2612.26,738.0261,-0.4182231
2614.76,738.4408,-0.418222
2617.26,738.8542,-0.4182224
2619.76,739.263,-0.4181774
2622.26,739.6748,-0.4181088
2624.76,740.0881,-0.4181362
2627.26,740.5025,-0.41811
2629.76,740.9152,-0.4180681
2632.26,741.3304,-0.4179696
2634.76,741.7406,-0.4179096
2637.26,742.1528,-0.4179848
2639.76,742.5633,-0.4179195
2642.26,742.9738,-0.4179304
2644.76,743.3903,-0.4179437
2647.26,743.8008,-0.4179296
2649.76,744.2167,-0.4179507
2652.26,744.6285,-0.4178679
2654.76,745.0428,-0.4177944
2657.26,745.4558,-0.4177486
2659.76,745.865,-0.4177786
2662.26,746.2803,-0.4177498
2664.76,746.6972,-0.4176935
2667.26,747.1054,-0.4177242
2669.76,747.5188,-0.4177115
2672.26,747.9278,-0.4176472
2674.76,748.3366,-0.4176228
2677.26,748.7538,-0.4176848
2679.76,749.1689,-0.417692
2682.26,749.58,-0.4176338
2684.76,749.9906,-0.4176988
2687.26,750.4049,-0.417697
2689.76,750.8164,-0.4175457
2692.26,751.229,-0.417507
2694.76,751.6441,-0.4175641
2697.26,752.0603,-0.4175874
2699.76,752.4728,-0.4175266
2702.26,752.8816,-0.4174808
2704.76,753.2944,-0.4174991
2707.26,753.7086,-0.4175078
2709.76,754.1197,-0.4175331
2712.26,754.5321,-0.417505
2714.76,754.947,-0.4174551
2717.26,755.3563,-0.4174408
2719.76,755.7712,-0.4173934
2722.26,756.183,-0.4173241
2724.76,756.597,-0.417262
2727.26,757.0045,-0.4172303
2729.76,757.4219,-0.4172549
2732.26,757.8328,-0.4172576
2734.76,758.2429,-0.4172602
2737.26,758.6544,-0.4172848
2739.76,759.0711,-0.4172384
2742.26,759.4828,-0.4171967
2744.76,759.8946,-0.4172252
2747.26,760.3067,-0.4172456
2749.76,760.7213,-0.4172623
2752.26,761.136,-0.417206
2754.76,761.5474,-0.4171066
2757.26,761.9576,-0.4171344
2759.76,762.368,-0.4172055
2762.26,762.781,-0.4171421
2764.76,763.1942,-0.4170727
2767.26,763.6092,-0.417055
2769.76,764.0258,-0.4170365
2772.26,764.4352,-0.4170078
2774.76,764.8502,-0.4169694
2777.26,765.2637,-0.4169626
2779.76,765.6734,-0.4169534
2782.26,766.087,-0.4168537
2784.76,766.5022,-0.4168117
2787.26,766.911,-0.4168806
2789.76,767.3267,-0.4168992
2792.26,767.742,-0.416895
2794.76,768.1502,-0.4168093
2797.26,768.5666,-0.4167566
2799.76,768.9824,-0.4167222
2802.26,769.3933,-0.4167422
2804.76,769.806,-0.4167839
2807.26,770.2202,-0.4167395
2809.76,770.629,-0.4167496
2812.26,771.0413,-0.4167315
2814.76,771.4506,-0.416649
2817.26,771.865,-0.416676
2819.76,772.281,-0.4166632
2822.26,772.6926,-0.4165956
2824.76,773.1043,-0.4166494
2827.26,773.5156,-0.416677
2829.76,773.9267,-0.4166205
2832.26,774.3365,-0.4165045
2834.76,774.7516,-0.4164653
2837.26,775.1632,-0.416456
2839.76,775.5772,-0.4164226
2842.26,775.9943,-0.416438
2844.76,776.4044,-0.416423
2847.26,776.8168,-0.4164524
2849.76,777.228,-0.4165053
2852.26,777.6437,-0.4165753
2854.76,778.0518,-0.4164804
2857.26,778.4652,-0.416414
2859.76,778.8796,-0.416467
2862.26,779.2924,-0.4164628
2864.76,779.7031,-0.416455
2867.26,780.1147,-0.4163889
2869.76,780.5259,-0.4164118
2872.26,780.9343,-0.4164056
2874.76,781.3503,-0.4164056
2877.26,781.7648,-0.4164203
2879.76,782.1744,-0.4163159
2882.26,782.5899,-0.4162795
2884.76,783.0056,-0.4163238
2887.26,783.4148,-0.4163164
2889.76,783.8284,-0.4163075
2892.26,784.2408,-0.4163028
2894.76,784.6533,-0.4162626
2897.26,785.0683,-0.4162561
2899.76,785.4792,-0.4162982
2902.26,785.8921,-0.4163149
2904.76,786.3092,-0.4163186
2907.26,786.7178,-0.4163238
2909.76,787.1332,-0.4162352
2912.26,787.5518,-0.4162152
2914.76,787.9609,-0.4162582
2917.26,788.3742,-0.4162636
2919.76,788.7889,-0.416258
2922.26,789.2036,-0.416237
2924.76,789.615,-0.4161822
2927.26,790.0266,-0.4161606
2929.76,790.4394,-0.416175
2932.26,790.854,-0.4161338
2934.76,791.2663,-0.416158
2937.26,791.681,-0.4161725
2939.76,792.0899,-0.4161037
2942.26,792.5074,-0.4160874
2944.76,792.9168,-0.4160512
2947.26,793.3283,-0.4160696
2949.76,793.7394,-0.4160778
2952.26,794.155,-0.4160225
2954.76,794.5656,-0.416115
2957.26,794.9793,-0.4161243
2959.76,795.392,-0.4160181
2962.26,795.8078,-0.4160408
2964.76,796.2168,-0.4160547
2967.26,796.6276,-0.4159912
2969.76,797.0411,-0.4160275
2972.26,797.4545,-0.416032
2974.76,797.8653,-0.415849
2977.26,798.277,-0.4156946
2979.76,798.6919,-0.415668
2982.26,799.1016,-0.4156695
2984.76,799.515,-0.4156781
2987.26,799.9304,-0.4157362
2989.76,800.3444,-0.415727
2992.26,800.7545,-0.4155873
2994.76,801.1684,-0.4155386
2997.26,801.579,-0.4155738
2999.76,801.9956,-0.4156063
3002.26,802.4056,-0.4156806
3004.76,802.8184,-0.4156256
3007.26,803.2262,-0.415503
3009.76,803.6389,-0.4154732
3012.26,804.0522,-0.4154936
3013.76,804.3014,-0.415531