File: Non-charring/PMMA/HKPolyU/HKPolyU_TGA_Air_1.csv
Time,Temperature,Mass
[s],[k],[mg]
0.19,302.027,3.9309
2.26,302.028,3.9308
4.76,302.025,3.9307
7.26,302.022,3.9306
9.76,302.036,3.9304
12.26,302.054,3.9303
14.76,302.067,3.9302
17.26,302.094,3.93
19.76,302.131,3.9296
22.26,302.177,3.9294
24.76,302.244,3.9291
27.26,302.328,3.9288
29.76,302.426,3.9285
32.26,302.537,3.9281
34.76,302.672,3.9278
37.26,302.829,3.9274
39.76,302.998,3.9271
42.26,303.191,3.9268
44.76,303.412,3.9263
47.26,303.654,3.926
49.76,303.9,3.9256
52.26,304.182,3.9252
54.76,304.48,3.9249
57.26,304.801,3.9246
59.76,305.136,3.9243
62.26,305.489,3.924
64.76,305.864,3.9238
67.26,306.259,3.9234
69.76,306.675,3.9231
72.26,307.086,3.9229
74.76,307.53,3.9227
77.26,307.981,3.9224
79.76,308.448,3.9222
82.26,308.931,3.922
84.76,309.414,3.9218
87.26,309.903,3.9216
89.76,310.407,3.9216
92.26,310.924,3.9215
94.76,311.439,3.9214
97.26,311.972,3.9213
99.76,312.507,3.9211
102.26,313.044,3.9209
104.76,313.581,3.9209
107.26,314.122,3.9209
109.76,314.65,3.9208
112.26,315.205,3.9207
114.76,315.749,3.9206
117.26,316.296,3.9206
119.76,316.83,3.9205
122.26,317.379,3.9205
124.76,317.915,3.9205
127.26,318.442,3.9205
129.76,318.979,3.9205
132.26,319.509,3.9206
134.76,320.026,3.9206
137.26,320.547,3.9205
139.76,321.061,3.9205
142.26,321.583,3.9206
144.76,322.092,3.9206
147.26,322.595,3.9207
149.76,323.089,3.9207
152.26,323.579,3.9207
154.76,324.065,3.9207
157.26,324.545,3.9207
159.76,325.021,3.9208
162.26,325.496,3.9208
164.76,325.951,3.9209
167.26,326.415,3.921
169.76,326.865,3.921
172.26,327.319,3.9211
174.76,327.767,3.9212
177.26,328.204,3.9213
179.76,328.635,3.9213
182.26,329.071,3.9214
184.76,329.501,3.9214
187.26,329.924,3.9214
189.76,330.339,3.9215
192.26,330.763,3.9215
194.76,331.176,3.9216
197.26,331.585,3.9216
199.76,331.999,3.9216
202.26,332.405,3.9217
204.76,332.804,3.9217
207.26,333.203,3.9217
209.76,333.604,3.9217
212.26,334,3.9217
214.76,334.399,3.9218
217.26,334.798,3.9218
219.76,335.183,3.9218
222.26,335.58,3.9218
224.76,335.964,3.9218
227.26,336.365,3.9218
229.76,336.752,3.9218
232.26,337.148,3.9218
234.76,337.536,3.9219
237.26,337.93,3.9218
239.76,338.317,3.9219
242.26,338.717,3.9218
244.76,339.111,3.9218
247.26,339.501,3.9218
249.76,339.901,3.9219
252.26,340.301,3.9218
254.76,340.695,3.9217
257.26,341.101,3.9217
259.76,341.497,3.9218
262.26,341.91,3.9218
264.76,342.317,3.9218
267.26,342.724,3.9218
269.76,343.125,3.9218
272.26,343.533,3.9218
274.76,343.94,3.9218
277.26,344.355,3.9218
279.76,344.766,3.9217
282.26,345.186,3.9217
284.76,345.605,3.9218
287.26,346.02,3.9218
289.76,346.435,3.9217
292.26,346.865,3.9217
294.76,347.29,3.9217
297.26,347.704,3.9217
299.76,348.133,3.9218
302.26,348.563,3.9218
304.76,348.994,3.9217
307.26,349.418,3.9217
309.76,349.842,3.9217
312.26,350.28,3.9217
314.76,350.704,3.9218
317.26,351.141,3.9218
319.76,351.572,3.9218
322.26,352.003,3.9219
324.76,352.437,3.9219
327.26,352.876,3.9219
329.76,353.311,3.9219
332.26,353.747,3.9218
334.76,354.179,3.9219
337.26,354.61,3.922
339.76,355.051,3.922
342.26,355.483,3.9221
344.76,355.93,3.9221
347.26,356.361,3.922
349.76,356.8,3.922
352.26,357.239,3.9221
354.76,357.674,3.9221
357.26,358.108,3.9221
359.76,358.546,3.9221
362.26,358.988,3.9221
364.76,359.419,3.9221
367.26,359.854,3.9221
369.76,360.285,3.9221
372.26,360.722,3.9222
374.76,361.158,3.9222
377.26,361.589,3.9222
379.76,362.022,3.9223
382.26,362.458,3.9223
384.76,362.89,3.9223
387.26,363.319,3.9223
389.76,363.748,3.9224
392.26,364.178,3.9225
394.76,364.613,3.9227
397.26,365.038,3.9229
399.76,365.468,3.9229
402.26,365.898,3.923
404.76,366.329,3.923
407.26,366.762,3.923
409.76,367.188,3.923
412.26,367.623,3.9231
414.76,368.046,3.9232
417.26,368.472,3.9231
419.76,368.895,3.9231
422.26,369.32,3.9231
424.76,369.738,3.9231
427.26,370.166,3.923
429.76,370.589,3.923
432.26,371.014,3.923
434.76,371.434,3.9229
437.26,371.854,3.923
439.76,372.275,3.923
442.26,372.691,3.9231
444.76,373.12,3.9231
447.26,373.543,3.9231
449.76,373.952,3.9231
452.26,374.379,3.9231
454.76,374.792,3.923
457.26,375.216,3.923
459.76,375.641,3.9225
462.26,376.053,3.9219
464.76,376.477,3.9219
467.26,376.892,3.9218
469.76,377.318,3.9218
472.26,377.73,3.9218
474.76,378.149,3.9218
477.26,378.569,3.9217
479.76,378.987,3.9218
482.26,379.408,3.9217
484.76,379.828,3.9216
487.26,380.243,3.9216
489.76,380.667,3.9215
492.26,381.084,3.9216
494.76,381.499,3.9216
497.26,381.917,3.9215
499.76,382.344,3.9215
502.26,382.759,3.9215
504.76,383.181,3.9215
507.26,383.605,3.9214
509.76,384.026,3.9214
512.26,384.448,3.9213
514.76,384.87,3.9214
517.26,385.289,3.9213
519.76,385.712,3.9213
522.26,386.137,3.9212
524.76,386.56,3.9212
527.26,386.982,3.9213
529.76,387.395,3.9212
532.26,387.819,3.921
534.76,388.24,3.921
537.26,388.664,3.921
539.76,389.084,3.921
542.26,389.511,3.921
544.76,389.932,3.921
547.26,390.354,3.921
549.76,390.775,3.921
552.26,391.201,3.921
554.76,391.627,3.921
557.26,392.043,3.9209
559.76,392.466,3.9209
562.26,392.893,3.9209
564.76,393.314,3.9208
567.26,393.735,3.9208
569.76,394.159,3.9208
572.26,394.586,3.9208
574.76,395.008,3.9208
577.26,395.434,3.9208
579.76,395.854,3.9207
582.26,396.282,3.9206
584.76,396.7,3.9206
587.26,397.125,3.9206
589.76,397.55,3.9205
592.26,397.972,3.9205
594.76,398.391,3.9204
597.26,398.813,3.9204
599.76,399.237,3.9204
602.26,399.663,3.9203
604.76,400.085,3.9202
607.26,400.51,3.9202
609.76,400.936,3.9202
612.26,401.355,3.9201
614.76,401.78,3.92
617.26,402.203,3.9199
619.76,402.622,3.92
622.26,403.049,3.9199
624.76,403.471,3.9197
627.26,403.891,3.9196
629.76,404.316,3.9195
632.26,404.736,3.9195
634.76,405.161,3.9195
637.26,405.58,3.9194
639.76,405.998,3.9193
642.26,406.42,3.9192
644.76,406.843,3.9191
647.26,407.266,3.9191
649.76,407.685,3.919
652.26,408.103,3.9189
654.76,408.522,3.9187
657.26,408.945,3.9186
659.76,409.363,3.9186
662.26,409.776,3.9184
664.76,410.201,3.9184
667.26,410.626,3.9183
669.76,411.047,3.9182
672.26,411.466,3.9181
674.76,411.891,3.918
677.26,412.306,3.9179
679.76,412.728,3.9178
682.26,413.144,3.9177
684.76,413.569,3.9175
687.26,413.99,3.9174
689.76,414.405,3.9173
692.26,414.822,3.9172
694.76,415.247,3.9171
697.26,415.665,3.9171
699.76,416.084,3.9169
702.26,416.503,3.9168
704.76,416.92,3.9167
707.26,417.342,3.9166
709.76,417.764,3.9165
712.26,418.175,3.9164
714.76,418.609,3.9163
717.26,419.022,3.9162
719.76,419.442,3.916
722.26,419.862,3.9159
724.76,420.281,3.9159
727.26,420.701,3.9158
729.76,421.12,3.9157
732.26,421.542,3.9156
734.76,421.958,3.9155
737.26,422.375,3.9153
739.76,422.797,3.9152
742.26,423.217,3.915
744.76,423.64,3.9149
747.26,424.054,3.9148
749.76,424.478,3.9148
752.26,424.897,3.9147
754.76,425.317,3.9145
757.26,425.732,3.9143
759.76,426.154,3.9143
762.26,426.572,3.9143
764.76,426.997,3.9141
767.26,427.417,3.9139
769.76,427.838,3.9139
772.26,428.255,3.9138
774.76,428.681,3.9137
777.26,429.098,3.9136
779.76,429.513,3.9135
782.26,429.935,3.9134
784.76,430.359,3.9133
787.26,430.782,3.9133
789.76,431.2,3.9132
792.26,431.615,3.913
794.76,432.034,3.9129
797.26,432.46,3.9127
799.76,432.875,3.9126
802.26,433.294,3.9125
804.76,433.714,3.9125
807.26,434.138,3.9124
809.76,434.552,3.9124
812.26,434.97,3.9122
814.76,435.392,3.912
817.26,435.806,3.9119
819.76,436.229,3.9118
822.26,436.646,3.9116
824.76,437.068,3.9115
827.26,437.487,3.9115
829.76,437.902,3.9114
832.26,438.324,3.9114
834.76,438.746,3.9113
837.26,439.165,3.9113
839.76,439.585,3.9112
842.26,440.004,3.9111
844.76,440.424,3.911
847.26,440.838,3.9109
849.76,441.26,3.9108
852.26,441.677,3.9106
854.76,442.097,3.9105
857.26,442.514,3.9104
859.76,442.943,3.9103
862.26,443.354,3.9103
864.76,443.779,3.9102
867.26,444.19,3.9101
869.76,444.611,3.9099
872.26,445.023,3.9098
874.76,445.45,3.9098
877.26,445.866,3.9098
879.76,446.286,3.9096
882.26,446.703,3.9096
884.76,447.124,3.9095
887.26,447.546,3.9094
889.76,447.964,3.9094
892.26,448.394,3.9093
894.76,448.802,3.9092
897.26,449.222,3.9091
899.76,449.641,3.909
902.26,450.065,3.9089
904.76,450.484,3.9088
907.26,450.9,3.9086
909.76,451.319,3.9085
912.26,451.731,3.9085
914.76,452.149,3.9084
917.26,452.566,3.9083
919.76,452.983,3.9081
922.26,453.4,3.9081
924.76,453.822,3.9081
927.26,454.233,3.908
929.76,454.654,3.9079
932.26,455.071,3.9079
934.76,455.488,3.9078
937.26,455.911,3.9078
939.76,456.328,3.9077
942.26,456.746,3.9077
944.76,457.162,3.9077
947.26,457.581,3.9075
949.76,457.997,3.9074
952.26,458.417,3.9073
954.76,458.837,3.9072
957.26,459.253,3.9071
959.76,459.677,3.9071
962.26,460.09,3.907
964.76,460.508,3.907
967.26,460.926,3.9069
969.76,461.344,3.9068
972.26,461.759,3.9067
974.76,462.178,3.9066
977.26,462.592,3.9066
979.76,463.012,3.9065
982.26,463.427,3.9065
984.76,463.846,3.9065
987.26,464.266,3.9064
989.76,464.684,3.9062
992.26,465.098,3.9062
994.76,465.519,3.9062
997.26,465.939,3.9063
999.76,466.358,3.9062
1002.26,466.775,3.906
1004.76,467.192,3.9059
1007.26,467.609,3.9059
1009.76,468.024,3.9058
1012.26,468.439,3.9058
1014.76,468.858,3.9058
1017.26,469.277,3.9057
1019.76,469.694,3.9057
1022.26,470.114,3.9056
1024.76,470.534,3.9056
1027.26,470.951,3.9055
1029.76,471.366,3.9055
1032.26,471.783,3.9055
1034.76,472.201,3.9055
1037.26,472.623,3.9054
1039.76,473.045,3.9053
1042.26,473.454,3.9053
1044.76,473.874,3.9053
1047.26,474.291,3.9053
1049.76,474.711,3.9052
1052.26,475.121,3.9052
1054.76,475.54,3.9051
1057.26,475.957,3.9051
1059.76,476.378,3.905
1062.26,476.794,3.905
1064.76,477.215,3.905
1067.26,477.628,3.9049
1069.76,478.049,3.9049
1072.26,478.469,3.9049
1074.76,478.881,3.9048
1077.26,479.305,3.9047
1079.76,479.717,3.9048
1082.26,480.14,3.9048
1084.76,480.559,3.9047
1087.26,480.974,3.9046
1089.76,481.393,3.9045
1092.26,481.811,3.9046
1094.76,482.23,3.9046
1097.26,482.641,3.9046
1099.76,483.058,3.9046
1102.26,483.477,3.9046
1104.76,483.893,3.9046
1107.26,484.308,3.9046
1109.76,484.726,3.9045
1112.26,485.145,3.9044
1114.76,485.559,3.9044
1117.26,485.979,3.9044
1119.76,486.398,3.9044
1122.26,486.818,3.9043
1124.76,487.23,3.9044
1127.26,487.645,3.9044
1129.76,488.072,3.9043
1132.26,488.485,3.9043
1134.76,488.902,3.9044
1137.26,489.319,3.9044
1139.76,489.736,3.9043
1142.26,490.154,3.9042
1144.76,490.57,3.9042
1147.26,490.989,3.9042
1149.76,491.407,3.9042
1152.26,491.823,3.9042
1154.76,492.248,3.9041
1157.26,492.657,3.904
1159.76,493.074,3.9041
1162.26,493.497,3.904
1164.76,493.911,3.904
1167.26,494.332,3.9039
1169.76,494.745,3.9039
1172.26,495.165,3.904
1174.76,495.573,3.9039
1177.26,495.997,3.9039
1179.76,496.414,3.9039
1182.26,496.828,3.9039
1184.76,497.245,3.9039
1187.26,497.663,3.9038
1189.76,498.079,3.9038
1192.26,498.499,3.9038
1194.76,498.912,3.9038
1197.26,499.324,3.9039
1199.76,499.74,3.9038
1202.26,500.154,3.9037
1204.76,500.574,3.9037
1207.26,500.99,3.9037
1209.76,501.407,3.9037
1212.26,501.822,3.9037
1214.76,502.235,3.9037
1217.26,502.647,3.9037
1219.76,503.068,3.9036
1222.26,503.482,3.9036
1224.76,503.9,3.9037
1227.26,504.314,3.9036
1229.76,504.729,3.9035
1232.26,505.148,3.9035
1234.76,505.566,3.9035
1237.26,505.979,3.9035
1239.76,506.39,3.9034
1242.26,506.81,3.9035
1244.76,507.227,3.9035
1247.26,507.64,3.9034
1249.76,508.058,3.9035
1252.26,508.474,3.9035
1254.76,508.888,3.9034
1257.26,509.303,3.9034
1259.76,509.72,3.9034
1262.26,510.138,3.9033
1264.76,510.556,3.9033
1267.26,510.971,3.9034
1269.76,511.385,3.9034
1272.26,511.802,3.9033
1274.76,512.224,3.9033
1277.26,512.638,3.9032
1279.76,513.053,3.9032
1282.26,513.47,3.9032
1284.76,513.883,3.9031
1287.26,514.303,3.9031
1289.76,514.717,3.9031
1292.26,515.131,3.9031
1294.76,515.548,3.9031
1297.26,515.963,3.903
1299.76,516.379,3.9029
1302.26,516.791,3.9029
1304.76,517.209,3.903
1307.26,517.625,3.9029
1309.76,518.038,3.9028
1312.26,518.451,3.9027
1314.76,518.868,3.9027
1317.26,519.288,3.9026
1319.76,519.696,3.9025
1322.26,520.114,3.9025
1324.76,520.532,3.9025
1327.26,520.947,3.9024
1329.76,521.365,3.9022
1332.26,521.777,3.9022
1334.76,522.193,3.9021
1337.26,522.602,3.902
1339.76,523.021,3.9019
1342.26,523.429,3.9018
1344.76,523.851,3.9017
1347.26,524.266,3.9016
1349.76,524.68,3.9015
1352.26,525.096,3.9014
1354.76,525.511,3.9012
1357.26,525.929,3.901
1359.76,526.348,3.9008
1362.26,526.758,3.9006
1364.76,527.179,3.9005
1367.26,527.591,3.9003
1369.76,528.009,3.9
1372.26,528.422,3.8997
1374.76,528.838,3.8994
1377.26,529.254,3.8991
1379.76,529.669,3.8988
1382.26,530.085,3.8984
1384.76,530.504,3.8981
1387.26,530.919,3.8976
1389.76,531.338,3.8971
1392.26,531.746,3.8967
1394.76,532.163,3.8962
1397.26,532.58,3.8957
1399.76,532.996,3.8951
1402.26,533.41,3.8944
1404.76,533.821,3.8937
1407.26,534.237,3.8931
1409.76,534.65,3.8924
1412.26,535.063,3.8916
1414.76,535.481,3.8908
1417.26,535.89,3.8899
1419.76,536.311,3.8889
1422.26,536.725,3.888
1424.76,537.139,3.887
1427.26,537.551,3.8859
1429.76,537.969,3.8847
1432.26,538.384,3.8836
1434.76,538.8,3.8824
1437.26,539.214,3.8811
1439.76,539.635,3.8798
1442.26,540.052,3.8785
1444.76,540.467,3.877
1447.26,540.881,3.8755
1449.76,541.294,3.8739
1452.26,541.707,3.8724
1454.76,542.12,3.8707
1457.26,542.539,3.8691
1459.76,542.955,3.8674
1462.26,543.365,3.8655
1464.76,543.782,3.8637
1467.26,544.199,3.8618
1469.76,544.614,3.8598
1472.26,545.032,3.8577
1474.76,545.437,3.8556
1477.26,545.857,3.8534
1479.76,546.275,3.8511
1482.26,546.692,3.8488
1484.76,547.103,3.8464
1487.26,547.52,3.8441
1489.76,547.938,3.8416
1492.26,548.349,3.8391
1494.76,548.763,3.8366
1497.26,549.176,3.834
1499.76,549.593,3.8314
1502.26,550.008,3.8289
1504.76,550.421,3.8263
1507.26,550.835,3.8236
1509.76,551.245,3.821
1512.26,551.656,3.8183
1514.76,552.071,3.8156
1517.26,552.487,3.813
1519.76,552.896,3.8103
1522.26,553.308,3.8077
1524.76,553.727,3.8051
1527.26,554.137,3.8025
1529.76,554.557,3.7998
1532.26,554.971,3.7972
1534.76,555.381,3.7945
1537.26,555.795,3.7919
1539.76,556.206,3.7893
1542.26,556.621,3.7866
1544.76,557.036,3.7839
1547.26,557.45,3.7812
1549.76,557.866,3.7784
1552.26,558.278,3.7756
1554.76,558.693,3.7727
1557.26,559.106,3.7698
1559.76,559.521,3.7668
1562.26,559.935,3.7637
1564.76,560.349,3.7607
1567.26,560.763,3.7575
1569.76,561.177,3.7541
1572.26,561.594,3.7507
1574.76,562.008,3.7472
1577.26,562.425,3.7436
1579.76,562.834,3.7398
1582.26,563.25,3.736
1584.76,563.662,3.7321
1587.26,564.076,3.7279
1589.76,564.496,3.7235
1592.26,564.91,3.7191
1594.76,565.321,3.7145
1597.26,565.737,3.7098
1599.76,566.155,3.7047
1602.26,566.567,3.6994
1604.76,566.983,3.6941
1607.26,567.393,3.6885
1609.76,567.807,3.6825
1612.26,568.218,3.6764
1614.76,568.637,3.67
1617.26,569.052,3.6633
1619.76,569.465,3.6562
1622.26,569.875,3.6488
1624.76,570.287,3.6411
1627.26,570.699,3.6329
1629.76,571.112,3.6244
1632.26,571.526,3.6154
1634.76,571.943,3.606
1637.26,572.354,3.596
1639.76,572.77,3.5853
1642.26,573.182,3.5739
1644.76,573.594,3.5618
1647.26,574.005,3.5489
1649.76,574.418,3.5349
1652.26,574.835,3.5198
1654.76,575.244,3.5034
1657.26,575.662,3.4856
1659.76,576.071,3.4663
1662.26,576.486,3.4453
1664.76,576.9,3.4226
1667.26,577.308,3.3984
1669.76,577.714,3.3729
1672.26,578.125,3.3466
1674.76,578.53,3.3197
1677.26,578.934,3.2926
1679.76,579.335,3.2657
1682.26,579.743,3.2392
1684.76,580.146,3.2131
1687.26,580.55,3.1873
1689.76,580.952,3.162
1692.26,581.351,3.1372
1694.76,581.753,3.1132
1697.26,582.16,3.0896
1699.76,582.563,3.0661
1702.26,582.971,3.0429
1704.76,583.377,3.0201
1707.26,583.781,2.9977
1709.76,584.189,2.9756
1712.26,584.614,2.9529
1714.76,585.039,2.9293
1717.26,585.433,2.9048
1719.76,585.829,2.8818
1722.26,586.239,2.8613
1724.76,586.644,2.841
1727.26,587.052,2.821
1729.76,587.458,2.8017
1732.26,587.877,2.7823
1734.76,588.292,2.7618
1737.26,588.695,2.74
1739.76,589.112,2.7186
1742.26,589.518,2.6982
1744.76,589.926,2.6787
1747.26,590.341,2.6596
1749.76,590.745,2.6402
1752.26,591.214,2.6189
1754.76,591.606,2.593
1757.26,592.007,2.5676
1759.76,592.411,2.5463
1762.26,592.817,2.5264
1764.76,593.223,2.5074
1767.26,593.635,2.4883
1769.76,594.064,2.4682
1772.26,594.482,2.446
1774.76,594.88,2.4231
1777.26,595.286,2.4011
1779.76,595.707,2.3788
1782.26,596.119,2.3559
1784.76,596.535,2.3319
1787.26,596.945,2.3072
1789.76,597.354,2.2815
1792.26,597.765,2.2547
1794.76,598.179,2.2269
1797.26,598.583,2.1988
1799.76,598.993,2.1698
1802.26,599.397,2.1406
1804.76,599.802,2.111
1807.26,600.205,2.0813
1809.76,600.607,2.0514
1812.26,601.015,2.021
1814.76,601.426,1.9904
1817.26,601.831,1.9602
1819.76,602.266,1.9277
1822.26,602.644,1.8996
1824.76,603.053,1.8691
1827.26,603.466,1.8383
1829.76,603.883,1.8073
1832.26,604.297,1.7766
1834.76,604.708,1.7452
1837.26,605.116,1.7126
1839.76,605.528,1.6813
1842.26,605.935,1.6526
1844.76,606.347,1.6195
1847.26,606.755,1.5901
1849.76,607.17,1.568
1852.26,607.582,1.5406
1854.76,607.993,1.5147
1857.26,608.411,1.4887
1859.76,608.822,1.4616
1862.26,609.232,1.4343
1864.76,609.642,1.4075
1867.26,610.059,1.3814
1869.76,610.464,1.3561
1872.26,610.883,1.3317
1874.76,611.295,1.3077
1877.26,611.709,1.2839
1879.76,612.126,1.26
1882.26,612.537,1.2363
1884.76,612.954,1.2127
1887.26,613.369,1.1893
1889.76,613.786,1.1663
1892.26,614.216,1.1438
1894.76,614.633,1.1207
1897.26,615.056,1.0985
1899.76,615.479,1.0785
1902.26,615.908,1.0592
1904.76,616.335,1.0403
1907.26,616.759,1.0217
1909.76,617.19,1.0034
1912.26,617.609,0.9857
1914.76,618.03,0.9682
1917.26,618.455,0.9511
1919.76,618.881,0.9343
1922.26,619.3,0.9179
1924.76,619.726,0.9019
1927.26,620.148,0.8862
1929.76,620.57,0.8708
1932.26,620.988,0.8559
1934.76,621.41,0.8414
1937.26,621.832,0.8273
1939.76,622.254,0.8136
1942.26,622.668,0.8002
1944.76,623.087,0.7873
1947.26,623.509,0.7746
1949.76,623.928,0.7622
1952.26,624.351,0.7501
1954.76,624.767,0.7385
1957.26,625.188,0.7272
1959.76,625.606,0.7161
1962.26,626.023,0.7054
1964.76,626.441,0.695
1967.26,626.856,0.6849
1969.76,627.276,0.6749
1972.26,627.693,0.6653
1974.76,628.109,0.656
1977.26,628.531,0.6469
1979.76,628.95,0.638
1982.26,629.37,0.6294
1984.76,629.789,0.6211
1987.26,630.202,0.6129
1989.76,630.62,0.6049
1992.26,631.037,0.5972
1994.76,631.457,0.5897
1997.26,631.87,0.5824
1999.76,632.288,0.5753
2002.26,632.705,0.5683
2004.76,633.122,0.5616
2007.26,633.537,0.5549
2009.76,633.957,0.5485
2012.26,634.37,0.5422
2014.76,634.79,0.5361
2017.26,635.197,0.5301
2019.76,635.618,0.5242
2022.26,636.036,0.5186
2024.76,636.452,0.5132
2027.26,636.87,0.5077
2029.76,637.284,0.5024
2032.26,637.702,0.4973
2034.76,638.111,0.4921
2037.26,638.523,0.4872
2039.76,638.942,0.4825
2042.26,639.357,0.4778
2044.76,639.773,0.4732
2047.26,640.187,0.4687
2049.76,640.601,0.4643
2052.26,641.016,0.46
2054.76,641.43,0.4558
2057.26,641.843,0.4517
2059.76,642.262,0.4476
2062.26,642.675,0.4438
2064.76,643.092,0.4398
2067.26,643.505,0.4361
2069.76,643.918,0.4324
2072.26,644.333,0.4288
2074.76,644.75,0.4253
2077.26,645.165,0.4218
2079.76,645.575,0.4184
2082.26,645.99,0.4151
2084.76,646.403,0.4119
2087.26,646.817,0.4087
2089.76,647.23,0.4056
2092.26,647.643,0.4025
2094.76,648.059,0.3996
2097.26,648.475,0.3966
2099.76,648.891,0.3938
2102.26,649.304,0.391
2104.76,649.719,0.3882
2107.26,650.131,0.3855
2109.76,650.547,0.3829
2112.26,650.959,0.3803
2114.76,651.377,0.3777
2117.26,651.79,0.3753
2119.76,652.199,0.3728
2122.26,652.611,0.3705
2124.76,653.021,0.3682
2127.26,653.438,0.3659
2129.76,653.849,0.3637
2132.26,654.262,0.3615
2134.76,654.682,0.3592
2137.26,655.095,0.357
2139.76,655.509,0.355
2142.26,655.922,0.353
2144.76,656.337,0.351
2147.26,656.748,0.349
2149.76,657.16,0.3471
2152.26,657.569,0.3453
2154.76,657.984,0.3435
2157.26,658.402,0.3416
2159.76,658.812,0.3398
2162.26,659.227,0.338
2164.76,659.641,0.3363
2167.26,660.054,0.3347
2169.76,660.464,0.3331
2172.26,660.882,0.3315
2174.76,661.295,0.3298
2177.26,661.707,0.3282
2179.76,662.122,0.3267
2182.26,662.534,0.3252
2184.76,662.95,0.3238
2187.26,663.364,0.3223
2189.76,663.771,0.3209
2192.26,664.187,0.3195
2194.76,664.6,0.3181
2197.26,665.017,0.3168
2199.76,665.429,0.3155
2202.26,665.843,0.3142
2204.76,666.26,0.3129
2207.26,666.674,0.3116
2209.76,667.085,0.3103
2212.26,667.498,0.3092
2214.76,667.91,0.308
2217.26,668.323,0.3067
2219.76,668.738,0.3056
2222.26,669.152,0.3045
2224.76,669.571,0.3034
2227.26,669.973,0.3024
2229.76,670.392,0.3013
2232.26,670.807,0.3003
2234.76,671.218,0.2993
2237.26,671.635,0.2983
2239.76,672.05,0.2973
2242.26,672.461,0.2964
2244.76,672.873,0.2955
2247.26,673.285,0.2946
2249.76,673.698,0.2937
2252.26,674.113,0.2929
2254.76,674.525,0.292
2257.26,674.94,0.2911
2259.76,675.356,0.2904
2262.26,675.766,0.2896
2264.76,676.183,0.2889
2267.26,676.593,0.2882
2269.76,677.007,0.2875
2272.26,677.419,0.2868
2274.76,677.836,0.2862
2277.26,678.251,0.2856
2279.76,678.662,0.2851
2282.26,679.078,0.2845
2284.76,679.495,0.2839
2287.26,679.907,0.2833
2289.76,680.321,0.2828
2292.26,680.732,0.2824
2294.76,681.148,0.2821
2297.26,681.562,0.2817
2299.76,681.979,0.2815
2302.26,682.397,0.2813
2304.76,682.809,0.2811
2307.26,683.219,0.281
2309.76,683.637,0.281
2312.26,684.047,0.2809
2314.76,684.46,0.2809
2317.26,684.879,0.2809
2319.76,685.287,0.2808
2322.26,685.701,0.2808
2324.76,686.114,0.2809
2327.26,686.525,0.2809
2329.76,686.94,0.2809
2332.26,687.353,0.2808
2334.76,687.769,0.2808
2337.26,688.184,0.2808
2339.76,688.599,0.2807
2342.26,689.009,0.2808
2344.76,689.419,0.2808
2347.26,689.832,0.2808
2349.76,690.247,0.2808
2352.26,690.664,0.2808
2354.76,691.075,0.2808
2357.26,691.488,0.2808
2359.76,691.899,0.2808
2362.26,692.313,0.2808
2364.76,692.726,0.2808
2367.26,693.142,0.2808
2369.76,693.553,0.2808
2372.26,693.966,0.2807
2374.76,694.381,0.2807
2377.26,694.795,0.2807
2379.76,695.203,0.2807
2382.26,695.618,0.2807
2384.76,696.028,0.2807
2387.26,696.439,0.2808
2389.76,696.856,0.2808
2392.26,697.269,0.2808
2394.76,697.683,0.2808
2397.26,698.094,0.2808
2399.76,698.514,0.2807
2402.26,698.921,0.2807
2404.76,699.337,0.2807
2407.26,699.748,0.2806
2409.76,700.156,0.2807
2412.26,700.575,0.2806
2414.76,700.986,0.2806
2417.26,701.4,0.2806
2419.76,701.815,0.2806
2422.26,702.226,0.2806
2424.76,702.638,0.2805
2427.26,703.053,0.2805
2429.76,703.464,0.2805
2432.26,703.88,0.2806
2434.76,704.291,0.2807
2437.26,704.705,0.2807
2439.76,705.116,0.2806
2442.26,705.53,0.2805
2444.76,705.943,0.2806
2447.26,706.355,0.2806
2449.76,706.772,0.2807
2452.26,707.184,0.2807
2454.76,707.597,0.2807
2457.26,708.013,0.2807
2459.76,708.425,0.2807
2462.26,708.836,0.2807
2464.76,709.251,0.2807
2467.26,709.662,0.2807
2469.76,710.074,0.2806
2472.26,710.488,0.2807
2474.76,710.904,0.2808
2477.26,711.316,0.2808
2479.76,711.728,0.2808
2482.26,712.144,0.2809
2484.76,712.559,0.2809
2487.26,712.971,0.2809
2489.76,713.385,0.2809
2492.26,713.797,0.2809
2494.76,714.211,0.2809
2497.26,714.626,0.2809
2499.76,715.036,0.281
2502.26,715.45,0.281
2504.76,715.864,0.2811
2507.26,716.285,0.2811
2509.76,716.695,0.2811
2512.26,717.107,0.2812
2514.76,717.516,0.2812
2517.26,717.93,0.2812
2519.76,718.345,0.2813
2522.26,718.757,0.2813
2524.76,719.172,0.2813
2527.26,719.587,0.2813
2529.76,719.997,0.2813
2532.26,720.41,0.2813
2534.76,720.82,0.2814
2537.26,721.232,0.2815
2539.76,721.646,0.2815
2542.26,722.061,0.2815
2544.76,722.473,0.2816
2547.26,722.885,0.2816
2549.76,723.296,0.2817
2552.26,723.712,0.2817
2554.76,724.125,0.2816
2557.26,724.536,0.2816
2559.76,724.951,0.2817
2562.26,725.361,0.2818
2564.76,725.774,0.2819
2567.26,726.188,0.2818
2569.76,726.6,0.2819
2572.26,727.013,0.2819
2574.76,727.427,0.282
2577.26,727.84,0.282
2579.76,728.249,0.2821
2582.26,728.67,0.2821
2584.76,729.081,0.2821
2587.26,729.492,0.2822
2589.76,729.908,0.2822
2592.26,730.323,0.2822
2594.76,730.733,0.2822
2597.26,731.15,0.2823
2599.76,731.562,0.2823
2602.26,731.977,0.2823
2604.76,732.387,0.2824
2607.26,732.802,0.2824
2609.76,733.212,0.2825
2612.26,733.626,0.2825
2614.76,734.043,0.2825
2617.26,734.46,0.2826
2619.76,734.872,0.2827
2622.26,735.291,0.2827
2624.76,735.7,0.2828
2627.26,736.112,0.2827
2629.76,736.525,0.2828
2632.26,736.937,0.2827
2634.76,737.35,0.2828
2637.26,737.762,0.2829
2639.76,738.178,0.2829
2642.26,738.592,0.2829
2644.76,739,0.283
2647.26,739.414,0.283
2649.76,739.83,0.2831
2652.26,740.241,0.2831
2654.76,740.653,0.2831
2657.26,741.068,0.2832
2659.76,741.479,0.2832
2662.26,741.893,0.2833
2664.76,742.305,0.2833
2667.26,742.72,0.2834
2669.76,743.138,0.2834
2672.26,743.545,0.2834
2674.76,743.962,0.2834
2677.26,744.372,0.2834
2679.76,744.784,0.2835
2682.26,745.2,0.2836
2684.76,745.614,0.2837
2687.26,746.032,0.2837
2689.76,746.443,0.2837
2692.26,746.855,0.2837
2694.76,747.268,0.2838
2697.26,747.687,0.2838
2699.76,748.097,0.2839
2702.26,748.513,0.2839
2704.76,748.923,0.2839
2707.26,749.341,0.2839
2709.76,749.753,0.284
2712.26,750.164,0.284
2714.76,750.583,0.284
2717.26,750.992,0.2841
2719.76,751.409,0.2841
2722.26,751.82,0.2841
2724.76,752.232,0.2842
2727.26,752.642,0.2842
2729.76,753.057,0.2843
2732.26,753.47,0.2843
2734.76,753.887,0.2843
2737.26,754.3,0.2844
2739.76,754.713,0.2844
2742.26,755.123,0.2844
2744.76,755.53,0.2845
2747.26,755.941,0.2844
2749.76,756.358,0.2845
2752.26,756.772,0.2846
2754.76,757.188,0.2846
2757.26,757.6,0.2846
2759.76,758.012,0.2847
2762.26,758.422,0.2847
2764.76,758.836,0.2847
2767.26,759.249,0.2848
2769.76,759.664,0.2849
2772.26,760.076,0.285
2774.76,760.493,0.2849
2777.26,760.903,0.2849
2779.76,761.32,0.285
2782.26,761.735,0.285
2784.76,762.147,0.285
2787.26,762.563,0.285
2789.76,762.979,0.2851
2792.26,763.392,0.2852
2794.76,763.804,0.2852
2797.26,764.216,0.2852
2799.76,764.637,0.2852
2802.26,765.05,0.2852
2804.76,765.458,0.2852
2807.26,765.873,0.2853
2809.76,766.291,0.2853
2812.26,766.697,0.2854
2814.76,767.109,0.2854
2817.26,767.519,0.2854
2819.76,767.937,0.2855
2822.26,768.351,0.2855
2824.76,768.764,0.2855
2827.26,769.177,0.2856
2829.76,769.59,0.2856
2832.26,770,0.2856
2834.76,770.418,0.2857
2837.26,770.831,0.2857
2839.76,771.241,0.2858
2842.26,771.651,0.2858
2844.76,772.07,0.2858
2847.26,772.482,0.2859
2849.76,772.897,0.2859
2852.26,773.309,0.2859
2854.76,773.725,0.2859
2857.26,774.136,0.286
2859.76,774.551,0.286
2862.26,774.956,0.2861
2864.76,775.371,0.2861
2867.26,775.786,0.286
2869.76,776.203,0.2861
2872.26,776.618,0.2862
2874.76,777.028,0.2862
2877.26,777.437,0.2862
2879.76,777.853,0.2863
2882.26,778.269,0.2863
2884.76,778.682,0.2863
2887.26,779.099,0.2863
2889.76,779.51,0.2864
2892.26,779.927,0.2864
2894.76,780.343,0.2864
2897.26,780.755,0.2864
2899.76,781.166,0.2865
2902.26,781.582,0.2865
2904.76,781.995,0.2865
2907.26,782.409,0.2867
2909.76,782.822,0.2866
2912.26,783.237,0.2866
2914.76,783.652,0.2867
2917.26,784.062,0.2867
2919.76,784.476,0.2867
2922.26,784.89,0.2868
2924.76,785.305,0.2868
2927.26,785.72,0.2869
2929.76,786.134,0.287
2932.26,786.547,0.287
2934.76,786.958,0.2869
2937.26,787.37,0.287
2939.76,787.782,0.287
2942.26,788.199,0.287
2944.76,788.608,0.287
2947.26,789.025,0.2871
2949.76,789.436,0.2871
2952.26,789.851,0.2872
2954.76,790.265,0.2872
2957.26,790.675,0.2873
2959.76,791.094,0.2873
2962.26,791.505,0.2873
2964.76,791.92,0.2873
2967.26,792.334,0.2873
2969.76,792.754,0.2874
2972.26,793.164,0.2874
2974.76,793.572,0.2874
2977.26,793.987,0.2874
2979.76,794.401,0.2875
2982.26,794.816,0.2875
2984.76,795.23,0.2875
2987.26,795.644,0.2875
2989.76,796.062,0.2875
2992.26,796.472,0.2877
2994.76,796.884,0.2877
2997.26,797.303,0.2877
2999.76,797.714,0.2877
3002.26,798.125,0.2877
3004.76,798.541,0.2878
3007.26,798.954,0.2878
3009.76,799.369,0.2878
3012.26,799.783,0.2878
3013.76,800.03,0.2878