File: Non-charring/PMMA/HKPolyU/HKPolyU_DSC_N2_2.csv
Time,Temperature,Heat Flow
[s],[k],[W/g]
0.15,300.048,2.91094
2.26,300.61,3.23104
4.76,301.167,3.53009
7.26,301.718,3.69732
9.76,302.282,3.72803
12.26,302.827,3.72446
14.76,303.3721,3.72046
17.26,303.916,3.71242
19.76,304.458,3.70002
22.26,304.994,3.68498
24.76,305.524,3.66644
27.26,306.048,3.64519
29.76,306.561,3.62228
32.26,307.083,3.59802
34.76,307.582,3.56998
37.26,308.0947,3.53481
39.76,308.591,3.49756
42.26,309.088,3.45828
44.76,309.581,3.41504
47.26,310.061,3.36857
49.76,310.532,3.32233
52.26,311.002,3.27306
54.76,311.472,3.21925
57.26,311.934,3.16381
59.76,312.392,3.10417
62.26,312.847,3.04296
64.76,313.282,2.98172
67.26,313.728,2.91683
69.76,314.167,2.84985
72.26,314.603,2.78133
74.76,315.022,2.71204
77.26,315.448,2.6421
79.76,315.866,2.57216
82.26,316.297,2.49868
84.76,316.71,2.42351
87.26,317.1207,2.34851
89.76,317.534,2.27359
92.26,317.939,2.19795
94.76,318.35,2.12089
97.26,318.754,2.04462
99.76,319.155,1.9692
102.26,319.553,1.89344
104.76,319.951,1.81711
107.26,320.3509,1.7402
109.76,320.743,1.66405
112.26,321.14,1.58924
114.76,321.53,1.51623
117.26,321.932,1.44459
119.76,322.325,1.37268
122.26,322.7231,1.30045
124.76,323.1152,1.2295
127.26,323.518,1.15987
129.76,323.911,1.09157
132.26,324.313,1.02305
134.76,324.711,0.956205
137.26,325.11,0.891261
139.76,325.505,0.827917
142.26,325.912,0.765992
144.76,326.314,0.704697
147.26,326.716,0.644546
149.76,327.1207,0.586138
152.26,327.524,0.529324
154.76,327.939,0.474037
157.26,328.344,0.420114
159.76,328.755,0.367294
162.26,329.163,0.316438
164.76,329.574,0.26827
167.26,329.989,0.219615
169.76,330.412,0.171623
172.26,330.829,0.125722
174.76,331.2522,0.0806753
177.26,331.67,0.0379897
179.76,332.087,-0.002809547
182.26,332.516,-0.0420232
184.76,332.9381,-0.0807427
187.26,333.364,-0.1196
189.76,333.804,-0.15732
192.26,334.226,-0.193169
194.76,334.661,-0.227576
197.26,335.089,-0.260519
199.76,335.523,-0.293339
202.26,335.951,-0.325962
204.76,336.39,-0.356493
207.26,336.824,-0.38645
209.76,337.265,-0.416603
212.26,337.7,-0.445568
214.76,338.135,-0.472104
217.26,338.572,-0.498284
219.76,339.0086,-0.524952
222.26,339.448,-0.550607
224.76,339.8831,-0.574743
227.26,340.3192,-0.598873
229.76,340.763,-0.622278
232.26,341.205,-0.645102
234.76,341.643,-0.668441
237.26,342.087,-0.690602
239.76,342.517,-0.711924
242.26,342.965,-0.733714
244.76,343.392,-0.755577
247.26,343.836,-0.776194
249.76,344.268,-0.796047
252.26,344.708,-0.815251
254.76,345.154,-0.834932
257.26,345.585,-0.85413
259.76,346.0248,-0.872428
262.26,346.454,-0.890526
264.76,346.889,-0.907795
267.26,347.331,-0.925677
269.76,347.768,-0.944017
272.26,348.198,-0.961388
274.76,348.633,-0.978127
277.26,349.067,-0.994696
279.76,349.507,-1.01141
282.26,349.934,-1.0277
284.76,350.3639,-1.04428
287.26,350.798,-1.06017
289.76,351.23,-1.07523
292.26,351.66,-1.09128
294.76,352.095,-1.10588
297.26,352.523,-1.11944
299.76,352.95,-1.13389
302.26,353.38,-1.14815
304.76,353.805,-1.16192
307.26,354.23,-1.17506
309.76,354.655,-1.18823
312.26,355.0804,-1.20217
314.76,355.511,-1.21504
317.26,355.931,-1.22728
319.76,356.359,-1.23948
322.26,356.786,-1.25176
324.76,357.2059,-1.26326
327.26,357.628,-1.2738
329.76,358.049,-1.28489
332.26,358.471,-1.29633
334.76,358.897,-1.30762
337.26,359.322,-1.3184
339.76,359.746,-1.32829
342.26,360.164,-1.33837
344.76,360.591,-1.34853
347.26,361.017,-1.35788
349.76,361.433,-1.36732
352.26,361.853,-1.37605
354.76,362.275,-1.38412
357.26,362.694,-1.39287
359.76,363.114,-1.40079
362.26,363.539,-1.4085
364.76,363.957,-1.41626
367.26,364.379,-1.4229
369.76,364.795,-1.42959
372.26,365.214,-1.43674
374.76,365.639,-1.44324
377.26,366.066,-1.44873
379.76,366.485,-1.45434
382.26,366.907,-1.46017
384.76,367.325,-1.46553
387.26,367.748,-1.46999
389.76,368.169,-1.47488
392.26,368.592,-1.4792
394.76,369.0164,-1.48297
397.26,369.439,-1.4871
399.76,369.856,-1.49077
402.26,370.2822,-1.49381
404.76,370.709,-1.49706
407.26,371.126,-1.50004
409.76,371.551,-1.50231
412.26,371.975,-1.50466
414.76,372.4,-1.50693
417.26,372.822,-1.50883
419.76,373.2419,-1.51042
422.26,373.6744,-1.51171
424.76,374.0902,-1.51345
427.26,374.5135,-1.51469
429.76,374.9413,-1.51503
432.26,375.3667,-1.51586
434.76,375.7835,-1.51745
437.26,376.2129,-1.51734
439.76,376.6376,-1.51674
442.26,377.0639,-1.51679
444.76,377.4867,-1.51662
447.26,377.9139,-1.51583
449.76,378.3455,-1.51508
452.26,378.7676,-1.51461
454.76,379.1915,-1.51448
457.26,379.6162,-1.51415
459.76,380.0406,-1.5136
462.26,380.4676,-1.51271
464.76,380.8907,-1.51181
467.26,381.3118,-1.51148
469.76,381.7402,-1.51048
472.26,382.1685,-1.50928
474.76,382.5903,-1.50795
477.26,383.0122,-1.50641
479.76,383.4395,-1.50544
482.26,383.8615,-1.5041
484.76,384.2881,-1.50205
487.26,384.7108,-1.50045
489.76,385.1364,-1.49934
492.26,385.5666,-1.49832
494.76,385.9888,-1.49726
497.26,386.4058,-1.49601
499.76,386.8351,-1.49395
502.26,387.2599,-1.4921
504.76,387.6909,-1.49096
507.26,388.1132,-1.4897
509.76,388.5318,-1.4885
512.26,388.9549,-1.48769
514.76,389.3751,-1.48618
517.26,389.7971,-1.48454
519.76,390.2258,-1.48281
522.26,390.6451,-1.48101
524.76,391.0704,-1.47956
527.26,391.4915,-1.4782
529.76,391.9127,-1.47707
532.26,392.3388,-1.47548
534.76,392.7557,-1.47363
537.26,393.1784,-1.47225
539.76,393.6015,-1.47133
542.26,394.0244,-1.47005
544.76,394.4435,-1.46855
547.26,394.869,-1.46714
549.76,395.2874,-1.46567
552.26,395.7104,-1.46397
554.76,396.1346,-1.46236
557.26,396.567,-1.46116
559.76,396.9829,-1.46002
562.26,397.4074,-1.45818
564.76,397.8315,-1.45624
567.26,398.2556,-1.45408
569.76,398.6751,-1.45191
572.26,399.0933,-1.45031
574.76,399.5175,-1.44886
577.26,399.9391,-1.44696
579.76,400.362,-1.4447
582.26,400.7811,-1.4424
584.76,401.2018,-1.43978
587.26,401.6198,-1.43714
589.76,402.0405,-1.43485
592.26,402.4591,-1.4325
594.76,402.8805,-1.42976
597.26,403.2987,-1.42754
599.76,403.7146,-1.42527
602.26,404.142,-1.42277
604.76,404.5659,-1.41998
607.26,404.9836,-1.41721
609.76,405.4043,-1.41482
612.26,405.8221,-1.41234
614.76,406.246,-1.40959
617.26,406.6612,-1.40674
619.76,407.0799,-1.40388
622.26,407.5023,-1.401
624.76,407.9252,-1.39805
627.26,408.3499,-1.39493
629.76,408.768,-1.39188
632.26,409.1887,-1.38888
634.76,409.6124,-1.38583
637.26,410.0338,-1.38306
639.76,410.4532,-1.38021
642.26,410.8703,-1.37677
644.76,411.2953,-1.37369
647.26,411.7154,-1.37108
649.76,412.1316,-1.36807
652.26,412.5586,-1.3649
654.76,412.9809,-1.36181
657.26,413.4005,-1.35898
659.76,413.8241,-1.35611
662.26,414.245,-1.35301
664.76,414.6643,-1.3501
667.26,415.0792,-1.34702
669.76,415.4995,-1.34399
672.26,415.9171,-1.34121
674.76,416.3446,-1.33815
677.26,416.7628,-1.33523
679.76,417.1811,-1.33231
682.26,417.6036,-1.32883
684.76,418.0272,-1.32554
687.26,418.4476,-1.32269
689.76,418.8618,-1.31971
692.26,419.2895,-1.31647
694.76,419.7061,-1.31347
697.26,420.1304,-1.31073
699.76,420.5512,-1.30792
702.26,420.968,-1.30487
704.76,421.3884,-1.3017
707.26,421.8078,-1.29855
709.76,422.2251,-1.29528
712.26,422.6463,-1.29216
714.76,423.0669,-1.28967
717.26,423.4858,-1.28699
719.76,423.908,-1.28388
722.26,424.3324,-1.28084
724.76,424.7565,-1.27773
727.26,425.1708,-1.27443
729.76,425.5996,-1.27114
732.26,426.0117,-1.26817
734.76,426.4331,-1.26552
737.26,426.8589,-1.26276
739.76,427.2762,-1.25988
742.26,427.6922,-1.25731
744.76,428.1171,-1.2546
747.26,428.5335,-1.25188
749.76,428.9537,-1.24933
752.26,429.3713,-1.24693
754.76,429.7891,-1.24464
757.26,430.2142,-1.24201
759.76,430.6347,-1.23911
762.26,431.0574,-1.23631
764.76,431.4729,-1.23383
767.26,431.8886,-1.23182
769.76,432.3131,-1.22947
772.26,432.7304,-1.22712
774.76,433.1543,-1.22497
777.26,433.5716,-1.2225
779.76,433.9863,-1.22004
782.26,434.4055,-1.21796
784.76,434.8286,-1.21576
787.26,435.2527,-1.21289
789.76,435.6695,-1.21049
792.26,436.0891,-1.20844
794.76,436.5013,-1.20619
797.26,436.9216,-1.2039
799.76,437.3362,-1.20175
802.26,437.7519,-1.19955
804.76,438.1722,-1.19722
807.26,438.5959,-1.19497
809.76,439.0122,-1.19277
812.26,439.429,-1.19051
814.76,439.8496,-1.18838
817.26,440.2652,-1.18629
819.76,440.6874,-1.18432
822.26,441.1009,-1.18261
824.76,441.5217,-1.18093
827.26,441.9436,-1.17915
829.76,442.3594,-1.17708
832.26,442.779,-1.17513
834.76,443.195,-1.17328
837.26,443.6166,-1.1715
839.76,444.0322,-1.16968
842.26,444.4505,-1.16796
844.76,444.8772,-1.16632
847.26,445.295,-1.16417
849.76,445.71,-1.16205
852.26,446.1306,-1.16067
854.76,446.551,-1.15884
857.26,446.9668,-1.15661
859.76,447.3849,-1.15477
862.26,447.8027,-1.15297
864.76,448.2224,-1.1509
867.26,448.6377,-1.14878
869.76,449.0573,-1.14716
872.26,449.474,-1.1452
874.76,449.8901,-1.14286
877.26,450.3164,-1.14058
879.76,450.7373,-1.13782
882.26,451.1527,-1.13476
884.76,451.5746,-1.13227
887.26,451.9912,-1.12995
889.76,452.4078,-1.12765
892.26,452.8293,-1.12563
894.76,453.2401,-1.12343
897.26,453.6584,-1.12141
899.76,454.0808,-1.11924
902.26,454.4936,-1.11679
904.76,454.9125,-1.1133
907.26,455.3356,-1.10904
909.76,455.7511,-1.1056
912.26,456.1704,-1.1023
914.76,456.5875,-1.09834
917.26,457.0095,-1.09425
919.76,457.4262,-1.09051
922.26,457.8402,-1.08666
924.76,458.2628,-1.08296
927.26,458.6825,-1.07969
929.76,459.0984,-1.07605
932.26,459.5148,-1.07249
934.76,459.9345,-1.06935
937.26,460.3482,-1.06591
939.76,460.7657,-1.06225
942.26,461.1848,-1.05867
944.76,461.6041,-1.05527
947.26,462.0267,-1.05192
949.76,462.4404,-1.04868
952.26,462.8562,-1.04539
954.76,463.2748,-1.0416
957.26,463.6974,-1.03725
959.76,464.1198,-1.03276
962.26,464.533,-1.02835
964.76,464.9548,-1.02429
967.26,465.3746,-1.02085
969.76,465.7974,-1.01712
972.26,466.2103,-1.01258
974.76,466.6301,-1.00777
977.26,467.0439,-1.00356
979.76,467.4612,-0.999728
982.26,467.8772,-0.996098
984.76,468.2982,-0.992577
987.26,468.713,-0.988586
989.76,469.1312,-0.984254
992.26,469.5471,-0.980277
994.76,469.9651,-0.976662
997.26,470.3808,-0.972256
999.76,470.7982,-0.96783
1002.26,471.2191,-0.963574
1004.76,471.6358,-0.959496
1007.26,472.0513,-0.955218
1009.76,472.4672,-0.950493
1012.26,472.8855,-0.946403
1014.76,473.3023,-0.942769
1017.26,473.7207,-0.938987
1019.76,474.1336,-0.9351
1022.26,474.5547,-0.931225
1024.76,474.9713,-0.926797
1027.26,475.3861,-0.922019
1029.76,475.8076,-0.917597
1032.26,476.2236,-0.913094
1034.76,476.6411,-0.908349
1037.26,477.0556,-0.904069
1039.76,477.4726,-0.9001962
1042.26,477.8926,-0.89622
1044.76,478.3086,-0.892295
1047.26,478.7271,-0.888073
1049.76,479.1438,-0.883358
1052.26,479.5607,-0.878696
1054.76,479.9826,-0.874343
1057.26,480.4003,-0.869699
1059.76,480.8189,-0.864819
1062.26,481.2354,-0.859794
1064.76,481.6468,-0.855048
1067.26,482.0712,-0.85039
1069.76,482.4865,-0.845333
1072.26,482.9074,-0.840935
1074.76,483.3262,-0.836307
1077.26,483.7408,-0.83181
1079.76,484.1592,-0.827087
1082.26,484.5778,-0.821484
1084.76,485.0023,-0.815965
1087.26,485.4184,-0.810454
1089.76,485.8383,-0.805029
1092.26,486.2541,-0.799865
1094.76,486.673,-0.794341
1097.26,487.0919,-0.788749
1099.76,487.508,-0.783572
1102.26,487.9272,-0.777967
1104.76,488.3468,-0.772202
1107.26,488.7636,-0.766481
1109.76,489.1776,-0.760346
1112.26,489.5944,-0.75414
1114.76,490.0165,-0.748344
1117.26,490.4363,-0.742776
1119.76,490.8494,-0.737025
1122.26,491.2616,-0.730609
1124.76,491.677,-0.72396
1127.26,492.0941,-0.717818
1129.76,492.5115,-0.711011
1132.26,492.93,-0.703849
1134.76,493.348,-0.697352
1137.26,493.767,-0.690763
1139.76,494.1814,-0.68438
1142.26,494.5984,-0.67764
1144.76,495.0167,-0.670382
1147.26,495.4356,-0.663693
1149.76,495.8546,-0.657496
1152.26,496.2684,-0.651165
1154.76,496.6822,-0.644026
1157.26,497.099,-0.636513
1159.76,497.5131,-0.629151
1162.26,497.936,-0.6222057
1164.76,498.3542,-0.615783
1167.26,498.772,-0.609677
1169.76,499.1951,-0.603275
1172.26,499.607,-0.596593
1174.76,500.0202,-0.590331
1177.26,500.4406,-0.584658
1179.76,500.8582,-0.57858
1182.26,501.2748,-0.571688
1184.76,501.696,-0.565231
1187.26,502.1116,-0.559008
1189.76,502.5265,-0.55253
1192.26,502.9496,-0.5456
1194.76,503.3643,-0.538782
1197.26,503.7846,-0.532145
1199.76,504.1938,-0.524906
1202.26,504.6121,-0.518619
1204.76,505.028,-0.512602
1207.26,505.4497,-0.506215
1209.76,505.8623,-0.500285
1212.26,506.273,-0.494224
1214.76,506.6933,-0.487743
1217.26,507.1087,-0.481164
1219.76,507.5242,-0.475382
1222.26,507.94,-0.470208
1224.76,508.353,-0.464847
1227.26,508.7741,-0.458924
1229.76,509.1922,-0.45251
1232.26,509.6068,-0.446035
1234.76,510.0238,-0.438978
1237.26,510.44,-0.432051
1239.76,510.8506,-0.425981
1242.26,511.2668,-0.420113
1244.76,511.6815,-0.414163
1247.26,512.0998,-0.407632
1249.76,512.5116,-0.401252
1252.26,512.9283,-0.395768
1254.76,513.3444,-0.390581
1257.26,513.7573,-0.384482
1259.76,514.171,-0.378247
1262.26,514.5911,-0.372165
1264.76,515.0108,-0.366038
1267.26,515.4211,-0.360517
1269.76,515.8362,-0.355233
1272.26,516.2526,-0.349352
1274.76,516.6699,-0.343464
1277.26,517.0834,-0.337911
1279.76,517.5013,-0.331776
1282.26,517.9191,-0.325869
1284.76,518.3265,-0.320361
1287.26,518.7432,-0.31455
1289.76,519.1558,-0.308068
1292.26,519.5764,-0.301656
1294.76,519.9854,-0.296069
1297.26,520.402,-0.290823
1299.76,520.817,-0.286021
1302.26,521.2328,-0.280951
1304.76,521.649,-0.274531
1307.26,522.0674,-0.26779
1309.76,522.4759,-0.261942
1312.26,522.902,-0.256369
1314.76,523.3139,-0.249426
1317.26,523.737,-0.242586
1319.76,524.1455,-0.236802
1322.26,524.5672,-0.231218
1324.76,524.9762,-0.226048
1327.26,525.3968,-0.220414
1329.76,525.8039,-0.214482
1332.26,526.2218,-0.209622
1334.76,526.6358,-0.204904
1337.26,527.0561,-0.198902
1339.76,527.4685,-0.192912
1342.26,527.8869,-0.187487
1344.76,528.299,-0.182378
1347.26,528.715,-0.177506
1349.76,529.1272,-0.172399
1352.26,529.5377,-0.167392
1354.76,529.957,-0.161593
1357.26,530.3758,-0.154384
1359.76,530.7899,-0.147551
1362.26,531.2004,-0.142214
1364.76,531.6174,-0.137204
1367.26,532.0364,-0.132113
1369.76,532.4516,-0.1268402
1372.26,532.8669,-0.121121
1374.76,533.2816,-0.115587
1377.26,533.6929,-0.111589
1379.76,534.111,-0.107733
1382.26,534.5264,-0.103279
1384.76,534.9374,-0.0981896
1387.26,535.3581,-0.0927789
1389.76,535.767,-0.0871461
1392.26,536.1876,-0.08194577
1394.76,536.6017,-0.0769729
1397.26,537.0178,-0.0715844
1399.76,537.4328,-0.0662674
1402.26,537.8454,-0.0598778
1404.76,538.2613,-0.0541293
1407.26,538.6748,-0.0493659
1409.76,539.0901,-0.04459526
1412.26,539.5073,-0.039395
1414.76,539.9195,-0.0341635
1417.26,540.335,-0.0296466
1419.76,540.7505,-0.02484631
1422.26,541.1654,-0.0193369
1424.76,541.5772,-0.0149032
1427.26,541.9962,-0.0106259
1429.76,542.4082,-0.005541307
1432.26,542.8188,-0.000161719
1434.76,543.232,0.005381631
1437.26,543.6492,0.0107826
1439.76,544.0646,0.0162657
1442.26,544.48,0.0216701
1444.76,544.895,0.0269399
1447.26,545.3064,0.03131404
1449.76,545.7159,0.0354019
1452.26,546.135,0.03995792
1454.76,546.5488,0.0448174
1457.26,546.9674,0.05004473
1459.76,547.3787,0.0552711
1462.26,547.7936,0.0604019
1464.76,548.2006,0.064516
1467.26,548.6271,0.068384
1469.76,549.0379,0.0734681
1472.26,549.4544,0.07805
1474.76,549.8654,0.0818007
1477.26,550.2854,0.0859812
1479.76,550.6936,0.0896536
1482.26,551.1105,0.0934798
1484.76,551.5205,0.0973094
1487.26,551.932,0.101183
1489.76,552.3524,0.105769
1492.26,552.7648,0.109775
1494.76,553.1788,0.1138
1497.26,553.5938,0.118574
1499.76,554.0078,0.123532
1502.26,554.426,0.128703
1504.76,554.8404,0.133741
1507.26,555.2541,0.137531
1509.76,555.6641,0.140866
1512.26,556.0798,0.144148
1514.76,556.4946,0.14706
1517.26,556.9095,0.15084
1519.76,557.3256,0.154967
1522.26,557.7344,0.157965
1524.76,558.1459,0.160978
1527.26,558.559,0.165437
1529.76,558.9747,0.171389
1532.26,559.3885,0.177585
1534.76,559.8023,0.182158
1537.26,560.2174,0.185735
1539.76,560.632,0.189381
1542.26,561.042,0.192284
1544.76,561.4542,0.195718
1547.26,561.871,0.199564
1549.76,562.285,0.202722
1552.26,562.695,0.205313
1554.76,563.1119,0.207869
1557.26,563.5269,0.210996
1559.76,563.9389,0.214783
1562.26,564.3511,0.219207
1564.76,564.7688,0.223666
1567.26,565.1764,0.227172
1569.76,565.5896,0.230613
1572.26,566.0033,0.235555
1574.76,566.4175,0.239878
1577.26,566.8359,0.243085
1579.76,567.2492,0.24666
1582.26,567.6678,0.250672
1584.76,568.0775,0.254653
1587.26,568.4944,0.258587
1589.76,568.9025,0.262489
1592.26,569.3166,0.26597
1594.76,569.7305,0.269347
1597.26,570.1444,0.272244
1599.76,570.5572,0.275648
1602.26,570.9655,0.279997
1604.76,571.3853,0.284389
1607.26,571.7984,0.289173
1609.76,572.2094,0.293754
1612.26,572.6258,0.298595
1614.76,573.0382,0.303668
1617.26,573.4524,0.307951
1619.76,573.8688,0.311486
1622.26,574.2802,0.314517
1624.76,574.6951,0.318349
1627.26,575.1104,0.322491
1629.76,575.5252,0.3269367
1632.26,575.9362,0.3315
1634.76,576.3489,0.335327
1637.26,576.7631,0.339431
1639.76,577.174,0.343505
1642.26,577.589,0.347212
1644.76,578.0007,0.350791
1647.26,578.4137,0.353853
1649.76,578.8275,0.356679
1652.26,579.2447,0.359095
1654.76,579.6581,0.36061
1657.26,580.0694,0.361789
1659.76,580.4826,0.363847
1662.26,580.8935,0.367127
1664.76,581.3074,0.369567
1667.26,581.7169,0.371434
1669.76,582.1332,0.374791
1672.26,582.5471,0.377735
1674.76,582.96,0.379401
1677.26,583.3756,0.380675
1679.76,583.785,0.382071
1682.26,584.1997,0.383439
1684.76,584.6102,0.383556
1687.26,585.0281,0.385174
1689.76,585.439,0.387773
1692.26,585.8492,0.389394
1694.76,586.2631,0.390268
1697.26,586.6789,0.390401
1699.76,587.0858,0.390395
1702.26,587.5026,0.3903
1704.76,587.9118,0.390674
1707.26,588.3306,0.390454
1709.76,588.7425,0.390654
1712.26,589.1532,0.391323
1714.76,589.5668,0.391309
1717.26,589.9833,0.391051
1719.76,590.3893,0.390357
1722.26,590.8058,0.388994
1724.76,591.2167,0.386804
1727.26,591.6273,0.385154
1729.76,592.0374,0.383635
1732.26,592.4555,0.381734
1734.76,592.8654,0.379385
1737.26,593.2766,0.375697
1739.76,593.6914,0.371745
1742.26,594.0963,0.368477
1744.76,594.5089,0.365117
1747.26,594.9257,0.361744
1749.76,595.3365,0.358554
1752.26,595.7463,0.354772
1754.76,596.1575,0.350703
1757.26,596.5711,0.346907
1759.76,596.981,0.342405
1762.26,597.3898,0.337881
1764.76,597.801,0.334056
1767.26,598.2086,0.329052
1769.76,598.6211,0.322982
1772.26,599.0332,0.31627
1774.76,599.4413,0.310019
1777.26,599.8548,0.304622
1779.76,600.2666,0.298915
1782.26,600.6725,0.291313
1784.76,601.0856,0.282055
1787.26,601.4946,0.27465
1789.76,601.904,0.268512
1792.26,602.3088,0.261422
1794.76,602.7168,0.253642
1797.26,603.1285,0.244602
1799.76,603.5358,0.234174
1802.26,603.9464,0.224231
1804.76,604.3557,0.215368
1807.26,604.7671,0.206456
1809.76,605.1788,0.196073
1812.26,605.5897,0.184533
1814.76,605.9975,0.172751
1817.26,606.401,0.16143
1819.76,606.8116,0.150874
1822.26,607.221,0.140185
1824.76,607.6274,0.128652
1827.26,608.0372,0.116937
1829.76,608.4473,0.104487
1832.26,608.8546,0.0917469
1834.76,609.2639,0.0786614
1837.26,609.6806,0.06476
1839.76,610.085,0.0512812
1842.26,610.4966,0.0365533
1844.76,610.9042,0.0213847
1847.26,611.3109,0.006464297
1849.76,611.716,-0.008744167
1852.26,612.1275,-0.024893
1854.76,612.5297,-0.0427036
1857.26,612.9403,-0.0609001
1859.76,613.3512,-0.078127
1862.26,613.759,-0.0946595
1864.76,614.171,-0.111615
1867.26,614.5754,-0.129593
1869.76,614.9843,-0.148603
1872.26,615.3919,-0.167909
1874.76,615.7989,-0.186722
1877.26,616.205,-0.206115
1879.76,616.61,-0.2264
1882.26,617.0224,-0.246095
1884.76,617.4314,-0.2657
1887.26,617.8356,-0.28568
1889.76,618.2428,-0.306347
1892.26,618.6487,-0.328053
1894.76,619.0553,-0.35012
1897.26,619.4634,-0.371347
1899.76,619.8648,-0.39259
1902.26,620.2738,-0.413936
1904.76,620.6789,-0.43437
1907.26,621.0866,-0.456183
1909.76,621.493,-0.478855
1912.26,621.9026,-0.499852
1914.76,622.3078,-0.520035
1917.26,622.715,-0.540776
1919.76,623.1232,-0.561538
1922.26,623.5256,-0.582529
1924.76,623.9348,-0.60368
1927.26,624.3408,-0.623968
1929.76,624.7489,-0.643792
1932.26,625.1517,-0.663713
1934.76,625.5554,-0.684821
1937.26,625.9678,-0.705712
1939.76,626.3758,-0.723996
1942.26,626.7867,-0.741092
1944.76,627.191,-0.758538
1947.26,627.6045,-0.77603
1949.76,628.0119,-0.791901
1952.26,628.4191,-0.806653
1954.76,628.8314,-0.820575
1957.26,629.2377,-0.834068
1959.76,629.648,-0.848543
1962.26,630.0575,-0.860747
1964.76,630.4706,-0.869464
1967.26,630.8819,-0.875303
1969.76,631.291,-0.881665
1972.26,631.6963,-0.890328
1974.76,632.1122,-0.898731
1977.26,632.5285,-0.904865
1979.76,632.9396,-0.908016
1982.26,633.35,-0.909628
1984.76,633.7619,-0.910567
1987.26,634.174,-0.910505
1989.76,634.587,-0.908871
1992.26,635.001,-0.905693
1994.76,635.416,-0.902084
1997.26,635.8325,-0.897796
1999.76,636.2399,-0.893329
2002.26,636.656,-0.88855
2004.76,637.0707,-0.880024
2007.26,637.4802,-0.873474
2009.76,637.8864,-0.882273
2012.26,638.3026,-0.890836
2014.76,638.7169,-0.88623
2017.26,639.1378,-0.880354
2019.76,639.5496,-0.872636
2022.26,639.9645,-0.859616
2024.76,640.3797,-0.847171
2027.26,640.7958,-0.829717
2029.76,641.2067,-0.815324
2032.26,641.6241,-0.817162
2034.76,642.0378,-0.811174
2037.26,642.4524,-0.801776
2039.76,642.8605,-0.793195
2042.26,643.2779,-0.782579
2044.76,643.693,-0.772832
2047.26,644.1097,-0.756853
2049.76,644.5262,-0.743238
2052.26,644.9406,-0.726603
2054.76,645.3572,-0.710576
2057.26,645.7706,-0.69517
2059.76,646.1886,-0.677522
2062.26,646.607,-0.658632
2064.76,647.0217,-0.635078
2067.26,647.4368,-0.618116
2069.76,647.8528,-0.602023
2072.26,648.2726,-0.582117
2074.76,648.6871,-0.561376
2077.26,649.1036,-0.538946
2079.76,649.5258,-0.514699
2082.26,649.9363,-0.491639
2084.76,650.3574,-0.469276
2087.26,650.7764,-0.443946
2089.76,651.1922,-0.416134
2092.26,651.6125,-0.386722
2094.76,652.0272,-0.36149
2097.26,652.4512,-0.336387
2099.76,652.87,-0.308413
2102.26,653.282,-0.281075
2104.76,653.7031,-0.252369
2107.26,654.1217,-0.220143
2109.76,654.5448,-0.187794
2112.26,654.966,-0.154804
2114.76,655.3825,-0.120921
2117.26,655.8029,-0.0869291
2119.76,656.2225,-0.0531635
2122.26,656.6426,-0.0192737
2124.76,657.0618,0.0166835
2127.26,657.4811,0.0530661
2129.76,657.9028,0.0902969
2132.26,658.3187,0.128205
2134.76,658.7379,0.167028
2137.26,659.1571,0.206441
2139.76,659.5832,0.245955
2142.26,660.0021,0.285175
2144.76,660.4241,0.325041
2147.26,660.8424,0.364684
2149.76,661.2634,0.403888
2152.26,661.6859,0.44446
2154.76,662.1128,0.48502
2157.26,662.5288,0.525015
2159.76,662.9536,0.565434
2162.26,663.3719,0.605606
2164.76,663.7936,0.645114
2167.26,664.212,0.684413
2169.76,664.6336,0.723676
2172.26,665.0522,0.763094
2174.76,665.4746,0.801637
2177.26,665.892,0.839703
2179.76,666.3131,0.878431
2182.26,666.7298,0.917243
2184.76,667.1488,0.955355
2187.26,667.5738,0.993226
2189.76,667.9882,1.03112
2192.26,668.41,1.06807
2194.76,668.831,1.1042
2197.26,669.2494,1.14079
2199.76,669.6714,1.17718
2202.26,670.087,1.21334
2204.76,670.512,1.25011
2207.26,670.932,1.28638
2209.76,671.3464,1.32129
2212.26,671.7662,1.35511
2214.76,672.1836,1.3885
2217.26,672.6024,1.4227
2219.76,673.0195,1.45699
2222.26,673.4404,1.4893
2224.76,673.8553,1.52039
2227.26,674.2763,1.5521
2229.76,674.696,1.58301
2232.26,675.112,1.61384
2234.76,675.5272,1.64501
2237.26,675.943,1.67468
2239.76,676.3633,1.70404
2242.26,676.7804,1.73203
2244.76,677.1997,1.75886
2247.26,677.6143,1.78554
2249.76,678.035,1.81268
2252.26,678.4524,1.8397
2254.76,678.868,1.86515
2257.26,679.2863,1.89044
2259.76,679.7025,1.91526
2262.26,680.1225,1.93949
2264.76,680.5396,1.96371
2267.26,680.953,1.98664
2269.76,681.373,2.00892
2272.26,681.7896,2.03206
2274.76,682.2076,2.05468
2277.26,682.6186,2.07622
2279.76,683.036,2.09752
2282.26,683.4507,2.11787
2284.76,683.8644,2.13744
2287.26,684.282,2.15607
2289.76,684.6982,2.17444
2292.26,685.1094,2.19267
2294.76,685.5256,2.21032
2297.26,685.9437,2.22966
2299.76,686.3602,2.24927
2302.26,686.774,2.26728
2304.76,687.1882,2.28563
2307.26,687.6062,2.30493
2309.76,688.0206,2.32324
2312.26,688.4347,2.33967
2314.76,688.8569,2.35506
2317.26,689.2674,2.36958
2319.76,689.6808,2.38442
2322.26,690.0945,2.39982
2324.76,690.515,2.41508
2327.26,690.9281,2.42988
2329.76,691.342,2.44337
2332.26,691.754,2.45758
2334.76,692.1691,2.47316
2337.26,692.5862,2.4868
2339.76,692.996,2.49983
2342.26,693.414,2.51348
2344.76,693.8274,2.5257
2347.26,694.243,2.53812
2349.76,694.6578,2.55083
2352.26,695.0706,2.56337
2354.76,695.4817,2.57574
2357.26,695.8973,2.58806
2359.76,696.3089,2.60029
2362.26,696.7219,2.61194
2364.76,697.1361,2.62339
2367.26,697.5518,2.63502
2369.76,697.9648,2.64651
2372.26,698.38,2.65798
2374.76,698.7926,2.66884
2377.26,699.2047,2.68017
2379.76,699.616,2.69243
2382.26,700.0363,2.70363
2384.76,700.4446,2.7144
2387.26,700.8604,2.72485
2389.76,701.2719,2.73414
2392.26,701.6873,2.74356
2394.76,702.1,2.75359
2397.26,702.5118,2.76421
2399.76,702.928,2.77412
2402.26,703.3387,2.78309
2404.76,703.7524,2.79264
2407.26,704.1657,2.80207
2409.76,704.5818,2.8111
2412.26,704.9926,2.81956
2414.76,705.4096,2.82906
2417.26,705.8204,2.8387
2419.76,706.2309,2.84689
2422.26,706.6526,2.85561
2424.76,707.0664,2.86566
2427.26,707.4776,2.87553
2429.76,707.8929,2.88395
2432.26,708.3036,2.89182
2434.76,708.7159,2.89984
2437.26,709.1309,2.90753
2439.76,709.5471,2.91674
2442.26,709.9619,2.9283
2444.76,710.3738,2.93882
2447.26,710.7874,2.9478
2449.76,711.1977,2.95606
2452.26,711.6176,2.96404
2454.76,712.0324,2.97268
2457.26,712.4422,2.9808
2459.76,712.8517,2.98707
2462.26,713.2663,2.99291
2464.76,713.6779,2.99991
2467.26,714.0876,3.00753
2469.76,714.505,3.0154
2472.26,714.915,3.02315
2474.76,715.3322,3.0308
2477.26,715.7464,3.03769
2479.76,716.157,3.04362
2482.26,716.5668,3.04846
2484.76,716.9844,3.05415
2487.26,717.3921,3.06078
2489.76,717.8032,3.06656
2492.26,718.2196,3.07223
2494.76,718.6302,3.07799
2497.26,719.0459,3.08383
2499.76,719.4547,3.09027
2502.26,719.8709,3.09646
2504.76,720.2821,3.10174
2507.26,720.6972,3.10634
2509.76,721.1087,3.11176
2512.26,721.5186,3.11848
2514.76,721.9317,3.12496
2517.26,722.345,3.13062
2519.76,722.76,3.13571
2522.26,723.1722,3.1405
2524.76,723.583,3.14526
2527.26,723.9981,3.15094
2529.76,724.41,3.15818
2532.26,724.8228,3.16528
2534.76,725.2368,3.17038
2537.26,725.6463,3.17459
2539.76,726.0597,3.1792
2542.26,726.4739,3.18504
2544.76,726.8846,3.19195
2547.26,727.2994,3.19901
2549.76,727.7159,3.20597
2552.26,728.1246,3.21247
2554.76,728.5358,3.21819
2557.26,728.9479,3.22261
2559.76,729.3594,3.22683
2562.26,729.7726,3.23196
2564.76,730.1874,3.2381
2567.26,730.5963,3.2438
2569.76,731.0164,3.2478
2572.26,731.4294,3.2527
2574.76,731.8396,3.25797
2577.26,732.2528,3.26176
2579.76,732.6656,3.2663
2582.26,733.0776,3.27111
2584.76,733.4896,3.27527
2587.26,733.9068,3.2801
2589.76,734.3146,3.28389
2592.26,734.7231,3.28742
2594.76,735.142,3.29294
2597.26,735.5502,3.29934
2599.76,735.9628,3.30478
2602.26,736.3722,3.31018
2604.76,736.7874,3.3162
2607.26,737.2024,3.32161
2609.76,737.614,3.32595
2612.26,738.0261,3.33132
2614.76,738.4408,3.33728
2617.26,738.8542,3.34176
2619.76,739.263,3.34579
2622.26,739.6748,3.34992
2624.76,740.0881,3.35418
2627.26,740.5025,3.3593
2629.76,740.9152,3.3648
2632.26,741.3304,3.36941
2634.76,741.7406,3.37384
2637.26,742.1528,3.37936
2639.76,742.5633,3.38523
2642.26,742.9738,3.3901
2644.76,743.3903,3.39516
2647.26,743.8008,3.4007
2649.76,744.2167,3.40608
2652.26,744.6285,3.41138
2654.76,745.0428,3.41683
2657.26,745.4558,3.42176
2659.76,745.865,3.42602
2662.26,746.2803,3.4315
2664.76,746.6972,3.43763
2667.26,747.1054,3.44239
2669.76,747.5188,3.44601
2672.26,747.9278,3.4499
2674.76,748.3366,3.4547
2677.26,748.7538,3.46011
2679.76,749.1689,3.46429
2682.26,749.58,3.46823
2684.76,749.9906,3.47296
2687.26,750.4049,3.4769
2689.76,750.8164,3.48141
2692.26,751.229,3.48633
2694.76,751.6441,3.49043
2697.26,752.0603,3.49464
2699.76,752.4728,3.49961
2702.26,752.8816,3.50473
2704.76,753.2944,3.50989
2707.26,753.7086,3.51364
2709.76,754.1197,3.51741
2712.26,754.5321,3.52259
2714.76,754.947,3.52792
2717.26,755.3563,3.53319
2719.76,755.7712,3.53819
2722.26,756.183,3.54336
2724.76,756.597,3.54836
2727.26,757.0045,3.55177
2729.76,757.4219,3.55426
2732.26,757.8328,3.55786
2734.76,758.2429,3.56207
2737.26,758.6544,3.56624
2739.76,759.0711,3.57069
2742.26,759.4828,3.57582
2744.76,759.8946,3.58129
2747.26,760.3067,3.58626
2749.76,760.7213,3.59059
2752.26,761.136,3.59494
2754.76,761.5474,3.60007
2757.26,761.9576,3.60411
2759.76,762.368,3.60694
2762.26,762.781,3.61021
2764.76,763.1942,3.61422
2767.26,763.6092,3.61885
2769.76,764.0258,3.62182
2772.26,764.4352,3.62566
2774.76,764.8502,3.63185
2777.26,765.2637,3.63737
2779.76,765.6734,3.64166
2782.26,766.087,3.64435
2784.76,766.5022,3.64808
2787.26,766.911,3.65181
2789.76,767.3267,3.65447
2792.26,767.742,3.65738
2794.76,768.1502,3.66167
2797.26,768.5666,3.66478
2799.76,768.9824,3.66849
2802.26,769.3933,3.67451
2804.76,769.806,3.67835
2807.26,770.2202,3.68146
2809.76,770.629,3.68287
2812.26,771.0413,3.68383
2814.76,771.4506,3.6868
2817.26,771.865,3.6913
2819.76,772.281,3.69501
2822.26,772.6926,3.69834
2824.76,773.1043,3.7018
2827.26,773.5156,3.70603
2829.76,773.9267,3.71066
2832.26,774.3365,3.7136
2834.76,774.7516,3.71638
2837.26,775.1632,3.71988
2839.76,775.5772,3.72418
2842.26,775.9943,3.7298
2844.76,776.4044,3.73576
2847.26,776.8168,3.74027
2849.76,777.228,3.74424
2852.26,777.6437,3.74776
2854.76,778.0518,3.75195
2857.26,778.4652,3.75576
2859.76,778.8796,3.75908
2862.26,779.2924,3.76279
2864.76,779.7031,3.76659
2867.26,780.1147,3.77138
2869.76,780.5259,3.77533
2872.26,780.9343,3.77661
2874.76,781.3503,3.77793
2877.26,781.7648,3.78129
2879.76,782.1744,3.78403
2882.26,782.5899,3.78628
2884.76,783.0056,3.78983
2887.26,783.4148,3.79374
2889.76,783.8284,3.79674
2892.26,784.2408,3.80054
2894.76,784.6533,3.80372
2897.26,785.0683,3.80476
2899.76,785.4792,3.80782
2902.26,785.8921,3.81229
2904.76,786.3092,3.81565
2907.26,786.7178,3.81763
2909.76,787.1332,3.8192
2912.26,787.5518,3.82194
2914.76,787.9609,3.82541
2917.26,788.3742,3.82809
2919.76,788.7889,3.83097
2922.26,789.2036,3.83477
2924.76,789.615,3.83745
2927.26,790.0266,3.83956
2929.76,790.4394,3.84172
2932.26,790.854,3.84439
2934.76,791.2663,3.84723
2937.26,791.681,3.84747
2939.76,792.0899,3.84759
2942.26,792.5074,3.8505
2944.76,792.9168,3.85512
2947.26,793.3283,3.85882
2949.76,793.7394,3.86129
2952.26,794.155,3.86415
2954.76,794.5656,3.86657
2957.26,794.9793,3.86939
2959.76,795.392,3.87294
2962.26,795.8078,3.87739
2964.76,796.2168,3.88202
2967.26,796.6276,3.886
2969.76,797.0411,3.89066
2972.26,797.4545,3.89447
2974.76,797.8653,3.89692
2977.26,798.277,3.89985
2979.76,798.6919,3.90267
2982.26,799.1016,3.90439
2984.76,799.515,3.90649
2987.26,799.9304,3.91029
2989.76,800.3444,3.9144
2992.26,800.7545,3.91673
2994.76,801.1684,3.91758
2997.26,801.579,3.91895
2999.76,801.9956,3.92187
3002.26,802.4056,3.92642
3004.76,802.8184,3.93195
3007.26,803.2262,3.93455
3009.76,803.6389,3.93537
3012.26,804.0522,3.9385
3013.76,804.3014,3.94069