File: Non-charring/PMMA/HKPolyU/HKPolyU_DSC_N2_1.csv
Time,Temperature,Heat Flow
[s],[k],[W/g]
0.24,300.03,4.53669
2.26,300.305,4.71582
4.76,300.599,4.90571
7.26,300.907,5.10507
9.76,301.246,5.26671
12.26,301.602,5.34365
14.76,301.972,5.36363
17.26,302.347,5.37984
19.76,302.749,5.39526
22.26,303.152,5.4115
24.76,303.579,5.42374
27.26,304.021,5.43489
29.76,304.473,5.44477
32.26,304.948,5.45174
34.76,305.413,5.45937
37.26,305.896,5.46574
39.76,306.384,5.47081
42.26,306.886,5.4734
44.76,307.395,5.47458
47.26,307.905,5.4743
49.76,308.435,5.47148
52.26,308.955,5.46693
54.76,309.48,5.46243
57.26,310.006,5.45808
59.76,310.538,5.45192
62.26,311.066,5.44588
64.76,311.595,5.43594
67.26,312.134,5.4214
69.76,312.666,5.40676
72.26,313.193,5.39133
74.76,313.722,5.37355
77.26,314.247,5.35276
79.76,314.777,5.32868
82.26,315.299,5.30278
84.76,315.811,5.27467
87.26,316.323,5.24602
89.76,316.835,5.21731
92.26,317.345,5.18532
94.76,317.85,5.15001
97.26,318.342,5.11321
99.76,318.831,5.07482
102.26,319.323,5.03446
104.76,319.807,4.99259
107.26,320.286,4.94921
109.76,320.763,4.90315
112.26,321.236,4.85296
114.76,321.703,4.80035
117.26,322.168,4.74806
119.76,322.618,4.69473
122.26,323.072,4.63834
124.76,323.521,4.58109
127.26,323.953,4.52441
129.76,324.401,4.46548
132.26,324.838,4.40501
134.76,325.268,4.34291
137.26,325.695,4.28033
139.76,326.117,4.21829
142.26,326.538,4.15422
144.76,326.953,4.08821
147.26,327.368,4.02192
149.76,327.775,3.95624
152.26,328.191,3.88897
154.76,328.602,3.81872
157.26,329.002,3.74896
159.76,329.401,3.68202
162.26,329.802,3.61437
164.76,330.213,3.54531
167.26,330.609,3.47692
169.76,331.004,3.40952
172.26,331.404,3.34263
174.76,331.798,3.27615
177.26,332.194,3.20894
179.76,332.588,3.14209
182.26,332.991,3.07701
184.76,333.376,3.01413
187.26,333.775,2.9508
189.76,334.161,2.88771
192.26,334.566,2.82442
194.76,334.949,2.76322
197.26,335.344,2.70251
199.76,335.746,2.6419
202.26,336.136,2.58274
204.76,336.537,2.52341
207.26,336.939,2.46482
209.76,337.333,2.40855
212.26,337.736,2.35343
214.76,338.139,2.29904
217.26,338.541,2.2451
219.76,338.94,2.19306
222.26,339.34,2.1423
224.76,339.751,2.09155
227.26,340.156,2.0422
229.76,340.568,1.9928
232.26,340.973,1.94488
234.76,341.381,1.89922
237.26,341.789,1.85404
239.76,342.199,1.80977
242.26,342.614,1.76649
244.76,343.024,1.72397
247.26,343.433,1.6826
249.76,343.852,1.64207
252.26,344.266,1.60277
254.76,344.678,1.56363
257.26,345.099,1.52566
259.76,345.518,1.48893
262.26,345.943,1.45151
264.76,346.36,1.41592
267.26,346.781,1.38109
269.76,347.2,1.34646
272.26,347.622,1.31304
274.76,348.037,1.28035
277.26,348.46,1.24866
279.76,348.886,1.21767
282.26,349.303,1.18732
284.76,349.727,1.15756
287.26,350.15,1.12854
289.76,350.578,1.09965
292.26,351.004,1.07051
294.76,351.424,1.04285
297.26,351.842,1.01657
299.76,352.276,0.989924
302.26,352.698,0.963158
304.76,353.117,0.937549
307.26,353.545,0.912599
309.76,353.966,0.88779
312.26,354.393,0.863974
314.76,354.811,0.840981
317.26,355.237,0.817662
319.76,355.662,0.794579
322.26,356.09,0.772642
324.76,356.513,0.75122
327.26,356.928,0.730208
329.76,357.355,0.708844
332.26,357.783,0.687791
334.76,358.203,0.667575
337.26,358.627,0.647074
339.76,359.051,0.627278
342.26,359.466,0.608259
344.76,359.89,0.58831
347.26,360.315,0.568627
349.76,360.74,0.550072
352.26,361.161,0.532029
354.76,361.589,0.513409
357.26,362.01,0.49519
359.76,362.424,0.47792
362.26,362.848,0.460112
364.76,363.277,0.442316
367.26,363.693,0.424952
369.76,364.117,0.40798
372.26,364.54,0.391001
374.76,364.955,0.374903
377.26,365.373,0.359408
379.76,365.794,0.34345
382.26,366.21,0.328132
384.76,366.633,0.313339
387.26,367.05,0.298442
389.76,367.468,0.283753
392.26,367.886,0.269744
394.76,368.309,0.255319
397.26,368.726,0.241313
399.76,369.143,0.228115
402.26,369.555,0.214796
404.76,369.972,0.201349
407.26,370.397,0.187572
409.76,370.81,0.174445
412.26,371.23,0.162363
414.76,371.654,0.150549
417.26,372.071,0.138835
419.76,372.483,0.126848
422.26,372.903,0.11505
424.76,373.326,0.103264
427.26,373.74,0.0915659
429.76,374.162,0.0811384
432.26,374.583,0.07098845
434.76,375.002,0.0603568
437.26,375.414,0.0503303
439.76,375.843,0.0409321
442.26,376.258,0.0315443
444.76,376.679,0.0216973
447.26,377.098,0.0118475
449.76,377.513,0.002844983
452.26,377.932,-0.005537558
454.76,378.352,-0.0137576
457.26,378.773,-0.0224524
459.76,379.198,-0.0311495
462.26,379.618,-0.0394603
464.76,380.036,-0.0472057
467.26,380.457,-0.05438845
469.76,380.877,-0.0614005
472.26,381.291,-0.0684632
474.76,381.713,-0.075525
477.26,382.132,-0.0826134
479.76,382.553,-0.0893422
482.26,382.976,-0.096151
484.76,383.392,-0.103048
487.26,383.813,-0.109242
489.76,384.234,-0.11525
492.26,384.658,-0.120905
494.76,385.081,-0.12681
497.26,385.498,-0.132764
499.76,385.917,-0.138259
502.26,386.339,-0.143629
504.76,386.759,-0.148907
507.26,387.18,-0.154086
509.76,387.597,-0.158877
512.26,388.019,-0.163514
514.76,388.44,-0.168027
517.26,388.861,-0.172805
519.76,389.281,-0.177528
522.26,389.707,-0.181463
524.76,390.131,-0.185885
527.26,390.547,-0.190293
529.76,390.966,-0.194346
532.26,391.387,-0.198771
534.76,391.81,-0.202711
537.26,392.233,-0.206728
539.76,392.657,-0.210817
542.26,393.079,-0.21459
544.76,393.499,-0.218073
547.26,393.922,-0.221703
549.76,394.344,-0.22578
552.26,394.762,-0.229456
554.76,395.188,-0.23276
557.26,395.604,-0.236147
559.76,396.028,-0.239081
562.26,396.445,-0.241976
564.76,396.864,-0.245014
567.26,397.283,-0.247934
569.76,397.707,-0.250833
572.26,398.131,-0.253672
574.76,398.552,-0.256368
577.26,398.97,-0.258505
579.76,399.393,-0.260501
582.26,399.815,-0.262729
584.76,400.228,-0.264922
587.26,400.65,-0.266681
589.76,401.068,-0.268476
592.26,401.496,-0.270038
594.76,401.914,-0.271474
597.26,402.335,-0.273228
599.76,402.754,-0.274698
602.26,403.177,-0.275884
604.76,403.593,-0.276828
607.26,404.016,-0.277902
609.76,404.436,-0.278961
612.26,404.859,-0.279883
614.76,405.27,-0.281161
617.26,405.693,-0.282101
619.76,406.113,-0.282899
622.26,406.532,-0.283239
624.76,406.95,-0.283324
627.26,407.372,-0.283872
629.76,407.797,-0.284309
632.26,408.215,-0.284442
634.76,408.631,-0.284356
637.26,409.05,-0.284315
639.76,409.475,-0.284737
642.26,409.898,-0.285497
644.76,410.312,-0.285902
647.26,410.734,-0.28581
649.76,411.155,-0.285466
652.26,411.573,-0.285097
654.76,411.993,-0.284764
657.26,412.414,-0.284101
659.76,412.831,-0.283432
662.26,413.251,-0.282576
664.76,413.668,-0.281595
667.26,414.089,-0.28096
669.76,414.508,-0.280437
672.26,414.929,-0.280366
674.76,415.344,-0.280113
677.26,415.766,-0.279577
679.76,416.19,-0.278725
682.26,416.603,-0.277706
684.76,417.027,-0.27677
687.26,417.448,-0.275283
689.76,417.866,-0.273909
692.26,418.28,-0.272844
694.76,418.696,-0.271425
697.26,419.122,-0.270362
699.76,419.54,-0.269406
702.26,419.957,-0.26791
704.76,420.374,-0.266696
707.26,420.793,-0.265254
709.76,421.213,-0.263716
712.26,421.634,-0.261853
714.76,422.052,-0.260024
717.26,422.475,-0.258585
719.76,422.894,-0.256707
722.26,423.308,-0.255071
724.76,423.73,-0.253463
727.26,424.146,-0.251729
729.76,424.569,-0.250239
732.26,424.98,-0.248796
734.76,425.403,-0.24702
737.26,425.815,-0.245044
739.76,426.245,-0.243259
742.26,426.658,-0.241041
744.76,427.086,-0.238795
747.26,427.506,-0.236977
749.76,427.923,-0.23501
752.26,428.348,-0.23273
754.76,428.766,-0.230569
757.26,429.184,-0.22854
759.76,429.607,-0.226264
762.26,430.024,-0.224059
764.76,430.443,-0.222049
767.26,430.861,-0.219965
769.76,431.282,-0.217511
772.26,431.698,-0.214929
774.76,432.118,-0.212639
777.26,432.532,-0.210555
779.76,432.952,-0.208018
782.26,433.369,-0.205556
784.76,433.792,-0.203451
787.26,434.205,-0.201115
789.76,434.631,-0.198653
792.26,435.045,-0.1963154
794.76,435.46,-0.193899
797.26,435.883,-0.191283
799.76,436.303,-0.189071
802.26,436.722,-0.187059
804.76,437.142,-0.18485
807.26,437.557,-0.182497
809.76,437.98,-0.180147
812.26,438.4,-0.177871
814.76,438.816,-0.175252
817.26,439.234,-0.172523
819.76,439.651,-0.169658
822.26,440.067,-0.166961
824.76,440.489,-0.164768
827.26,440.908,-0.162531
829.76,441.326,-0.160277
832.26,441.746,-0.157805
834.76,442.162,-0.155156
837.26,442.577,-0.152683
839.76,443.001,-0.149891
842.26,443.418,-0.146892
844.76,443.841,-0.144516
847.26,444.26,-0.142058
849.76,444.682,-0.139208
852.26,445.096,-0.136449
854.76,445.511,-0.133502
857.26,445.931,-0.130523
859.76,446.349,-0.127595
862.26,446.77,-0.124523
864.76,447.187,-0.121255
867.26,447.604,-0.118158
869.76,448.023,-0.115149
872.26,448.443,-0.112173
874.76,448.858,-0.109289
877.26,449.275,-0.10634
879.76,449.694,-0.103165
882.26,450.111,-0.099752
884.76,450.527,-0.0964219
887.26,450.946,-0.09285117
889.76,451.361,-0.0894628
892.26,451.781,-0.086249
894.76,452.192,-0.0827947
897.26,452.607,-0.0793305
899.76,453.026,-0.0755208
902.26,453.445,-0.07144425
904.76,453.865,-0.06763655
907.26,454.278,-0.0638036
909.76,454.703,-0.05985653
912.26,455.116,-0.0559162
914.76,455.54,-0.0519065
917.26,455.947,-0.0479495
919.76,456.37,-0.0438057
922.26,456.784,-0.0392577
924.76,457.2,-0.0348568
927.26,457.622,-0.0307765
929.76,458.046,-0.0266052
932.26,458.458,-0.02208653
934.76,458.878,-0.0173042
937.26,459.294,-0.0123875
939.76,459.711,-0.007450933
942.26,460.126,-0.00272789
944.76,460.542,0.002141092
947.26,460.965,0.007130909
949.76,461.382,0.0118986
952.26,461.799,0.0167282
954.76,462.213,0.0219216
957.26,462.639,0.027292
959.76,463.056,0.0325631
962.26,463.469,0.03811
964.76,463.891,0.0438732
967.26,464.307,0.0492368
969.76,464.727,0.0545104
972.26,465.141,0.060232
974.76,465.563,0.0659496
977.26,465.982,0.0716518
979.76,466.398,0.0774076
982.26,466.814,0.0832896
984.76,467.231,0.0893393
987.26,467.654,0.0953097
989.76,468.07,0.101461
992.26,468.488,0.107139
994.76,468.907,0.112633
997.26,469.322,0.118277
999.76,469.74,0.124283
1002.26,470.158,0.130578
1004.76,470.579,0.13657
1007.26,470.989,0.142286
1009.76,471.409,0.148121
1012.26,471.825,0.154111
1014.76,472.243,0.159979
1017.26,472.659,0.16592
1019.76,473.075,0.172029
1022.26,473.498,0.178319
1024.76,473.906,0.184382
1027.26,474.326,0.190319
1029.76,474.739,0.196145
1032.26,475.158,0.201852
1034.76,475.579,0.207877
1037.26,475.992,0.214101
1039.76,476.413,0.220083
1042.26,476.825,0.22577
1044.76,477.243,0.231536
1047.26,477.66,0.23788
1049.76,478.078,0.244308
1052.26,478.495,0.250409
1054.76,478.919,0.256601
1057.26,479.337,0.262947
1059.76,479.75,0.26929
1062.26,480.168,0.275912
1064.76,480.59,0.282663
1067.26,481.009,0.289512
1069.76,481.428,0.296105
1072.26,481.847,0.3028
1074.76,482.262,0.309635
1077.26,482.677,0.316177
1079.76,483.098,0.323253
1082.26,483.514,0.330149
1084.76,483.93,0.336853
1087.26,484.351,0.344062
1089.76,484.762,0.351434
1092.26,485.182,0.358441
1094.76,485.596,0.365623
1097.26,486.013,0.373356
1099.76,486.432,0.380406
1102.26,486.848,0.387256
1104.76,487.264,0.394884
1107.26,487.682,0.402817
1109.76,488.1,0.410871
1112.26,488.518,0.418729
1114.76,488.933,0.426463
1117.26,489.351,0.434181
1119.76,489.77,0.441599
1122.26,490.186,0.449166
1124.76,490.601,0.456769
1127.26,491.022,0.464389
1129.76,491.438,0.472454
1132.26,491.855,0.480498
1134.76,492.277,0.48832
1137.26,492.688,0.4961
1139.76,493.111,0.504054
1142.26,493.53,0.512378
1144.76,493.942,0.520608
1147.26,494.365,0.528487
1149.76,494.782,0.536829
1152.26,495.191,0.545187
1154.76,495.607,0.552917
1157.26,496.028,0.561084
1159.76,496.446,0.56957
1162.26,496.865,0.5774096
1164.76,497.278,0.585223
1167.26,497.692,0.593213
1169.76,498.114,0.600712
1172.26,498.526,0.608321
1174.76,498.945,0.616465
1177.26,499.364,0.624748
1179.76,499.78,0.632923
1182.26,500.194,0.640757
1184.76,500.614,0.648805
1187.26,501.032,0.656849
1189.76,501.453,0.664253
1192.26,501.87,0.671966
1194.76,502.283,0.679623
1197.26,502.699,0.687018
1199.76,503.116,0.69443
1202.26,503.526,0.701816
1204.76,503.953,0.709673
1207.26,504.364,0.717564
1209.76,504.781,0.725388
1212.26,505.191,0.732673
1214.76,505.603,0.740117
1217.26,506.019,0.747988
1219.76,506.439,0.755309
1222.26,506.853,0.762628
1224.76,507.269,0.770132
1227.26,507.685,0.777528
1229.76,508.102,0.785311
1232.26,508.513,0.792907
1234.76,508.93,0.800022
1237.26,509.347,0.807463
1239.76,509.765,0.814766
1242.26,510.18,0.821472
1244.76,510.597,0.828564
1247.26,511.013,0.836021
1249.76,511.428,0.843099
1252.26,511.844,0.849905
1254.76,512.258,0.857249
1257.26,512.676,0.864602
1259.76,513.088,0.8716423
1262.26,513.503,0.878591
1264.76,513.924,0.885554
1267.26,514.338,0.892711
1269.76,514.749,0.899954
1272.26,515.168,0.907062
1274.76,515.58,0.913809
1277.26,516,0.920452
1279.76,516.414,0.927062
1282.26,516.829,0.933654
1284.76,517.242,0.940492
1287.26,517.653,0.947642
1289.76,518.07,0.954156
1292.26,518.486,0.960652
1294.76,518.903,0.9674654
1297.26,519.317,0.97458
1299.76,519.733,0.981558
1302.26,520.146,0.988085
1304.76,520.563,0.994767
1307.26,520.973,1.00178
1309.76,521.394,1.0087
1312.26,521.809,1.01531
1314.76,522.225,1.02214
1317.26,522.646,1.02881
1319.76,523.058,1.03516
1322.26,523.472,1.04132
1324.76,523.883,1.04765
1327.26,524.302,1.05427
1329.76,524.72,1.06107
1332.26,525.133,1.06776
1334.76,525.55,1.07433
1337.26,525.966,1.08097
1339.76,526.378,1.08746
1342.26,526.792,1.09375
1344.76,527.208,1.09987
1347.26,527.624,1.10637
1349.76,528.044,1.11312
1352.26,528.457,1.11939
1354.76,528.869,1.12569
1357.26,529.285,1.13198
1359.76,529.702,1.13759
1362.26,530.118,1.14353
1364.76,530.537,1.14995
1367.26,530.956,1.15589
1369.76,531.365,1.1612
1372.26,531.779,1.16714
1374.76,532.188,1.17363
1377.26,532.607,1.17983
1379.76,533.023,1.18564
1382.26,533.429,1.19147
1384.76,533.85,1.19744
1387.26,534.263,1.2033
1389.76,534.678,1.20971
1392.26,535.094,1.21555
1394.76,535.507,1.22114
1397.26,535.918,1.22717
1399.76,536.335,1.23321
1402.26,536.75,1.239
1404.76,537.166,1.24423
1407.26,537.576,1.24973
1409.76,537.992,1.25592
1412.26,538.402,1.26201
1414.76,538.817,1.26753
1417.26,539.238,1.27264
1419.76,539.648,1.27791
1422.26,540.058,1.28359
1424.76,540.476,1.28958
1427.26,540.89,1.29501
1429.76,541.306,1.3
1432.26,541.721,1.30551
1434.76,542.141,1.31082
1437.26,542.551,1.31616
1439.76,542.964,1.32147
1442.26,543.38,1.32662
1444.76,543.798,1.33177
1447.26,544.212,1.33695
1449.76,544.619,1.34242
1452.26,545.034,1.34735
1454.76,545.45,1.3523
1457.26,545.862,1.35708
1459.76,546.277,1.36183
1462.26,546.69,1.36742
1464.76,547.107,1.37249
1467.26,547.519,1.37752
1469.76,547.934,1.3829
1472.26,548.347,1.38833
1474.76,548.758,1.39358
1477.26,549.172,1.39845
1479.76,549.59,1.4033
1482.26,550.003,1.40818
1484.76,550.414,1.41329
1487.26,550.83,1.41816
1489.76,551.245,1.42298
1492.26,551.658,1.4279
1494.76,552.07,1.43239
1497.26,552.484,1.43691
1499.76,552.901,1.4416
1502.26,553.314,1.44613
1504.76,553.726,1.45093
1507.26,554.144,1.45604
1509.76,554.56,1.46066
1512.26,554.971,1.46502
1514.76,555.387,1.46993
1517.26,555.798,1.47488
1519.76,556.215,1.47902
1522.26,556.631,1.48299
1524.76,557.041,1.48771
1527.26,557.454,1.49227
1529.76,557.871,1.49669
1532.26,558.284,1.50142
1534.76,558.702,1.50558
1537.26,559.111,1.50964
1539.76,559.528,1.51415
1542.26,559.942,1.5191
1544.76,560.354,1.52444
1547.26,560.768,1.52932
1549.76,561.174,1.53356
1552.26,561.594,1.53752
1554.76,562.01,1.54175
1557.26,562.423,1.54667
1559.76,562.839,1.55163
1562.26,563.252,1.55609
1564.76,563.661,1.55991
1567.26,564.073,1.56428
1569.76,564.489,1.56923
1572.26,564.9,1.57394
1574.76,565.314,1.57861
1577.26,565.728,1.58304
1579.76,566.144,1.5874
1582.26,566.56,1.59184
1584.76,566.974,1.59683
1587.26,567.385,1.60179
1589.76,567.798,1.60583
1592.26,568.213,1.61029
1594.76,568.626,1.61511
1597.26,569.039,1.61978
1599.76,569.454,1.62476
1602.26,569.865,1.62984
1604.76,570.277,1.63474
1607.26,570.69,1.63921
1609.76,571.105,1.64398
1612.26,571.515,1.6488
1614.76,571.931,1.65349
1617.26,572.348,1.65856
1619.76,572.758,1.66339
1622.26,573.172,1.66824
1624.76,573.59,1.67299
1627.26,573.999,1.67749
1629.76,574.411,1.68211
1632.26,574.827,1.68669
1634.76,575.24,1.69101
1637.26,575.653,1.69542
1639.76,576.07,1.70067
1642.26,576.483,1.70571
1644.76,576.895,1.71019
1647.26,577.314,1.71452
1649.76,577.723,1.71872
1652.26,578.136,1.72282
1654.76,578.548,1.72683
1657.26,578.958,1.73094
1659.76,579.374,1.73506
1662.26,579.79,1.73973
1664.76,580.207,1.74466
1667.26,580.621,1.74923
1669.76,581.031,1.7535
1672.26,581.442,1.75722
1674.76,581.856,1.76031
1677.26,582.271,1.76372
1679.76,582.678,1.76747
1682.26,583.097,1.77062
1684.76,583.508,1.77362
1687.26,583.922,1.77659
1689.76,584.334,1.77958
1692.26,584.747,1.78243
1694.76,585.159,1.78487
1697.26,585.572,1.7874
1699.76,585.987,1.78996
1702.26,586.395,1.79237
1704.76,586.811,1.79443
1707.26,587.223,1.79652
1709.76,587.633,1.79836
1712.26,588.047,1.79984
1714.76,588.46,1.8016
1717.26,588.875,1.80322
1719.76,589.291,1.8047
1722.26,589.702,1.8062
1724.76,590.114,1.80743
1727.26,590.528,1.8084
1729.76,590.94,1.80912
1732.26,591.355,1.80939
1734.76,591.767,1.80958
1737.26,592.183,1.81025
1739.76,592.592,1.81055
1742.26,593.009,1.81012
1744.76,593.419,1.80986
1747.26,593.829,1.80948
1749.76,594.241,1.80885
1752.26,594.651,1.80775
1754.76,595.062,1.8063
1757.26,595.475,1.80465
1759.76,595.88,1.803
1762.26,596.293,1.80156
1764.76,596.702,1.79948
1767.26,597.111,1.79718
1769.76,597.526,1.79483
1772.26,597.937,1.79194
1774.76,598.35,1.789
1777.26,598.758,1.78559
1779.76,599.168,1.78203
1782.26,599.577,1.77833
1784.76,599.993,1.77423
1787.26,600.401,1.77
1789.76,600.812,1.7658
1792.26,601.224,1.76114
1794.76,601.631,1.75551
1797.26,602.041,1.74966
1799.76,602.451,1.74394
1802.26,602.861,1.7379
1804.76,603.265,1.73157
1807.26,603.684,1.72499
1809.76,604.091,1.71791
1812.26,604.505,1.71045
1814.76,604.913,1.70308
1817.26,605.324,1.69504
1819.76,605.74,1.68625
1822.26,606.145,1.67766
1824.76,606.552,1.66869
1827.26,606.965,1.65906
1829.76,607.373,1.64911
1832.26,607.779,1.63912
1834.76,608.193,1.62841
1837.26,608.598,1.617
1839.76,609.004,1.60551
1842.26,609.415,1.59403
1844.76,609.825,1.58227
1847.26,610.229,1.57021
1849.76,610.64,1.55753
1852.26,611.045,1.54441
1854.76,611.454,1.53109
1857.26,611.865,1.51759
1859.76,612.271,1.50325
1862.26,612.684,1.4883
1864.76,613.09,1.47347
1867.26,613.501,1.4585
1869.76,613.909,1.44264
1872.26,614.313,1.42618
1874.76,614.722,1.40997
1877.26,615.131,1.39383
1879.76,615.538,1.37718
1882.26,615.946,1.36011
1884.76,616.357,1.34281
1887.26,616.768,1.325
1889.76,617.173,1.30706
1892.26,617.577,1.28886
1894.76,617.988,1.2703
1897.26,618.394,1.25148
1899.76,618.798,1.23252
1902.26,619.208,1.21343
1904.76,619.615,1.19421
1907.26,620.02,1.17501
1909.76,620.431,1.15605
1912.26,620.84,1.13732
1914.76,621.245,1.11807
1917.26,621.648,1.09843
1919.76,622.058,1.07883
1922.26,622.47,1.05972
1924.76,622.874,1.04049
1927.26,623.278,1.0209
1929.76,623.685,1.00135
1932.26,624.091,0.982078
1934.76,624.5,0.962984
1937.26,624.907,0.944193
1939.76,625.312,0.925558
1942.26,625.719,0.906992
1944.76,626.13,0.889308
1947.26,626.534,0.872256
1949.76,626.945,0.855054
1952.26,627.352,0.838195
1954.76,627.759,0.822474
1957.26,628.167,0.807813
1959.76,628.576,0.793932
1962.26,628.985,0.780885
1964.76,629.396,0.769027
1967.26,629.808,0.757496
1969.76,630.219,0.746824
1972.26,630.627,0.738795
1974.76,631.039,0.732212
1977.26,631.449,0.724426
1979.76,631.859,0.717233
1982.26,632.271,0.712097
1984.76,632.683,0.708607
1987.26,633.093,0.706579
1989.76,633.505,0.703611
1992.26,633.915,0.700557
1994.76,634.327,0.701406
1997.26,634.739,0.703172
1999.76,635.148,0.703622
2002.26,635.567,0.704302
2004.76,635.974,0.705247
2007.26,636.389,0.708104
2009.76,636.804,0.713272
2012.26,637.217,0.717615
2014.76,637.628,0.71958
2017.26,638.046,0.724921
2019.76,638.456,0.732031
2022.26,638.871,0.73357
2024.76,639.283,0.736538
2027.26,639.697,0.749264
2029.76,640.113,0.759111
2032.26,640.526,0.765759
2034.76,640.938,0.781942
2037.26,641.354,0.795619
2039.76,641.768,0.806307
2042.26,642.188,0.824378
2044.76,642.598,0.843623
2047.26,643.011,0.862196
2049.76,643.435,0.878216
2052.26,643.852,0.89862
2054.76,644.262,0.920313
2057.26,644.674,0.932447
2059.76,645.09,0.936659
2062.26,645.509,0.949398
2064.76,645.923,0.966288
2067.26,646.341,0.984557
2069.76,646.755,1.00887
2072.26,647.17,1.02611
2074.76,647.589,1.04059
2077.26,648.004,1.06017
2079.76,648.419,1.0818
2082.26,648.837,1.10402
2084.76,649.255,1.12814
2087.26,649.67,1.14935
2089.76,650.088,1.17171
2092.26,650.507,1.19795
2094.76,650.923,1.225
2097.26,651.341,1.24841
2099.76,651.759,1.27189
2102.26,652.176,1.29819
2104.76,652.595,1.32578
2107.26,653.013,1.35473
2109.76,653.431,1.38401
2112.26,653.848,1.4129
2114.76,654.267,1.44163
2117.26,654.686,1.47089
2119.76,655.108,1.50166
2122.26,655.523,1.53345
2124.76,655.94,1.56516
2127.26,656.358,1.59758
2129.76,656.778,1.63124
2132.26,657.201,1.66584
2134.76,657.622,1.70123
2137.26,658.036,1.73707
2139.76,658.458,1.77427
2142.26,658.879,1.81266
2144.76,659.296,1.85087
2147.26,659.712,1.88937
2149.76,660.133,1.92821
2152.26,660.559,1.96705
2154.76,660.977,2.00653
2157.26,661.398,2.04572
2159.76,661.813,2.0845
2162.26,662.235,2.12417
2164.76,662.657,2.16365
2167.26,663.08,2.20286
2169.76,663.501,2.24283
2172.26,663.92,2.28321
2174.76,664.338,2.32347
2177.26,664.759,2.36317
2179.76,665.176,2.40238
2182.26,665.593,2.44166
2184.76,666.016,2.48135
2187.26,666.433,2.52111
2189.76,666.854,2.56058
2192.26,667.27,2.5996
2194.76,667.698,2.63781
2197.26,668.116,2.67617
2199.76,668.536,2.71482
2202.26,668.952,2.75304
2204.76,669.369,2.79078
2207.26,669.791,2.82771
2209.76,670.212,2.86419
2212.26,670.627,2.90001
2214.76,671.045,2.93495
2217.26,671.462,2.96987
2219.76,671.882,3.00457
2222.26,672.3,3.0388
2224.76,672.716,3.0725
2227.26,673.138,3.10571
2229.76,673.556,3.13897
2232.26,673.975,3.17127
2234.76,674.396,3.20264
2237.26,674.811,3.23374
2239.76,675.229,3.26442
2242.26,675.647,3.29451
2244.76,676.068,3.32399
2247.26,676.482,3.35296
2249.76,676.901,3.38203
2252.26,677.313,3.41087
2254.76,677.736,3.43885
2257.26,678.15,3.46725
2259.76,678.566,3.4951
2262.26,678.986,3.52112
2264.76,679.405,3.54673
2267.26,679.821,3.57259
2269.76,680.236,3.59796
2272.26,680.648,3.62229
2274.76,681.066,3.64581
2277.26,681.483,3.66919
2279.76,681.903,3.69313
2282.26,682.314,3.71603
2284.76,682.73,3.73831
2287.26,683.149,3.76028
2289.76,683.563,3.78182
2292.26,683.98,3.80293
2294.76,684.398,3.82371
2297.26,684.809,3.84414
2299.76,685.223,3.8639
2302.26,685.64,3.88371
2304.76,686.053,3.90318
2307.26,686.469,3.92183
2309.76,686.883,3.93983
2312.26,687.298,3.95766
2314.76,687.715,3.97527
2317.26,688.132,3.99322
2319.76,688.547,4.01099
2322.26,688.961,4.02779
2324.76,689.377,4.04435
2327.26,689.787,4.06074
2329.76,690.201,4.07719
2332.26,690.617,4.09269
2334.76,691.037,4.10759
2337.26,691.451,4.12285
2339.76,691.864,4.13784
2342.26,692.277,4.15191
2344.76,692.691,4.16564
2347.26,693.105,4.17982
2349.76,693.52,4.19364
2352.26,693.939,4.20747
2354.76,694.352,4.22182
2357.26,694.764,4.23603
2359.76,695.175,4.24902
2362.26,695.597,4.26192
2364.76,696.005,4.27472
2367.26,696.417,4.28668
2369.76,696.833,4.29879
2372.26,697.243,4.31079
2374.76,697.661,4.32274
2377.26,698.075,4.33478
2379.76,698.484,4.34662
2382.26,698.9,4.35813
2384.76,699.315,4.36939
2387.26,699.722,4.38029
2389.76,700.142,4.39124
2392.26,700.555,4.40207
2394.76,700.968,4.41338
2397.26,701.377,4.42488
2399.76,701.796,4.43591
2402.26,702.206,4.44697
2404.76,702.618,4.45755
2407.26,703.032,4.46806
2409.76,703.443,4.4786
2412.26,703.858,4.48856
2414.76,704.273,4.49842
2417.26,704.69,4.50828
2419.76,705.099,4.51844
2422.26,705.51,4.52839
2424.76,705.924,4.53792
2427.26,706.338,4.5479
2429.76,706.748,4.55759
2432.26,707.164,4.56714
2434.76,707.572,4.57666
2437.26,707.99,4.58629
2439.76,708.4,4.5961
2442.26,708.818,4.60562
2444.76,709.229,4.61519
2447.26,709.643,4.6249
2449.76,710.057,4.63431
2452.26,710.469,4.64394
2454.76,710.883,4.65296
2457.26,711.294,4.66158
2459.76,711.706,4.67111
2462.26,712.119,4.68048
2464.76,712.534,4.68942
2467.26,712.945,4.69834
2469.76,713.357,4.70753
2472.26,713.775,4.71635
2474.76,714.186,4.72453
2477.26,714.595,4.73252
2479.76,715.008,4.74038
2482.26,715.425,4.74884
2484.76,715.838,4.75743
2487.26,716.248,4.76606
2489.76,716.668,4.77428
2492.26,717.075,4.78194
2494.76,717.488,4.78964
2497.26,717.904,4.79745
2499.76,718.319,4.80588
2502.26,718.728,4.8142
2504.76,719.14,4.82208
2507.26,719.558,4.83001
2509.76,719.971,4.83725
2512.26,720.384,4.84492
2514.76,720.794,4.85268
2517.26,721.208,4.86028
2519.76,721.627,4.86801
2522.26,722.036,4.8756
2524.76,722.447,4.8833
2527.26,722.863,4.89067
2529.76,723.272,4.89809
2532.26,723.686,4.90546
2534.76,724.096,4.91259
2537.26,724.514,4.91947
2539.76,724.921,4.92675
2542.26,725.333,4.93439
2544.76,725.748,4.9419
2547.26,726.16,4.94896
2549.76,726.568,4.95514
2552.26,726.985,4.96172
2554.76,727.398,4.96908
2557.26,727.808,4.976
2559.76,728.221,4.98282
2562.26,728.637,4.98966
2564.76,729.045,4.99688
2567.26,729.458,5.00423
2569.76,729.873,5.01123
2572.26,730.286,5.01827
2574.76,730.698,5.02483
2577.26,731.111,5.03179
2579.76,731.525,5.0393
2582.26,731.938,5.04652
2584.76,732.351,5.05334
2587.26,732.761,5.06005
2589.76,733.177,5.06724
2592.26,733.588,5.07447
2594.76,734,5.08137
2597.26,734.415,5.0881
2599.76,734.83,5.09495
2602.26,735.24,5.1018
2604.76,735.654,5.1086
2607.26,736.064,5.11597
2609.76,736.479,5.12328
2612.26,736.888,5.12953
2614.76,737.305,5.13562
2617.26,737.716,5.14283
2619.76,738.126,5.15038
2622.26,738.538,5.157
2624.76,738.952,5.16371
2627.26,739.368,5.17063
2629.76,739.779,5.1773
2632.26,740.193,5.18374
2634.76,740.605,5.18995
2637.26,741.017,5.19695
2639.76,741.43,5.20437
2642.26,741.841,5.21138
2644.76,742.253,5.21812
2647.26,742.668,5.22503
2649.76,743.083,5.23171
2652.26,743.49,5.23825
2654.76,743.904,5.24544
2657.26,744.317,5.25213
2659.76,744.734,5.25887
2662.26,745.145,5.26614
2664.76,745.558,5.27285
2667.26,745.97,5.27965
2669.76,746.382,5.28646
2672.26,746.799,5.29321
2674.76,747.208,5.30024
2677.26,747.625,5.30667
2679.76,748.035,5.31317
2682.26,748.445,5.32066
2684.76,748.867,5.32766
2687.26,749.28,5.33442
2689.76,749.692,5.34139
2692.26,750.102,5.34827
2694.76,750.516,5.35538
2697.26,750.928,5.36213
2699.76,751.335,5.36853
2702.26,751.748,5.37481
2704.76,752.161,5.38123
2707.26,752.572,5.38815
2709.76,752.988,5.3949
2712.26,753.4,5.40172
2714.76,753.811,5.40844
2717.26,754.223,5.415
2719.76,754.634,5.42152
2722.26,755.047,5.42832
2724.76,755.456,5.43511
2727.26,755.871,5.44183
2729.76,756.281,5.4478
2732.26,756.688,5.45366
2734.76,757.106,5.46001
2737.26,757.521,5.46581
2739.76,757.929,5.47249
2742.26,758.343,5.48009
2744.76,758.757,5.48676
2747.26,759.17,5.49241
2749.76,759.581,5.49878
2752.26,759.999,5.50556
2754.76,760.409,5.51149
2757.26,760.823,5.51791
2759.76,761.234,5.52491
2762.26,761.65,5.53065
2764.76,762.062,5.53603
2767.26,762.474,5.54238
2769.76,762.89,5.54846
2772.26,763.301,5.55438
2774.76,763.715,5.55987
2777.26,764.128,5.56528
2779.76,764.538,5.5713
2782.26,764.95,5.57683
2784.76,765.363,5.58194
2787.26,765.778,5.58752
2789.76,766.19,5.59368
2792.26,766.605,5.59947
2794.76,767.02,5.605
2797.26,767.432,5.61074
2799.76,767.841,5.61636
2802.26,768.256,5.6214
2804.76,768.673,5.62661
2807.26,769.084,5.63233
2809.76,769.499,5.63825
2812.26,769.907,5.6438
2814.76,770.321,5.64918
2817.26,770.734,5.65449
2819.76,771.151,5.65924
2822.26,771.559,5.66497
2824.76,771.972,5.67118
2827.26,772.389,5.67669
2829.76,772.798,5.68211
2832.26,773.212,5.68793
2834.76,773.626,5.69375
2837.26,774.04,5.69923
2839.76,774.447,5.70503
2842.26,774.86,5.71041
2844.76,775.274,5.71539
2847.26,775.683,5.72084
2849.76,776.096,5.72622
2852.26,776.509,5.73171
2854.76,776.922,5.73692
2857.26,777.337,5.74226
2859.76,777.751,5.74802
2862.26,778.166,5.75417
2864.76,778.571,5.75968
2867.26,778.987,5.7646
2869.76,779.4,5.76965
2872.26,779.81,5.77493
2874.76,780.224,5.7812
2877.26,780.635,5.78728
2879.76,781.048,5.79339
2882.26,781.461,5.79963
2884.76,781.875,5.80516
2887.26,782.285,5.81023
2889.76,782.698,5.81566
2892.26,783.114,5.82163
2894.76,783.526,5.82692
2897.26,783.941,5.83233
2899.76,784.356,5.83834
2902.26,784.761,5.84365
2904.76,785.179,5.8492
2907.26,785.59,5.85467
2909.76,786.005,5.85979
2912.26,786.416,5.8649
2914.76,786.83,5.87064
2917.26,787.243,5.87647
2919.76,787.655,5.88156
2922.26,788.068,5.88654
2924.76,788.481,5.89158
2927.26,788.892,5.89673
2929.76,789.304,5.90246
2932.26,789.722,5.90752
2934.76,790.131,5.9117
2937.26,790.549,5.91753
2939.76,790.963,5.92325
2942.26,791.375,5.92774
2944.76,791.785,5.93213
2947.26,792.196,5.93692
2949.76,792.611,5.94206
2952.26,793.026,5.94716
2954.76,793.441,5.95196
2957.26,793.85,5.95626
2959.76,794.267,5.96109
2962.26,794.677,5.9664
2964.76,795.087,5.9717
2967.26,795.499,5.9769
2969.76,795.912,5.98141
2972.26,796.326,5.98604
2974.76,796.739,5.99106
2977.26,797.153,5.99645
2979.76,797.562,6.0018
2982.26,797.976,6.00642
2984.76,798.394,6.01099
2987.26,798.804,6.01593
2989.76,799.218,6.0211
2992.26,799.63,6.02606
2994.76,800.046,6.03188
2997.26,800.455,6.03723
2999.76,800.868,6.04216
3002.26,801.283,6.04796
3004.76,801.693,6.05345
3007.26,802.108,6.05847
3009.76,802.52,6.06318
3012.26,802.928,6.06846
3013.76,803.176,6.07101