File: Non-charring/PMMA/HKPolyU/HKPolyU_TGA_Air_2.csv
Time,Temperature,Mass
[s],[k],[mg]
0.05,300.021,3.8808
2.26,300.575,3.8806
4.76,301.116,3.8804
7.26,301.661,3.8802
9.76,302.208,3.88
12.26,302.749,3.8798
14.76,303.289,3.8796
17.26,303.836,3.8795
19.76,304.372,3.8793
22.26,304.91,3.8792
24.76,305.441,3.8791
27.26,305.961,3.8789
29.76,306.484,3.8788
32.26,307,3.8787
34.76,307.514,3.8786
37.26,308.028,3.8784
39.76,308.521,3.8783
42.26,309.027,3.8782
44.76,309.506,3.8782
47.26,309.987,3.8781
49.76,310.476,3.878
52.26,310.954,3.8779
54.76,311.422,3.8778
57.26,311.895,3.8779
59.76,312.35,3.8779
62.26,312.804,3.8778
64.76,313.258,3.8777
67.26,313.702,3.8775
69.76,314.147,3.8775
72.26,314.583,3.8775
74.76,315.011,3.8775
77.26,315.449,3.8774
79.76,315.862,3.8773
82.26,316.285,3.8773
84.76,316.707,3.8773
87.26,317.125,3.8773
89.76,317.532,3.8772
92.26,317.952,3.8772
94.76,318.355,3.8771
97.26,318.758,3.877
99.76,319.167,3.8769
102.26,319.57,3.8769
104.76,319.976,3.8768
107.26,320.371,3.8767
109.76,320.774,3.8768
112.26,321.169,3.8767
114.76,321.568,3.8767
117.26,321.959,3.8766
119.76,322.357,3.8766
122.26,322.758,3.8765
124.76,323.153,3.8765
127.26,323.549,3.8764
129.76,323.944,3.8763
132.26,324.342,3.8762
134.76,324.745,3.8762
137.26,325.149,3.8762
139.76,325.548,3.8761
142.26,325.941,3.8761
144.76,326.346,3.876
147.26,326.745,3.8759
149.76,327.155,3.876
152.26,327.564,3.8759
154.76,327.965,3.8757
157.26,328.377,3.8757
159.76,328.788,3.8756
162.26,329.198,3.8756
164.76,329.612,3.8756
167.26,330.032,3.8755
169.76,330.441,3.8755
172.26,330.851,3.8754
174.76,331.27,3.8754
177.26,331.681,3.8754
179.76,332.105,3.8753
182.26,332.531,3.8752
184.76,332.958,3.8752
187.26,333.383,3.8751
189.76,333.81,3.8751
192.26,334.238,3.8751
194.76,334.657,3.875
197.26,335.087,3.8749
199.76,335.522,3.8749
202.26,335.956,3.8749
204.76,336.389,3.8748
207.26,336.82,3.8748
209.76,337.248,3.8747
212.26,337.69,3.8747
214.76,338.126,3.8747
217.26,338.564,3.8747
219.76,339,3.8746
222.26,339.439,3.8746
224.76,339.872,3.8745
227.26,340.312,3.8745
229.76,340.75,3.8745
232.26,341.19,3.8744
234.76,341.631,3.8744
237.26,342.075,3.8744
239.76,342.509,3.8744
242.26,342.949,3.8745
244.76,343.383,3.8744
247.26,343.823,3.8744
249.76,344.261,3.8745
252.26,344.704,3.8745
254.76,345.141,3.8744
257.26,345.577,3.8743
259.76,346.013,3.8744
262.26,346.454,3.8744
264.76,346.89,3.8742
267.26,347.319,3.8742
269.76,347.763,3.8743
272.26,348.193,3.8743
274.76,348.633,3.8742
277.26,349.071,3.8742
279.76,349.502,3.8741
282.26,349.934,3.8742
284.76,350.367,3.8742
287.26,350.796,3.8742
289.76,351.223,3.8742
292.26,351.653,3.8743
294.76,352.084,3.8743
297.26,352.512,3.8742
299.76,352.944,3.8742
302.26,353.379,3.8741
304.76,353.799,3.8742
307.26,354.229,3.8742
309.76,354.66,3.8741
312.26,355.084,3.8741
314.76,355.51,3.8742
317.26,355.929,3.8741
319.76,356.357,3.8742
322.26,356.779,3.8742
324.76,357.204,3.8742
327.26,357.62,3.8742
329.76,358.047,3.8742
332.26,358.478,3.8741
334.76,358.898,3.8741
337.26,359.321,3.8742
339.76,359.738,3.8741
342.26,360.163,3.8741
344.76,360.59,3.8742
347.26,361.005,3.8743
349.76,361.435,3.8744
352.26,361.855,3.8744
354.76,362.275,3.8745
357.26,362.693,3.8745
359.76,363.114,3.8745
362.26,363.539,3.8745
364.76,363.957,3.8744
367.26,364.384,3.8745
369.76,364.803,3.8745
372.26,365.224,3.8744
374.76,365.651,3.8744
377.26,366.074,3.8745
379.76,366.494,3.8745
382.26,366.916,3.8745
384.76,367.337,3.8745
387.26,367.765,3.8745
389.76,368.184,3.8745
392.26,368.61,3.8745
394.76,369.025,3.8745
397.26,369.444,3.8745
399.76,369.862,3.8745
402.26,370.296,3.8746
404.76,370.713,3.8746
407.26,371.137,3.8744
409.76,371.56,3.8745
412.26,371.982,3.8746
414.76,372.402,3.8745
417.26,372.821,3.8744
419.76,373.247,3.8744
422.26,373.669,3.8745
424.76,374.099,3.8744
427.26,374.521,3.8744
429.76,374.944,3.8744
432.26,375.366,3.8744
434.76,375.797,3.8745
437.26,376.222,3.8744
439.76,376.649,3.8744
442.26,377.073,3.8744
444.76,377.49,3.8744
447.26,377.919,3.8744
449.76,378.342,3.8743
452.26,378.768,3.8743
454.76,379.191,3.8743
457.26,379.618,3.8742
459.76,380.043,3.8743
462.26,380.468,3.8743
464.76,380.891,3.8742
467.26,381.318,3.8742
469.76,381.744,3.8742
472.26,382.17,3.8741
474.76,382.592,3.8741
477.26,383.023,3.8741
479.76,383.448,3.8741
482.26,383.872,3.874
484.76,384.291,3.874
487.26,384.718,3.874
489.76,385.142,3.874
492.26,385.569,3.8739
494.76,385.998,3.8738
497.26,386.423,3.8738
499.76,386.84,3.8738
502.26,387.27,3.8739
504.76,387.693,3.8738
507.26,388.116,3.8736
509.76,388.535,3.8736
512.26,388.965,3.8736
514.76,389.382,3.8736
517.26,389.813,3.8735
519.76,390.227,3.8734
522.26,390.657,3.8734
524.76,391.074,3.8734
527.26,391.503,3.8733
529.76,391.925,3.8732
532.26,392.343,3.8731
534.76,392.77,3.8731
537.26,393.192,3.873
539.76,393.612,3.873
542.26,394.027,3.873
544.76,394.457,3.8729
547.26,394.878,3.8729
549.76,395.305,3.8728
552.26,395.72,3.8728
554.76,396.147,3.8726
557.26,396.574,3.8725
559.76,396.998,3.8725
562.26,397.422,3.8724
564.76,397.844,3.8723
567.26,398.26,3.8722
569.76,398.683,3.872
572.26,399.105,3.872
574.76,399.524,3.872
577.26,399.95,3.872
579.76,400.373,3.872
582.26,400.795,3.8718
584.76,401.216,3.8717
587.26,401.637,3.8716
589.76,402.06,3.8715
592.26,402.473,3.8715
594.76,402.898,3.8713
597.26,403.315,3.8712
599.76,403.74,3.8712
602.26,404.162,3.8711
604.76,404.584,3.871
607.26,405.006,3.8709
609.76,405.425,3.8708
612.26,405.846,3.8707
614.76,406.269,3.8705
617.26,406.689,3.8705
619.76,407.11,3.8705
622.26,407.532,3.8703
624.76,407.953,3.8702
627.26,408.372,3.8702
629.76,408.793,3.8701
632.26,409.212,3.8699
634.76,409.63,3.8697
637.26,410.049,3.8697
639.76,410.471,3.8696
642.26,410.893,3.8695
644.76,411.308,3.8693
647.26,411.729,3.8691
649.76,412.153,3.8691
652.26,412.571,3.8691
654.76,412.995,3.869
657.26,413.412,3.8688
659.76,413.833,3.8687
662.26,414.258,3.8686
664.76,414.673,3.8685
667.26,415.09,3.8684
669.76,415.51,3.8684
672.26,415.936,3.8683
674.76,416.359,3.8683
677.26,416.775,3.8681
679.76,417.194,3.868
682.26,417.615,3.8679
684.76,418.039,3.8677
687.26,418.459,3.8676
689.76,418.881,3.8675
692.26,419.299,3.8675
694.76,419.728,3.8675
697.26,420.144,3.8674
699.76,420.566,3.8673
702.26,420.984,3.8671
704.76,421.405,3.867
707.26,421.823,3.8669
709.76,422.244,3.8667
712.26,422.664,3.8667
714.76,423.078,3.8666
717.26,423.497,3.8665
719.76,423.924,3.8664
722.26,424.343,3.8662
724.76,424.765,3.8661
727.26,425.185,3.8661
729.76,425.604,3.866
732.26,426.021,3.8658
734.76,426.442,3.8656
737.26,426.865,3.8655
739.76,427.281,3.8655
742.26,427.701,3.8654
744.76,428.125,3.8653
747.26,428.544,3.8652
749.76,428.963,3.865
752.26,429.388,3.8649
754.76,429.807,3.8649
757.26,430.227,3.8647
759.76,430.648,3.8647
762.26,431.069,3.8645
764.76,431.49,3.8643
767.26,431.908,3.8642
769.76,432.331,3.8642
772.26,432.753,3.8641
774.76,433.168,3.864
777.26,433.588,3.8638
779.76,434.012,3.8637
782.26,434.43,3.8637
784.76,434.851,3.8636
787.26,435.268,3.8634
789.76,435.687,3.8634
792.26,436.111,3.8632
794.76,436.532,3.8631
797.26,436.948,3.863
799.76,437.368,3.863
802.26,437.789,3.8628
804.76,438.206,3.8627
807.26,438.626,3.8627
809.76,439.046,3.8626
812.26,439.462,3.8625
814.76,439.878,3.8624
817.26,440.304,3.8623
819.76,440.722,3.8621
822.26,441.139,3.862
824.76,441.563,3.862
827.26,441.982,3.8619
829.76,442.399,3.8618
832.26,442.817,3.8616
834.76,443.236,3.8615
837.26,443.657,3.8614
839.76,444.077,3.8613
842.26,444.492,3.8612
844.76,444.908,3.8612
847.26,445.33,3.8611
849.76,445.746,3.861
852.26,446.167,3.861
854.76,446.59,3.8609
857.26,447.005,3.8608
859.76,447.426,3.8607
862.26,447.838,3.8606
864.76,448.26,3.8606
867.26,448.675,3.8604
869.76,449.092,3.8603
872.26,449.518,3.8603
874.76,449.93,3.8602
877.26,450.348,3.8601
879.76,450.766,3.8601
882.26,451.191,3.8599
884.76,451.598,3.8598
887.26,452.016,3.8598
889.76,452.439,3.8596
892.26,452.859,3.8595
894.76,453.278,3.8594
897.26,453.698,3.8594
899.76,454.116,3.8593
902.26,454.537,3.8592
904.76,454.953,3.8592
907.26,455.37,3.8591
909.76,455.786,3.8591
912.26,456.203,3.8591
914.76,456.625,3.8589
917.26,457.038,3.8589
919.76,457.46,3.8588
922.26,457.878,3.8587
924.76,458.297,3.8587
927.26,458.712,3.8586
929.76,459.131,3.8585
932.26,459.55,3.8584
934.76,459.968,3.8583
937.26,460.394,3.8583
939.76,460.812,3.8582
942.26,461.226,3.8581
944.76,461.641,3.8581
947.26,462.058,3.8579
949.76,462.477,3.858
952.26,462.891,3.858
954.76,463.31,3.8579
957.26,463.731,3.8579
959.76,464.146,3.8579
962.26,464.566,3.8578
964.76,464.982,3.8578
967.26,465.398,3.8577
969.76,465.818,3.8577
972.26,466.238,3.8577
974.76,466.654,3.8576
977.26,467.076,3.8575
979.76,467.491,3.8573
982.26,467.909,3.8573
984.76,468.33,3.8573
987.26,468.747,3.8572
989.76,469.165,3.8571
992.26,469.581,3.8571
994.76,469.998,3.8572
997.26,470.412,3.8571
999.76,470.835,3.8571
1002.26,471.254,3.8571
1004.76,471.675,3.857
1007.26,472.09,3.8569
1009.76,472.509,3.8569
1012.26,472.926,3.8569
1014.76,473.344,3.8569
1017.26,473.758,3.8569
1019.76,474.178,3.8568
1022.26,474.591,3.8567
1024.76,475.008,3.8567
1027.26,475.425,3.8567
1029.76,475.843,3.8567
1032.26,476.257,3.8566
1034.76,476.68,3.8566
1037.26,477.097,3.8566
1039.76,477.509,3.8565
1042.26,477.927,3.8565
1044.76,478.341,3.8566
1047.26,478.761,3.8565
1049.76,479.181,3.8565
1052.26,479.597,3.8564
1054.76,480.018,3.8564
1057.26,480.433,3.8564
1059.76,480.853,3.8564
1062.26,481.267,3.8564
1064.76,481.681,3.8563
1067.26,482.099,3.8563
1069.76,482.52,3.8563
1072.26,482.931,3.8563
1074.76,483.354,3.8562
1077.26,483.766,3.8562
1079.76,484.189,3.8563
1082.26,484.606,3.8562
1084.76,485.024,3.8561
1087.26,485.439,3.8561
1089.76,485.857,3.8561
1092.26,486.273,3.856
1094.76,486.693,3.8561
1097.26,487.112,3.8561
1099.76,487.526,3.8561
1102.26,487.951,3.856
1104.76,488.364,3.8561
1107.26,488.787,3.856
1109.76,489.203,3.8559
1112.26,489.619,3.8559
1114.76,490.036,3.856
1117.26,490.451,3.8561
1119.76,490.871,3.856
1122.26,491.285,3.8559
1124.76,491.702,3.8559
1127.26,492.117,3.856
1129.76,492.544,3.856
1132.26,492.96,3.8559
1134.76,493.372,3.8558
1137.26,493.793,3.8558
1139.76,494.207,3.8559
1142.26,494.62,3.8558
1144.76,495.035,3.8557
1147.26,495.456,3.8558
1149.76,495.871,3.8558
1152.26,496.287,3.8558
1154.76,496.702,3.8557
1157.26,497.122,3.8558
1159.76,497.534,3.8558
1162.26,497.953,3.8558
1164.76,498.372,3.8558
1167.26,498.791,3.8558
1169.76,499.204,3.8558
1172.26,499.622,3.8556
1174.76,500.037,3.8556
1177.26,500.454,3.8557
1179.76,500.87,3.8557
1182.26,501.283,3.8557
1184.76,501.697,3.8557
1187.26,502.114,3.8556
1189.76,502.53,3.8556
1192.26,502.952,3.8556
1194.76,503.367,3.8556
1197.26,503.785,3.8555
1199.76,504.2,3.8555
1202.26,504.617,3.8555
1204.76,505.037,3.8555
1207.26,505.455,3.8555
1209.76,505.867,3.8555
1212.26,506.28,3.8555
1214.76,506.698,3.8554
1217.26,507.119,3.8554
1219.76,507.536,3.8554
1222.26,507.951,3.8554
1224.76,508.367,3.8553
1227.26,508.781,3.8553
1229.76,509.198,3.8553
1232.26,509.609,3.8552
1234.76,510.025,3.8552
1237.26,510.441,3.8552
1239.76,510.853,3.8552
1242.26,511.275,3.8551
1244.76,511.695,3.8551
1247.26,512.109,3.855
1249.76,512.524,3.8549
1252.26,512.936,3.8548
1254.76,513.354,3.8548
1257.26,513.764,3.8547
1259.76,514.179,3.8547
1262.26,514.602,3.8547
1264.76,515.013,3.8547
1267.26,515.426,3.8546
1269.76,515.843,3.8545
1272.26,516.261,3.8546
1274.76,516.678,3.8545
1277.26,517.09,3.8544
1279.76,517.505,3.8542
1282.26,517.922,3.8542
1284.76,518.335,3.8542
1287.26,518.75,3.854
1289.76,519.168,3.8539
1292.26,519.58,3.8539
1294.76,519.995,3.8538
1297.26,520.413,3.8538
1299.76,520.83,3.8537
1302.26,521.244,3.8535
1304.76,521.66,3.8533
1307.26,522.076,3.8532
1309.76,522.495,3.8532
1312.26,522.914,3.8531
1314.76,523.323,3.8529
1317.26,523.742,3.8528
1319.76,524.157,3.8527
1322.26,524.577,3.8525
1324.76,524.985,3.8522
1327.26,525.401,3.852
1329.76,525.819,3.8518
1332.26,526.231,3.8516
1334.76,526.646,3.8514
1337.26,527.06,3.8512
1339.76,527.475,3.851
1342.26,527.886,3.8506
1344.76,528.303,3.8504
1347.26,528.723,3.85
1349.76,529.139,3.8496
1352.26,529.552,3.8492
1354.76,529.966,3.8488
1357.26,530.377,3.8484
1359.76,530.795,3.848
1362.26,531.21,3.8475
1364.76,531.628,3.847
1367.26,532.041,3.8465
1369.76,532.459,3.8459
1372.26,532.873,3.8452
1374.76,533.288,3.8446
1377.26,533.704,3.844
1379.76,534.121,3.8432
1382.26,534.537,3.8423
1384.76,534.954,3.8415
1387.26,535.373,3.8407
1389.76,535.785,3.8398
1392.26,536.198,3.8388
1394.76,536.615,3.8377
1397.26,537.033,3.8365
1399.76,537.447,3.8355
1402.26,537.867,3.8344
1404.76,538.278,3.8332
1407.26,538.697,3.8319
1409.76,539.114,3.8305
1412.26,539.529,3.8291
1414.76,539.949,3.8277
1417.26,540.362,3.8263
1419.76,540.779,3.8249
1422.26,541.19,3.8232
1424.76,541.609,3.8215
1427.26,542.019,3.8198
1429.76,542.441,3.818
1432.26,542.851,3.8161
1434.76,543.266,3.8143
1437.26,543.684,3.8123
1439.76,544.1,3.8104
1442.26,544.511,3.8084
1444.76,544.925,3.8062
1447.26,545.342,3.804
1449.76,545.751,3.8018
1452.26,546.167,3.7996
1454.76,546.588,3.7973
1457.26,547.009,3.7949
1459.76,547.417,3.7925
1462.26,547.833,3.79
1464.76,548.248,3.7876
1467.26,548.661,3.7851
1469.76,549.071,3.7825
1472.26,549.489,3.7799
1474.76,549.902,3.7775
1477.26,550.318,3.775
1479.76,550.737,3.7724
1482.26,551.144,3.7698
1484.76,551.561,3.7672
1487.26,551.972,3.7646
1489.76,552.39,3.7621
1492.26,552.802,3.7596
1494.76,553.22,3.757
1497.26,553.633,3.7544
1499.76,554.047,3.7518
1502.26,554.465,3.7493
1504.76,554.881,3.7468
1507.26,555.291,3.7442
1509.76,555.707,3.7416
1512.26,556.119,3.739
1514.76,556.536,3.7363
1517.26,556.953,3.7336
1519.76,557.366,3.7308
1522.26,557.773,3.728
1524.76,558.195,3.7252
1527.26,558.607,3.7222
1529.76,559.018,3.7191
1532.26,559.435,3.7161
1534.76,559.849,3.7129
1537.26,560.271,3.7096
1539.76,560.682,3.7063
1542.26,561.097,3.7029
1544.76,561.511,3.6993
1547.26,561.924,3.6956
1549.76,562.337,3.6919
1552.26,562.754,3.688
1554.76,563.168,3.6838
1557.26,563.586,3.6796
1559.76,563.996,3.6753
1562.26,564.41,3.6707
1564.76,564.824,3.666
1567.26,565.245,3.6611
1569.76,565.657,3.6559
1572.26,566.072,3.6506
1574.76,566.487,3.6451
1577.26,566.907,3.6393
1579.76,567.317,3.6332
1582.26,567.739,3.6268
1584.76,568.153,3.6201
1587.26,568.57,3.613
1589.76,568.989,3.6057
1592.26,569.403,3.598
1594.76,569.818,3.5899
1597.26,570.236,3.5813
1599.76,570.651,3.5723
1602.26,571.065,3.5627
1604.76,571.484,3.5525
1607.26,571.902,3.5417
1609.76,572.316,3.5302
1612.26,572.736,3.5179
1614.76,573.155,3.5046
1617.26,573.571,3.4903
1619.76,573.987,3.4748
1622.26,574.404,3.4583
1624.76,574.822,3.4404
1627.26,575.236,3.421
1629.76,575.66,3.4004
1632.26,576.068,3.3784
1634.76,576.483,3.3552
1637.26,576.899,3.3313
1639.76,577.315,3.3065
1642.26,577.725,3.2816
1644.76,578.136,3.2566
1647.26,578.543,3.2316
1649.76,578.956,3.2071
1652.26,579.357,3.1829
1654.76,579.765,3.1591
1657.26,580.177,3.1359
1659.76,580.591,3.1131
1662.26,581.003,3.0908
1664.76,581.41,3.0686
1667.26,581.824,3.0467
1669.76,582.234,3.0255
1672.26,582.647,3.0046
1674.76,583.053,2.9837
1677.26,583.463,2.9631
1679.76,583.878,2.9427
1682.26,584.288,2.9222
1684.76,584.707,2.9015
1687.26,585.118,2.8806
1689.76,585.543,2.8582
1692.26,585.95,2.8351
1694.76,586.354,2.8139
1697.26,586.753,2.7946
1699.76,587.156,2.7759
1702.26,587.567,2.7573
1704.76,587.972,2.7386
1707.26,588.383,2.7195
1709.76,588.791,2.7001
1712.26,589.204,2.6803
1714.76,589.621,2.6601
1717.26,590.031,2.6399
1719.76,590.441,2.6196
1722.26,590.849,2.5992
1724.76,591.269,2.5781
1727.26,591.696,2.5563
1729.76,592.097,2.5342
1732.26,592.514,2.5113
1734.76,592.918,2.4892
1737.26,593.322,2.4671
1739.76,593.733,2.4446
1742.26,594.14,2.4218
1744.76,594.558,2.3979
1747.26,594.97,2.3735
1749.76,595.385,2.3483
1752.26,595.801,2.3225
1754.76,596.211,2.2964
1757.26,596.621,2.27
1759.76,597.025,2.2437
1762.26,597.436,2.2166
1764.76,597.85,2.1889
1767.26,598.248,2.162
1769.76,598.658,2.134
1772.26,599.066,2.1058
1774.76,599.481,2.0766
1777.26,599.893,2.0474
1779.76,600.303,2.018
1782.26,600.714,1.9883
1784.76,601.125,1.9584
1787.26,601.544,1.9278
1789.76,601.979,1.896
1792.26,602.376,1.8668
1794.76,602.792,1.8363
1797.26,603.209,1.8057
1799.76,603.629,1.7748
1802.26,604.045,1.7443
1804.76,604.47,1.7131
1807.26,604.885,1.6826
1809.76,605.307,1.6516
1812.26,605.733,1.6203
1814.76,606.151,1.5896
1817.26,606.579,1.5582
1819.76,607.007,1.5267
1822.26,607.434,1.4954
1824.76,607.859,1.4642
1827.26,608.292,1.4324
1829.76,608.742,1.3993
1832.26,609.162,1.3685
1834.76,609.584,1.3375
1837.26,610.007,1.3065
1839.76,610.434,1.2752
1842.26,610.856,1.2452
1844.76,611.28,1.2157
1847.26,611.697,1.1875
1849.76,612.117,1.1601
1852.26,612.529,1.1339
1854.76,612.943,1.1085
1857.26,613.361,1.0836
1859.76,613.776,1.0598
1862.26,614.191,1.0369
1864.76,614.6,1.0149
1867.26,615.011,0.9935
1869.76,615.428,0.9729
1872.26,615.838,0.9539
1874.76,616.24,0.9363
1877.26,616.657,0.9192
1879.76,617.066,0.9035
1882.26,617.474,0.8888
1884.76,617.884,0.8751
1887.26,618.291,0.8623
1889.76,618.706,0.8502
1892.26,619.117,0.8385
1894.76,619.524,0.8272
1897.26,619.929,0.8163
1899.76,620.336,0.8056
1902.26,620.752,0.795
1904.76,621.159,0.7849
1907.26,621.566,0.775
1909.76,621.98,0.7654
1912.26,622.39,0.756
1914.76,622.798,0.7469
1917.26,623.21,0.7381
1919.76,623.618,0.7296
1922.26,624.03,0.7212
1924.76,624.442,0.7132
1927.26,624.856,0.7053
1929.76,625.267,0.6977
1932.26,625.683,0.6903
1934.76,626.093,0.6831
1937.26,626.499,0.6761
1939.76,626.913,0.6692
1942.26,627.326,0.6626
1944.76,627.742,0.6562
1947.26,628.155,0.6499
1949.76,628.562,0.6438
1952.26,628.98,0.6378
1954.76,629.396,0.6319
1957.26,629.81,0.6264
1959.76,630.222,0.621
1962.26,630.64,0.6157
1964.76,631.047,0.6105
1967.26,631.465,0.6055
1969.76,631.88,0.6007
1972.26,632.291,0.5959
1974.76,632.707,0.5913
1977.26,633.119,0.5868
1979.76,633.531,0.5824
1982.26,633.944,0.5781
1984.76,634.358,0.5738
1987.26,634.771,0.5696
1989.76,635.191,0.5656
1992.26,635.601,0.5616
1994.76,636.013,0.5578
1997.26,636.427,0.5541
1999.76,636.836,0.5504
2002.26,637.25,0.5467
2004.76,637.658,0.5432
2007.26,638.071,0.5398
2009.76,638.484,0.5364
2012.26,638.895,0.5332
2014.76,639.308,0.53
2017.26,639.719,0.5268
2019.76,640.133,0.5237
2022.26,640.546,0.5206
2024.76,640.953,0.5175
2027.26,641.363,0.5147
2029.76,641.777,0.5119
2032.26,642.194,0.5091
2034.76,642.604,0.5062
2037.26,643.014,0.5037
2039.76,643.428,0.5012
2042.26,643.838,0.4988
2044.76,644.252,0.4962
2047.26,644.661,0.4937
2049.76,645.075,0.4913
2052.26,645.49,0.4889
2054.76,645.899,0.4865
2057.26,646.311,0.4843
2059.76,646.719,0.4821
2062.26,647.131,0.4799
2064.76,647.544,0.4778
2067.26,647.952,0.4757
2069.76,648.364,0.4736
2072.26,648.78,0.4717
2074.76,649.193,0.4697
2077.26,649.602,0.4676
2079.76,650.021,0.4657
2082.26,650.428,0.4638
2084.76,650.842,0.462
2087.26,651.257,0.4602
2089.76,651.663,0.4584
2092.26,652.079,0.4567
2094.76,652.494,0.4549
2097.26,652.903,0.4533
2099.76,653.313,0.4517
2102.26,653.726,0.4501
2104.76,654.134,0.4486
2107.26,654.552,0.4471
2109.76,654.964,0.4454
2112.26,655.374,0.4441
2114.76,655.792,0.4426
2117.26,656.2,0.441
2119.76,656.617,0.4396
2122.26,657.032,0.4383
2124.76,657.441,0.4369
2127.26,657.856,0.4356
2129.76,658.27,0.4342
2132.26,658.681,0.4329
2134.76,659.089,0.4316
2137.26,659.505,0.4303
2139.76,659.916,0.4291
2142.26,660.333,0.4279
2144.76,660.74,0.4267
2147.26,661.151,0.4256
2149.76,661.566,0.4245
2152.26,661.978,0.4233
2154.76,662.392,0.4222
2157.26,662.805,0.421
2159.76,663.215,0.42
2162.26,663.634,0.419
2164.76,664.041,0.4179
2167.26,664.455,0.4168
2169.76,664.867,0.4159
2172.26,665.284,0.415
2174.76,665.694,0.414
2177.26,666.105,0.4131
2179.76,666.519,0.4121
2182.26,666.932,0.4112
2184.76,667.346,0.4104
2187.26,667.756,0.4096
2189.76,668.173,0.4088
2192.26,668.584,0.408
2194.76,668.994,0.4071
2197.26,669.412,0.4064
2199.76,669.823,0.4055
2202.26,670.236,0.4048
2204.76,670.647,0.4041
2207.26,671.061,0.4033
2209.76,671.475,0.4027
2212.26,671.888,0.402
2214.76,672.296,0.4013
2217.26,672.709,0.4007
2219.76,673.123,0.4
2222.26,673.534,0.3994
2224.76,673.948,0.3987
2227.26,674.361,0.3981
2229.76,674.773,0.3975
2232.26,675.18,0.397
2234.76,675.595,0.3965
2237.26,676.011,0.3959
2239.76,676.424,0.3953
2242.26,676.837,0.3948
2244.76,677.254,0.3944
2247.26,677.668,0.394
2249.76,678.08,0.3936
2252.26,678.494,0.3932
2254.76,678.908,0.3928
2257.26,679.321,0.3925
2259.76,679.732,0.3922
2262.26,680.147,0.3919
2264.76,680.559,0.3917
2267.26,680.974,0.3914
2269.76,681.387,0.3913
2272.26,681.8,0.3912
2274.76,682.218,0.3911
2277.26,682.629,0.391
2279.76,683.036,0.391
2282.26,683.453,0.391
2284.76,683.865,0.391
2287.26,684.281,0.3909
2289.76,684.69,0.3909
2292.26,685.11,0.3909
2294.76,685.516,0.3909
2297.26,685.923,0.3909
2299.76,686.338,0.3909
2302.26,686.755,0.3909
2304.76,687.161,0.3909
2307.26,687.577,0.3908
2309.76,687.989,0.3908
2312.26,688.4,0.3908
2314.76,688.812,0.3908
2317.26,689.226,0.3909
2319.76,689.636,0.3908
2322.26,690.047,0.3904
2324.76,690.459,0.3902
2327.26,690.878,0.3903
2329.76,691.292,0.3903
2332.26,691.704,0.3903
2334.76,692.116,0.3902
2337.26,692.525,0.3902
2339.76,692.937,0.3903
2342.26,693.354,0.3903
2344.76,693.767,0.3902
2347.26,694.183,0.3902
2349.76,694.596,0.3902
2352.26,695.005,0.3902
2354.76,695.418,0.3902
2357.26,695.834,0.3902
2359.76,696.245,0.3902
2362.26,696.655,0.3902
2364.76,697.064,0.3902
2367.26,697.478,0.3902
2369.76,697.897,0.3903
2372.26,698.31,0.3903
2374.76,698.719,0.3902
2377.26,699.136,0.3903
2379.76,699.549,0.3904
2382.26,699.961,0.3904
2384.76,700.37,0.3903
2387.26,700.783,0.3903
2389.76,701.196,0.3903
2392.26,701.612,0.3903
2394.76,702.02,0.3903
2397.26,702.435,0.3903
2399.76,702.844,0.3902
2402.26,703.255,0.3903
2404.76,703.672,0.3903
2407.26,704.088,0.3902
2409.76,704.497,0.3903
2412.26,704.91,0.3903
2414.76,705.32,0.3903
2417.26,705.731,0.3903
2419.76,706.151,0.3903
2422.26,706.559,0.3903
2424.76,706.972,0.3903
2427.26,707.383,0.3903
2429.76,707.796,0.3902
2432.26,708.211,0.3903
2434.76,708.626,0.3903
2437.26,709.037,0.3903
2439.76,709.446,0.3904
2442.26,709.865,0.3903
2444.76,710.277,0.3903
2447.26,710.689,0.3903
2449.76,711.103,0.3903
2452.26,711.517,0.3904
2454.76,711.928,0.3904
2457.26,712.341,0.3903
2459.76,712.754,0.3903
2462.26,713.162,0.3904
2464.76,713.579,0.3904
2467.26,713.991,0.3904
2469.76,714.4,0.3904
2472.26,714.813,0.3904
2474.76,715.229,0.3905
2477.26,715.642,0.3904
2479.76,716.058,0.3904
2482.26,716.473,0.3904
2484.76,716.884,0.3904
2487.26,717.297,0.3905
2489.76,717.706,0.3904
2492.26,718.124,0.3905
2494.76,718.535,0.3905
2497.26,718.945,0.3906
2499.76,719.358,0.3905
2502.26,719.771,0.3905
2504.76,720.187,0.3906
2507.26,720.597,0.3906
2509.76,721.01,0.3907
2512.26,721.421,0.3907
2514.76,721.832,0.3907
2517.26,722.25,0.3907
2519.76,722.662,0.3907
2522.26,723.073,0.3906
2524.76,723.488,0.3906
2527.26,723.897,0.3907
2529.76,724.314,0.3908
2532.26,724.721,0.3908
2534.76,725.138,0.3908
2537.26,725.55,0.3908
2539.76,725.968,0.3908
2542.26,726.381,0.3908
2544.76,726.79,0.3909
2547.26,727.206,0.3909
2549.76,727.619,0.3908
2552.26,728.032,0.3909
2554.76,728.442,0.391
2557.26,728.855,0.391
2559.76,729.266,0.391
2562.26,729.678,0.391
2564.76,730.093,0.391
2567.26,730.505,0.391
2569.76,730.918,0.3911
2572.26,731.333,0.3911
2574.76,731.745,0.3912
2577.26,732.157,0.3912
2579.76,732.57,0.3911
2582.26,732.98,0.3912
2584.76,733.398,0.3912
2587.26,733.814,0.3912
2589.76,734.221,0.3912
2592.26,734.633,0.3912
2594.76,735.046,0.3913
2597.26,735.461,0.3913
2599.76,735.875,0.3913
2602.26,736.284,0.3913
2604.76,736.698,0.3913
2607.26,737.109,0.3913
2609.76,737.518,0.3913
2612.26,737.935,0.3913
2614.76,738.349,0.3914
2617.26,738.759,0.3914
2619.76,739.172,0.3914
2622.26,739.588,0.3915
2624.76,740.001,0.3915
2627.26,740.414,0.3915
2629.76,740.824,0.3916
2632.26,741.233,0.3917
2634.76,741.647,0.3916
2637.26,742.059,0.3916
2639.76,742.471,0.3916
2642.26,742.885,0.3916
2644.76,743.298,0.3917
2647.26,743.713,0.3918
2649.76,744.121,0.3917
2652.26,744.536,0.3918
2654.76,744.949,0.3918
2657.26,745.358,0.3918
2659.76,745.77,0.3918
2662.26,746.182,0.3918
2664.76,746.594,0.3918
2667.26,747.011,0.3919
2669.76,747.422,0.392
2672.26,747.835,0.392
2674.76,748.248,0.3921
2677.26,748.662,0.392
2679.76,749.073,0.392
2682.26,749.488,0.392
2684.76,749.903,0.3921
2687.26,750.316,0.3922
2689.76,750.728,0.3922
2692.26,751.142,0.3922
2694.76,751.557,0.3922
2697.26,751.97,0.3922
2699.76,752.379,0.3923
2702.26,752.795,0.3922
2704.76,753.207,0.3922
2707.26,753.616,0.3923
2709.76,754.028,0.3923
2712.26,754.445,0.3923
2714.76,754.854,0.3923
2717.26,755.268,0.3924
2719.76,755.681,0.3924
2722.26,756.093,0.3925
2724.76,756.505,0.3925
2727.26,756.921,0.3924
2729.76,757.335,0.3924
2732.26,757.745,0.3925
2734.76,758.161,0.3925
2737.26,758.572,0.3926
2739.76,758.987,0.3926
2742.26,759.402,0.3925
2744.76,759.811,0.3926
2747.26,760.224,0.3926
2749.76,760.636,0.3926
2752.26,761.046,0.3926
2754.76,761.458,0.3926
2757.26,761.87,0.3926
2759.76,762.285,0.3926
2762.26,762.697,0.3927
2764.76,763.112,0.3927
2767.26,763.523,0.3927
2769.76,763.932,0.3928
2772.26,764.346,0.3928
2774.76,764.759,0.3928
2777.26,765.172,0.3928
2779.76,765.584,0.3929
2782.26,765.996,0.3929
2784.76,766.402,0.3929
2787.26,766.821,0.3929
2789.76,767.233,0.3929
2792.26,767.647,0.3929
2794.76,768.057,0.3929
2797.26,768.473,0.3929
2799.76,768.885,0.3928
2802.26,769.3,0.3929
2804.76,769.713,0.393
2807.26,770.125,0.3932
2809.76,770.541,0.3933
2812.26,770.95,0.3932
2814.76,771.365,0.3931
2817.26,771.777,0.3932
2819.76,772.189,0.3931
2822.26,772.603,0.3932
2824.76,773.017,0.3933
2827.26,773.429,0.3933
2829.76,773.839,0.3932
2832.26,774.253,0.3933
2834.76,774.663,0.3933
2837.26,775.082,0.3932
2839.76,775.49,0.3933
2842.26,775.905,0.3933
2844.76,776.321,0.3934
2847.26,776.729,0.3935
2849.76,777.142,0.3934
2852.26,777.553,0.3934
2854.76,777.967,0.3934
2857.26,778.381,0.3934
2859.76,778.794,0.3934
2862.26,779.206,0.3935
2864.76,779.62,0.3935
2867.26,780.033,0.3935
2869.76,780.446,0.3935
2872.26,780.861,0.3935
2874.76,781.273,0.3935
2877.26,781.686,0.3935
2879.76,782.099,0.3935
2882.26,782.511,0.3935
2884.76,782.925,0.3936
2887.26,783.338,0.3936
2889.76,783.743,0.3936
2892.26,784.161,0.3936
2894.76,784.572,0.3936
2897.26,784.985,0.3937
2899.76,785.393,0.3938
2902.26,785.807,0.3937
2904.76,786.221,0.3937
2907.26,786.639,0.3937
2909.76,787.053,0.3938
2912.26,787.465,0.3937
2914.76,787.876,0.3938
2917.26,788.292,0.3938
2919.76,788.704,0.3938
2922.26,789.117,0.3938
2924.76,789.527,0.3939
2927.26,789.942,0.3939
2929.76,790.356,0.3939
2932.26,790.768,0.3939
2934.76,791.181,0.3939
2937.26,791.593,0.3939
2939.76,792.006,0.3939
2942.26,792.416,0.3939
2944.76,792.828,0.394
2947.26,793.242,0.394
2949.76,793.652,0.394
2952.26,794.069,0.3939
2954.76,794.482,0.394
2957.26,794.893,0.3941
2959.76,795.309,0.394
2962.26,795.718,0.394
2964.76,796.13,0.3941
2967.26,796.548,0.3941
2969.76,796.957,0.3941
2972.26,797.372,0.3941
2974.76,797.781,0.3941
2977.26,798.194,0.3941
2979.76,798.605,0.3941
2982.26,799.019,0.3942
2984.76,799.43,0.3941
2987.26,799.845,0.3941
2989.76,800.253,0.3942
2992.26,800.667,0.3941
2994.76,801.08,0.3942
2997.26,801.492,0.3943
2999.76,801.904,0.3942
3002.26,802.319,0.3942
3004.76,802.732,0.3943
3007.26,803.141,0.3943
3009.76,803.552,0.3943
3012.26,803.967,0.3944
3013.76,804.214,0.3944