File: Non-charring/PMMA/HKPolyU/HKPolyU_DSC_Air_2.csv
Time,Temperature,Heat Flow
[s],[k],[W/g]
0.05,300.021,0.21649
2.76,300.68,0.593833
5.76,301.331,0.930391
8.76,301.991,1.06484
11.76,302.639,1.06643
14.76,303.289,1.06461
17.76,303.945,1.05649
20.76,304.594,1.04364
23.76,305.231,1.02929
26.76,305.862,1.0121
29.76,306.484,0.988865
32.76,307.107,0.95958
35.76,307.719,0.928825
38.76,308.325,0.895767
41.76,308.922,0.85825
44.76,309.506,0.816658
47.76,310.087,0.771907
50.76,310.673,0.723824
53.76,311.241,0.669405
56.76,311.796,0.613024
59.76,312.35,0.554021
62.76,312.896,0.492242
65.76,313.437,0.427027
68.76,313.969,0.35998
71.76,314.492,0.288214
74.76,315.011,0.211959
77.76,315.534,0.136418
80.76,316.033,0.06029329
83.76,316.536,-0.0151934
86.76,317.036,-0.0969561
89.76,317.532,-0.177395
92.76,318.034,-0.25858
95.76,318.519,-0.341712
98.76,319.004,-0.425393
101.76,319.49,-0.507815
104.76,319.976,-0.589809
107.76,320.453,-0.673015
110.76,320.93,-0.754208
113.76,321.41,-0.83519
116.76,321.882,-0.916639
119.76,322.357,-0.998062
122.76,322.834,-1.07649
125.76,323.307,-1.1523
128.76,323.785,-1.22875
131.76,324.265,-1.30302
134.76,324.745,-1.37566
137.76,325.223,-1.44706
140.76,325.7,-1.51579
143.76,326.182,-1.58076
146.76,326.668,-1.64527
149.76,327.155,-1.70878
152.76,327.646,-1.76977
155.76,328.131,-1.82946
158.76,328.627,-1.88611
161.76,329.118,-1.94024
164.76,329.612,-1.99322
167.76,330.109,-2.04332
170.76,330.603,-2.09003
173.76,331.104,-2.13608
176.76,331.602,-2.17982
179.76,332.105,-2.22152
182.76,332.616,-2.26446
185.76,333.127,-2.30425
188.76,333.644,-2.34024
191.76,334.152,-2.37622
194.76,334.657,-2.40985
197.76,335.177,-2.44002
200.76,335.697,-2.47098
203.76,336.208,-2.50123
206.76,336.731,-2.52806
209.76,337.248,-2.55343
212.76,337.775,-2.57757
215.76,338.299,-2.60092
218.76,338.824,-2.62298
221.76,339.349,-2.64483
224.76,339.872,-2.66509
227.76,340.4,-2.68504
230.76,340.929,-2.70455
233.76,341.455,-2.72305
236.76,341.984,-2.74066
239.76,342.509,-2.75824
242.76,343.036,-2.77431
245.76,343.557,-2.78941
248.76,344.084,-2.80341
251.76,344.615,-2.81701
254.76,345.141,-2.83071
257.76,345.667,-2.84414
260.76,346.187,-2.8563
263.76,346.713,-2.8673
266.76,347.24,-2.87991
269.76,347.763,-2.89137
272.76,348.277,-2.90217
275.76,348.802,-2.9125
278.76,349.332,-2.92067
281.76,349.851,-2.93018
284.76,350.367,-2.94049
287.76,350.878,-2.95026
290.76,351.394,-2.95849
293.76,351.913,-2.96662
296.76,352.429,-2.9754
299.76,352.944,-2.98357
302.76,353.463,-2.9908
305.76,353.969,-2.99816
308.76,354.486,-3.00423
311.76,354.992,-3.01157
314.76,355.51,-3.01776
317.76,356.015,-3.02299
320.76,356.524,-3.02787
323.76,357.037,-3.03332
326.76,357.536,-3.03832
329.76,358.047,-3.04233
332.76,358.57,-3.04658
335.76,359.065,-3.05132
338.76,359.577,-3.05519
341.76,360.077,-3.0593
344.76,360.59,-3.06139
347.76,361.092,-3.06362
350.76,361.601,-3.06569
353.76,362.106,-3.06731
356.76,362.61,-3.06878
359.76,363.114,-3.07044
362.76,363.622,-3.0717
365.76,364.125,-3.07216
368.76,364.634,-3.0715
371.76,365.137,-3.07172
374.76,365.651,-3.07101
377.76,366.163,-3.06978
380.76,366.671,-3.06898
383.76,367.173,-3.06692
386.76,367.678,-3.064
389.76,368.184,-3.06215
392.76,368.69,-3.06031
395.76,369.195,-3.05777
398.76,369.698,-3.05455
401.76,370.206,-3.04996
404.76,370.713,-3.04622
407.76,371.229,-3.04244
410.76,371.723,-3.0387
413.76,372.236,-3.0332
416.76,372.737,-3.02883
419.76,373.247,-3.02343
422.76,373.754,-3.0177
425.76,374.262,-3.01196
428.76,374.778,-3.00644
431.76,375.285,-3.00063
434.76,375.797,-2.99409
437.76,376.307,-2.98745
440.76,376.818,-2.98083
443.76,377.326,-2.9741
446.76,377.827,-2.96785
449.76,378.342,-2.9605
452.76,378.852,-2.95311
455.76,379.365,-2.94556
458.76,379.873,-2.93876
461.76,380.38,-2.93191
464.76,380.891,-2.9244
467.76,381.405,-2.91686
470.76,381.914,-2.90955
473.76,382.432,-2.90178
476.76,382.937,-2.8937
479.76,383.448,-2.8864
482.76,383.958,-2.8785
485.76,384.464,-2.87008
488.76,384.967,-2.86285
491.76,385.483,-2.85495
494.76,385.998,-2.84624
497.76,386.507,-2.8388
500.76,387.016,-2.83157
503.76,387.521,-2.82403
506.76,388.031,-2.81644
509.76,388.535,-2.80887
512.76,389.047,-2.8006
515.76,389.558,-2.79339
518.76,390.061,-2.7865
521.76,390.567,-2.77931
524.76,391.074,-2.77215
527.76,391.585,-2.76558
530.76,392.095,-2.75873
533.76,392.604,-2.75149
536.76,393.11,-2.74466
539.76,393.612,-2.73777
542.76,394.116,-2.73068
545.76,394.626,-2.72355
548.76,395.128,-2.71702
551.76,395.633,-2.71036
554.76,396.147,-2.7033
557.76,396.659,-2.69668
560.76,397.169,-2.69009
563.76,397.671,-2.68417
566.76,398.178,-2.67723
569.76,398.683,-2.67048
572.76,399.189,-2.66414
575.76,399.699,-2.6577
578.76,400.207,-2.65097
581.76,400.709,-2.64429
584.76,401.216,-2.63768
587.76,401.726,-2.63134
590.76,402.224,-2.62483
593.76,402.729,-2.61794
596.76,403.235,-2.61167
599.76,403.74,-2.60525
602.76,404.25,-2.59849
605.76,404.758,-2.59194
608.76,405.259,-2.58535
611.76,405.762,-2.57904
614.76,406.269,-2.57351
617.76,406.777,-2.56763
620.76,407.276,-2.56112
623.76,407.784,-2.55494
626.76,408.286,-2.54892
629.76,408.793,-2.54267
632.76,409.294,-2.53696
635.76,409.794,-2.53077
638.76,410.308,-2.52432
641.76,410.809,-2.51778
644.76,411.308,-2.5121
647.76,411.818,-2.50621
650.76,412.325,-2.50036
653.76,412.822,-2.49513
656.76,413.328,-2.48937
659.76,413.833,-2.48376
662.76,414.339,-2.47759
665.76,414.841,-2.47124
668.76,415.343,-2.46645
671.76,415.853,-2.46158
674.76,416.359,-2.45625
677.76,416.858,-2.45098
680.76,417.362,-2.44539
683.76,417.867,-2.43956
686.76,418.375,-2.43426
689.76,418.881,-2.42938
692.76,419.383,-2.42455
695.76,419.894,-2.4193
698.76,420.401,-2.41432
701.76,420.899,-2.40964
704.76,421.405,-2.40413
707.76,421.908,-2.39916
710.76,422.412,-2.39488
713.76,422.917,-2.39046
716.76,423.415,-2.38587
719.76,423.924,-2.38147
722.76,424.426,-2.3766
725.76,424.933,-2.37161
728.76,425.44,-2.36702
731.76,425.94,-2.36337
734.76,426.442,-2.3598
737.76,426.951,-2.35553
740.76,427.45,-2.35143
743.76,427.956,-2.34786
746.76,428.459,-2.34375
749.76,428.963,-2.33985
752.76,429.468,-2.33585
755.76,429.975,-2.33169
758.76,430.481,-2.32819
761.76,430.984,-2.32454
764.76,431.49,-2.32032
767.76,431.995,-2.31686
770.76,432.501,-2.31356
773.76,433.003,-2.31078
776.76,433.504,-2.30738
779.76,434.012,-2.30418
782.76,434.514,-2.30111
785.76,435.018,-2.29804
788.76,435.524,-2.29463
791.76,436.027,-2.29127
794.76,436.532,-2.28834
797.76,437.034,-2.28548
800.76,437.535,-2.28233
803.76,438.039,-2.28002
806.76,438.543,-2.27692
809.76,439.046,-2.27408
812.76,439.548,-2.27193
815.76,440.049,-2.26958
818.76,440.551,-2.26705
821.76,441.052,-2.26427
824.76,441.563,-2.2614
827.76,442.064,-2.25863
830.76,442.57,-2.25676
833.76,443.071,-2.25458
836.76,443.57,-2.25207
839.76,444.077,-2.24969
842.76,444.578,-2.24717
845.76,445.077,-2.24523
848.76,445.578,-2.24322
851.76,446.079,-2.24096
854.76,446.59,-2.23898
857.76,447.087,-2.23693
860.76,447.588,-2.23444
863.76,448.089,-2.23245
866.76,448.596,-2.2308
869.76,449.092,-2.22901
872.76,449.595,-2.22717
875.76,450.097,-2.22523
878.76,450.598,-2.22378
881.76,451.101,-2.22181
884.76,451.598,-2.2199
887.76,452.1,-2.2176
890.76,452.608,-2.21584
893.76,453.115,-2.21408
896.76,453.615,-2.21258
899.76,454.116,-2.21135
902.76,454.621,-2.21002
905.76,455.118,-2.20868
908.76,455.622,-2.20654
911.76,456.12,-2.20465
914.76,456.625,-2.20342
917.76,457.12,-2.20157
920.76,457.625,-2.20014
923.76,458.128,-2.19832
926.76,458.631,-2.19632
929.76,459.131,-2.19394
932.76,459.636,-2.1924
935.76,460.137,-2.19056
938.76,460.644,-2.18898
941.76,461.145,-2.18721
944.76,461.641,-2.18608
947.76,462.145,-2.18485
950.76,462.646,-2.18314
953.76,463.149,-2.18186
956.76,463.646,-2.18038
959.76,464.146,-2.17858
962.76,464.648,-2.17687
965.76,465.149,-2.17475
968.76,465.649,-2.17308
971.76,466.155,-2.17158
974.76,466.654,-2.16992
977.76,467.157,-2.16799
980.76,467.661,-2.16655
983.76,468.163,-2.16447
986.76,468.663,-2.16208
989.76,469.165,-2.15996
992.76,469.664,-2.15872
995.76,470.163,-2.15727
998.76,470.668,-2.15628
1001.76,471.17,-2.15461
1004.76,471.675,-2.15197
1007.76,472.178,-2.14912
1010.76,472.68,-2.14716
1013.76,473.179,-2.14473
1016.76,473.675,-2.14245
1019.76,474.178,-2.14025
1022.76,474.673,-2.13845
1025.76,475.173,-2.13754
1028.76,475.679,-2.13551
1031.76,476.174,-2.1332
1034.76,476.68,-2.13089
1037.76,477.179,-2.12836
1040.76,477.679,-2.12658
1043.76,478.178,-2.12499
1046.76,478.678,-2.12235
1049.76,479.181,-2.12006
1052.76,479.681,-2.11794
1055.76,480.186,-2.11511
1058.76,480.682,-2.11244
1061.76,481.187,-2.11014
1064.76,481.681,-2.10755
1067.76,482.186,-2.10489
1070.76,482.682,-2.10151
1073.76,483.185,-2.09906
1076.76,483.685,-2.09644
1079.76,484.189,-2.09397
1082.76,484.693,-2.09116
1085.76,485.188,-2.08744
1088.76,485.692,-2.08443
1091.76,486.19,-2.08194
1094.76,486.693,-2.07921
1097.76,487.195,-2.07583
1100.76,487.697,-2.07364
1103.76,488.198,-2.07054
1106.76,488.702,-2.06727
1109.76,489.203,-2.06372
1112.76,489.703,-2.06036
1115.76,490.201,-2.0565
1118.76,490.707,-2.05362
1121.76,491.198,-2.05014
1124.76,491.702,-2.0468
1127.76,492.202,-2.04331
1130.76,492.707,-2.03974
1133.76,493.205,-2.03592
1136.76,493.706,-2.03275
1139.76,494.207,-2.02981
1142.76,494.706,-2.02636
1145.76,495.205,-2.0228
1148.76,495.706,-2.01908
1151.76,496.206,-2.01571
1154.76,496.702,-2.01191
1157.76,497.205,-2.00832
1160.76,497.702,-2.00457
1163.76,498.203,-2.00075
1166.76,498.704,-1.99726
1169.76,499.204,-1.99378
1172.76,499.7,-1.98997
1175.76,500.206,-1.98653
1178.76,500.701,-1.98227
1181.76,501.197,-1.97818
1184.76,501.697,-1.97408
1187.76,502.198,-1.96975
1190.76,502.7,-1.96551
1193.76,503.201,-1.9617
1196.76,503.7,-1.95714
1199.76,504.2,-1.9517
1202.76,504.704,-1.94689
1205.76,505.205,-1.94252
1208.76,505.7,-1.93868
1211.76,506.201,-1.93528
1214.76,506.698,-1.93166
1217.76,507.204,-1.92699
1220.76,507.702,-1.92244
1223.76,508.198,-1.91835
1226.76,508.698,-1.91427
1229.76,509.198,-1.90965
1232.76,509.693,-1.90625
1235.76,510.19,-1.90377
1238.76,510.689,-1.90011
1241.76,511.191,-1.89482
1244.76,511.695,-1.88992
1247.76,512.192,-1.88627
1250.76,512.693,-1.8814
1253.76,513.186,-1.87704
1256.76,513.683,-1.87344
1259.76,514.179,-1.86881
1262.76,514.681,-1.86467
1265.76,515.176,-1.86037
1268.76,515.681,-1.85665
1271.76,516.178,-1.85293
1274.76,516.678,-1.84898
1277.76,517.176,-1.84392
1280.76,517.674,-1.83931
1283.76,518.17,-1.8362
1286.76,518.671,-1.8324
1289.76,519.168,-1.82731
1292.76,519.664,-1.82271
1295.76,520.163,-1.81804
1298.76,520.663,-1.8128
1301.76,521.158,-1.80691
1304.76,521.66,-1.80089
1307.76,522.164,-1.79666
1310.76,522.662,-1.79193
1313.76,523.16,-1.78702
1316.76,523.656,-1.78255
1319.76,524.157,-1.77733
1322.76,524.657,-1.77156
1325.76,525.151,-1.76655
1328.76,525.651,-1.76118
1331.76,526.148,-1.75515
1334.76,526.646,-1.74905
1337.76,527.145,-1.74356
1340.76,527.643,-1.73819
1343.76,528.135,-1.73242
1346.76,528.634,-1.72715
1349.76,529.139,-1.72189
1352.76,529.632,-1.71584
1355.76,530.129,-1.71004
1358.76,530.63,-1.70448
1361.76,531.125,-1.6983
1364.76,531.628,-1.69149
1367.76,532.125,-1.68504
1370.76,532.626,-1.67909
1373.76,533.121,-1.67221
1376.76,533.623,-1.66575
1379.76,534.121,-1.65955
1382.76,534.621,-1.65259
1385.76,535.122,-1.64605
1388.76,535.62,-1.63901
1391.76,536.112,-1.6325
1394.76,536.615,-1.62473
1397.76,537.114,-1.61759
1400.76,537.617,-1.61071
1403.76,538.118,-1.60267
1406.76,538.615,-1.59396
1409.76,539.114,-1.58498
1412.76,539.615,-1.57596
1415.76,540.115,-1.56833
1418.76,540.611,-1.55998
1421.76,541.112,-1.55173
1424.76,541.609,-1.54408
1427.76,542.102,-1.5367
1430.76,542.608,-1.52938
1433.76,543.101,-1.52365
1436.76,543.596,-1.51666
1439.76,544.1,-1.50837
1442.76,544.593,-1.49998
1445.76,545.094,-1.49183
1448.76,545.588,-1.48435
1451.76,546.086,-1.47642
1454.76,546.588,-1.46855
1457.76,547.092,-1.46175
1460.76,547.581,-1.4553
1463.76,548.078,-1.44739
1466.76,548.582,-1.44007
1469.76,549.071,-1.43329
1472.76,549.57,-1.42555
1475.76,550.071,-1.41858
1478.76,550.571,-1.41045
1481.76,551.065,-1.40219
1484.76,551.561,-1.39644
1487.76,552.058,-1.39062
1490.76,552.55,-1.3838
1493.76,553.055,-1.37744
1496.76,553.546,-1.37083
1499.76,554.047,-1.36464
1502.76,554.551,-1.35862
1505.76,555.042,-1.35343
1508.76,555.542,-1.34782
1511.76,556.035,-1.34021
1514.76,556.536,-1.33287
1517.76,557.034,-1.32619
1520.76,557.526,-1.32019
1523.76,558.027,-1.31317
1526.76,558.522,-1.30687
1529.76,559.018,-1.30112
1532.76,559.518,-1.2934
1535.76,560.015,-1.28504
1538.76,560.518,-1.27698
1541.76,561.018,-1.26947
1544.76,561.511,-1.26261
1547.76,562.008,-1.25588
1550.76,562.506,-1.2487
1553.76,563,-1.24047
1556.76,563.504,-1.23307
1559.76,563.996,-1.22576
1562.76,564.495,-1.21863
1565.76,564.994,-1.21051
1568.76,565.489,-1.20301
1571.76,565.991,-1.19497
1574.76,566.487,-1.18649
1577.76,566.99,-1.17909
1580.76,567.489,-1.1713
1583.76,567.986,-1.1619
1586.76,568.49,-1.15406
1589.76,568.989,-1.14557
1592.76,569.486,-1.13725
1595.76,569.99,-1.12953
1598.76,570.487,-1.11946
1601.76,570.982,-1.1099
1604.76,571.484,-1.09969
1607.76,571.985,-1.08798
1610.76,572.487,-1.07897
1613.76,572.988,-1.07071
1616.76,573.49,-1.06246
1619.76,573.987,-1.05423
1622.76,574.489,-1.04848
1625.76,574.994,-1.04319
1628.76,575.488,-1.03957
1631.76,575.989,-1.03679
1634.76,576.483,-1.03679
1637.76,576.983,-1.0388
1640.76,577.479,-1.04386
1643.76,577.974,-1.05508
1646.76,578.461,-1.06695
1649.76,578.956,-1.08347
1652.76,579.44,-1.09595
1655.76,579.933,-1.11373
1658.76,580.425,-1.12814
1661.76,580.918,-1.13428
1664.76,581.41,-1.13358
1667.76,581.904,-1.12438
1670.76,582.4,-1.11232
1673.76,582.889,-1.1017
1676.76,583.382,-1.09797
1679.76,583.878,-1.09324
1682.76,584.37,-1.07847
1685.76,584.871,-1.05941
1688.76,585.391,-1.01953
1691.76,585.864,-0.9935235
1694.76,586.354,-0.994529
1697.76,586.832,-1.00022
1700.76,587.32,-1.01729
1703.76,587.81,-1.0215
1706.76,588.3,-1.02279
1709.76,588.791,-1.0218
1712.76,589.29,-1.02208
1715.76,589.785,-1.01758
1718.76,590.275,-1.01204
1721.76,590.771,-1.01266
1724.76,591.269,-1.01229
1727.76,591.783,-0.994671
1730.76,592.264,-0.974615
1733.76,592.752,-0.976193
1736.76,593.24,-0.985628
1739.76,593.733,-1.01536
1742.76,594.221,-1.0253
1745.76,594.722,-1.02693
1748.76,595.221,-1.02458
1751.76,595.72,-1.02279
1754.76,596.211,-1.02888
1757.76,596.705,-1.04437
1760.76,597.186,-1.08102
1763.76,597.684,-1.12001
1766.76,598.17,-1.15075
1769.76,598.658,-1.18755
1772.76,599.149,-1.22336
1775.76,599.649,-1.23228
1778.76,600.136,-1.24645
1781.76,600.63,-1.27326
1784.76,601.125,-1.28251
1787.76,601.627,-1.28262
1790.76,602.129,-1.25557
1793.76,602.626,-1.24159
1796.76,603.124,-1.23706
1799.76,603.629,-1.20709
1802.76,604.13,-1.17754
1805.76,604.639,-1.1503
1808.76,605.136,-1.11737
1811.76,605.65,-1.07628
1814.76,606.151,-1.02465
1817.76,606.663,-0.968986
1820.76,607.18,-0.906442
1823.76,607.693,-0.835564
1826.76,608.201,-0.760411
1829.76,608.742,-0.641091
1832.76,609.246,-0.513866
1835.76,609.751,-0.442802
1838.76,610.26,-0.376414
1841.76,610.773,-0.302149
1844.76,611.28,-0.23585
1847.76,611.782,-0.175482
1850.76,612.282,-0.128302
1853.76,612.78,-0.0938539
1856.76,613.277,-0.0675406
1859.76,613.776,-0.0428599
1862.76,614.27,-0.0221881
1865.76,614.764,-0.006316491
1868.76,615.26,0.006115198
1871.76,615.753,0.0162934
1874.76,616.24,0.0242888
1877.76,616.738,0.02885485
1880.76,617.229,0.031653
1883.76,617.721,0.0316265
1886.76,618.209,0.0275746
1889.76,618.706,0.0220793
1892.76,619.196,0.0185169
1895.76,619.689,0.0131877
1898.76,620.175,0.006492994
1901.76,620.668,-0.002246676
1904.76,621.159,-0.0124982
1907.76,621.65,-0.0202143
1910.76,622.144,-0.0278236
1913.76,622.638,-0.0357231
1916.76,623.129,-0.0441063
1919.76,623.618,-0.0529295
1922.76,624.112,-0.060406
1925.76,624.609,-0.0672201
1928.76,625.103,-0.0755857
1931.76,625.599,-0.08276
1934.76,626.093,-0.0878726
1937.76,626.584,-0.0980995
1940.76,627.082,-0.107648
1943.76,627.579,-0.112838
1946.76,628.074,-0.116916
1949.76,628.562,-0.122499
1952.76,629.063,-0.129197
1955.76,629.561,-0.135493
1958.76,630.056,-0.14182
1961.76,630.556,-0.14727
1964.76,631.047,-0.151667
1967.76,631.544,-0.157272
1970.76,632.041,-0.162002
1973.76,632.536,-0.166845
1976.76,633.036,-0.1711
1979.76,633.531,-0.176338
1982.76,634.027,-0.18142
1985.76,634.525,-0.184822
1988.76,635.02,-0.188323
1991.76,635.52,-0.191893
1994.76,636.013,-0.194394
1997.76,636.51,-0.196178
2000.76,637.001,-0.198645
2003.76,637.498,-0.20311
2006.76,637.989,-0.207244
2009.76,638.484,-0.209184
2012.76,638.979,-0.212079
2015.76,639.474,-0.218374
2018.76,639.967,-0.224848
2021.76,640.464,-0.227591
2024.76,640.953,-0.229868
2027.76,641.449,-0.232455
2030.76,641.945,-0.233182
2033.76,642.441,-0.232841
2036.76,642.935,-0.234054
2039.76,643.428,-0.233517
2042.76,643.919,-0.235595
2045.76,644.417,-0.237967
2048.76,644.912,-0.239171
2051.76,645.407,-0.238526
2054.76,645.899,-0.237577
2057.76,646.394,-0.237487
2060.76,646.883,-0.238353
2063.76,647.377,-0.240205
2066.76,647.873,-0.240044
2069.76,648.364,-0.239135
2072.76,648.863,-0.23635
2075.76,649.359,-0.236463
2078.76,649.854,-0.236103
2081.76,650.345,-0.231605
2084.76,650.842,-0.226935
2087.76,651.337,-0.223419
2090.76,651.83,-0.219912
2093.76,652.325,-0.216266
2096.76,652.821,-0.211798
2099.76,653.313,-0.210674
2102.76,653.806,-0.207565
2105.76,654.299,-0.203753
2108.76,654.797,-0.199223
2111.76,655.293,-0.195536
2114.76,655.792,-0.192194
2117.76,656.285,-0.186948
2120.76,656.784,-0.181533
2123.76,657.277,-0.175344
2126.76,657.773,-0.169741
2129.76,658.27,-0.168014
2132.76,658.764,-0.166037
2135.76,659.258,-0.162848
2138.76,659.749,-0.158374
2141.76,660.249,-0.152266
2144.76,660.74,-0.146772
2147.76,661.233,-0.141438
2150.76,661.732,-0.139022
2153.76,662.224,-0.138351
2156.76,662.72,-0.133679
2159.76,663.215,-0.126588
2162.76,663.716,-0.119884
2165.76,664.208,-0.115036
2168.76,664.707,-0.11339
2171.76,665.2,-0.108943
2174.76,665.694,-0.103158
2177.76,666.186,-0.0995087
2180.76,666.686,-0.09646645
2183.76,667.181,-0.091657
2186.76,667.672,-0.0872247
2189.76,668.173,-0.0842048
2192.76,668.664,-0.0796506
2195.76,669.163,-0.073096
2198.76,669.659,-0.0672283
2201.76,670.153,-0.0602448
2204.76,670.647,-0.0546469
2207.76,671.141,-0.0473409
2210.76,671.637,-0.0421752
2213.76,672.135,-0.0387209
2216.76,672.627,-0.0327624
2219.76,673.123,-0.0253537
2222.76,673.617,-0.017955
2225.76,674.113,-0.0105419
2228.76,674.61,-0.003615736
2231.76,675.103,0.001674566
2234.76,675.595,0.005824485
2237.76,676.095,0.0106958
2240.76,676.592,0.0184178
2243.76,677.089,0.0261328
2246.76,677.582,0.0307997
2249.76,678.08,0.0364789
2252.76,678.576,0.0460863
2255.76,679.074,0.0567249
2258.76,679.565,0.0670912
2261.76,680.067,0.0744986
2264.76,680.559,0.0832639
2267.76,681.057,0.0922435
2270.76,681.555,0.0963692
2273.76,682.048,0.0994841
2276.76,682.545,0.104225
2279.76,683.036,0.109538
2282.76,683.536,0.115903
2285.76,684.031,0.120138
2288.76,684.525,0.122603
2291.76,685.024,0.125696
2294.76,685.516,0.130147
2297.76,686.006,0.133717
2300.76,686.503,0.132952
2303.76,686.998,0.134855
2306.76,687.493,0.135974
2309.76,687.989,0.134201
2312.76,688.484,0.1368557
2315.76,688.977,0.142347
2318.76,689.47,0.146818
2321.76,689.966,0.150457
2324.76,690.459,0.154033
2327.76,690.962,0.159692
2330.76,691.455,0.165383
2333.76,691.951,0.169952
2336.76,692.445,0.172687
2339.76,692.937,0.175691
2342.76,693.435,0.177583
2345.76,693.935,0.180637
2348.76,694.429,0.189576
2351.76,694.921,0.196746
2354.76,695.418,0.201375
2357.76,695.917,0.205304
2360.76,696.41,0.209766
2363.76,696.901,0.210742
2366.76,697.398,0.211497
2369.76,697.897,0.214985
2372.76,698.389,0.218476
2375.76,698.885,0.223302
2378.76,699.386,0.22852
2381.76,699.878,0.231605
2384.76,700.37,0.234355
2387.76,700.866,0.237822
2390.76,701.364,0.242405
2393.76,701.86,0.245643
2396.76,702.349,0.24849
2399.76,702.844,0.253187
2402.76,703.341,0.258907
2405.76,703.836,0.263459
2408.76,704.334,0.268997
2411.76,704.826,0.275477
2414.76,705.32,0.282403
2417.76,705.814,0.286618
2420.76,706.312,0.290462
2423.76,706.808,0.292953
2426.76,707.303,0.297167
2429.76,707.796,0.303166
2432.76,708.293,0.307464
2435.76,708.79,0.313082
2438.76,709.28,0.31835
2441.76,709.778,0.321974
2444.76,710.277,0.327613
2447.76,710.772,0.334069
2450.76,711.266,0.338021
2453.76,711.764,0.342447
2456.76,712.258,0.349433
2459.76,712.754,0.355817
2462.76,713.243,0.361061
2465.76,713.741,0.367012
2468.76,714.236,0.372024
2471.76,714.733,0.376835
2474.76,715.229,0.383988
2477.76,715.725,0.392301
2480.76,716.224,0.399224
2483.76,716.72,0.405927
2486.76,717.212,0.411778
2489.76,717.706,0.415875
2492.76,718.209,0.421697
2495.76,718.698,0.428152
2498.76,719.196,0.432126
2501.76,719.691,0.438734
2504.76,720.187,0.445157
2507.76,720.682,0.450909
2510.76,721.175,0.454478
2513.76,721.668,0.455749
2516.76,722.168,0.459965
2519.76,722.662,0.468889
2522.76,723.156,0.474382
2525.76,723.655,0.478599
2528.76,724.151,0.483602
2531.76,724.642,0.489122
2534.76,725.138,0.494098
2537.76,725.633,0.498791
2540.76,726.132,0.505239
2543.76,726.628,0.514229
2546.76,727.124,0.520817
2549.76,727.619,0.524731
2552.76,728.114,0.527542
2555.76,728.61,0.533933
2558.76,729.098,0.538588
2561.76,729.59,0.538727
2564.76,730.093,0.542134
2567.76,730.588,0.549202
2570.76,731.082,0.555737
2573.76,731.578,0.560541
2576.76,732.077,0.564391
2579.76,732.57,0.568027
2582.76,733.068,0.571207
2585.76,733.564,0.576488
2588.76,734.059,0.585153
2591.76,734.552,0.590288
2594.76,735.046,0.59425
2597.76,735.548,0.596978
2600.76,736.038,0.598224
2603.76,736.532,0.598721
2606.76,737.025,0.601469
2609.76,737.518,0.605439
2612.76,738.018,0.609544
2615.76,738.512,0.612619
2618.76,739.008,0.617474
2621.76,739.508,0.624037
2624.76,740.001,0.627878
2627.76,740.496,0.6293
2630.76,740.988,0.631195
2633.76,741.484,0.633337
2636.76,741.977,0.635154
2639.76,742.471,0.637167
2642.76,742.968,0.641645
2645.76,743.46,0.648535
2648.76,743.958,0.652886
2651.76,744.451,0.656959
2654.76,744.949,0.6614765
2657.76,745.443,0.663073
2660.76,745.937,0.665248
2663.76,746.43,0.668411
2666.76,746.925,0.669549
2669.76,747.422,0.673692
2672.76,747.915,0.677487
2675.76,748.42,0.683496
2678.76,748.908,0.689181
2681.76,749.403,0.692284
2684.76,749.903,0.697071
2687.76,750.403,0.703834
2690.76,750.894,0.710093
2693.76,751.391,0.715743
2696.76,751.885,0.720077
2699.76,752.379,0.726693
2702.76,752.875,0.734065
2705.76,753.369,0.739107
2708.76,753.863,0.74327
2711.76,754.362,0.749241
2714.76,754.854,0.752365
2717.76,755.353,0.751768
2720.76,755.848,0.753374
2723.76,756.341,0.758255
2726.76,756.838,0.763413
2729.76,757.335,0.76587
2732.76,757.828,0.769148
2735.76,758.325,0.7749
2738.76,758.821,0.781206
2741.76,759.32,0.781776
2744.76,759.811,0.779998
2747.76,760.307,0.780419
2750.76,760.798,0.78008
2753.76,761.295,0.781518
2756.76,761.79,0.783022
2759.76,762.285,0.786753
2762.76,762.782,0.790495
2765.76,763.274,0.793058
2768.76,763.767,0.795301
2771.76,764.265,0.799047
2774.76,764.759,0.801211
2777.76,765.256,0.802979
2780.76,765.746,0.805169
2783.76,766.241,0.809659
2786.76,766.736,0.812982
2789.76,767.233,0.816003
2792.76,767.728,0.815468
2795.76,768.225,0.817645
2798.76,768.72,0.821687
2801.76,769.218,0.826078
2804.76,769.713,0.829996
2807.76,770.21,0.834519
2810.76,770.704,0.837789
2813.76,771.197,0.84048
2816.76,771.696,0.8428
2819.76,772.189,0.844598
2822.76,772.689,0.847081
2825.76,773.183,0.85176
2828.76,773.675,0.852589
2831.76,774.167,0.854442
2834.76,774.663,0.856191
2837.76,775.163,0.86129
2840.76,775.657,0.867784
2843.76,776.152,0.874063
2846.76,776.649,0.879063
2849.76,777.142,0.879584
2852.76,777.634,0.881405
2855.76,778.132,0.884753
2858.76,778.628,0.88159
2861.76,779.124,0.884285
2864.76,779.62,0.890963
2867.76,780.115,0.895517
2870.76,780.611,0.896609
2873.76,781.105,0.893808
2876.76,781.602,0.894051
2879.76,782.099,0.90009
2882.76,782.591,0.904937
2885.76,783.089,0.90368
2888.76,783.582,0.902077
2891.76,784.079,0.901428
2894.76,784.572,0.901948
2897.76,785.07,0.906035
2900.76,785.559,0.910024
2903.76,786.059,0.914411
2906.76,786.554,0.919309
2909.76,787.053,0.921942
2912.76,787.547,0.920929
2915.76,788.042,0.92216
2918.76,788.54,0.927989
2921.76,789.037,0.929542
2924.76,789.527,0.93369
2927.76,790.025,0.937117
2930.76,790.517,0.941301
2933.76,791.018,0.944989
2936.76,791.51,0.949041
2939.76,792.006,0.949574
2942.76,792.495,0.948249
2945.76,792.993,0.944293
2948.76,793.489,0.943548
2951.76,793.988,0.945328
2954.76,794.482,0.946069
2957.76,794.978,0.944753
2960.76,795.471,0.942444
2963.76,795.968,0.93516
2966.76,796.461,0.928476
2969.76,796.957,0.927955
2972.76,797.456,0.930331
2975.76,797.944,0.928991
2978.76,798.44,0.927744
2981.76,798.939,0.930422
2984.76,799.43,0.9229
2987.76,799.927,0.915425
2990.76,800.423,0.915248
2993.76,800.913,0.907488
2996.76,801.409,0.89991
2999.76,801.904,0.897242
3002.76,802.399,0.894521
3005.76,802.895,0.891479
3008.76,803.39,0.891385
3011.76,803.886,0.892502
,,
,,
,,
,,
,,
,,
,,
,,
,,
,,
,,
,,
,,
,,
,,
,,
,,
,,
,,
,,
,,
,,
,,
,,
,,
,,
,,
,,
,,
,,
,,
,,
,,
,,
,,
,,
,,
,,
,,
,,
,,
,,
,,
,,
,,
,,
,,
,,
,,
,,
,,
,,
,,
,,
,,
,,
,,
,,
,,
,,
,,
,,
,,
,,
,,
,,
,,
,,
,,
,,
,,
,,
,,
,,
,,
,,
,,
,,
,,
,,
,,
,,
,,
,,
,,
,,
,,
,,
,,
,,
,,
,,
,,
,,
,,
,,
,,
,,
,,
,,
,,
,,
,,
,,
,,
,,
,,
,,
,,
,,
,,
,,
,,
,,
,,
,,
,,
,,
,,
,,
,,
,,
,,
,,
,,
,,
,,
,,
,,
,,
,,
,,
,,
,,
,,
,,
,,
,,
,,
,,
,,
,,
,,
,,
,,
,,
,,
,,
,,
,,
,,
,,
,,
,,
,,
,,
,,
,,
,,
,,
,,
,,
,,
,,
,,
,,
,,
,,
,,
,,
,,
,,
,,
,,
,,
,,
,,
,,
,,
,,
,,
,,
,,
,,
,,
,,
,,
,,
,,
,,
,,
,,
,,
,,
,,
,,
,,
,,
,,
,,
,,
,,
,,
,,
,,
,,
,,
,,
,,
,,
,,
,,
,,
,,
,,
,,
,,
,,
,,
,,
,,
,,
,,
,,
,,
,,
,,
,,
,,
,,
,,
,,
,,
,,
,,
,,
,,
,,
,,
,,
,,
,,
,,
,,
,,
,,
,,
,,
,,
,,
,,
,,
,,
,,
,,
,,
,,
,,
,,
,,
,,
,,
,,
,,
,,
,,
,,
,,
,,
,,
,,
,,
,,
,,
,,
,,
,,
,,
,,
,,
,,
,,
,,
,,
,,
,,
,,
,,
,,
,,
,,
,,
,,
,,
,,
,,
,,
,,
,,
,,
,,
,,
,,
,,
,,
,,
,,
,,
,,
,,
,,
,,
,,
,,
,,
,,
,,
,,
,,
,,
,,
,,
,,
,,
,,
,,
,,
,,
,,
,,
,,
,,
,,
,,
,,
,,
,,
,,
,,
,,
,,
,,
,,
,,
,,
,,
,,
,,
,,
,,
,,
,,
,,
,,
,,
,,
,,
,,
,,
,,
,,
,,
,,
,,
,,
,,
,,
,,
,,
,,
,,
,,
,,
,,
,,
,,
,,
,,
,,
,,
,,
,,
,,
,,
,,
,,
,,
,,
,,
,,
,,
,,
,,
,,
,,
,,
,,
,,
,,
,,
,,
,,
,,
,,
,,
,,
,,
,,
,,
,,
,,
,,
,,
,,
,,
,,
,,
,,
,,
,,
,,
,,
,,
,,
,,
,,
,,
,,
,,
,,
,,
,,
,,
,,
,,
,,
,,
,,
,,
,,
,,
,,
,,
,,
,,
,,
,,
,,
,,
,,
,,
,,
,,
,,
,,
,,
,,
,,
,,
,,
,,
,,
,,
,,
,,
,,
,,
,,
,,
,,
,,
,,
,,
,,
,,
,,
,,
,,
,,
,,
,,
,,
,,
,,
,,
,,
,,
,,
,,
,,
,,
,,
,,
,,
,,
,,
,,
,,
,,
,,
,,
,,
,,
,,
,,
,,
,,
,,
,,
,,
,,
,,
,,
,,
,,
,,
,,
,,
,,
,,
,,
,,
,,
,,
,,
,,
,,
,,
,,
,,
,,
,,
,,
,,
,,
,,
,,
,,
,,
,,
,,
,,
,,
,,
,,
,,
,,
,,
,,
,,
,,
,,
,,
,,
,,
,,
,,
,,
,,
,,
,,
,,
,,
,,
,,
,,
,,
,,
,,
,,
,,
,,
,,
,,
,,
,,
,,
,,
,,
,,
,,
,,
,,
,,
,,
,,
,,
,,
,,
,,
,,
,,
,,
,,
,,
,,
,,
,,
,,
,,
,,
,,
,,
,,
,,
,,
,,
,,
,,
,,
,,
,,
,,
,,
,,
,,
,,
,,
,,
,,
,,
,,
,,
,,
,,
,,
,,
,,
,,
,,
,,
,,
,,
,,
,,
,,
,,
,,
,,
,,
,,
,,
,,
,,
,,
,,
,,
,,
,,
,,
,,
,,
,,
,,
,,
,,
,,
,,
,,
,,
,,
,,
,,
,,
,,
,,
,,
,,
,,
,,
,,
,,
,,
,,
,,
,,
,,
,,
,,
,,
,,
,,
,,
,,
,,
,,
,,
,,
,,
,,
,,
,,
,,
,,
,,
,,
,,
,,
,,
,,
,,
,,
,,
,,
,,
,,
,,
,,
,,
,,
,,
,,
,,
,,
,,
,,
,,
,,
,,
,,
,,
,,
,,
,,
,,
,,
,,
,,
,,
,,
,,
,,
,,
,,
,,
,,
,,
,,
,,
,,
,,
,,
,,
,,
,,
,,
,,
,,
,,
,,
,,
,,
,,
,,
,,
,,
,,
,,
,,
,,
,,
,,
,,
,,
,,
,,
,,
,,
,,
,,
,,
,,
,,
,,
,,
,,
,,
,,
,,
,,
,,
,,
,,
,,
,,
,,
,,
,,
,,
,,
,,
,,
,,
,,
,,
,,
,,
,,
,,
,,
,,
,,
,,
,,
,,
,,
,,
,,
,,
,,
,,
,,
,,
,,
,,
,,
,,
,,
,,
,,
,,
,,
,,
,,
,,
,,
,,
,,
,,
,,
,,
,,
,,
,,
,,
,,
,,
,,
,,
,,
,,
,,
,,
,,
,,
,,
,,
,,
,,
,,
,,
,,
,,
,,
,,
,,
,,
,,
,,
,,
,,
,,
,,
,,
,,
,,
,,
,,
,,
,,
,,
,,
,,
,,
,,
,,
,,
,,
,,
,,
,,
,,
,,
,,
,,
,,
,,
,,
,,
,,
,,
,,
,,
,,
,,
,,
,,
,,
,,
,,
,,
,,
,,
,,
,,
,,
,,
,,
,,
,,
,,
,,
,,
,,
,,
,,
,,
,,
,,
,,
,,
,,
,,
,,
,,
,,
,,
,,
,,
,,
,,
,,
,,
,,
,,
,,
,,
,,
,,
,,
,,
,,
,,
,,
,,
,,
,,
,,
,,
,,
,,
,,
,,
,,
,,
,,
,,
,,
,,
,,
,,
,,
,,
,,
,,
,,
,,
,,
,,
,,
,,
,,
,,
,,
,,
,,
,,
,,
,,
,,
,,
,,
,,
,,
,,
,,
,,
,,
,,
,,
,,
,,
,,
,,
,,
,,
,,
,,
,,
,,
,,
,,
,,
,,
,,
,,
,,
,,
,,
,,
,,
,,
,,
,,
,,
,,
,,
,,
,,
,,
,,
,,
,,
,,
,,
,,
,,
,,
,,
,,
,,
,,
,,
,,
,,
,,
,,
,,
,,
,,
,,
,,
,,
,,
,,
,,
,,
,,
,,
,,
,,
,,
,,
,,
,,
,,
,,
,,
,,
,,
,,
,,
,,
,,
,,
,,
,,
,,
,,
,,
,,
,,
,,
,,
,,
,,
,,
,,
,,
,,
,,
,,
,,
,,
,,
,,
,,
,,
,,
,,
,,
,,
,,
,,
,,
,,
,,
,,
,,
,,
,,
,,
,,
,,
,,
,,
,,
,,
,,
,,
,,
,,
,,
,,
,,
,,
,,
,,
,,
,,
,,
,,
,,
,,
,,
,,
,,
,,
,,
,,
,,
,,
,,
,,
,,
,,
,,
,,
,,
,,
,,
,,
,,
,,
,,
,,
,,
,,
,,
,,
,,
,,
,,
,,
,,
,,
,,
,,
,,
,,
,,
,,
,,
,,
,,
,,
,,
,,
,,
,,
,,
,,
,,
,,
,,
,,
,,
,,
,,
,,
,,
,,
,,
,,
,,
,,
,,
,,
,,
,,
,,
,,
,,
,,
,,
,,
,,
,,
,,
,,
,,
,,
,,
,,
,,
,,
,,
,,
,,
,,
,,
,,
,,
,,
,,
,,
,,
,,
,,
,,
,,
,,
,,
,,
,,
,,
,,
,,
,,
,,
,,
,,
,,
,,
,,
,,
,,
,,
,,
,,
,,
,,
,,
,,
,,
,,
,,
,,
,,
,,
,,
,,
,,
,,
,,
,,
,,
,,
,,
,,
,,
,,
,,
,,
,,
,,
,,
,,
,,
,,
,,
,,
,,
,,
,,
,,
,,
,,
,,
,,
,,
,,
,,
,,
,,
,,
,,
,,
,,
,,
,,
,,
,,
,,
,,
,,
,,
,,
,,
,,
,,
,,
,,
,,
,,
,,
,,
,,
,,
,,
,,
,,
,,
,,
,,
,,
,,
,,
,,
,,
,,
,,
,,
,,
,,
,,
,,
,,
,,
,,
,,
,,
,,
,,
,,
,,
,,
,,
,,
,,
,,
,,
,,
,,
,,
,,
,,
,,
,,
,,
,,
,,
,,
,,
,,
,,
,,
,,
,,
,,
,,
,,
,,
,,
,,
,,
,,
,,
,,
,,
,,
,,
,,
,,
,,
,,
,,
,,
,,
,,
,,
,,
,,
,,
,,
,,
,,
,,
,,
,,
,,
,,
,,
,,
,,
,,
,,
,,
,,
,,
,,
,,
,,
,,
,,
,,
,,
,,
,,
,,
,,
,,
,,
,,
,,
,,
,,
,,
,,
,,
,,
,,
,,
,,
,,
,,
,,
,,
,,
,,
,,
,,
,,
,,
,,
,,
,,
,,
,,
,,
,,
,,
,,
,,
,,
,,
,,
,,
,,
,,
,,
,,
,,
,,
,,
,,
,,
,,
,,
,,
,,
,,
,,
,,
,,
,,
,,
,,
,,
,,
,,
,,
,,
,,
,,
,,
,,
,,
,,
,,
,,
,,
,,
,,
,,
,,
,,
,,
,,
,,
,,
,,
,,
,,
,,
,,
,,
,,
,,
,,
,,
,,
,,
,,
,,
,,
,,
,,
,,
,,
,,
,,
,,
,,
,,
,,
,,
,,
,,
,,
,,
,,
,,
,,
,,
,,
,,
,,
,,
,,
,,
,,
,,
,,
,,
,,
,,
,,
,,
,,
,,
,,
,,
,,
,,
,,
,,
,,
,,
,,
,,
,,
,,
,,
,,
,,
,,
,,
,,
,,
,,
,,
,,
,,
,,
,,
,,
,,
,,
,,
,,
,,
,,
,,
,,
,,
,,
,,
,,
,,
,,
,,
,,
,,
,,
,,
,,
,,
,,
,,
,,
,,
,,
,,
,,
,,
,,
,,
,,
,,
,,
,,
,,
,,
,,
,,
,,
,,
,,
,,
,,
,,
,,
,,
,,
,,
,,
,,
,,
,,
,,
,,
,,
,,
,,
,,
,,
,,
,,
,,
,,
,,
,,
,,
,,
,,
,,
,,
,,
,,
,,
,,
,,
,,
,,
,,
,,
,,
,,
,,
,,
,,
,,
,,
,,
,,
,,
,,
,,
,,
,,
,,
,,
,,
,,
,,
,,
,,
,,
,,
,,
,,
,,
,,
,,
,,
,,
,,
,,
,,
,,
,,
,,
,,
,,
,,
,,
,,
,,
,,
,,
,,
,,
,,
,,
,,
,,
,,
,,
,,
,,
,,
,,
,,
,,
,,
,,
,,
,,
,,
,,
,,
,,
,,
,,
,,
,,
,,
,,
,,
,,
,,
,,
,,
,,
,,
,,
,,
,,
,,
,,
,,
,,
,,
,,
,,
,,
,,
,,
,,
,,
,,
,,
,,
,,
,,
,,
,,
,,
,,
,,
,,
,,
,,
,,
,,
,,
,,
,,
,,
,,
,,
,,
,,
,,
,,
,,
,,
,,
,,
,,
,,
,,
,,
,,
,,
,,
,,
,,
,,
,,
,,
,,
,,
,,
,,
,,
,,
,,
,,
,,
,,
,,
,,
,,
,,
,,
,,
,,
,,
,,
,,
,,
,,
,,
,,
,,
,,
,,
,,
,,
,,
,,
,,
,,
,,
,,
,,
,,
,,
,,
,,
,,
,,
,,
,,
,,
,,
,,
,,
,,
,,
,,
,,
,,
,,
,,
,,
,,
,,
,,
,,
,,
,,
,,
,,
,,
,,
,,
,,
,,
,,
,,
,,
,,
,,
,,
,,
,,
,,
,,
,,
,,
,,
,,
,,
,,
,,
,,
,,
,,
,,
,,
,,
,,
,,
,,
,,
,,
,,
,,
,,
,,
,,
,,
,,
,,
,,
,,
,,
,,
,,
,,
,,
,,
,,
,,
,,
,,
,,
,,
,,
,,
,,
,,
,,
,,
,,
,,
,,
,,
,,
,,
,,
,,
,,
,,
,,
,,
,,
,,
,,
,,
,,
,,
,,
,,
,,
,,
,,
,,
,,
,,
,,
,,
,,
,,
,,
,,
,,
,,
,,
,,
,,
,,
,,
,,
,,
,,
,,
,,
,,
,,
,,
,,
,,
,,
,,
,,
,,
,,
,,
,,
,,
,,
,,
,,
,,
,,
,,
,,
,,
,,
,,
,,
,,
,,
,,
,,
,,
,,
,,
,,
,,
,,
,,
,,
,,
,,
,,
,,
,,
,,
,,
,,
,,
,,
,,
,,
,,
,,
,,
,,
,,
,,
,,
,,
,,
,,
,,
,,
,,
,,
,,
,,
,,
,,
,,
,,
,,
,,
,,
,,
,,
,,
,,
,,
,,
,,
,,
,,
,,
,,
,,
,,
,,
,,
,,
,,
,,
,,
,,
,,
,,
,,
,,
,,
,,
,,
,,
,,
,,
,,
,,
,,
,,
,,
,,
,,
,,
,,
,,
,,
,,
,,
,,
,,
,,
,,
,,
,,
,,
,,
,,
,,
,,
,,
,,
,,
,,
,,
,,
,,
,,
,,
,,
,,
,,
,,
,,
,,
,,
,,
,,
,,
,,
,,
,,
,,
,,
,,
,,
,,
,,
,,
,,
,,
,,
,,
,,
,,
,,
,,
,,
,,
,,
,,
,,
,,
,,
,,
,,
,,
,,
,,
,,
,,
,,
,,
,,
,,
,,
,,
,,
,,
,,
,,
,,
,,
,,
,,
,,
,,
,,
,,
,,
,,
,,
,,
,,
,,
,,
,,
,,
,,
,,
,,
,,
,,
,,
,,
,,
,,
,,
,,
,,
,,
,,
,,
,,
,,
,,
,,
,,
,,
,,
,,
,,
,,
,,
,,
,,
,,
,,
,,
,,
,,
,,
,,
,,
,,
,,
,,
,,
,,
,,
,,
,,
,,
,,
,,
,,
,,
,,
,,
,,
,,
,,
,,
,,
,,
,,
,,
,,
,,
,,
,,
,,
,,
,,
,,
,,
,,
,,
,,
,,
,,
,,
,,
,,
,,
,,
,,
,,
,,
,,
,,
,,
,,
,,
,,
,,
,,
,,
,,
,,
,,
,,
,,
,,
,,
,,
,,
,,
,,
,,
,,
,,
,,
,,
,,
,,
,,
,,
,,
,,
,,
,,
,,
,,
,,
,,
,,
,,
,,
,,
,,
,,
,,
,,
,,
,,
,,
,,
,,
,,
,,
,,
,,
,,
,,
,,
,,
,,
,,
,,
,,
,,
,,
,,
,,
,,
,,
,,
,,
,,
,,
,,
,,
,,
,,
,,
,,
,,
,,
,,
,,
,,
,,
,,
,,
,,
,,
,,
,,
,,
,,
,,
,,
,,
,,
,,
,,
,,
,,
,,
,,
,,
,,
,,
,,
,,
,,
,,
,,
,,
,,
,,
,,
,,
,,
,,
,,
,,
,,
,,
,,
,,
,,
,,
,,
,,
,,
,,
,,
,,
,,
,,
,,
,,
,,
,,
,,
,,
,,
,,
,,
,,
,,
,,
,,
,,
,,
,,
,,
,,
,,
,,
,,
,,
,,
,,
,,
,,
,,
,,
,,
,,
,,
,,
,,
,,
,,
,,
,,
,,
,,
,,
,,
,,
,,
,,
,,
,,
,,
,,
,,
,,
,,
,,
,,
,,
,,
,,
,,
,,
,,
,,
,,
,,
,,
,,
,,
,,
,,
,,
,,
,,
,,
,,
,,
,,
,,
,,
,,
,,
,,
,,
,,
,,
,,
,,
,,
,,
,,
,,
,,
,,
,,
,,
,,
,,
,,
,,
,,
,,
,,
,,
,,
,,
,,
,,
,,
,,
,,
,,
,,
,,
,,
,,
,,
,,
,,
,,
,,
,,
,,
,,
,,
,,
,,
,,
,,
,,
,,
,,
,,
,,
,,
,,
,,
,,
,,
,,
,,
,,
,,
,,
,,
,,
,,
,,
,,
,,
,,
,,
,,
,,
,,
,,
,,
,,
,,
,,
,,
,,
,,
,,
,,
,,
,,
,,
,,
,,
,,
,,
,,
,,
,,
,,
,,
,,
,,
,,
,,
,,
,,
,,
,,
,,
,,
,,
,,
,,
,,
,,
,,
,,
,,
,,
,,
,,
,,
,,
,,
,,
,,
,,
,,
,,
,,
,,
,,
,,
,,
,,
,,
,,
,,
,,
,,
,,
,,
,,
,,
,,
,,
,,
,,
,,
,,
,,
,,
,,
,,
,,
,,
,,
,,
,,
,,
,,
,,
,,
,,
,,
,,
,,
,,
,,
,,
,,
,,
,,
,,
,,
,,
,,
,,
,,
,,
,,
,,
,,
,,
,,
,,
,,
,,
,,
,,
,,
,,
,,
,,
,,
,,
,,
,,
,,
,,
,,
,,
,,
,,
,,
,,
,,
,,
,,
,,
,,
,,
,,
,,
,,
,,
,,
,,
,,
,,
,,
,,
,,
,,
,,
,,
,,
,,
,,
,,
,,
,,
,,
,,
,,
,,
,,
,,
,,
,,
,,
,,
,,
,,
,,
,,
,,
,,
,,
,,
,,
,,
,,
,,
,,
,,
,,
,,
,,
,,
,,
,,
,,
,,
,,
,,
,,
,,
,,
,,
,,
,,
,,
,,
,,
,,
,,
,,
,,
,,
,,
,,
,,
,,
,,
,,
,,
,,
,,
,,
,,
,,
,,
,,
,,
,,
,,
,,
,,
,,
,,
,,
,,
,,
,,
,,
,,
,,
,,
,,
,,
,,
,,
,,
,,
,,
,,
,,
,,
,,
,,
,,
,,
,,
,,
,,
,,
,,
,,
,,
,,
,,
,,
,,
,,
,,
,,
,,
,,
,,
,,
,,
,,
,,
,,
,,
,,
,,
,,
,,
,,
,,
,,
,,
,,
,,
,,
,,
,,
,,
,,
,,
,,
,,
,,
,,
,,
,,
,,
,,
,,
,,
,,
,,
,,
,,
,,
,,
,,
,,
,,
,,
,,
,,
,,
,,
,,
,,
,,
,,
,,
,,
,,
,,
,,
,,
,,
,,
,,
,,
,,
,,
,,
,,
,,
,,
,,
,,
,,
,,
,,
,,
,,
,,
,,
,,
,,
,,
,,
,,
,,
,,
,,
,,
,,
,,
,,
,,
,,
,,
,,
,,
,,
,,
,,
,,
,,
,,
,,
,,
,,
,,
,,
,,
,,
,,
,,
,,
,,
,,
,,
,,
,,
,,
,,
,,
,,
,,
,,
,,
,,
,,
,,
,,
,,
,,
,,
,,
,,
,,
,,
,,
,,
,,
,,
,,
,,
,,
,,
,,
,,
,,
,,
,,
,,
,,
,,
,,
,,
,,
,,
,,
,,
,,
,,
,,
,,
,,
,,
,,
,,
,,
,,
,,
,,
,,
,,
,,
,,
,,
,,
,,
,,
,,
,,
,,
,,
,,
,,
,,
,,
,,
,,
,,
,,
,,
,,
,,
,,
,,
,,
,,
,,
,,
,,
,,
,,
,,
,,
,,
,,
,,
,,
,,
,,
,,
,,
,,
,,
,,
,,
,,
,,
,,
,,
,,
,,
,,
,,
,,
,,
,,
,,
,,
,,
,,
,,
,,
,,
,,
,,
,,
,,
,,
,,
,,
,,
,,
,,
,,
,,
,,
,,
,,
,,
,,
,,
,,
,,
,,
,,
,,
,,
,,
,,
,,
,,
,,
,,
,,
,,
,,
,,
,,
,,
,,
,,
,,
,,
,,
,,
,,
,,
,,
,,
,,
,,
,,
,,
,,
,,
,,
,,
,,
,,
,,
,,
,,
,,
,,
,,
,,
,,
,,
,,
,,
,,
,,
,,
,,
,,
,,
,,
,,
,,
,,
,,
,,
,,
,,
,,
,,
,,
,,
,,
,,
,,
,,
,,
,,
,,
,,
,,
,,
,,
,,
,,
,,
,,
,,
,,
,,
,,
,,
,,
,,
,,
,,
,,
,,
,,
,,
,,
,,
,,
,,
,,
,,
,,
,,
,,
,,
,,
,,
,,
,,
,,
,,
,,
,,
,,
,,
,,
,,
,,
,,
,,
,,
,,
,,
,,
,,
,,
,,
,,
,,
,,
,,
,,
,,
,,
,,
,,
,,
,,
,,
,,
,,
,,
,,
,,
,,
,,
,,
,,
,,
,,
,,
,,
,,
,,
,,
,,
,,
,,
,,
,,
,,
,,
,,
,,
,,
,,
,,
,,
,,
,,
,,
,,
,,
,,
,,
,,
,,
,,
,,
,,
,,
,,
,,
,,
,,
,,
,,
,,
,,
,,
,,
,,
,,
,,
,,
,,
,,
,,
,,
,,
,,
,,
,,
,,
,,
,,
,,
,,
,,
,,
,,
,,
,,
,,
,,
,,
,,
,,
,,
,,
,,
,,
,,
,,
,,
,,
,,
,,
,,
,,
,,
,,
,,
,,
,,
,,
,,
,,
,,
,,
,,
,,
,,
,,
,,
,,
,,
,,
,,
,,
,,
,,
,,
,,
,,
,,
,,
,,
,,
,,
,,
,,
,,
,,
,,
,,
,,
,,
,,
,,
,,
,,
,,
,,
,,
,,
,,
,,
,,
,,
,,
,,
,,
,,
,,
,,
,,
,,
,,
,,
,,
,,
,,
,,
,,
,,
,,
,,
,,
,,
,,
,,
,,
,,
,,
,,
,,
,,
,,
,,
,,
,,
,,
,,
,,
,,
,,
,,
,,
,,
,,
,,
,,
,,
,,
,,
,,
,,
,,
,,
,,
,,
,,
,,
,,
,,
,,
,,
,,
,,
,,
,,
,,
,,
,,
,,
,,
,,
,,
,,
,,
,,
,,
,,
,,
,,
,,
,,
,,
,,
,,
,,
,,
,,
,,
,,
,,
,,
,,
,,
,,
,,
,,
,,
,,
,,
,,
,,
,,
,,
,,
,,
,,
,,
,,
,,
,,
,,
,,
,,
,,
,,
,,
,,
,,
,,
,,
,,
,,
,,
,,
,,
,,
,,
,,
,,
,,
,,
,,
,,
,,
,,
,,
,,
,,
,,
,,
,,
,,
,,
,,
,,
,,
,,
,,
,,
,,
,,
,,
,,