File: Non-charring/PMMA/HKPolyU/HKPolyU_DSC_Air_1.csv
Time,Temperature,Heat Flow
[s],[k],[W/g]
0.19,302.027,4.02801
2.26,302.028,4.02842
4.76,302.025,4.03163
7.26,302.022,4.03526
9.76,302.036,4.03624
12.26,302.054,4.03485
14.76,302.067,4.0362
17.26,302.094,4.0386
19.76,302.131,4.03856
22.26,302.177,4.04065
24.76,302.244,4.04196
27.26,302.328,4.04376
29.76,302.426,4.04821
32.26,302.537,4.05636
34.76,302.672,4.06734
37.26,302.829,4.07848
39.76,302.998,4.08959
42.26,303.191,4.10422
44.76,303.412,4.1232
47.26,303.654,4.14096
49.76,303.9,4.16084
52.26,304.182,4.18288
54.76,304.48,4.20575
57.26,304.801,4.23007
59.76,305.136,4.25531
62.26,305.489,4.27876
64.76,305.864,4.30285
67.26,306.259,4.32745
69.76,306.675,4.34904
72.26,307.086,4.37289
74.76,307.53,4.39803
77.26,307.981,4.4208
79.76,308.448,4.44209
82.26,308.931,4.46259
84.76,309.414,4.48329
87.26,309.903,4.50466
89.76,310.407,4.52488
92.26,310.924,4.54227
94.76,311.439,4.55902
97.26,311.972,4.57461
99.76,312.507,4.58781
102.26,313.044,4.59833
104.76,313.581,4.60659
107.26,314.122,4.61395
109.76,314.65,4.62276
112.26,315.205,4.62882
114.76,315.749,4.63139
117.26,316.296,4.6314
119.76,316.83,4.62991
122.26,317.379,4.62419
124.76,317.915,4.61783
127.26,318.442,4.61009
129.76,318.979,4.59987
132.26,319.509,4.58592
134.76,320.026,4.57061
137.26,320.547,4.55417
139.76,321.061,4.53367
142.26,321.583,4.50899
144.76,322.092,4.48175
147.26,322.595,4.45054
149.76,323.089,4.4186
152.26,323.579,4.38552
154.76,324.065,4.34965
157.26,324.545,4.31214
159.76,325.021,4.27078
162.26,325.496,4.22628
164.76,325.951,4.18176
167.26,326.415,4.13589
169.76,326.865,4.08793
172.26,327.319,4.03722
174.76,327.767,3.98518
177.26,328.204,3.93051
179.76,328.635,3.87503
182.26,329.071,3.81868
184.76,329.501,3.76039
187.26,329.924,3.70107
189.76,330.339,3.64147
192.26,330.763,3.57874
194.76,331.176,3.51628
197.26,331.585,3.45472
199.76,331.999,3.39226
202.26,332.405,3.3288
204.76,332.804,3.2647
207.26,333.203,3.20096
209.76,333.604,3.13646
212.26,334,3.07179
214.76,334.399,3.00824
217.26,334.798,2.9449
219.76,335.183,2.88158
222.26,335.58,2.81818
224.76,335.964,2.75517
227.26,336.365,2.69255
229.76,336.752,2.63151
232.26,337.148,2.57022
234.76,337.536,2.50963
237.26,337.93,2.45002
239.76,338.317,2.39146
242.26,338.717,2.33259
244.76,339.111,2.27499
247.26,339.501,2.21917
249.76,339.901,2.16446
252.26,340.301,2.11031
254.76,340.695,2.05723
257.26,341.101,2.00511
259.76,341.497,1.95426
262.26,341.91,1.90361
264.76,342.317,1.85404
267.26,342.724,1.80578
269.76,343.125,1.75902
272.26,343.533,1.71399
274.76,343.94,1.67022
277.26,344.355,1.62682
279.76,344.766,1.58472
282.26,345.186,1.54365
284.76,345.605,1.50351
287.26,346.02,1.46419
289.76,346.435,1.42618
292.26,346.865,1.3896
294.76,347.29,1.35435
297.26,347.704,1.32041
299.76,348.133,1.28604
302.26,348.563,1.2518
304.76,348.994,1.21896
307.26,349.418,1.1879
309.76,349.842,1.1579
312.26,350.28,1.12809
314.76,350.704,1.09987
317.26,351.141,1.07196
319.76,351.572,1.04406
322.26,352.003,1.0173
324.76,352.437,0.992422
327.26,352.876,0.967402
329.76,353.311,0.941255
332.26,353.747,0.916709
334.76,354.179,0.8934819
337.26,354.61,0.870704
339.76,355.051,0.848682
342.26,355.483,0.82669
344.76,355.93,0.804774
347.26,356.361,0.783471
349.76,356.8,0.762396
352.26,357.239,0.741731
354.76,357.674,0.721548
357.26,358.108,0.701793
359.76,358.546,0.681966
362.26,358.988,0.662405
364.76,359.419,0.644178
367.26,359.854,0.625103
369.76,360.285,0.606147
372.26,360.722,0.588351
374.76,361.158,0.570272
377.26,361.589,0.55262
379.76,362.022,0.535264
382.26,362.458,0.517808
384.76,362.89,0.50019
387.26,363.319,0.482985
389.76,363.748,0.465829
392.26,364.178,0.44879
394.76,364.613,0.431842
397.26,365.038,0.415696
399.76,365.468,0.399921
402.26,365.898,0.383876
404.76,366.329,0.367903
407.26,366.762,0.351811
409.76,367.188,0.33603
412.26,367.623,0.319796
414.76,368.046,0.304391
417.26,368.472,0.290008
419.76,368.895,0.275195
422.26,369.32,0.260478
424.76,369.738,0.246212
427.26,370.166,0.231539
429.76,370.589,0.216941
432.26,371.014,0.203023
434.76,371.434,0.189194
437.26,371.854,0.175942
439.76,372.275,0.163384
442.26,372.691,0.150518
444.76,373.12,0.137151
447.26,373.543,0.124463
449.76,373.952,0.112397
452.26,374.379,0.100148
454.76,374.792,0.0881063
457.26,375.216,0.0762477
459.76,375.641,0.0639024
462.26,376.053,0.0517773
464.76,376.477,0.0406979
467.26,376.892,0.0298184
469.76,377.318,0.0196515
472.26,377.73,0.0101965
474.76,378.149,8.61E-05
477.26,378.569,-0.0100742
479.76,378.987,-0.0191263
482.26,379.408,-0.0277952
484.76,379.828,-0.0369672
487.26,380.243,-0.0459071
489.76,380.667,-0.054488
492.26,381.084,-0.0627841
494.76,381.499,-0.0703033
497.26,381.917,-0.077937
499.76,382.344,-0.085913
502.26,382.759,-0.09311893
504.76,383.181,-0.100073
507.26,383.605,-0.107393
509.76,384.026,-0.114419
512.26,384.448,-0.120732
514.76,384.87,-0.126622
517.26,385.289,-0.132335
519.76,385.712,-0.137959
522.26,386.137,-0.143633
524.76,386.56,-0.149173
527.26,386.982,-0.154598
529.76,387.395,-0.159888
532.26,387.819,-0.164834
534.76,388.24,-0.169807
537.26,388.664,-0.174732
539.76,389.084,-0.179597
542.26,389.511,-0.184136
544.76,389.932,-0.188172
547.26,390.354,-0.192017
549.76,390.775,-0.195629
552.26,391.201,-0.19956
554.76,391.627,-0.20362
557.26,392.043,-0.207671
559.76,392.466,-0.211611
562.26,392.893,-0.214819
564.76,393.314,-0.217716
567.26,393.735,-0.22102
569.76,394.159,-0.224556
572.26,394.586,-0.22837
574.76,395.008,-0.231336
577.26,395.434,-0.233766
579.76,395.854,-0.236841
582.26,396.282,-0.239763
584.76,396.7,-0.242946
587.26,397.125,-0.245766
589.76,397.55,-0.247847
592.26,397.972,-0.250005
594.76,398.391,-0.252272
597.26,398.813,-0.254715
599.76,399.237,-0.25689
602.26,399.663,-0.258643
604.76,400.085,-0.26031
607.26,400.51,-0.261991
609.76,400.936,-0.263647
612.26,401.355,-0.26534
614.76,401.78,-0.266857
617.26,402.203,-0.267879
619.76,402.622,-0.268868
622.26,403.049,-0.269999
624.76,403.471,-0.271082
627.26,403.891,-0.272137
629.76,404.316,-0.272739
632.26,404.736,-0.273218
634.76,405.161,-0.273804
637.26,405.58,-0.274242
639.76,405.998,-0.274777
642.26,406.42,-0.275231
644.76,406.843,-0.275755
647.26,407.266,-0.275711
649.76,407.685,-0.275788
652.26,408.103,-0.276151
654.76,408.522,-0.276196
657.26,408.945,-0.276385
659.76,409.363,-0.276473
662.26,409.776,-0.276388
664.76,410.201,-0.275717
667.26,410.626,-0.275186
669.76,411.047,-0.274848
672.26,411.466,-0.273936
674.76,411.891,-0.273143
677.26,412.306,-0.272806
679.76,412.728,-0.272578
682.26,413.144,-0.272065
684.76,413.569,-0.271112
687.26,413.99,-0.270383
689.76,414.405,-0.269744
692.26,414.822,-0.268646
694.76,415.247,-0.267572
697.26,415.665,-0.266476
699.76,416.084,-0.265197
702.26,416.503,-0.264003
704.76,416.92,-0.263021
707.26,417.342,-0.26199
709.76,417.764,-0.260523
712.26,418.175,-0.258889
714.76,418.609,-0.257144
717.26,419.022,-0.255766
719.76,419.442,-0.254188
722.26,419.862,-0.252296
724.76,420.281,-0.250757
727.26,420.701,-0.248918
729.76,421.12,-0.247099
732.26,421.542,-0.245182
734.76,421.958,-0.243001
737.26,422.375,-0.241075
739.76,422.797,-0.239156
742.26,423.217,-0.237166
744.76,423.64,-0.235107
747.26,424.054,-0.233042
749.76,424.478,-0.230867
752.26,424.897,-0.228558
754.76,425.317,-0.226329
757.26,425.732,-0.223816
759.76,426.154,-0.221452
762.26,426.572,-0.21916
764.76,426.997,-0.216449
767.26,427.417,-0.21379
769.76,427.838,-0.211216
772.26,428.255,-0.208445
774.76,428.681,-0.20586
777.26,429.098,-0.203338
779.76,429.513,-0.200252
782.26,429.935,-0.197168
784.76,430.359,-0.194299
787.26,430.782,-0.191578
789.76,431.2,-0.188967
792.26,431.615,-0.185846
794.76,432.034,-0.182358
797.26,432.46,-0.17903
799.76,432.875,-0.176137
802.26,433.294,-0.173071
804.76,433.714,-0.169722
807.26,434.138,-0.16667
809.76,434.552,-0.16361
812.26,434.97,-0.160167
814.76,435.392,-0.156552
817.26,435.806,-0.153099
819.76,436.229,-0.149696
822.26,436.646,-0.146605
824.76,437.068,-0.143048
827.26,437.487,-0.139224
829.76,437.902,-0.136009
832.26,438.324,-0.132406
834.76,438.746,-0.128954
837.26,439.165,-0.125445
839.76,439.585,-0.121411
842.26,440.004,-0.117573
844.76,440.424,-0.113757
847.26,440.838,-0.109956
849.76,441.26,-0.106222
852.26,441.677,-0.102424
854.76,442.097,-0.0985269
857.26,442.514,-0.0943082
859.76,442.943,-0.0901927
862.26,443.354,-0.08638986
864.76,443.779,-0.08228449
867.26,444.19,-0.0782821
869.76,444.611,-0.0741348
872.26,445.023,-0.0697548
874.76,445.45,-0.0655649
877.26,445.866,-0.0607678
879.76,446.286,-0.0560314
882.26,446.703,-0.0523228
884.76,447.124,-0.0479975
887.26,447.546,-0.0431012
889.76,447.964,-0.0384266
892.26,448.394,-0.03365125
894.76,448.802,-0.0289816
897.26,449.222,-0.0242217
899.76,449.641,-0.0194491
902.26,450.065,-0.0147594
904.76,450.484,-0.0100721
907.26,450.9,-0.005276603
909.76,451.319,-0.000303238
912.26,451.731,0.004899458
914.76,452.149,0.009902173
917.26,452.566,0.0147355
919.76,452.983,0.0197918
922.26,453.4,0.0246156
924.76,453.822,0.0295003
927.26,454.233,0.0344087
929.76,454.654,0.03969493
932.26,455.071,0.04518
934.76,455.488,0.050371
937.26,455.911,0.0553924
939.76,456.328,0.0606308
942.26,456.746,0.0661324
944.76,457.162,0.07139912
947.26,457.581,0.0765549
949.76,457.997,0.0820707
952.26,458.417,0.0878892
954.76,458.837,0.0934397
957.26,459.253,0.0992136
959.76,459.677,0.105267
962.26,460.09,0.111468
964.76,460.508,0.117176
967.26,460.926,0.122676
969.76,461.344,0.128468
972.26,461.759,0.134126
974.76,462.178,0.140076
977.26,462.592,0.146263
979.76,463.012,0.1521
982.26,463.427,0.157907
984.76,463.846,0.164098
987.26,464.266,0.170053
989.76,464.684,0.176151
992.26,465.098,0.182621
994.76,465.519,0.189175
997.26,465.939,0.195404
999.76,466.358,0.201318
1002.26,466.775,0.207783
1004.76,467.192,0.214316
1007.26,467.609,0.22072
1009.76,468.024,0.227245
1012.26,468.439,0.233682
1014.76,468.858,0.240306
1017.26,469.277,0.246854
1019.76,469.694,0.253322
1022.26,470.114,0.260073
1024.76,470.534,0.266633
1027.26,470.951,0.273536
1029.76,471.366,0.280493
1032.26,471.783,0.287353
1034.76,472.201,0.294479
1037.26,472.623,0.301665
1039.76,473.045,0.309031
1042.26,473.454,0.315806
1044.76,473.874,0.322363
1047.26,474.291,0.329138
1049.76,474.711,0.336147
1052.26,475.121,0.343362
1054.76,475.54,0.35053
1057.26,475.957,0.357812
1059.76,476.378,0.365311
1062.26,476.794,0.372737
1064.76,477.215,0.379836
1067.26,477.628,0.386883
1069.76,478.049,0.394172
1072.26,478.469,0.401236
1074.76,478.881,0.408867
1077.26,479.305,0.416554
1079.76,479.717,0.42369
1082.26,480.14,0.431189
1084.76,480.559,0.438847
1087.26,480.974,0.446337
1089.76,481.393,0.453721
1092.26,481.811,0.46126
1094.76,482.23,0.469086
1097.26,482.641,0.476841
1099.76,483.058,0.484144
1102.26,483.477,0.491746
1104.76,483.893,0.499409
1107.26,484.308,0.507286
1109.76,484.726,0.515352
1112.26,485.145,0.522959
1114.76,485.559,0.530881
1117.26,485.979,0.53931
1119.76,486.398,0.547334
1122.26,486.818,0.555099
1124.76,487.23,0.563103
1127.26,487.645,0.571155
1129.76,488.072,0.578889
1132.26,488.485,0.586932
1134.76,488.902,0.595171
1137.26,489.319,0.603395
1139.76,489.736,0.611643
1142.26,490.154,0.619524
1144.76,490.57,0.627582
1147.26,490.989,0.635942
1149.76,491.407,0.644112
1152.26,491.823,0.652138
1154.76,492.248,0.660284
1157.26,492.657,0.668529
1159.76,493.074,0.676813
1162.26,493.497,0.685139
1164.76,493.911,0.693735
1167.26,494.332,0.702281
1169.76,494.745,0.710333
1172.26,495.165,0.718579
1174.76,495.573,0.726786
1177.26,495.997,0.734743
1179.76,496.414,0.743078
1182.26,496.828,0.751245
1184.76,497.245,0.759313
1187.26,497.663,0.767468
1189.76,498.079,0.775207
1192.26,498.499,0.783331
1194.76,498.912,0.791547
1197.26,499.324,0.799411
1199.76,499.74,0.807339
1202.26,500.154,0.815399
1204.76,500.574,0.82387
1207.26,500.99,0.831945
1209.76,501.407,0.839491
1212.26,501.822,0.847293
1214.76,502.235,0.855093
1217.26,502.647,0.862722
1219.76,503.068,0.870583
1222.26,503.482,0.878513
1224.76,503.9,0.886699
1227.26,504.314,0.894778
1229.76,504.729,0.902254
1232.26,505.148,0.910082
1234.76,505.566,0.918309
1237.26,505.979,0.926362
1239.76,506.39,0.934348
1242.26,506.81,0.942422
1244.76,507.227,0.950452
1247.26,507.64,0.958136
1249.76,508.058,0.965708
1252.26,508.474,0.973585
1254.76,508.888,0.981907
1257.26,509.303,0.990245
1259.76,509.72,0.99794
1262.26,510.138,1.00544
1264.76,510.556,1.01376
1267.26,510.971,1.02218
1269.76,511.385,1.03019
1272.26,511.802,1.03806
1274.76,512.224,1.04588
1277.26,512.638,1.05369
1279.76,513.053,1.06156
1282.26,513.47,1.06971
1284.76,513.883,1.07815
1287.26,514.303,1.0862
1289.76,514.717,1.09376
1292.26,515.131,1.10173
1294.76,515.548,1.11037
1297.26,515.963,1.11857
1299.76,516.379,1.12604
1302.26,516.791,1.13375
1304.76,517.209,1.14157
1307.26,517.625,1.14955
1309.76,518.038,1.15784
1312.26,518.451,1.1659
1314.76,518.868,1.17388
1317.26,519.288,1.18211
1319.76,519.696,1.18997
1322.26,520.114,1.19738
1324.76,520.532,1.20514
1327.26,520.947,1.21302
1329.76,521.365,1.22111
1332.26,521.777,1.22922
1334.76,522.193,1.23702
1337.26,522.602,1.24452
1339.76,523.021,1.25207
1342.26,523.429,1.26022
1344.76,523.851,1.26803
1347.26,524.266,1.27552
1349.76,524.68,1.28362
1352.26,525.096,1.2918
1354.76,525.511,1.29965
1357.26,525.929,1.3079
1359.76,526.348,1.3166
1362.26,526.758,1.32437
1364.76,527.179,1.33203
1367.26,527.591,1.34026
1369.76,528.009,1.34838
1372.26,528.422,1.35642
1374.76,528.838,1.36454
1377.26,529.254,1.37276
1379.76,529.669,1.38088
1382.26,530.085,1.3891
1384.76,530.504,1.39734
1387.26,530.919,1.40535
1389.76,531.338,1.41361
1392.26,531.746,1.42221
1394.76,532.163,1.43013
1397.26,532.58,1.43807
1399.76,532.996,1.44649
1402.26,533.41,1.45423
1404.76,533.821,1.46275
1407.26,534.237,1.47119
1409.76,534.65,1.47859
1412.26,535.063,1.48638
1414.76,535.481,1.49471
1417.26,535.89,1.50321
1419.76,536.311,1.51127
1422.26,536.725,1.51914
1424.76,537.139,1.52693
1427.26,537.551,1.53501
1429.76,537.969,1.54326
1432.26,538.384,1.55144
1434.76,538.8,1.55982
1437.26,539.214,1.56763
1439.76,539.635,1.57524
1442.26,540.052,1.58308
1444.76,540.467,1.59093
1447.26,540.881,1.59905
1449.76,541.294,1.60682
1452.26,541.707,1.61439
1454.76,542.12,1.62186
1457.26,542.539,1.62923
1459.76,542.955,1.63652
1462.26,543.365,1.64376
1464.76,543.782,1.65151
1467.26,544.199,1.65922
1469.76,544.614,1.66663
1472.26,545.032,1.67369
1474.76,545.437,1.68068
1477.26,545.857,1.6877
1479.76,546.275,1.69531
1482.26,546.692,1.70339
1484.76,547.103,1.71078
1487.26,547.52,1.71776
1489.76,547.938,1.72477
1492.26,548.349,1.7317
1494.76,548.763,1.73844
1497.26,549.176,1.74537
1499.76,549.593,1.75256
1502.26,550.008,1.75944
1504.76,550.421,1.76645
1507.26,550.835,1.77323
1509.76,551.245,1.77969
1512.26,551.656,1.78635
1514.76,552.071,1.79301
1517.26,552.487,1.79978
1519.76,552.896,1.80631
1522.26,553.308,1.81276
1524.76,553.727,1.81937
1527.26,554.137,1.82661
1529.76,554.557,1.83327
1532.26,554.971,1.83996
1534.76,555.381,1.84729
1537.26,555.795,1.85431
1539.76,556.206,1.86125
1542.26,556.621,1.86759
1544.76,557.036,1.87425
1547.26,557.45,1.88142
1549.76,557.866,1.88856
1552.26,558.278,1.89563
1554.76,558.693,1.90271
1557.26,559.106,1.90969
1559.76,559.521,1.9159
1562.26,559.935,1.92201
1564.76,560.349,1.92907
1567.26,560.763,1.93591
1569.76,561.177,1.94192
1572.26,561.594,1.94819
1574.76,562.008,1.9548
1577.26,562.425,1.96104
1579.76,562.834,1.96725
1582.26,563.25,1.97322
1584.76,563.662,1.97893
1587.26,564.076,1.9848
1589.76,564.496,1.99038
1592.26,564.91,1.99584
1594.76,565.321,2.00102
1597.26,565.737,2.00581
1599.76,566.155,2.01043
1602.26,566.567,2.01493
1604.76,566.983,2.01948
1607.26,567.393,2.02353
1609.76,567.807,2.02718
1612.26,568.218,2.03078
1614.76,568.637,2.03379
1617.26,569.052,2.03611
1619.76,569.465,2.03819
1622.26,569.875,2.04038
1624.76,570.287,2.04216
1627.26,570.699,2.04308
1629.76,571.112,2.04354
1632.26,571.526,2.04385
1634.76,571.943,2.04308
1637.26,572.354,2.04133
1639.76,572.77,2.03932
1642.26,573.182,2.03641
1644.76,573.594,2.03277
1647.26,574.005,2.02799
1649.76,574.418,2.02214
1652.26,574.835,2.0163
1654.76,575.244,2.00878
1657.26,575.662,1.99917
1659.76,576.071,1.98796
1662.26,576.486,1.97541
1664.76,576.9,1.96135
1667.26,577.308,1.94311
1669.76,577.714,1.92167
1672.26,578.125,1.89681
1674.76,578.53,1.87069
1677.26,578.934,1.84182
1679.76,579.335,1.81047
1682.26,579.743,1.78032
1684.76,580.146,1.75112
1687.26,580.55,1.72341
1689.76,580.952,1.69592
1692.26,581.351,1.66559
1694.76,581.753,1.63874
1697.26,582.16,1.62076
1699.76,582.563,1.60587
1702.26,582.971,1.59202
1704.76,583.377,1.57944
1707.26,583.781,1.56808
1709.76,584.189,1.55858
1712.26,584.614,1.58617
1714.76,585.039,1.61824
1717.26,585.433,1.62452
1719.76,585.829,1.6077
1722.26,586.239,1.58862
1724.76,586.644,1.58809
1727.26,587.052,1.58154
1729.76,587.458,1.58082
1732.26,587.877,1.59077
1734.76,588.292,1.60761
1737.26,588.695,1.61733
1739.76,589.112,1.61988
1742.26,589.518,1.61941
1744.76,589.926,1.61572
1747.26,590.341,1.61904
1749.76,590.745,1.62242
1752.26,591.214,1.67458
1754.76,591.606,1.7369
1757.26,592.007,1.72657
1759.76,592.411,1.69566
1762.26,592.817,1.67069
1764.76,593.223,1.64803
1767.26,593.635,1.63569
1769.76,594.064,1.63475
1772.26,594.482,1.65545
1774.76,594.88,1.66063
1777.26,595.286,1.63751
1779.76,595.707,1.62576
1782.26,596.119,1.62274
1784.76,596.535,1.62035
1787.26,596.945,1.61097
1789.76,597.354,1.59574
1792.26,597.765,1.57914
1794.76,598.179,1.56073
1797.26,598.583,1.53829
1799.76,598.993,1.50891
1802.26,599.397,1.47779
1804.76,599.802,1.44695
1807.26,600.205,1.41422
1809.76,600.607,1.37652
1812.26,601.015,1.34176
1814.76,601.426,1.31976
1817.26,601.831,1.29846
1819.76,602.266,1.31543
1822.26,602.644,1.30689
1824.76,603.053,1.2486
1827.26,603.466,1.22831
1829.76,603.883,1.22995
1832.26,604.297,1.23262
1834.76,604.708,1.23235
1837.26,605.116,1.23009
1839.76,605.528,1.22571
1842.26,605.935,1.22011
1844.76,606.347,1.21825
1847.26,606.755,1.21082
1849.76,607.17,1.20602
1852.26,607.582,1.21392
1854.76,607.993,1.21902
1857.26,608.411,1.22289
1859.76,608.822,1.22895
1862.26,609.232,1.23334
1864.76,609.642,1.24054
1867.26,610.059,1.25246
1869.76,610.464,1.26048
1872.26,610.883,1.2616
1874.76,611.295,1.2708
1877.26,611.709,1.28847
1879.76,612.126,1.30477
1882.26,612.537,1.3203
1884.76,612.954,1.33554
1887.26,613.369,1.35322
1889.76,613.786,1.37301
1892.26,614.216,1.39929
1894.76,614.633,1.446657
1897.26,615.056,1.49681
1899.76,615.479,1.54493
1902.26,615.908,1.60609
1904.76,616.335,1.67019
1907.26,616.759,1.73307
1909.76,617.19,1.79297
1912.26,617.609,1.85011
1914.76,618.03,1.90512
1917.26,618.455,1.95799
1919.76,618.881,2.00904
1922.26,619.3,2.05795
1924.76,619.726,2.10601
1927.26,620.148,2.15262
1929.76,620.57,2.19694
1932.26,620.988,2.24011
1934.76,621.41,2.28136
1937.26,621.832,2.32084
1939.76,622.254,2.35866
1942.26,622.668,2.39573
1944.76,623.087,2.43198
1947.26,623.509,2.46725
1949.76,623.928,2.5014
1952.26,624.351,2.53434
1954.76,624.767,2.56656
1957.26,625.188,2.59797
1959.76,625.606,2.62855
1962.26,626.023,2.65846
1964.76,626.441,2.6873
1967.26,626.856,2.71583
1969.76,627.276,2.74417
1972.26,627.693,2.77124
1974.76,628.109,2.79781
1977.26,628.531,2.82423
1979.76,628.95,2.85008
1982.26,629.37,2.87524
1984.76,629.789,2.89941
1987.26,630.202,2.92335
1989.76,630.62,2.9473
1992.26,631.037,2.97085
1994.76,631.457,2.99372
1997.26,631.87,3.01576
1999.76,632.288,3.03754
2002.26,632.705,3.05919
2004.76,633.122,3.08016
2007.26,633.537,3.10073
2009.76,633.957,3.12132
2012.26,634.37,3.14157
2014.76,634.79,3.16097
2017.26,635.197,3.17997
2019.76,635.618,3.19923
2022.26,636.036,3.21813
2024.76,636.452,3.23684
2027.26,636.87,3.25497
2029.76,637.284,3.27225
2032.26,637.702,3.28953
2034.76,638.111,3.30671
2037.26,638.523,3.32343
2039.76,638.942,3.34022
2042.26,639.357,3.3569
2044.76,639.773,3.37312
2047.26,640.187,3.38958
2049.76,640.601,3.40571
2052.26,641.016,3.42092
2054.76,641.43,3.43576
2057.26,641.843,3.45066
2059.76,642.262,3.4661
2062.26,642.675,3.4806
2064.76,643.092,3.49454
2067.26,643.505,3.50882
2069.76,643.918,3.52354
2072.26,644.333,3.538
2074.76,644.75,3.55147
2077.26,645.165,3.56554
2079.76,645.575,3.58012
2082.26,645.99,3.5933
2084.76,646.403,3.60638
2087.26,646.817,3.62049
2089.76,647.23,3.63421
2092.26,647.643,3.64709
2094.76,648.059,3.65975
2097.26,648.475,3.67308
2099.76,648.891,3.68619
2102.26,649.304,3.69856
2104.76,649.719,3.7116
2107.26,650.131,3.72459
2109.76,650.547,3.73687
2112.26,650.959,3.74914
2114.76,651.377,3.76118
2117.26,651.79,3.7734
2119.76,652.199,3.78602
2122.26,652.611,3.79868
2124.76,653.021,3.81053
2127.26,653.438,3.82213
2129.76,653.849,3.83388
2132.26,654.262,3.84585
2134.76,654.682,3.85819
2137.26,655.095,3.87044
2139.76,655.509,3.88206
2142.26,655.922,3.89353
2144.76,656.337,3.90559
2147.26,656.748,3.91785
2149.76,657.16,3.92959
2152.26,657.569,3.94114
2154.76,657.984,3.9532
2157.26,658.402,3.96545
2159.76,658.812,3.97762
2162.26,659.227,3.98884
2164.76,659.641,4.00013
2167.26,660.054,4.01211
2169.76,660.464,4.02349
2172.26,660.882,4.03485
2174.76,661.295,4.0465
2177.26,661.707,4.05824
2179.76,662.122,4.07005
2182.26,662.534,4.08166
2184.76,662.95,4.09333
2187.26,663.364,4.10441
2189.76,663.771,4.1156
2192.26,664.187,4.12791
2194.76,664.6,4.13992
2197.26,665.017,4.15175
2199.76,665.429,4.16345
2202.26,665.843,4.17528
2204.76,666.26,4.18722
2207.26,666.674,4.19874
2209.76,667.085,4.2105
2212.26,667.498,4.22242
2214.76,667.91,4.2343
2217.26,668.323,4.24599
2219.76,668.738,4.25787
2222.26,669.152,4.27019
2224.76,669.571,4.28255
2227.26,669.973,4.29476
2229.76,670.392,4.30669
2232.26,670.807,4.31871
2234.76,671.218,4.33086
2237.26,671.635,4.3427
2239.76,672.05,4.35462
2242.26,672.461,4.36698
2244.76,672.873,4.37956
2247.26,673.285,4.39163
2249.76,673.698,4.40363
2252.26,674.113,4.41607
2254.76,674.525,4.42877
2257.26,674.94,4.44157
2259.76,675.356,4.45431
2262.26,675.766,4.46665
2264.76,676.183,4.47911
2267.26,676.593,4.49257
2269.76,677.007,4.50595
2272.26,677.419,4.51837
2274.76,677.836,4.53145
2277.26,678.251,4.54515
2279.76,678.662,4.55888
2282.26,679.078,4.57244
2284.76,679.495,4.58528
2287.26,679.907,4.599
2289.76,680.321,4.6131
2292.26,680.732,4.6272
2294.76,681.148,4.64131
2297.26,681.562,4.65445
2299.76,681.979,4.66827
2302.26,682.397,4.68264
2304.76,682.809,4.69657
2307.26,683.219,4.71011
2309.76,683.637,4.72284
2312.26,684.047,4.73502
2314.76,684.46,4.74614
2317.26,684.879,4.7565
2319.76,685.287,4.76702
2322.26,685.701,4.77681
2324.76,686.114,4.78612
2327.26,686.525,4.79559
2329.76,686.94,4.80495
2332.26,687.353,4.81398
2334.76,687.769,4.82303
2337.26,688.184,4.83217
2339.76,688.599,4.84102
2342.26,689.009,4.85033
2344.76,689.419,4.85946
2347.26,689.832,4.86847
2349.76,690.247,4.87836
2352.26,690.664,4.888
2354.76,691.075,4.8974
2357.26,691.488,4.90676
2359.76,691.899,4.91637
2362.26,692.313,4.92554
2364.76,692.726,4.9349
2367.26,693.142,4.94572
2369.76,693.553,4.95579
2372.26,693.966,4.96565
2374.76,694.381,4.97602
2377.26,694.795,4.9863
2379.76,695.203,4.99625
2382.26,695.618,5.00596
2384.76,696.028,5.01613
2387.26,696.439,5.02667
2389.76,696.856,5.03784
2392.26,697.269,5.04851
2394.76,697.683,5.05852
2397.26,698.094,5.06918
2399.76,698.514,5.07976
2402.26,698.921,5.09056
2404.76,699.337,5.10215
2407.26,699.748,5.11328
2409.76,700.156,5.12405
2412.26,700.575,5.13411
2414.76,700.986,5.14445
2417.26,701.4,5.15548
2419.76,701.815,5.16626
2422.26,702.226,5.1766
2424.76,702.638,5.18684
2427.26,703.053,5.19788
2429.76,703.464,5.20895
2432.26,703.88,5.22006
2434.76,704.291,5.23104
2437.26,704.705,5.24221
2439.76,705.116,5.25345
2442.26,705.53,5.26424
2444.76,705.943,5.27542
2447.26,706.355,5.28684
2449.76,706.772,5.2981
2452.26,707.184,5.30901
2454.76,707.597,5.31956
2457.26,708.013,5.33033
2459.76,708.425,5.3418
2462.26,708.836,5.35308
2464.76,709.251,5.36388
2467.26,709.662,5.37457
2469.76,710.074,5.38553
2472.26,710.488,5.39645
2474.76,710.904,5.40771
2477.26,711.316,5.41986
2479.76,711.728,5.43145
2482.26,712.144,5.44244
2484.76,712.559,5.45293
2487.26,712.971,5.46346
2489.76,713.385,5.47435
2492.26,713.797,5.48529
2494.76,714.211,5.49615
2497.26,714.626,5.50702
2499.76,715.036,5.51781
2502.26,715.45,5.5284
2504.76,715.864,5.53911
2507.26,716.285,5.54998
2509.76,716.695,5.56126
2512.26,717.107,5.57256
2514.76,717.516,5.58287
2517.26,717.93,5.593
2519.76,718.345,5.60385
2522.26,718.757,5.61463
2524.76,719.172,5.62534
2527.26,719.587,5.63632
2529.76,719.997,5.647
2532.26,720.41,5.65722
2534.76,720.82,5.66765
2537.26,721.232,5.67746
2539.76,721.646,5.6876
2542.26,722.061,5.69876
2544.76,722.473,5.70922
2547.26,722.885,5.71966
2549.76,723.296,5.73021
2552.26,723.712,5.74041
2554.76,724.125,5.7518
2557.26,724.536,5.76379
2559.76,724.951,5.77396
2562.26,725.361,5.78355
2564.76,725.774,5.79397
2567.26,726.188,5.80497
2569.76,726.6,5.81573
2572.26,727.013,5.82604
2574.76,727.427,5.83648
2577.26,727.84,5.84735
2579.76,728.249,5.85861
2582.26,728.67,5.86979
2584.76,729.081,5.88028
2587.26,729.492,5.89051
2589.76,729.908,5.90107
2592.26,730.323,5.91222
2594.76,730.733,5.9236
2597.26,731.15,5.93446
2599.76,731.562,5.94565
2602.26,731.977,5.95671
2604.76,732.387,5.96707
2607.26,732.802,5.97786
2609.76,733.212,5.98876
2612.26,733.626,5.99921
2614.76,734.043,6.00971
2617.26,734.46,6.02065
2619.76,734.872,6.03197
2622.26,735.291,6.04322
2624.76,735.7,6.05408
2627.26,736.112,6.06511
2629.76,736.525,6.07638
2632.26,736.937,6.08739
2634.76,737.35,6.09807
2637.26,737.762,6.10889
2639.76,738.178,6.12043
2642.26,738.592,6.13187
2644.76,739,6.14219
2647.26,739.414,6.15236
2649.76,739.83,6.16327
2652.26,740.241,6.17478
2654.76,740.653,6.18632
2657.26,741.068,6.19753
2659.76,741.479,6.20778
2662.26,741.893,6.21828
2664.76,742.305,6.2292
2667.26,742.72,6.24009
2669.76,743.138,6.25198
2672.26,743.545,6.26362
2674.76,743.962,6.27416
2677.26,744.372,6.28494
2679.76,744.784,6.29606
2682.26,745.2,6.30751
2684.76,745.614,6.31816
2687.26,746.032,6.32913
2689.76,746.443,6.34105
2692.26,746.855,6.35193
2694.76,747.268,6.36304
2697.26,747.687,6.37458
2699.76,748.097,6.3857
2702.26,748.513,6.3971
2704.76,748.923,6.40808
2707.26,749.341,6.4187
2709.76,749.753,6.42979
2712.26,750.164,6.44117
2714.76,750.583,6.45243
2717.26,750.992,6.46438
2719.76,751.409,6.47605
2722.26,751.82,6.48645
2724.76,752.232,6.49856
2727.26,752.642,6.5107
2729.76,753.057,6.52165
2732.26,753.47,6.5329
2734.76,753.887,6.5447
2737.26,754.3,6.55631
2739.76,754.713,6.56797
2742.26,755.123,6.57955
2744.76,755.53,6.59122
2747.26,755.941,6.60226
2749.76,756.358,6.6133
2752.26,756.772,6.62505
2754.76,757.188,6.63669
2757.26,757.6,6.64788
2759.76,758.012,6.65887
2762.26,758.422,6.66996
2764.76,758.836,6.68034
2767.26,759.249,6.69117
2769.76,759.664,6.70204
2772.26,760.076,6.71343
2774.76,760.493,6.72563
2777.26,760.903,6.73706
2779.76,761.32,6.74776
2782.26,761.735,6.75854
2784.76,762.147,6.76959
2787.26,762.563,6.78064
2789.76,762.979,6.79206
2792.26,763.392,6.80299
2794.76,763.804,6.81409
2797.26,764.216,6.82535
2799.76,764.637,6.83693
2802.26,765.05,6.84831
2804.76,765.458,6.85931
2807.26,765.873,6.87035
2809.76,766.291,6.88118
2812.26,766.697,6.8915
2814.76,767.109,6.90177
2817.26,767.519,6.91319
2819.76,767.937,6.9248
2822.26,768.351,6.93587
2824.76,768.764,6.94633
2827.26,769.177,6.95661
2829.76,769.59,6.96777
2832.26,770,6.9791
2834.76,770.418,6.98942
2837.26,770.831,7.00012
2839.76,771.241,7.01168
2842.26,771.651,7.02303
2844.76,772.07,7.03405
2847.26,772.482,7.04497
2849.76,772.897,7.05618
2852.26,773.309,7.06761
2854.76,773.725,7.07901
2857.26,774.136,7.09002
2859.76,774.551,7.10091
2862.26,774.956,7.11253
2864.76,775.371,7.12432
2867.26,775.786,7.13573
2869.76,776.203,7.147
2872.26,776.618,7.15792
2874.76,777.028,7.16914
2877.26,777.437,7.18026
2879.76,777.853,7.19108
2882.26,778.269,7.20186
2884.76,778.682,7.21319
2887.26,779.099,7.22428
2889.76,779.51,7.23503
2892.26,779.927,7.24615
2894.76,780.343,7.25735
2897.26,780.755,7.26831
2899.76,781.166,7.27969
2902.26,781.582,7.2911
2904.76,781.995,7.30204
2907.26,782.409,7.31255
2909.76,782.822,7.32361
2912.26,783.237,7.33497
2914.76,783.652,7.34616
2917.26,784.062,7.35751
2919.76,784.476,7.36935
2922.26,784.89,7.38132
2924.76,785.305,7.39244
2927.26,785.72,7.40371
2929.76,786.134,7.41523
2932.26,786.547,7.42716
2934.76,786.958,7.43847
2937.26,787.37,7.44981
2939.76,787.782,7.4617
2942.26,788.199,7.4733
2944.76,788.608,7.48483
2947.26,789.025,7.49621
2949.76,789.436,7.50721
2952.26,789.851,7.51886
2954.76,790.265,7.53128
2957.26,790.675,7.54332
2959.76,791.094,7.55544
2962.26,791.505,7.56659
2964.76,791.92,7.57684
2967.26,792.334,7.58841
2969.76,792.754,7.601
2972.26,793.164,7.61266
2974.76,793.572,7.62376
2977.26,793.987,7.63525
2979.76,794.401,7.64648
2982.26,794.816,7.65798
2984.76,795.23,7.6699
2987.26,795.644,7.68185
2989.76,796.062,7.69386
2992.26,796.472,7.70503
2994.76,796.884,7.71667
2997.26,797.303,7.72855
2999.76,797.714,7.73921
3002.26,798.125,7.75067
3004.76,798.541,7.76261
3007.26,798.954,7.77428
3009.76,799.369,7.78626
3012.26,799.783,7.7981
3013.76,800.03,7.80475