File: Non-charring/PMMA/HKPoly/HKPoly_DSC_N2_10K_1.csv
Time,Temperature,Heat Flow
[s],[k],[W/g]
0.24,300.03,4.53669
2.76,300.362,4.75289
5.76,300.722,4.98409
8.76,301.115,5.21245
11.76,301.529,5.33532
14.76,301.972,5.36363
17.76,302.423,5.38284
20.76,302.901,5.40261
23.76,303.413,5.41789
26.76,303.93,5.43269
29.76,304.473,5.44477
32.76,305.038,5.4533
35.76,305.606,5.46215
38.76,306.191,5.46833
41.76,306.785,5.47288
44.76,307.395,5.47458
47.76,308.017,5.47335
50.76,308.644,5.46996
53.76,309.266,5.46435
56.76,309.901,5.45888
59.76,310.538,5.45192
62.76,311.172,5.44422
65.76,311.81,5.43038
68.76,312.449,5.41314
71.76,313.081,5.39489
74.76,313.722,5.37355
77.76,314.358,5.34751
80.76,314.985,5.3186
83.76,315.613,5.28592
86.76,316.224,5.25158
89.76,316.835,5.21731
92.76,317.441,5.17892
95.76,318.045,5.13558
98.76,318.637,5.09017
101.76,319.227,5.04255
104.76,319.807,4.99259
107.76,320.383,4.94013
110.76,320.957,4.88295
113.76,321.516,4.82178
116.76,322.073,4.75888
119.76,322.618,4.69473
122.76,323.167,4.62658
125.76,323.698,4.55779
128.76,324.218,4.48957
131.76,324.751,4.41738
134.76,325.268,4.34291
137.76,325.774,4.26848
140.76,326.285,4.1926
143.76,326.786,4.11493
146.76,327.281,4.03542
149.76,327.775,3.95624
152.76,328.272,3.87502
155.76,328.76,3.79101
158.76,329.237,3.70901
161.76,329.726,3.62753
164.76,330.213,3.54531
167.76,330.689,3.46334
170.76,331.167,3.38273
173.76,331.642,3.30288
176.76,332.115,3.22214
179.76,332.588,3.14209
182.76,333.064,3.06437
185.76,333.535,2.9889
188.76,334.007,2.91293
191.76,334.483,2.83703
194.76,334.949,2.76322
197.76,335.424,2.69049
200.76,335.901,2.6185
203.76,336.385,2.54675
206.76,336.858,2.4765
209.76,337.333,2.40855
212.76,337.82,2.34259
215.76,338.301,2.27752
218.76,338.782,2.21353
221.76,339.259,2.15243
224.76,339.751,2.09155
227.76,340.237,2.03241
230.76,340.732,1.97334
233.76,341.218,1.91735
236.76,341.709,1.86273
239.76,342.199,1.80977
242.76,342.692,1.75797
245.76,343.19,1.70682
248.76,343.685,1.65816
251.76,344.179,1.61083
254.76,344.678,1.56363
257.76,345.183,1.51826
260.76,345.689,1.47379
263.76,346.19,1.43009
266.76,346.697,1.38797
269.76,347.2,1.34646
272.76,347.701,1.30664
275.76,348.208,1.26728
278.76,348.717,1.22987
281.76,349.222,1.19331
284.76,349.727,1.15756
287.76,350.236,1.12283
290.76,350.745,1.0878
293.76,351.254,1.0535
296.76,351.764,1.02157
299.76,352.276,0.989924
302.76,352.788,0.9577
305.76,353.295,0.927155
308.76,353.797,0.897697
311.76,354.312,0.868705
314.76,354.811,0.840981
317.76,355.32,0.813136
320.76,355.824,0.785895
323.76,356.341,0.75985
326.76,356.845,0.734314
329.76,357.355,0.708844
332.76,357.865,0.683691
335.76,358.373,0.659263
338.76,358.883,0.635104
341.76,359.391,0.612
344.76,359.89,0.58831
347.76,360.401,0.564738
350.76,360.904,0.542951
353.76,361.42,0.520882
356.76,361.927,0.498853
359.76,362.424,0.47792
362.76,362.938,0.456535
365.76,363.441,0.435504
368.76,363.946,0.414902
371.76,364.457,0.394296
374.76,364.955,0.374903
377.76,365.46,0.356233
380.76,365.96,0.337162
383.76,366.462,0.319399
386.76,366.965,0.301307
389.76,367.468,0.283753
392.76,367.971,0.2668404
395.76,368.472,0.249599
398.76,368.978,0.233315
401.76,369.475,0.217492
404.76,369.972,0.201349
407.76,370.482,0.184822
410.76,370.978,0.169418
413.76,371.482,0.155226
416.76,371.986,0.141115
419.76,372.483,0.126848
422.76,372.984,0.112719
425.76,373.493,0.0983647
428.76,373.991,0.0852732
431.76,374.501,0.0730925
434.76,375.002,0.0603568
437.76,375.501,0.0484526
440.76,376.008,0.0371254
443.76,376.511,0.0255349
446.76,377.015,0.0138732
449.76,377.513,0.002844983
452.76,378.015,-0.007106262
455.76,378.519,-0.0171723
458.76,379.025,-0.0277456
461.76,379.529,-0.0379217
464.76,380.036,-0.0472057
467.76,380.536,-0.0558111
470.76,381.044,-0.0642386
473.76,381.543,-0.0726936
476.76,382.05,-0.0812237
479.76,382.553,-0.0893422
482.76,383.058,-0.0975504
485.76,383.568,-0.105411
488.76,384.062,-0.112937
491.76,384.566,-0.119854
494.76,385.081,-0.12681
497.76,385.582,-0.133892
500.76,386.089,-0.140355
503.76,386.595,-0.146889
506.76,387.097,-0.153191
509.76,387.597,-0.158877
512.76,388.105,-0.16447
515.76,388.612,-0.169897
518.76,389.112,-0.17578
521.76,389.623,-0.180596
524.76,390.131,-0.185885
527.76,390.632,-0.191099
530.76,391.136,-0.196097
533.76,391.645,-0.201211
536.76,392.153,-0.205866
539.76,392.657,-0.210817
542.76,393.163,-0.215303
545.76,393.666,-0.219449
548.76,394.175,-0.224171
551.76,394.68,-0.228834
554.76,395.188,-0.23276
557.76,395.689,-0.236789
560.76,396.199,-0.240297
563.76,396.694,-0.243583
566.76,397.2,-0.247287
569.76,397.707,-0.250833
572.76,398.214,-0.254196
575.76,398.718,-0.257328
578.76,399.225,-0.259764
581.76,399.728,-0.2622
584.76,400.228,-0.264922
587.76,400.732,-0.267029
590.76,401.235,-0.269153
593.76,401.749,-0.271029
596.76,402.251,-0.272825
599.76,402.754,-0.274698
602.76,403.259,-0.276055
605.76,403.764,-0.277251
608.76,404.27,-0.278659
611.76,404.775,-0.2796
614.76,405.27,-0.281161
617.76,405.781,-0.282258
620.76,406.284,-0.283043
623.76,406.78,-0.283362
626.76,407.289,-0.283817
629.76,407.797,-0.284309
632.76,408.302,-0.28443
635.76,408.801,-0.284186
638.76,409.309,-0.284523
641.76,409.815,-0.285392
644.76,410.312,-0.285902
647.76,410.817,-0.285808
650.76,411.322,-0.285284
653.76,411.829,-0.284838
656.76,412.332,-0.284266
659.76,412.831,-0.283432
662.76,413.331,-0.282342
665.76,413.84,-0.28127
668.76,414.34,-0.280605
671.76,414.852,-0.280398
674.76,415.344,-0.280113
677.76,415.847,-0.279394
680.76,416.358,-0.278343
683.76,416.861,-0.277174
686.76,417.361,-0.275549
689.76,417.866,-0.273909
692.76,418.366,-0.272558
695.76,418.866,-0.271077
698.76,419.373,-0.269792
701.76,419.872,-0.268191
704.76,420.374,-0.266696
707.76,420.878,-0.264833
710.76,421.381,-0.263039
713.76,421.891,-0.260851
716.76,422.391,-0.25885
719.76,422.894,-0.256707
722.76,423.393,-0.254731
725.76,423.897,-0.252703
728.76,424.397,-0.250809
731.76,424.898,-0.249137
734.76,425.403,-0.24702
737.76,425.906,-0.244635
740.76,426.412,-0.242362
743.76,426.913,-0.239786
746.76,427.423,-0.237322
749.76,427.923,-0.23501
752.76,428.432,-0.232301
755.76,428.932,-0.229768
758.76,429.437,-0.227122
761.76,429.937,-0.224474
764.76,430.443,-0.222049
767.76,430.95,-0.219538
770.76,431.447,-0.216477
773.76,431.949,-0.213599
776.76,432.452,-0.210951
779.76,432.952,-0.208018
782.76,433.459,-0.205073
785.76,433.957,-0.202585
788.76,434.46,-0.199659
791.76,434.965,-0.196852
794.76,435.46,-0.193899
797.76,435.969,-0.190817
800.76,436.473,-0.188235
803.76,436.971,-0.185706
806.76,437.476,-0.182982
809.76,437.98,-0.180147
812.76,438.485,-0.177405
815.76,438.986,-0.174151
818.76,439.488,-0.170815
821.76,439.987,-0.167453
824.76,440.489,-0.164768
827.76,440.997,-0.16206
830.76,441.493,-0.15931
833.76,441.997,-0.156164
836.76,442.499,-0.153221
839.76,443.001,-0.149891
842.76,443.505,-0.146418
845.76,444.007,-0.143566
848.76,444.518,-0.140354
851.76,445.015,-0.137041
854.76,445.511,-0.133502
857.76,446.017,-0.129946
860.76,446.519,-0.126364
863.76,447.02,-0.12264
866.76,447.519,-0.118871
869.76,448.023,-0.115149
872.76,448.526,-0.111582
875.76,449.022,-0.108052
878.76,449.526,-0.104578
881.76,450.028,-0.100442
884.76,450.527,-0.0964219
887.76,451.028,-0.0921104
890.76,451.526,-0.0882032
893.76,452.03,-0.0842649
896.76,452.527,-0.0799972
899.76,453.026,-0.0755208
902.76,453.525,-0.07068962
905.76,454.03,-0.066116
908.76,454.535,-0.06135614
911.76,455.029,-0.0566815
914.76,455.54,-0.0519065
917.76,456.032,-0.0471758
920.76,456.533,-0.0419194
923.76,457.035,-0.0366834
926.76,457.535,-0.0315577
929.76,458.046,-0.0266052
932.76,458.541,-0.0211518
935.76,459.042,-0.0151999
938.76,459.543,-0.009450517
941.76,460.045,-0.003691442
944.76,460.542,0.002141092
947.76,461.052,0.008026116
950.76,461.547,0.0138324
953.76,462.048,0.0197758
956.76,462.552,0.0262445
959.76,463.056,0.0325631
962.76,463.554,0.0392495
965.76,464.06,0.0461049
968.76,464.559,0.0523948
971.76,465.054,0.0590652
974.76,465.563,0.0659496
977.76,466.063,0.0728646
980.76,466.567,0.0798094
983.76,467.067,0.0869962
986.76,467.565,0.0941
989.76,468.07,0.101461
992.76,468.567,0.108246
995.76,469.074,0.114878
998.76,469.573,0.121761
1001.76,470.076,0.129339
1004.76,470.579,0.13657
1007.76,471.074,0.143454
1010.76,471.572,0.150456
1013.76,472.078,0.15758
1016.76,472.573,0.164745
1019.76,473.075,0.172029
1022.76,473.58,0.179575
1025.76,474.074,0.186754
1028.76,474.571,0.193844
1031.76,475.076,0.200762
1034.76,475.579,0.207877
1037.76,476.078,0.215312
1040.76,476.577,0.222346
1043.76,477.08,0.22922
1046.76,477.573,0.236568
1049.76,478.078,0.244308
1052.76,478.58,0.251654
1055.76,479.086,0.259128
1058.76,479.584,0.266709
1061.76,480.086,0.274664
1064.76,480.59,0.282663
1067.76,481.095,0.290817
1070.76,481.598,0.298707
1073.76,482.098,0.306872
1076.76,482.593,0.314874
1079.76,483.098,0.323253
1082.76,483.6,0.331499
1085.76,484.101,0.339731
1088.76,484.6,0.348568
1091.76,485.097,0.356988
1094.76,485.596,0.365623
1097.76,486.097,0.374738
1100.76,486.601,0.383112
1103.76,487.099,0.39176
1106.76,487.596,0.401271
1109.76,488.1,0.410871
1112.76,488.599,0.420372
1115.76,489.1,0.429599
1118.76,489.6,0.438576
1121.76,490.104,0.44778
1124.76,490.601,0.456769
1127.76,491.106,0.46605
1130.76,491.606,0.475685
1133.76,492.109,0.485207
1136.76,492.605,0.494575
1139.76,493.111,0.504054
1142.76,493.609,0.514046
1145.76,494.112,0.523767
1148.76,494.613,0.533465
1151.76,495.108,0.543575
1154.76,495.607,0.552917
1157.76,496.113,0.562786
1160.76,496.614,0.572724
1163.76,497.109,0.582078
1166.76,497.611,0.591712
1169.76,498.114,0.600712
1172.76,498.614,0.609948
1175.76,499.112,0.61981
1178.76,499.614,0.629711
1181.76,500.112,0.639127
1184.76,500.614,0.648805
1187.76,501.12,0.658312
1190.76,501.619,0.667209
1193.76,502.115,0.676581
1196.76,502.614,0.68555
1199.76,503.116,0.69443
1202.76,503.611,0.703426
1205.76,504.115,0.712816
1208.76,504.615,0.722304
1211.76,505.107,0.731199
1214.76,505.603,0.740117
1217.76,506.103,0.749551
1220.76,506.606,0.758223
1223.76,507.105,0.767101
1226.76,507.604,0.776058
1229.76,508.102,0.785311
1232.76,508.597,0.794415
1235.76,509.096,0.802946
1238.76,509.603,0.811846
1241.76,510.095,0.820206
1244.76,510.597,0.828564
1247.76,511.096,0.837561
1250.76,511.591,0.845763
1253.76,512.091,0.854162
1256.76,512.598,0.863104
1259.76,513.088,0.8716423
1262.76,513.588,0.879953
1265.76,514.089,0.888588
1268.76,514.588,0.897027
1271.76,515.084,0.905585
1274.76,515.58,0.913809
1277.76,516.085,0.92178
1280.76,516.583,0.929642
1283.76,517.078,0.937744
1286.76,517.568,0.946262
1289.76,518.07,0.954156
1292.76,518.567,0.962038
1295.76,519.067,0.970326
1298.76,519.57,0.97879
1301.76,520.067,0.98673
1304.76,520.563,0.994767
1307.76,521.059,1.00317
1310.76,521.559,1.01134
1313.76,522.061,1.0195
1316.76,522.562,1.02746
1319.76,523.058,1.03516
1322.76,523.557,1.04258
1325.76,524.052,1.05024
1328.76,524.557,1.05841
1331.76,525.052,1.06647
1334.76,525.55,1.07433
1337.76,526.052,1.08228
1340.76,526.545,1.09002
1343.76,527.046,1.09739
1346.76,527.544,1.10504
1349.76,528.044,1.11312
1352.76,528.543,1.12069
1355.76,529.037,1.12825
1358.76,529.54,1.13531
1361.76,530.033,1.14233
1364.76,530.537,1.14995
1367.76,531.037,1.15698
1370.76,531.528,1.16353
1373.76,532.027,1.17089
1376.76,532.521,1.17866
1379.76,533.023,1.18564
1382.76,533.516,1.19271
1385.76,534.011,1.19975
1388.76,534.514,1.20725
1391.76,535.012,1.21443
1394.76,535.507,1.22114
1397.76,536.001,1.2285
1400.76,536.502,1.23566
1403.76,536.994,1.24202
1406.76,537.494,1.24854
1409.76,537.992,1.25592
1412.76,538.487,1.26311
1415.76,538.986,1.26972
1418.76,539.483,1.27587
1421.76,539.977,1.28246
1424.76,540.476,1.28958
1427.76,540.978,1.29593
1430.76,541.475,1.30226
1433.76,541.969,1.30872
1436.76,542.465,1.31517
1439.76,542.964,1.32147
1442.76,543.46,1.32768
1445.76,543.96,1.33375
1448.76,544.453,1.34027
1451.76,544.953,1.34641
1454.76,545.45,1.3523
1457.76,545.945,1.358
1460.76,546.442,1.36406
1463.76,546.938,1.37052
1466.76,547.436,1.37645
1469.76,547.934,1.3829
1472.76,548.43,1.38944
1475.76,548.927,1.39563
1478.76,549.425,1.40131
1481.76,549.919,1.40718
1484.76,550.414,1.41329
1487.76,550.915,1.41908
1490.76,551.412,1.42494
1493.76,551.904,1.43067
1496.76,552.403,1.43602
1499.76,552.901,1.4416
1502.76,553.395,1.44712
1505.76,553.897,1.45295
1508.76,554.392,1.45888
1511.76,554.888,1.46418
1514.76,555.387,1.46993
1517.76,555.884,1.47574
1520.76,556.378,1.48063
1523.76,556.875,1.48582
1526.76,557.37,1.49128
1529.76,557.871,1.49669
1532.76,558.367,1.50232
1535.76,558.863,1.50714
1538.76,559.36,1.51234
1541.76,559.86,1.51815
1544.76,560.354,1.52444
1547.76,560.85,1.53026
1550.76,561.35,1.53523
1553.76,561.841,1.53998
1556.76,562.342,1.54575
1559.76,562.839,1.55163
1562.76,563.331,1.55704
1565.76,563.827,1.56163
1568.76,564.323,1.56713
1571.76,564.819,1.57298
1574.76,565.314,1.57861
1577.76,565.814,1.58387
1580.76,566.31,1.58926
1583.76,566.808,1.59469
1586.76,567.303,1.6008
1589.76,567.798,1.60583
1592.76,568.295,1.61113
1595.76,568.791,1.61706
1598.76,569.29,1.62287
1601.76,569.786,1.62872
1604.76,570.277,1.63474
1607.76,570.772,1.64011
1610.76,571.272,1.6459
1613.76,571.762,1.65163
1616.76,572.262,1.65756
1619.76,572.758,1.66339
1622.76,573.256,1.66929
1625.76,573.754,1.675
1628.76,574.244,1.68021
1631.76,574.744,1.68571
1634.76,575.24,1.69101
1637.76,575.737,1.69651
1640.76,576.234,1.70274
1643.76,576.732,1.70839
1646.76,577.229,1.71364
1649.76,577.723,1.71872
1652.76,578.217,1.72364
1655.76,578.711,1.72843
1658.76,579.208,1.73324
1661.76,579.708,1.73883
1664.76,580.207,1.74466
1667.76,580.7,1.75015
1670.76,581.194,1.75514
1673.76,581.689,1.75892
1676.76,582.187,1.76302
1679.76,582.678,1.76747
1682.76,583.18,1.77136
1685.76,583.673,1.77466
1688.76,584.169,1.77841
1691.76,584.662,1.78189
1694.76,585.159,1.78487
1697.76,585.65,1.78782
1700.76,586.148,1.7909
1703.76,586.641,1.79379
1706.76,587.138,1.79617
1709.76,587.633,1.79836
1712.76,588.131,1.80021
1715.76,588.626,1.80239
1718.76,589.122,1.80401
1721.76,589.617,1.80593
1724.76,590.114,1.80743
1727.76,590.609,1.80863
1730.76,591.102,1.80904
1733.76,591.606,1.80947
1736.76,592.1,1.81011
1739.76,592.592,1.81055
1742.76,593.089,1.81002
1745.76,593.581,1.80973
1748.76,594.079,1.80921
1751.76,594.569,1.80803
1754.76,595.062,1.8063
1757.76,595.556,1.80437
1760.76,596.049,1.80239
1763.76,596.539,1.80025
1766.76,597.032,1.79766
1769.76,597.526,1.79483
1772.76,598.019,1.79125
1775.76,598.514,1.78781
1778.76,599.003,1.78349
1781.76,599.496,1.7791
1784.76,599.993,1.77423
1787.76,600.483,1.76915
1790.76,600.976,1.76402
1793.76,601.47,1.7579
1796.76,601.957,1.75087
1799.76,602.451,1.74394
1802.76,602.939,1.73657
1805.76,603.438,1.72893
1808.76,603.933,1.72072
1811.76,604.419,1.71196
1814.76,604.913,1.70308
1817.76,605.412,1.69325
1820.76,605.902,1.68305
1823.76,606.389,1.67244
1826.76,606.876,1.66093
1829.76,607.373,1.64911
1832.76,607.862,1.63706
1835.76,608.355,1.62388
1838.76,608.841,1.61012
1841.76,609.33,1.59628
1844.76,609.825,1.58227
1847.76,610.313,1.56764
1850.76,610.801,1.55243
1853.76,611.29,1.5365
1856.76,611.783,1.52031
1859.76,612.271,1.50325
1862.76,612.763,1.48544
1865.76,613.252,1.46751
1868.76,613.744,1.44887
1871.76,614.233,1.42947
1874.76,614.722,1.40997
1877.76,615.216,1.39061
1880.76,615.702,1.37042
1883.76,616.197,1.34975
1886.76,616.687,1.32845
1889.76,617.173,1.30706
1892.76,617.663,1.28527
1895.76,618.151,1.26272
1898.76,618.64,1.24022
1901.76,619.124,1.21728
1904.76,619.615,1.19421
1907.76,620.105,1.17108
1910.76,620.595,1.14857
1913.76,621.082,1.1258
1916.76,621.569,1.10253
1919.76,622.058,1.07883
1922.76,622.549,1.05595
1925.76,623.034,1.03273
1928.76,623.524,1.00904
1931.76,624.013,0.985975
1934.76,624.5,0.962984
1937.76,624.991,0.940596
1940.76,625.478,0.918086
1943.76,625.966,0.896207
1946.76,626.453,0.875621
1949.76,626.945,0.855054
1952.76,627.433,0.834835
1955.76,627.929,0.816705
1958.76,628.415,0.799383
1961.76,628.904,0.78326
1964.76,629.396,0.769027
1967.76,629.888,0.755313
1970.76,630.378,0.743192
1973.76,630.87,0.734868
1976.76,631.369,0.726026
1979.76,631.859,0.717233
1982.76,632.354,0.711299
1985.76,632.847,0.707637
1988.76,633.337,0.705013
1991.76,633.829,0.700851
1994.76,634.327,0.701406
1997.76,634.821,0.703193
2000.76,635.318,0.703795
2003.76,635.81,0.704973
2006.76,636.309,0.707579
2009.76,636.804,0.713272
2012.76,637.301,0.718111
2015.76,637.799,0.720897
2018.76,638.285,0.729365
2021.76,638.789,0.733709
2024.76,639.283,0.736538
2027.76,639.783,0.751944
2030.76,640.272,0.761872
2033.76,640.777,0.774771
2036.76,641.27,0.793019
2039.76,641.768,0.806307
2042.76,642.273,0.828818
2045.76,642.77,0.85245
2048.76,643.267,0.8699
2051.76,643.767,0.893337
2054.76,644.262,0.920313
2057.76,644.758,0.932916
2060.76,645.262,0.940755
2063.76,645.755,0.959598
2066.76,646.257,0.980696
2069.76,646.755,1.00887
2072.76,647.253,1.02848
2075.76,647.753,1.04757
2078.76,648.251,1.07347
2081.76,648.752,1.09932
2084.76,649.255,1.12814
2087.76,649.752,1.15327
2090.76,650.255,1.18192
2093.76,650.758,1.21464
2096.76,651.256,1.24381
2099.76,651.759,1.27189
2102.76,652.259,1.30352
2105.76,652.762,1.33744
2108.76,653.266,1.3723
2111.76,653.766,1.40706
2114.76,654.267,1.44163
2117.76,654.772,1.47682
2120.76,655.277,1.51441
2123.76,655.774,1.5526
2126.76,656.273,1.59105
2129.76,656.778,1.63124
2132.76,657.288,1.67294
2135.76,657.79,1.71553
2138.76,658.293,1.75917
2141.76,658.796,1.80506
2144.76,659.296,1.85087
2147.76,659.799,1.89706
2150.76,660.306,1.9438
2153.76,660.809,1.99073
2156.76,661.311,2.03777
2159.76,661.813,2.0845
2162.76,662.32,2.13204
2165.76,662.823,2.17923
2168.76,663.333,2.22667
2171.76,663.84,2.27519
2174.76,664.338,2.32347
2177.76,664.842,2.37099
2180.76,665.345,2.41801
2183.76,665.848,2.46535
2186.76,666.351,2.51307
2189.76,666.854,2.56058
2192.76,667.356,2.60713
2195.76,667.867,2.653
2198.76,668.367,2.69934
2201.76,668.871,2.74542
2204.76,669.369,2.79078
2207.76,669.871,2.83509
2210.76,670.377,2.87868
2213.76,670.876,2.92099
2216.76,671.38,2.96292
2219.76,671.882,3.00457
2222.76,672.385,3.04546
2225.76,672.887,3.08596
2228.76,673.39,3.12576
2231.76,673.893,3.16493
2234.76,674.396,3.20264
2237.76,674.894,3.23989
2240.76,675.392,3.27668
2243.76,675.898,3.31217
2246.76,676.398,3.34702
2249.76,676.901,3.38203
2252.76,677.4,3.41653
2255.76,677.898,3.45004
2258.76,678.4,3.48403
2261.76,678.899,3.51589
2264.76,679.405,3.54673
2267.76,679.901,3.57765
2270.76,680.403,3.60806
2273.76,680.899,3.63657
2276.76,681.4,3.66443
2279.76,681.903,3.69313
2282.76,682.397,3.72052
2285.76,682.896,3.74701
2288.76,683.395,3.77319
2291.76,683.892,3.79881
2294.76,684.398,3.82371
2297.76,684.893,3.84812
2300.76,685.389,3.87188
2303.76,685.89,3.89559
2306.76,686.388,3.91809
2309.76,686.883,3.93983
2312.76,687.384,3.96118
2315.76,687.88,3.98229
2318.76,688.378,4.00401
2321.76,688.881,4.02459
2324.76,689.377,4.04435
2327.76,689.871,4.06393
2330.76,690.368,4.0834
2333.76,690.868,4.10177
2336.76,691.369,4.11976
2339.76,691.864,4.13784
2342.76,692.361,4.15468
2345.76,692.856,4.17121
2348.76,693.355,4.18819
2351.76,693.853,4.20465
2354.76,694.352,4.22182
2357.76,694.845,4.23863
2360.76,695.341,4.25403
2363.76,695.842,4.26975
2366.76,696.332,4.28434
2369.76,696.833,4.29879
2372.76,697.327,4.31307
2375.76,697.825,4.32754
2378.76,698.322,4.34206
2381.76,698.818,4.35585
2384.76,699.315,4.36939
2387.76,699.807,4.38249
2390.76,700.307,4.3956
2393.76,700.803,4.40899
2396.76,701.295,4.42268
2399.76,701.796,4.43591
2402.76,702.285,4.44919
2405.76,702.783,4.46162
2408.76,703.28,4.47436
2411.76,703.776,4.48659
2414.76,704.273,4.49842
2417.76,704.77,4.51028
2420.76,705.264,4.52244
2423.76,705.758,4.5342
2426.76,706.256,4.54594
2429.76,706.748,4.55759
2432.76,707.247,4.56908
2435.76,707.739,4.58054
2438.76,708.234,4.59202
2441.76,708.735,4.60379
2444.76,709.229,4.61519
2447.76,709.725,4.62673
2450.76,710.223,4.63813
2453.76,710.72,4.64947
2456.76,711.207,4.65975
2459.76,711.706,4.67111
2462.76,712.202,4.68223
2465.76,712.698,4.69312
2468.76,713.194,4.70401
2471.76,713.692,4.71461
2474.76,714.186,4.72453
2477.76,714.68,4.73412
2480.76,715.172,4.74376
2483.76,715.671,4.7539
2486.76,716.166,4.76435
2489.76,716.668,4.77428
2492.76,717.157,4.78344
2495.76,717.655,4.79264
2498.76,718.15,4.80251
2501.76,718.645,4.81267
2504.76,719.14,4.82208
2507.76,719.64,4.83148
2510.76,720.135,4.84017
2513.76,720.632,4.84959
2516.76,721.128,4.85883
2519.76,721.627,4.86801
2522.76,722.117,4.87705
2525.76,722.616,4.8863
2528.76,723.11,4.89524
2531.76,723.601,4.90401
2534.76,724.096,4.91259
2537.76,724.597,4.92096
2540.76,725.088,4.92986
2543.76,725.581,4.9388
2546.76,726.077,4.94751
2549.76,726.568,4.95514
2552.76,727.069,4.96301
2555.76,727.558,4.97196
2558.76,728.054,4.9801
2561.76,728.553,4.98816
2564.76,729.045,4.99688
2567.76,729.544,5.00569
2570.76,730.038,5.01427
2573.76,730.536,5.02225
2576.76,731.027,5.03027
2579.76,731.525,5.0393
2582.76,732.019,5.04781
2585.76,732.515,5.05599
2588.76,733.009,5.06421
2591.76,733.504,5.073
2594.76,734,5.08137
2597.76,734.498,5.08932
2600.76,734.993,5.09757
2603.76,735.488,5.10598
2606.76,735.98,5.11448
2609.76,736.479,5.12328
2612.76,736.97,5.13079
2615.76,737.467,5.13833
2618.76,737.959,5.14723
2621.76,738.455,5.15575
2624.76,738.952,5.16371
2627.76,739.454,5.17193
2630.76,739.943,5.18001
2633.76,740.442,5.18748
2636.76,740.935,5.19542
2639.76,741.43,5.20437
2642.76,741.925,5.21279
2645.76,742.42,5.22094
2648.76,742.916,5.22891
2651.76,743.407,5.23696
2654.76,743.904,5.24544
2657.76,744.402,5.25327
2660.76,744.897,5.26166
2663.76,745.392,5.27017
2666.76,745.887,5.27836
2669.76,746.382,5.28646
2672.76,746.879,5.29463
2675.76,747.374,5.30277
2678.76,747.868,5.31064
2681.76,748.363,5.31925
2684.76,748.867,5.32766
2687.76,749.362,5.33578
2690.76,749.857,5.34411
2693.76,750.352,5.35259
2696.76,750.844,5.36068
2699.76,751.335,5.36853
2702.76,751.83,5.37598
2705.76,752.326,5.38406
2708.76,752.824,5.39224
2711.76,753.318,5.40019
2714.76,753.811,5.40844
2717.76,754.305,5.4164
2720.76,754.799,5.42438
2723.76,755.295,5.43239
2726.76,755.789,5.44051
2729.76,756.281,5.4478
2732.76,756.775,5.45496
2735.76,757.268,5.46206
2738.76,757.764,5.46977
2741.76,758.263,5.47869
2744.76,758.757,5.48676
2747.76,759.251,5.49366
2750.76,759.75,5.50154
2753.76,760.244,5.50901
2756.76,760.74,5.5167
2759.76,761.234,5.52491
2762.76,761.734,5.5318
2765.76,762.229,5.53862
2768.76,762.724,5.54615
2771.76,763.215,5.5531
2774.76,763.715,5.55987
2777.76,764.209,5.56659
2780.76,764.702,5.57359
2783.76,765.201,5.57979
2786.76,765.696,5.58638
2789.76,766.19,5.59368
2792.76,766.691,5.60062
2795.76,767.185,5.60754
2798.76,767.68,5.61435
2801.76,768.173,5.62028
2804.76,768.673,5.62661
2807.76,769.167,5.63369
2810.76,769.661,5.64041
2813.76,770.154,5.64723
2816.76,770.653,5.65352
2819.76,771.151,5.65924
2822.76,771.638,5.66619
2825.76,772.137,5.67321
2828.76,772.634,5.67969
2831.76,773.131,5.68681
2834.76,773.626,5.69375
2837.76,774.123,5.70052
2840.76,774.614,5.70725
2843.76,775.11,5.71349
2846.76,775.604,5.71983
2849.76,776.096,5.72622
2852.76,776.589,5.73264
2855.76,777.087,5.73907
2858.76,777.583,5.74583
2861.76,778.083,5.75301
2864.76,778.571,5.75968
2867.76,779.067,5.76562
2870.76,779.564,5.77192
2873.76,780.061,5.77862
2876.76,780.548,5.78611
2879.76,781.048,5.79339
2882.76,781.544,5.80072
2885.76,782.039,5.80746
2888.76,782.535,5.81331
2891.76,783.031,5.82039
2894.76,783.526,5.82692
2897.76,784.026,5.83359
2900.76,784.518,5.84081
2903.76,785.012,5.84699
2906.76,785.508,5.85351
2909.76,786.005,5.85979
2912.76,786.502,5.8661
2915.76,787,5.87305
2918.76,787.49,5.87969
2921.76,787.987,5.88553
2924.76,788.481,5.89158
2927.76,788.976,5.89793
2930.76,789.471,5.90449
2933.76,789.963,5.90981
2936.76,790.46,5.91622
2939.76,790.963,5.92325
2942.76,791.458,5.92858
2945.76,791.95,5.93413
2948.76,792.447,5.94003
2951.76,792.947,5.94625
2954.76,793.441,5.95196
2957.76,793.932,5.95711
2960.76,794.429,5.96314
2963.76,794.924,5.96963
2966.76,795.417,5.976
2969.76,795.912,5.98141
2972.76,796.407,5.98689
2975.76,796.9,5.993
2978.76,797.4,5.99964
2981.76,797.895,6.00561
2984.76,798.394,6.01099
2987.76,798.888,6.01679
2990.76,799.38,6.02327
2993.76,799.877,6.02952
2996.76,800.373,6.03608
2999.76,800.868,6.04216
3002.76,801.362,6.04895
3005.76,801.857,6.05551
3008.76,802.356,6.06156
3011.76,802.846,6.06748