File: Non-charring/PMMA/HKPoly/HKPolyU_TGA_N2_10K_2.csv
Time,Temperature,Mass
[s],[K],[mg]
0.15,300.048,4.189604
2.76,300.716,4.18927
5.76,301.383,4.188894
8.76,302.051,4.188542
11.76,302.715,4.188122
14.76,303.3721,4.187721
17.76,304.0229,4.187344
20.76,304.673,4.187013
23.76,305.319,4.186716
26.76,305.943,4.186528
29.76,306.561,4.186287
32.76,307.1858,4.186081
35.76,307.793,4.18588
38.76,308.396,4.185742
41.76,308.987,4.185528
44.76,309.581,4.185384
47.76,310.154,4.185248
50.76,310.72,4.185049
53.76,311.28,4.184852
56.76,311.838,4.184734
59.76,312.392,4.184512
62.76,312.929,4.18425
65.76,313.463,4.184123
68.76,313.993,4.184032
71.76,314.5129,4.184044
74.76,315.022,4.18397
77.76,315.536,4.183817
80.76,316.041,4.183725
83.76,316.546,4.183632
86.76,317.041,4.183386
89.76,317.534,4.183256
92.76,318.025,4.183122
95.76,318.508,4.182884
98.76,318.99,4.182653
101.76,319.47,4.182631
104.76,319.951,4.182574
107.76,320.425,4.182437
110.76,320.9095,4.182398
113.76,321.376,4.182429
116.76,321.851,4.18236
119.76,322.325,4.182182
122.76,322.793,4.182008
125.76,323.272,4.1818
128.76,323.753,4.181701
131.76,324.23,4.181627
134.76,324.711,4.181496
137.76,325.191,4.181316
140.76,325.6605,4.181247
143.76,326.147,4.18122
146.76,326.632,4.181277
149.76,327.1207,4.181132
152.76,327.61,4.180878
155.76,328.1031,4.180766
158.76,328.591,4.180694
161.76,329.084,4.180535
164.76,329.574,4.180411
167.76,330.08,4.180428
170.76,330.5747,4.180398
173.76,331.074,4.180324
176.76,331.5863,4.180184
179.76,332.087,4.180193
182.76,332.594,4.180127
185.76,333.109,4.180074
188.76,333.6265,4.179918
191.76,334.137,4.179694
194.76,334.661,4.17968
197.76,335.1778,4.179719
200.76,335.692,4.17955
203.76,336.217,4.179348
206.76,336.735,4.179342
209.76,337.265,4.179254
212.76,337.786,4.179187
215.76,338.311,4.179239
218.76,338.833,4.179245
221.76,339.357,4.179184
224.76,339.8831,4.179105
227.76,340.41,4.178875
230.76,340.9394,4.178744
233.76,341.466,4.178786
236.76,341.999,4.178753
239.76,342.517,4.178874
242.76,343.045,4.17897
245.76,343.571,4.178964
248.76,344.094,4.178742
251.76,344.618,4.178704
254.76,345.154,4.17872
257.76,345.6789,4.178697
260.76,346.197,4.178438
263.76,346.715,4.178428
266.76,347.248,4.178492
269.76,347.768,4.178454
272.76,348.283,4.17835
275.76,348.806,4.178336
278.76,349.329,4.178312
281.76,349.848,4.178372
284.76,350.3639,4.178445
287.76,350.887,4.178422
290.76,351.404,4.178213
293.76,351.918,4.178087
296.76,352.438,4.178116
299.76,352.95,4.178113
302.76,353.462,4.178168
305.76,353.978,4.178284
308.76,354.483,4.178168
311.76,355.0005,4.17811
314.76,355.511,4.1782
317.76,356.019,4.178086
320.76,356.5261,4.178
323.76,357.034,4.17791
326.76,357.54,4.17787
329.76,358.049,4.177832
332.76,358.56,4.17781
335.76,359.067,4.177918
338.76,359.574,4.177928
341.76,360.08,4.17795
344.76,360.591,4.17804
347.76,361.1032,4.17795
350.76,361.601,4.177803
353.76,362.108,4.177741
356.76,362.613,4.177765
359.76,363.114,4.177637
362.76,363.627,4.177547
365.76,364.128,4.177539
368.76,364.626,4.17758
371.76,365.135,4.177641
374.76,365.639,4.177618
377.76,366.148,4.177605
380.76,366.653,4.177632
383.76,367.161,4.177636
386.76,367.664,4.177674
389.76,368.169,4.177566
392.76,368.675,4.177462
395.76,369.187,4.177443
398.76,369.685,4.17739
401.76,370.195,4.177294
404.76,370.709,4.17731
407.76,371.212,4.177295
410.76,371.723,4.177386
413.76,372.23,4.177437
416.76,372.733,4.177355
419.76,373.2419,4.17729
422.76,373.7544,4.177207
425.76,374.2591,4.1772
428.76,374.769,4.177089
431.76,375.2787,4.177085
434.76,375.7835,4.177119
437.76,376.3002,4.177097
440.76,376.8034,4.177137
443.76,377.3172,4.177163
446.76,377.8319,4.177086
449.76,378.3455,4.177089
452.76,378.8546,4.176993
455.76,379.36,4.176976
458.76,379.8657,4.176932
461.76,380.3809,4.176808
464.76,380.8907,4.176666
467.76,381.3964,4.176605
470.76,381.9127,4.176544
473.76,382.4199,4.17652
476.76,382.9264,4.176457
479.76,383.4395,4.176408
482.76,383.9473,4.176572
485.76,384.4586,4.176763
488.76,384.9686,4.176739
491.76,385.4815,4.176715
494.76,385.9888,4.176657
497.76,386.4911,4.176592
500.76,387.0061,4.176469
503.76,387.519,4.176306
506.76,388.0302,4.176254
509.76,388.5318,4.176209
512.76,389.0398,4.176096
515.76,389.5415,4.176062
518.76,390.0535,4.176
521.76,390.5568,4.175924
524.76,391.0704,4.175985
527.76,391.5727,4.175986
530.76,392.0818,4.175883
533.76,392.5866,4.175744
536.76,393.0919,4.175546
539.76,393.6015,4.175484
542.76,394.1052,4.175328
545.76,394.6164,4.175217
548.76,395.1192,4.175148
551.76,395.628,4.175056
554.76,396.1346,4.175048
557.76,396.6466,4.175046
560.76,397.1544,4.174952
563.76,397.6613,4.174805
566.76,398.1717,4.17468
569.76,398.6751,4.1745
572.76,399.1837,4.174264
575.76,399.685,4.174036
578.76,400.1941,4.173914
581.76,400.6964,4.173839
584.76,401.2018,4.173725
587.76,401.702,4.173547
590.76,402.2058,4.17348
593.76,402.7143,4.173336
596.76,403.2122,4.173153
599.76,403.7146,4.173039
602.76,404.2262,4.172855
605.76,404.7306,4.172649
608.76,405.2345,4.172387
611.76,405.7418,4.172194
614.76,406.246,4.171947
617.76,406.7451,4.171726
620.76,407.2526,4.171566
623.76,407.7503,4.1713
626.76,408.2619,4.171104
629.76,408.768,4.17093
632.76,409.2734,4.170858
635.76,409.7791,4.170698
638.76,410.2814,4.170488
641.76,410.787,4.170274
644.76,411.2953,4.169974
647.76,411.7978,4.169748
650.76,412.304,4.1696
653.76,412.8134,4.169394
656.76,413.3149,4.169138
659.76,413.8241,4.168898
662.76,414.3297,4.168777
665.76,414.831,4.168429
668.76,415.3344,4.168209
671.76,415.837,4.16797
674.76,416.3446,4.167783
677.76,416.8468,4.167502
680.76,417.3546,4.167221
683.76,417.8552,4.167041
686.76,418.3683,4.166795
689.76,418.8618,4.166587
692.76,419.3748,4.166391
695.76,419.8726,4.166119
698.76,420.3812,4.165885
701.76,420.8858,4.165613
704.76,421.3884,4.16538
707.76,421.8894,4.165138
710.76,422.3945,4.16485
713.76,422.8988,4.16457
716.76,423.4036,4.164167
719.76,423.908,4.16396
722.76,424.4162,4.16364
725.76,424.9182,4.163287
728.76,425.4275,4.162978
731.76,425.9244,4.16276
734.76,426.4331,4.162507
737.76,426.9451,4.162164
740.76,427.4457,4.16188
743.76,427.9482,4.161574
746.76,428.4518,4.16127
749.76,428.9537,4.16086
752.76,429.4546,4.160481
755.76,429.9579,4.160022
758.76,430.4675,4.159709
761.76,430.9724,4.159309
764.76,431.4729,4.15884
767.76,431.9728,4.158477
770.76,432.4759,4.158052
773.76,432.9839,4.157615
776.76,433.4886,4.157178
779.76,433.9863,4.156745
782.76,434.4919,4.15636
785.76,434.9911,4.155848
788.76,435.5,4.155334
791.76,436.0006,4.154766
794.76,436.5013,4.154236
797.76,437.0016,4.153778
800.76,437.5042,4.153214
803.76,438.0063,4.152617
806.76,438.5087,4.152028
809.76,439.0122,4.15144
812.76,439.5089,4.15081
815.76,440.0234,4.15016
818.76,440.5215,4.149444
821.76,441.0194,4.148821
824.76,441.5217,4.148133
827.76,442.0264,4.147474
830.76,442.5299,4.146784
833.76,443.0278,4.14603
836.76,443.5322,4.145206
839.76,444.0322,4.144398
842.76,444.5404,4.14354
845.76,445.0392,4.142772
848.76,445.5382,4.142032
851.76,446.0492,4.141128
854.76,446.551,4.140156
857.76,447.0469,4.139136
860.76,447.5541,4.138223
863.76,448.0506,4.137265
866.76,448.5551,4.136236
869.76,449.0573,4.135196
872.76,449.555,4.134256
875.76,450.061,4.133215
878.76,450.5676,4.132174
881.76,451.0724,4.131183
884.76,451.5746,4.130069
887.76,452.0749,4.128979
890.76,452.5753,4.127838
893.76,453.0725,4.126786
896.76,453.5762,4.125689
899.76,454.0808,4.124594
902.76,454.5793,4.123476
905.76,455.0794,4.122356
908.76,455.5809,4.121176
911.76,456.0829,4.119969
914.76,456.5875,4.118868
917.76,457.0906,4.117783
920.76,457.5928,4.116616
923.76,458.0938,4.115395
926.76,458.5981,4.114288
929.76,459.0984,4.113216
932.76,459.5966,4.111914
935.76,460.0955,4.110742
938.76,460.6007,4.109718
941.76,461.0999,4.108636
944.76,461.6041,4.107459
947.76,462.1064,4.106347
950.76,462.6094,4.105208
953.76,463.11,4.104152
956.76,463.6147,4.103003
959.76,464.1198,4.101992
962.76,464.6175,4.100881
965.76,465.1255,4.099774
968.76,465.6261,4.0987
971.76,466.1262,4.097638
974.76,466.6301,4.09652
977.76,467.1258,4.095466
980.76,467.6287,4.094454
983.76,468.1285,4.093335
986.76,468.634,4.092197
989.76,469.1312,4.091145
992.76,469.6289,4.09015
995.76,470.1343,4.089088
998.76,470.6375,4.08799
1001.76,471.1341,4.08693
1004.76,471.6358,4.085776
1007.76,472.1373,4.084659
1010.76,472.6351,4.083471
1013.76,473.1396,4.082342
1016.76,473.6378,4.081146
1019.76,474.1336,4.080019
1022.76,474.6385,4.078864
1025.76,475.1354,4.07762
1028.76,475.6412,4.076468
1031.76,476.141,4.075253
1034.76,476.6411,4.074039
1037.76,477.1385,4.072789
1040.76,477.6387,4.071664
1043.76,478.1408,4.070571
1046.76,478.6414,4.069329
1049.76,479.1438,4.068146
1052.76,479.6465,4.066926
1055.76,480.1446,4.065723
1058.76,480.6523,4.064585
1061.76,481.1526,4.063455
1064.76,481.6468,4.062282
1067.76,482.1544,4.06119
1070.76,482.6553,4.060074
1073.76,483.1556,4.05905
1076.76,483.6574,4.058008
1079.76,484.1592,4.056908
1082.76,484.6666,4.055934
1085.76,485.169,4.055066
1088.76,485.6728,4.054128
1091.76,486.1703,4.053159
1094.76,486.673,4.052282
1097.76,487.1756,4.05144
1100.76,487.6771,4.050636
1103.76,488.1778,4.049828
1106.76,488.6776,4.049036
1109.76,489.1776,4.048348
1112.76,489.6776,4.047633
1115.76,490.1831,4.046898
1118.76,490.6828,4.04636
1121.76,491.1794,4.045706
1124.76,491.677,4.045208
1127.76,492.1762,4.044756
1130.76,492.6786,4.044223
1133.76,493.1783,4.043801
1136.76,493.685,4.04342
1139.76,494.1814,4.042878
1142.76,494.6816,4.042401
1145.76,495.1852,4.042042
1148.76,495.6888,4.041661
1151.76,496.1849,4.041275
1154.76,496.6822,4.040938
1157.76,497.1825,4.040645
1160.76,497.6827,4.040335
1163.76,498.1889,4.04004
1166.76,498.6891,4.039717
1169.76,499.1951,4.039404
1172.76,499.6913,4.039115
1175.76,500.1898,4.038742
1178.76,500.6952,4.038502
1181.76,501.1933,4.038295
1184.76,501.696,4.03802
1187.76,502.1961,4.037758
1190.76,502.694,4.03752
1193.76,503.1958,4.037223
1196.76,503.7008,4.036958
1199.76,504.1938,4.03677
1202.76,504.6944,4.036706
1205.76,505.1934,4.0365
1208.76,505.7017,4.036211
1211.76,506.1943,4.035964
1214.76,506.6933,4.035672
1217.76,507.1912,4.035414
1220.76,507.6896,4.03518
1223.76,508.187,4.034918
1226.76,508.6902,4.034638
1229.76,509.1922,4.034378
1232.76,509.6904,4.03409
1235.76,510.1879,4.033746
1238.76,510.6868,4.033468
1241.76,511.1813,4.033283
1244.76,511.6815,4.033034
1247.76,512.1803,4.032774
1250.76,512.6828,4.032499
1253.76,513.1798,4.032211
1256.76,513.6765,4.031882
1259.76,514.171,4.03154
1262.76,514.6742,4.03122
1265.76,515.1758,4.030929
1268.76,515.6738,4.030606
1271.76,516.1698,4.030176
1274.76,516.6699,4.02977
1277.76,517.1698,4.029485
1280.76,517.6664,4.029122
1283.76,518.1619,4.028679
1286.76,518.656,4.028255
1289.76,519.1558,4.027874
1292.76,519.6575,4.02742
1295.76,520.1523,4.027
1298.76,520.6497,4.02666
1301.76,521.1491,4.026252
1304.76,521.649,4.025741
1307.76,522.1462,4.025241
1310.76,522.6445,4.024818
1313.76,523.1518,4.024313
1316.76,523.6504,4.023744
1319.76,524.1455,4.023242
1322.76,524.6419,4.022768
1325.76,525.1502,4.022172
1328.76,525.6406,4.021571
1331.76,526.138,4.020947
1334.76,526.6358,4.020422
1337.76,527.1382,4.019783
1340.76,527.6335,4.019156
1343.76,528.133,4.0187
1346.76,528.6324,4.018054
1349.76,529.1272,4.017394
1352.76,529.6223,4.01673
1355.76,530.1255,4.016087
1358.76,530.6258,4.015391
1361.76,531.1192,4.01466
1364.76,531.6174,4.013855
1367.76,532.1183,4.013074
1370.76,532.6197,4.012313
1373.76,533.1164,4.011536
1376.76,533.6105,4.010774
1379.76,534.111,4.009933
1382.76,534.607,4.009059
1385.76,535.11,4.008271
1388.76,535.6044,4.007345
1391.76,536.1015,4.006474
1394.76,536.6017,4.005598
1397.76,537.0965,4.004728
1400.76,537.5992,4.003801
1403.76,538.097,4.002844
1406.76,538.5924,4.001868
1409.76,539.0901,4.00084
1412.76,539.589,3.999668
1415.76,540.0849,3.998651
1418.76,540.5828,3.997527
1421.76,541.083,3.996405
1424.76,541.5772,3.995308
1427.76,542.0763,3.994184
1430.76,542.5726,3.993088
1433.76,543.0648,3.991742
1436.76,543.5633,3.990369
1439.76,544.0646,3.98907
1442.76,544.5594,3.98778
1445.76,545.0562,3.986463
1448.76,545.5582,3.985122
1451.76,546.0513,3.983625
1454.76,546.5488,3.982225
1457.76,547.0466,3.980706
1460.76,547.547,3.979271
1463.76,548.0402,3.977646
1466.76,548.5416,3.976088
1469.76,549.0379,3.97448
1472.76,549.5331,3.972844
1475.76,550.0336,3.97105
1478.76,550.5282,3.969289
1481.76,551.0235,3.967511
1484.76,551.5205,3.96562
1487.76,552.018,3.96375
1490.76,552.5133,3.961907
1493.76,553.0133,3.95995
1496.76,553.5108,3.95795
1499.76,554.0078,3.955862
1502.76,554.508,3.953724
1505.76,555.007,3.9517
1508.76,555.5016,3.949596
1511.76,555.996,3.947416
1514.76,556.4946,3.945211
1517.76,556.9949,3.942968
1520.76,557.4891,3.940611
1523.76,557.9832,3.938374
1526.76,558.4773,3.936047
1529.76,558.9747,3.9337
1532.76,559.4694,3.93123
1535.76,559.9712,3.92866
1538.76,560.4655,3.926117
1541.76,560.9607,3.923728
1544.76,561.4542,3.92117
1547.76,561.953,3.918624
1550.76,562.4497,3.91604
1553.76,562.9448,3.913419
1556.76,563.4437,3.910689
1559.76,563.9389,3.907952
1562.76,564.4371,3.905247
1565.76,564.9291,3.902402
1568.76,565.425,3.899612
1571.76,565.9256,3.896706
1574.76,566.4175,3.893828
1577.76,566.9156,3.890992
1580.76,567.4182,3.888035
1583.76,567.9117,3.885097
1586.76,568.406,3.882114
1589.76,568.9025,3.879165
1592.76,569.3985,3.876122
1595.76,569.8972,3.873015
1598.76,570.3954,3.869861
1601.76,570.8868,3.866682
1604.76,571.3853,3.863489
1607.76,571.8826,3.860361
1610.76,572.3746,3.8572
1613.76,572.8737,3.85386
1616.76,573.3676,3.850514
1619.76,573.8688,3.847264
1622.76,574.3605,3.843949
1625.76,574.8568,3.840465
1628.76,575.3564,3.836818
1631.76,575.8516,3.833339
1634.76,576.3489,3.829836
1637.76,576.8459,3.82616
1640.76,577.3432,3.822531
1643.76,577.837,3.818804
1646.76,578.33,3.815028
1649.76,578.8275,3.811061
1652.76,579.3266,3.80707
1655.76,579.819,3.803089
1658.76,580.318,3.79904
1661.76,580.8128,3.794876
1664.76,581.3074,3.790604
1667.76,581.8024,3.786264
1670.76,582.2968,3.78178
1673.76,582.7965,3.777189
1676.76,583.295,3.77247
1679.76,583.785,3.767748
1682.76,584.2824,3.762954
1685.76,584.7727,3.75794
1688.76,585.2716,3.752815
1691.76,585.7648,3.747539
1694.76,586.2631,3.74225
1697.76,586.7546,3.736713
1700.76,587.2529,3.730934
1703.76,587.749,3.72517
1706.76,588.2435,3.719281
1709.76,588.7425,3.713178
1712.76,589.2354,3.707019
1715.76,589.7334,3.700615
1718.76,590.2256,3.694022
1721.76,590.7224,3.687274
1724.76,591.2167,3.68037
1727.76,591.7127,3.673209
1730.76,592.2033,3.665878
1733.76,592.7016,3.65845
1736.76,593.1962,3.650748
1739.76,593.6914,3.642822
1742.76,594.1794,3.634766
1745.76,594.6748,3.626544
1748.76,595.1685,3.617932
1751.76,595.6661,3.609134
1754.76,596.1575,3.600094
1757.76,596.6548,3.590819
1760.76,597.1454,3.581264
1763.76,597.6365,3.571488
1766.76,598.1237,3.561488
1769.76,598.6211,3.551118
1772.76,599.1159,3.540502
1775.76,599.606,3.529603
1778.76,600.0992,3.518428
1781.76,600.5872,3.506892
1784.76,601.0856,3.495056
1787.76,601.5758,3.4829
1790.76,602.0667,3.470449
1793.76,602.5533,3.45769
1796.76,603.0425,3.444425
1799.76,603.5358,3.43084
1802.76,604.0274,3.416958
1805.76,604.52,3.402664
1808.76,605.0119,3.388024
1811.76,605.5035,3.372937
1814.76,605.9975,3.3574
1817.76,606.4854,3.341512
1820.76,606.9762,3.325244
1823.76,607.4665,3.308575
1826.76,607.952,3.291449
1829.76,608.4473,3.2738
1832.76,608.9388,3.255729
1835.76,609.4334,3.237205
1838.76,609.9241,3.218176
1841.76,610.4146,3.198728
1844.76,610.9042,3.178656
1847.76,611.3938,3.158205
1850.76,611.883,3.137297
1853.76,612.3672,3.115888
1856.76,612.8609,3.093991
1859.76,613.3512,3.071453
1862.76,613.843,3.04851
1865.76,614.3318,3.025054
1868.76,614.8202,3.001044
1871.76,615.3103,2.976532
1874.76,615.7989,2.951494
1877.76,616.2876,2.926056
1880.76,616.7726,2.899972
1883.76,617.2656,2.873354
1886.76,617.755,2.846339
1889.76,618.2428,2.818735
1892.76,618.7332,2.790731
1895.76,619.219,2.762194
1898.76,619.7037,2.733132
1901.76,620.1909,2.703554
1904.76,620.6789,2.673474
1907.76,621.1681,2.643012
1910.76,621.6598,2.61205
1913.76,622.1478,2.580612
1916.76,622.6356,2.548642
1919.76,623.1232,2.516233
1922.76,623.6081,2.483371
1925.76,624.0952,2.450075
1928.76,624.5878,2.416499
1931.76,625.0706,2.382402
1934.76,625.5554,2.347841
1937.76,626.0487,2.312935
1940.76,626.5412,2.277674
1943.76,627.03,2.242098
1946.76,627.5224,2.206231
1949.76,628.0119,2.170067
1952.76,628.5023,2.133717
1955.76,628.994,2.09708
1958.76,629.4804,2.060355
1961.76,629.9748,2.02339
1964.76,630.4706,1.986198
1967.76,630.9652,1.948977
1970.76,631.4553,1.911438
1973.76,631.9502,1.87353
1976.76,632.4418,1.835708
1979.76,632.9396,1.797978
1982.76,633.4328,1.760127
1985.76,633.9282,1.722539
1988.76,634.422,1.684859
1991.76,634.9176,1.646874
1994.76,635.416,1.609592
1997.76,635.9144,1.572834
2000.76,636.4046,1.535728
2003.76,636.9029,1.498771
2006.76,637.3965,1.461811
2009.76,637.8864,1.422573
2012.76,638.386,1.383968
2015.76,638.886,1.345704
2018.76,639.3839,1.30778
2021.76,639.8826,1.271087
2024.76,640.3797,1.235296
2027.76,640.8816,1.20081
2030.76,641.37,1.165501
2033.76,641.8705,1.127651
2036.76,642.364,1.090606
2039.76,642.8605,1.05344
2042.76,643.3614,1.017852
2045.76,643.8598,0.9822418
2048.76,644.3603,0.9466702
2051.76,644.8574,0.9105811
2054.76,645.3572,0.8760304
2057.76,645.8536,0.8410132
2060.76,646.3525,0.8068058
2063.76,646.8581,0.7736634
2066.76,647.3563,0.7410266
2069.76,647.8528,0.7064284
2072.76,648.3561,0.6727088
2075.76,648.852,0.6403884
2078.76,649.356,0.60851
2081.76,649.8508,0.5764786
2084.76,650.3574,0.5448896
2087.76,650.8631,0.5146976
2090.76,651.3608,0.4847838
2093.76,651.8638,0.4550696
2096.76,652.367,0.4256874
2099.76,652.87,0.3969956
2102.76,653.3684,0.3685942
2105.76,653.8725,0.3406172
2108.76,654.379,0.3132463
2111.76,654.8818,0.2865722
2114.76,655.3825,0.2605381
2117.76,655.8859,0.2351077
2120.76,656.3921,0.210312
2123.76,656.8942,0.1861692
2126.76,657.3982,0.1628107
2129.76,657.9028,0.1401185
2132.76,658.404,0.1181356
2135.76,658.9054,0.09676055
2138.76,659.4135,0.07600028
2141.76,659.9152,0.0558987
2144.76,660.4241,0.03634131
2147.76,660.9296,0.01740458
2150.76,661.4322,-0.00103
2153.76,661.9387,-0.01882429
2156.76,662.4424,-0.0360358
2159.76,662.9536,-0.05267364
2162.76,663.4552,-0.06869929
2165.76,663.9611,-0.08426512
2168.76,664.4641,-0.09924774
2171.76,664.9668,-0.1136777
2174.76,665.4746,-0.1275707
2177.76,665.974,-0.1409556
2180.76,666.4788,-0.1538677
2183.76,666.9843,-0.1663293
2186.76,667.4898,-0.1782978
2189.76,667.9882,-0.1896866
2192.76,668.4935,-0.200476
2195.76,668.9985,-0.2110969
2198.76,669.502,-0.2211369
2201.76,670.0032,-0.2307752
2204.76,670.512,-0.2400786
2207.76,671.0128,-0.248933
2210.76,671.5147,-0.2574747
2213.76,672.0133,-0.2655545
2216.76,672.5192,-0.2732994
2219.76,673.0195,-0.2808186
2222.76,673.525,-0.2879053
2225.76,674.021,-0.2946666
2228.76,674.5228,-0.301227
2231.76,675.0274,-0.3074467
2234.76,675.5272,-0.3132269
2237.76,676.0301,-0.318826
2240.76,676.5303,-0.3242946
2243.76,677.0303,-0.3294006
2246.76,677.5317,-0.334
2249.76,678.035,-0.339
2252.76,678.5348,-0.343
2255.76,679.0314,-0.348
2258.76,679.5378,-0.352
2261.76,680.038,-0.355
2264.76,680.5396,-0.359
2267.76,681.0402,-0.363
2270.76,681.5392,-0.366
2273.76,682.0384,-0.3688518
2276.76,682.539,-0.3718597
2279.76,683.036,-0.374648
2282.76,683.5352,-0.3772706
2285.76,684.032,-0.3798889
2288.76,684.5313,-0.3822994
2291.76,685.0272,-0.3845566
2294.76,685.5256,-0.386652
2297.76,686.0272,-0.3886416
2300.76,686.5252,-0.3905554
2303.76,687.0256,-0.3924119
2306.76,687.5219,-0.394184
2309.76,688.0206,-0.3958725
2312.76,688.5203,-0.3972888
2315.76,689.0172,-0.398768
2318.76,689.5152,-0.4002568
2321.76,690.0154,-0.4015394
2324.76,690.515,-0.4027709
2327.76,691.0107,-0.4039719
2330.76,691.5083,-0.4050969
2333.76,692.0053,-0.4061546
2336.76,692.4994,-0.4071417
2339.76,692.996,-0.4080475
2342.76,693.4918,-0.4088025
2345.76,693.991,-0.4095885
2348.76,694.4934,-0.4104218
2351.76,694.9894,-0.4111564
2354.76,695.4817,-0.4119102
2357.76,695.9804,-0.4125097
2360.76,696.471,-0.4131433
2363.76,696.9748,-0.4137535
2366.76,697.4683,-0.414355
2369.76,697.9648,-0.4147497
2372.76,698.4596,-0.4151735
2375.76,698.9574,-0.415618
2378.76,699.456,-0.4161136
2381.76,699.9542,-0.4165367
2384.76,700.4446,-0.4168774
2387.76,700.9394,-0.4172533
2390.76,701.4359,-0.4174746
2393.76,701.9329,-0.4177021
2396.76,702.4297,-0.4179656
2399.76,702.928,-0.418154
2402.76,703.4194,-0.4182582
2405.76,703.922,-0.4183718
2408.76,704.4156,-0.4185382
2411.76,704.9114,-0.4186431
2414.76,705.4096,-0.4187559
2417.76,705.9064,-0.4188713
2420.76,706.402,-0.4188855
2423.76,706.9015,-0.4189384
2426.76,707.3924,-0.4189727
2429.76,707.8929,-0.4190188
2432.76,708.386,-0.4191293
2435.76,708.885,-0.419084
2438.76,709.3806,-0.4190059
2441.76,709.8781,-0.4189762
2444.76,710.3738,-0.4190145
2447.76,710.8656,-0.4189714
2450.76,711.368,-0.4189291
2453.76,711.8646,-0.4190268
2456.76,712.3586,-0.419032
2459.76,712.8517,-0.4190105
2462.76,713.3447,-0.419084
2465.76,713.8381,-0.4190256
2468.76,714.3372,-0.4189628
2471.76,714.8344,-0.4189534
2474.76,715.3322,-0.4189394
2477.76,715.8283,-0.4189462
2480.76,716.3189,-0.4189371
2483.76,716.8135,-0.4189535
2486.76,717.3078,-0.4189166
2489.76,717.8032,-0.4188836
2492.76,718.3014,-0.4189335
2495.76,718.7946,-0.4188564
2498.76,719.2946,-0.4188378
2501.76,719.7881,-0.4188
2504.76,720.2821,-0.4187728
2507.76,720.7761,-0.4187894
2510.76,721.2721,-0.418799
2513.76,721.7672,-0.4188036
2516.76,722.2618,-0.4187441
2519.76,722.76,-0.4186731
2522.76,723.2562,-0.4187374
2525.76,723.7488,-0.4187679
2528.76,724.2476,-0.4187095
2531.76,724.7398,-0.4186848
2534.76,725.2368,-0.4186994
2537.76,725.7292,-0.4186842
2540.76,726.2301,-0.418582
2543.76,726.7184,-0.4185785
2546.76,727.2154,-0.418591
2549.76,727.7159,-0.4185567
2552.76,728.2075,-0.4185715
2555.76,728.6988,-0.4185942
2558.76,729.1952,-0.4185996
2561.76,729.689,-0.4185541
2564.76,730.1874,-0.4184929
2567.76,730.6835,-0.4184959
2570.76,731.1805,-0.4184647
2573.76,731.679,-0.4184104
2576.76,732.1696,-0.4184309
2579.76,732.6656,-0.4184389
2582.76,733.161,-0.4184006
2585.76,733.6584,-0.418397
2588.76,734.1509,-0.4183847
2591.76,734.643,-0.4184378
2594.76,735.142,-0.4184013
2597.76,735.635,-0.4182998
2600.76,736.1266,-0.4182505
2603.76,736.6216,-0.4182826
2606.76,737.1208,-0.4182753
2609.76,737.614,-0.4182543
2612.76,738.1068,-0.4182172
2615.76,738.6054,-0.4182019
2618.76,739.099,-0.4181704
2621.76,739.5906,-0.4181194
2624.76,740.0881,-0.4181362
2627.76,740.5872,-0.4180847
2630.76,741.0806,-0.417995
2633.76,741.5784,-0.417955
2636.76,742.0683,-0.417984
2639.76,742.5633,-0.4179195
2642.76,743.0589,-0.4179292
2645.76,743.5556,-0.4179322
2648.76,744.049,-0.4179747
2651.76,744.5454,-0.4178635
2654.76,745.0428,-0.4177944
2657.76,745.5373,-0.4177478
2660.76,746.0312,-0.4177678
2663.76,746.5308,-0.4176898
2666.76,747.026,-0.4177353
2669.76,747.5188,-0.4177115
2672.76,748.0134,-0.4176548
2675.76,748.5072,-0.4176498
2678.76,749.0016,-0.4176828
2681.76,749.4998,-0.4176363
2684.76,749.9906,-0.4176988
2687.76,750.4881,-0.4176444
2690.76,750.9818,-0.4175211
2693.76,751.4793,-0.4175488
2696.76,751.9775,-0.4175924
2699.76,752.4728,-0.4175266
2702.76,752.9676,-0.4174756
2705.76,753.4604,-0.417516
2708.76,753.9559,-0.4175362
2711.76,754.4489,-0.4174869
2714.76,754.947,-0.4174551
2717.76,755.4348,-0.4174484
2720.76,755.9358,-0.4173622
2723.76,756.4299,-0.417259
2726.76,756.9246,-0.4172425
2729.76,757.4219,-0.4172549
2732.76,757.9124,-0.4172672
2735.76,758.4088,-0.4172731
2738.76,758.9006,-0.4172587
2741.76,759.4018,-0.4172198
2744.76,759.8946,-0.4172252
2747.76,760.3918,-0.4172904
2750.76,760.8861,-0.4172441
2753.76,761.3803,-0.4171162
2756.76,761.8754,-0.4171263
2759.76,762.368,-0.4172055
2762.76,762.8642,-0.4170976
2765.76,763.3586,-0.4170732
2768.76,763.8607,-0.4170582
2771.76,764.3521,-0.4170394
2774.76,764.8502,-0.4169694
2777.76,765.3481,-0.4169639
2780.76,765.8418,-0.416907
2783.76,766.3383,-0.4168067
2786.76,766.8294,-0.4168637
2789.76,767.3267,-0.4168992
2792.76,767.8253,-0.416875
2795.76,768.3194,-0.4167744
2798.76,768.8149,-0.416782
2801.76,769.3094,-0.4167342
2804.76,769.806,-0.4167839
2807.76,770.303,-0.416743
2810.76,770.7914,-0.416735
2813.76,771.287,-0.4166226
2816.76,771.7832,-0.416641
2819.76,772.281,-0.4166632
2822.76,772.7719,-0.4166003
2825.76,773.2688,-0.4166995
2828.76,773.762,-0.4166422
2831.76,774.2594,-0.4165191
2834.76,774.7516,-0.4164653
2837.76,775.2467,-0.4164302
2840.76,775.7447,-0.416405
2843.76,776.2424,-0.4164131
2846.76,776.7348,-0.4164442
2849.76,777.228,-0.4165053
2852.76,777.7236,-0.4165912
2855.76,778.216,-0.4164588
2858.76,778.7116,-0.416443
2861.76,779.207,-0.4164414
2864.76,779.7031,-0.416455
2867.76,780.1965,-0.4163953
2870.76,780.6877,-0.4163717
2873.76,781.1877,-0.4163838
2876.76,781.6809,-0.416448
2879.76,782.1744,-0.4163159
2882.76,782.6731,-0.4162989
2885.76,783.17,-0.4163431
2888.76,783.6632,-0.4163262
2891.76,784.1602,-0.4162998
2894.76,784.6533,-0.4162626
2897.76,785.1509,-0.4162594
2900.76,785.647,-0.4163465
2903.76,786.1382,-0.4163363
2906.76,786.6376,-0.4163041
2909.76,787.1332,-0.4162352
2912.76,787.6322,-0.4162447
2915.76,788.125,-0.4162788
2918.76,788.6217,-0.4162744
2921.76,789.1182,-0.4162115
2924.76,789.615,-0.4161822
2927.76,790.111,-0.416173
2930.76,790.6052,-0.4162033
2933.76,791.104,-0.4161667
2936.76,791.5992,-0.4161884
2939.76,792.0899,-0.4161037
2942.76,792.5898,-0.416101
2945.76,793.0837,-0.4160785
2948.76,793.5752,-0.4160732
2951.76,794.0712,-0.4160277
2954.76,794.5656,-0.416115
2957.76,795.0608,-0.4161104
2960.76,795.5586,-0.4160438
2963.76,796.0508,-0.4160536
2966.76,796.5474,-0.4160064
2969.76,797.0411,-0.4160275
2972.76,797.5366,-0.4159936
2975.76,798.034,-0.4157637
2978.76,798.5236,-0.4156428
2981.76,799.023,-0.415676
2984.76,799.515,-0.4156781
2987.76,800.0118,-0.4157384
2990.76,800.5044,-0.4156896
2993.76,801.0023,-0.4155496
2996.76,801.4961,-0.4155368
2999.76,801.9956,-0.4156063
3002.76,802.4899,-0.4156787
3005.76,802.9809,-0.415561
3008.76,803.4756,-0.4155248
3011.76,803.9716,-0.4154716