File: Non-charring/PMMA/HKPoly/HKPoly_DSC_N2_10K_2.csv
Time,Temperature,Heat Flow
[s],[k],[W/g]
0.15,300.048,2.91094
2.76,300.716,3.29457
5.76,301.383,3.61471
8.76,302.051,3.72786
11.76,302.715,3.7253
14.76,303.3721,3.72046
17.76,304.0229,3.71042
20.76,304.673,3.69396
23.76,305.319,3.67382
26.76,305.943,3.64967
29.76,306.561,3.62228
32.76,307.1858,3.59228
35.76,307.793,3.55594
38.76,308.396,3.51274
41.76,308.987,3.46647
44.76,309.581,3.41504
47.76,310.154,3.35934
50.76,310.72,3.30316
53.76,311.28,3.24184
56.76,311.838,3.17528
59.76,312.392,3.10417
62.76,312.929,3.03081
65.76,313.463,2.95628
68.76,313.993,2.87706
71.76,314.5129,2.79524
74.76,315.022,2.71204
77.76,315.536,2.62804
80.76,316.041,2.54328
83.76,316.546,2.45367
86.76,317.041,2.36341
89.76,317.534,2.27359
92.76,318.025,2.18262
95.76,318.508,2.09013
98.76,318.99,1.99914
101.76,319.47,1.90845
104.76,319.951,1.81711
107.76,320.425,1.72508
110.76,320.9095,1.63377
113.76,321.376,1.54506
116.76,321.851,1.45927
119.76,322.325,1.37268
122.76,322.793,1.28661
125.76,323.272,1.20143
128.76,323.753,1.11859
131.76,324.23,1.03692
134.76,324.711,0.956205
137.76,325.191,0.878295
140.76,325.6605,0.803258
143.76,326.147,0.729136
146.76,326.632,0.656235
149.76,327.1207,0.586138
152.76,327.61,0.518229
155.76,328.1031,0.452277
158.76,328.591,0.388059
161.76,329.084,0.326317
164.76,329.574,0.26827
167.76,330.08,0.209743
170.76,330.5747,0.1531
173.76,331.074,0.0985637
176.76,331.5863,0.0463244
179.76,332.087,-0.002809547
182.76,332.594,-0.0499216
185.76,333.109,-0.0965291
188.76,333.6265,-0.14246
191.76,334.137,-0.186145
194.76,334.661,-0.227576
197.76,335.1778,-0.26717
200.76,335.692,-0.306859
203.76,336.217,-0.344046
206.76,336.735,-0.38033
209.76,337.265,-0.416603
212.76,337.786,-0.450953
215.76,338.311,-0.482521
218.76,338.833,-0.514236
221.76,339.357,-0.545599
224.76,339.8831,-0.574743
227.76,340.41,-0.603501
230.76,340.9394,-0.631192
233.76,341.466,-0.659165
236.76,341.999,-0.686146
239.76,342.517,-0.711924
242.76,343.045,-0.738364
245.76,343.571,-0.763625
248.76,344.094,-0.788186
251.76,344.618,-0.811588
254.76,345.154,-0.834932
257.76,345.6789,-0.857878
260.76,346.197,-0.879687
263.76,346.715,-0.900668
266.76,347.248,-0.921823
269.76,347.768,-0.944017
272.76,348.283,-0.964755
275.76,348.806,-0.984707
278.76,349.329,-1.00458
281.76,349.848,-1.0245
284.76,350.3639,-1.04428
287.76,350.887,-1.06311
290.76,351.404,-1.08159
293.76,351.918,-1.10023
296.76,352.438,-1.11673
299.76,352.95,-1.13389
302.76,353.462,-1.15081
305.76,353.978,-1.16704
308.76,354.483,-1.18295
311.76,355.0005,-1.19926
314.76,355.511,-1.21504
317.76,356.019,-1.22973
320.76,356.5261,-1.24461
323.76,357.034,-1.25881
326.76,357.54,-1.27175
329.76,358.049,-1.28489
332.76,358.56,-1.29839
335.76,359.067,-1.31206
338.76,359.574,-1.32462
341.76,360.08,-1.3364
344.76,360.591,-1.34853
347.76,361.1032,-1.35974
350.76,361.601,-1.3712
353.76,362.108,-1.38101
356.76,362.613,-1.39118
359.76,363.114,-1.40079
362.76,363.627,-1.41
365.76,364.128,-1.4187
368.76,364.626,-1.42672
371.76,365.135,-1.43514
374.76,365.639,-1.44324
377.76,366.148,-1.44996
380.76,366.653,-1.4565
383.76,367.161,-1.46319
386.76,367.664,-1.46904
389.76,368.169,-1.47488
392.76,368.675,-1.47995
395.76,369.187,-1.48462
398.76,369.685,-1.48949
401.76,370.195,-1.49319
404.76,370.709,-1.49706
407.76,371.212,-1.50052
410.76,371.723,-1.50309
413.76,372.23,-1.50598
416.76,372.733,-1.50868
419.76,373.2419,-1.51042
422.76,373.7544,-1.51209
425.76,374.2591,-1.51396
428.76,374.769,-1.51488
431.76,375.2787,-1.51579
434.76,375.7835,-1.51745
437.76,376.3002,-1.5171
440.76,376.8034,-1.51678
443.76,377.3172,-1.51681
446.76,377.8319,-1.51583
449.76,378.3455,-1.51508
452.76,378.8546,-1.51467
455.76,379.36,-1.51441
458.76,379.8657,-1.51397
461.76,380.3809,-1.51287
464.76,380.8907,-1.51181
467.76,381.3964,-1.51125
470.76,381.9127,-1.50993
473.76,382.4199,-1.50867
476.76,382.9264,-1.50669
479.76,383.4395,-1.50544
482.76,383.9473,-1.50373
485.76,384.4586,-1.50127
488.76,384.9686,-1.49959
491.76,385.4815,-1.49851
494.76,385.9888,-1.49726
497.76,386.4911,-1.49552
500.76,387.0061,-1.49323
503.76,387.519,-1.49156
506.76,388.0302,-1.48988
509.76,388.5318,-1.4885
512.76,389.0398,-1.48732
515.76,389.5415,-1.48559
518.76,390.0535,-1.48353
521.76,390.5568,-1.48138
524.76,391.0704,-1.47956
527.76,391.5727,-1.47805
530.76,392.0818,-1.47647
533.76,392.5866,-1.47439
536.76,393.0919,-1.47254
539.76,393.6015,-1.47133
542.76,394.1052,-1.46991
545.76,394.6164,-1.46794
548.76,395.1192,-1.46617
551.76,395.628,-1.46423
554.76,396.1346,-1.46236
557.76,396.6466,-1.46101
560.76,397.1544,-1.45928
563.76,397.6613,-1.45715
566.76,398.1717,-1.4545
569.76,398.6751,-1.45191
572.76,399.1837,-1.44996
575.76,399.685,-1.44824
578.76,400.1941,-1.44556
581.76,400.6964,-1.44289
584.76,401.2018,-1.43978
587.76,401.702,-1.43664
590.76,402.2058,-1.43393
593.76,402.7143,-1.4309
596.76,403.2122,-1.4281
599.76,403.7146,-1.42527
602.76,404.2262,-1.42222
605.76,404.7306,-1.41878
608.76,405.2345,-1.4158
611.76,405.7418,-1.41288
614.76,406.246,-1.40959
617.76,406.7451,-1.4062
620.76,407.2526,-1.40269
623.76,407.7503,-1.39927
626.76,408.2619,-1.39555
629.76,408.768,-1.39188
632.76,409.2734,-1.38824
635.76,409.7791,-1.38482
638.76,410.2814,-1.38146
641.76,410.787,-1.37749
644.76,411.2953,-1.37369
647.76,411.7978,-1.37058
650.76,412.304,-1.36684
653.76,412.8134,-1.36307
656.76,413.3149,-1.3596
659.76,413.8241,-1.35611
662.76,414.3297,-1.35245
665.76,414.831,-1.34885
668.76,415.3344,-1.34523
671.76,415.837,-1.3418
674.76,416.3446,-1.33815
677.76,416.8468,-1.33464
680.76,417.3546,-1.33091
683.76,417.8552,-1.32684
686.76,418.3683,-1.32324
689.76,418.8618,-1.31971
692.76,419.3748,-1.31579
695.76,419.8726,-1.31242
698.76,420.3812,-1.30914
701.76,420.8858,-1.30553
704.76,421.3884,-1.3017
707.76,421.8894,-1.29786
710.76,422.3945,-1.29392
713.76,422.8988,-1.29068
716.76,423.4036,-1.28757
719.76,423.908,-1.28388
722.76,424.4162,-1.28021
725.76,424.9182,-1.27645
728.76,425.4275,-1.27243
731.76,425.9244,-1.26872
734.76,426.4331,-1.26552
737.76,426.9451,-1.26213
740.76,427.4457,-1.25873
743.76,427.9482,-1.25571
746.76,428.4518,-1.25242
749.76,428.9537,-1.24933
752.76,429.4546,-1.24651
755.76,429.9579,-1.24368
758.76,430.4675,-1.2402
761.76,430.9724,-1.23686
764.76,431.4729,-1.23383
767.76,431.9728,-1.23137
770.76,432.4759,-1.22849
773.76,432.9839,-1.22585
776.76,433.4886,-1.22295
779.76,433.9863,-1.22004
782.76,434.4919,-1.2176
785.76,434.9911,-1.21462
788.76,435.5,-1.21131
791.76,436.0006,-1.20891
794.76,436.5013,-1.20619
797.76,437.0016,-1.20354
800.76,437.5042,-1.20087
803.76,438.0063,-1.19808
806.76,438.5087,-1.19543
809.76,439.0122,-1.19277
812.76,439.5089,-1.19002
815.76,440.0234,-1.18758
818.76,440.5215,-1.18509
821.76,441.0194,-1.18293
824.76,441.5217,-1.18093
827.76,442.0264,-1.1787
830.76,442.5299,-1.17621
833.76,443.0278,-1.17411
836.76,443.5322,-1.17184
839.76,444.0322,-1.16968
842.76,444.5404,-1.1676
845.76,445.0392,-1.16549
848.76,445.5382,-1.16281
851.76,446.0492,-1.16102
854.76,446.551,-1.15884
857.76,447.0469,-1.1562
860.76,447.5541,-1.15413
863.76,448.0506,-1.15175
866.76,448.5551,-1.14923
869.76,449.0573,-1.14716
872.76,449.555,-1.14473
875.76,450.061,-1.14205
878.76,450.5676,-1.13901
881.76,451.0724,-1.13527
884.76,451.5746,-1.13227
887.76,452.0749,-1.12948
890.76,452.5753,-1.12671
893.76,453.0725,-1.12435
896.76,453.5762,-1.1219
899.76,454.0808,-1.11924
902.76,454.5793,-1.11621
905.76,455.0794,-1.11161
908.76,455.5809,-1.10702
911.76,456.0829,-1.103
914.76,456.5875,-1.09834
917.76,457.0906,-1.09338
920.76,457.5928,-1.08893
923.76,458.0938,-1.08449
926.76,458.5981,-1.08032
929.76,459.0984,-1.07605
932.76,459.5966,-1.07195
935.76,460.0955,-1.06802
938.76,460.6007,-1.0638
941.76,461.0999,-1.0594
944.76,461.6041,-1.05527
947.76,462.1064,-1.05121
950.76,462.6094,-1.0473
953.76,463.11,-1.04316
956.76,463.6147,-1.03819
959.76,464.1198,-1.03276
962.76,464.6175,-1.02755
965.76,465.1255,-1.02292
968.76,465.6261,-1.01854
971.76,466.1262,-1.01346
974.76,466.6301,-1.00777
977.76,467.1258,-1.00266
980.76,467.6287,-0.99827
983.76,468.1285,-0.994044
986.76,468.634,-0.989412
989.76,469.1312,-0.984254
992.76,469.6289,-0.979533
995.76,470.1343,-0.974919
998.76,470.6375,-0.969565
1001.76,471.1341,-0.96437
1004.76,471.6358,-0.959496
1007.76,472.1373,-0.954311
1010.76,472.6351,-0.948823
1013.76,473.1396,-0.944238
1016.76,473.6378,-0.939758
1019.76,474.1336,-0.9351
1022.76,474.6385,-0.930352
1025.76,475.1354,-0.92486
1028.76,475.6412,-0.919514
1031.76,476.141,-0.913997
1034.76,476.6411,-0.908349
1037.76,477.1385,-0.903255
1040.76,477.6387,-0.898669
1043.76,478.1408,-0.893803
1046.76,478.6414,-0.888897
1049.76,479.1438,-0.883358
1052.76,479.6465,-0.877831
1055.76,480.1446,-0.872404
1058.76,480.6523,-0.866668
1061.76,481.1526,-0.860804
1064.76,481.6468,-0.855048
1067.76,482.1544,-0.84932
1070.76,482.6553,-0.843461
1073.76,483.1556,-0.838079
1076.76,483.6574,-0.832677
1079.76,484.1592,-0.827087
1082.76,484.6666,-0.820358
1085.76,485.169,-0.813729
1088.76,485.6728,-0.807185
1091.76,486.1703,-0.800836
1094.76,486.673,-0.794341
1097.76,487.1756,-0.787645
1100.76,487.6771,-0.78142
1103.76,488.1778,-0.774499
1106.76,488.6776,-0.767632
1109.76,489.1776,-0.760346
1112.76,489.6776,-0.752917
1115.76,490.1831,-0.746091
1118.76,490.6828,-0.73931
1121.76,491.1794,-0.732
1124.76,491.677,-0.72396
1127.76,492.1762,-0.716576
1130.76,492.6786,-0.708143
1133.76,493.1783,-0.700002
1136.76,493.685,-0.692073
1139.76,494.1814,-0.68438
1142.76,494.6816,-0.67614
1145.76,495.1852,-0.667681
1148.76,495.6888,-0.659828
1151.76,496.1849,-0.652553
1154.76,496.6822,-0.644026
1157.76,497.1825,-0.634958
1160.76,497.6827,-0.6263481
1163.76,498.1889,-0.6184
1166.76,498.6891,-0.610952
1169.76,499.1951,-0.603275
1172.76,499.6913,-0.595353
1175.76,500.1898,-0.588012
1178.76,500.6952,-0.581144
1181.76,501.1933,-0.573037
1184.76,501.696,-0.565231
1187.76,502.1961,-0.557654
1190.76,502.694,-0.549911
1193.76,503.1958,-0.541718
1196.76,503.7008,-0.533609
1199.76,504.1938,-0.524906
1202.76,504.6944,-0.517479
1205.76,505.1934,-0.51011
1208.76,505.7017,-0.502695
1211.76,506.1943,-0.495431
1214.76,506.6933,-0.487743
1217.76,507.1912,-0.479845
1220.76,507.6896,-0.473164
1223.76,508.187,-0.466988
1226.76,508.6902,-0.460202
1229.76,509.1922,-0.45251
1232.76,509.6904,-0.444606
1235.76,510.1879,-0.436086
1238.76,510.6868,-0.428498
1241.76,511.1813,-0.421259
1244.76,511.6815,-0.414163
1247.76,512.1803,-0.406316
1250.76,512.6828,-0.399019
1253.76,513.1798,-0.392701
1256.76,513.6765,-0.385874
1259.76,514.171,-0.378247
1262.76,514.6742,-0.370895
1265.76,515.1758,-0.363735
1268.76,515.6738,-0.357333
1271.76,516.1698,-0.350543
1274.76,516.6699,-0.343464
1277.76,517.1698,-0.336666
1280.76,517.6664,-0.329235
1283.76,518.1619,-0.322681
1286.76,518.656,-0.315796
1289.76,519.1558,-0.308068
1292.76,519.6575,-0.300437
1295.76,520.1523,-0.293778
1298.76,520.6497,-0.288001
1301.76,521.1491,-0.282138
1304.76,521.649,-0.274531
1307.76,522.1462,-0.26659
1310.76,522.6445,-0.259794
1313.76,523.1518,-0.252297
1316.76,523.6504,-0.243894
1319.76,524.1455,-0.236802
1322.76,524.6419,-0.230143
1325.76,525.1502,-0.223956
1328.76,525.6406,-0.216845
1331.76,526.138,-0.21057
1334.76,526.6358,-0.204904
1337.76,527.1382,-0.197727
1340.76,527.6335,-0.190527
1343.76,528.133,-0.184472
1346.76,528.6324,-0.178533
1349.76,529.1272,-0.172399
1352.76,529.6223,-0.166468
1355.76,530.1255,-0.158899
1358.76,530.6258,-0.150036
1361.76,531.1192,-0.143229
1364.76,531.6174,-0.137204
1367.76,532.1183,-0.131027
1370.76,532.6197,-0.124669
1373.76,533.1164,-0.117687
1376.76,533.6105,-0.112314
1379.76,534.111,-0.107733
1382.76,534.607,-0.102221
1385.76,535.11,-0.0960608
1388.76,535.6044,-0.0894162
1391.76,536.1015,-0.0828801
1394.76,536.6017,-0.0769729
1397.76,537.0965,-0.07041825
1400.76,537.5992,-0.0637368
1403.76,538.097,-0.05636636
1406.76,538.5924,-0.0503466
1409.76,539.0901,-0.04459526
1412.76,539.589,-0.0383556
1415.76,540.0849,-0.0322756
1418.76,540.5828,-0.0267995
1421.76,541.083,-0.0204219
1424.76,541.5772,-0.0149032
1427.76,542.0763,-0.009738281
1430.76,542.5726,-0.00331356
1433.76,543.0648,0.002983344
1436.76,543.5633,0.009575067
1439.76,544.0646,0.0162657
1442.76,544.5594,0.0226788
1445.76,545.0562,0.028903
1448.76,545.5582,0.0337523
1451.76,546.0513,0.0390537
1454.76,546.5488,0.0448174
1457.76,547.0466,0.0511528
1460.76,547.547,0.05748797
1463.76,548.0402,0.0629561
1466.76,548.5416,0.06746
1469.76,549.0379,0.0734681
1472.76,549.5331,0.0788437
1475.76,550.0336,0.0835337
1478.76,550.5282,0.08825444
1481.76,551.0235,0.0928238
1484.76,551.5205,0.0973094
1487.76,552.018,0.102091
1490.76,552.5133,0.107445
1493.76,553.0133,0.112151
1496.76,553.5108,0.117597
1499.76,554.0078,0.123532
1502.76,554.508,0.129629
1505.76,555.007,0.135491
1508.76,555.5016,0.139612
1511.76,555.996,0.143475
1514.76,556.4946,0.14706
1517.76,556.9949,0.151694
1520.76,557.4891,0.156328
1523.76,557.9832,0.159457
1526.76,558.4773,0.164228
1529.76,558.9747,0.171389
1532.76,559.4694,0.178608
1535.76,559.9712,0.18372
1538.76,560.4655,0.188014
1541.76,560.9607,0.191685
1544.76,561.4542,0.195718
1547.76,561.953,0.20024
1550.76,562.4497,0.203946
1553.76,562.9448,0.206714
1556.76,563.4437,0.210271
1559.76,563.9389,0.214783
1562.76,564.4371,0.220129
1565.76,564.9291,0.225106
1568.76,565.425,0.228946
1571.76,565.9256,0.234607
1574.76,566.4175,0.239878
1577.76,566.9156,0.243788
1580.76,567.4182,0.248325
1583.76,567.9117,0.253042
1586.76,568.406,0.257758
1589.76,568.9025,0.262489
1592.76,569.3985,0.266726
1595.76,569.8972,0.270681
1598.76,570.3954,0.274123
1601.76,570.8868,0.279103
1604.76,571.3853,0.284389
1607.76,571.8826,0.290034
1610.76,572.3746,0.295665
1613.76,572.8737,0.301604
1616.76,573.3676,0.307146
1619.76,573.8688,0.311486
1622.76,574.3605,0.315129
1625.76,574.8568,0.320166
1628.76,575.3564,0.32507
1631.76,575.8516,0.330596
1634.76,576.3489,0.335327
1637.76,576.8459,0.340179
1640.76,577.3432,0.345031
1643.76,577.837,0.349464
1646.76,578.33,0.353307
1649.76,578.8275,0.356679
1652.76,579.3266,0.359504
1655.76,579.819,0.360969
1658.76,580.318,0.362757
1661.76,580.8128,0.366505
1664.76,581.3074,0.369567
1667.76,581.8024,0.371988
1670.76,582.2968,0.376349
1673.76,582.7965,0.378809
1676.76,583.295,0.380427
1679.76,583.785,0.382071
1682.76,584.2824,0.383511
1685.76,584.7727,0.384093
1688.76,585.2716,0.386675
1691.76,585.7648,0.389082
1694.76,586.2631,0.390268
1697.76,586.7546,0.390577
1700.76,587.2529,0.390299
1703.76,587.749,0.390478
1706.76,588.2435,0.390305
1709.76,588.7425,0.390654
1712.76,589.2354,0.391327
1715.76,589.7334,0.391159
1718.76,590.2256,0.390597
1721.76,590.7224,0.389438
1724.76,591.2167,0.386804
1727.76,591.7127,0.384981
1730.76,592.2033,0.382949
1733.76,592.7016,0.380349
1736.76,593.1962,0.376364
1739.76,593.6914,0.371745
1742.76,594.1794,0.367768
1745.76,594.6748,0.363681
1748.76,595.1685,0.359819
1751.76,595.6661,0.355525
1754.76,596.1575,0.350703
1757.76,596.6548,0.346063
1760.76,597.1454,0.340552
1763.76,597.6365,0.335545
1766.76,598.1237,0.330107
1769.76,598.6211,0.322982
1772.76,599.1159,0.315025
1775.76,599.606,0.307814
1778.76,600.0992,0.301452
1781.76,600.5872,0.293065
1784.76,601.0856,0.282055
1787.76,601.5758,0.273316
1790.76,602.0667,0.26593
1793.76,602.5533,0.256881
1796.76,603.0425,0.246434
1799.76,603.5358,0.234174
1802.76,604.0274,0.222236
1805.76,604.52,0.211907
1808.76,605.0119,0.200397
1811.76,605.5035,0.186938
1814.76,605.9975,0.172751
1817.76,606.4854,0.159303
1820.76,606.9762,0.146712
1823.76,607.4665,0.133446
1826.76,607.952,0.119388
1829.76,608.4473,0.104487
1832.76,608.9388,0.0891549
1835.76,609.4334,0.0731939
1838.76,609.9241,0.0568256
1841.76,610.4146,0.0395059
1844.76,610.9042,0.0213847
1847.76,611.3938,0.003437531
1850.76,611.883,-0.0152189
1853.76,612.3672,-0.0351987
1856.76,612.8609,-0.0571588
1859.76,613.3512,-0.078127
1862.76,613.843,-0.0980132
1865.76,614.3318,-0.118576
1868.76,614.8202,-0.140728
1871.76,615.3103,-0.164118
1874.76,615.7989,-0.186722
1877.76,616.2876,-0.21024
1880.76,616.7726,-0.234343
1883.76,617.2656,-0.25772
1886.76,617.755,-0.281627
1889.76,618.2428,-0.306347
1892.76,618.7332,-0.332463
1895.76,619.219,-0.358808
1898.76,619.7037,-0.384093
1901.76,620.1909,-0.409773
1904.76,620.6789,-0.43437
1907.76,621.1681,-0.460777
1910.76,621.6598,-0.487391
1913.76,622.1478,-0.512172
1916.76,622.6356,-0.536737
1919.76,623.1232,-0.561538
1922.76,623.6081,-0.586857
1925.76,624.0952,-0.61198
1928.76,624.5878,-0.635963
1931.76,625.0706,-0.659659
1934.76,625.5554,-0.684821
1937.76,626.0487,-0.7095422
1940.76,626.5412,-0.730637
1943.76,627.03,-0.751593
1946.76,627.5224,-0.772797
1949.76,628.0119,-0.791901
1952.76,628.5023,-0.809491
1955.76,628.994,-0.82574
1958.76,629.4804,-0.84296
1961.76,629.9748,-0.858644
1964.76,630.4706,-0.869464
1967.76,630.9652,-0.876346
1970.76,631.4553,-0.885021
1973.76,631.9502,-0.895612
1976.76,632.4418,-0.90405
1979.76,632.9396,-0.908016
1982.76,633.4328,-0.909851
1985.76,633.9282,-0.910875
1988.76,634.422,-0.909989
1991.76,634.9176,-0.906336
1994.76,635.416,-0.902084
1997.76,635.9144,-0.896852
2000.76,636.4046,-0.891492
2003.76,636.9029,-0.883776
2006.76,637.3965,-0.87354
2009.76,637.8864,-0.882273
2012.76,638.386,-0.890355
2015.76,638.886,-0.883724
2018.76,639.3839,-0.876137
2021.76,639.8826,-0.862192
2024.76,640.3797,-0.847171
2027.76,640.8816,-0.825746
2030.76,641.37,-0.815792
2033.76,641.8705,-0.817325
2036.76,642.364,-0.803579
2039.76,642.8605,-0.793195
2042.76,643.3614,-0.780981
2045.76,643.8598,-0.766774
2048.76,644.3603,-0.748752
2051.76,644.8574,-0.730401
2054.76,645.3572,-0.710576
2057.76,645.8536,-0.692291
2060.76,646.3525,-0.67001
2063.76,646.8581,-0.643913
2066.76,647.3563,-0.621432
2069.76,647.8528,-0.602023
2072.76,648.3561,-0.578322
2075.76,648.852,-0.552161
2078.76,649.356,-0.524532
2081.76,649.8508,-0.496538
2084.76,650.3574,-0.469276
2087.76,650.8631,-0.438693
2090.76,651.3608,-0.404282
2093.76,651.8638,-0.371359
2096.76,652.367,-0.341627
2099.76,652.87,-0.308413
2102.76,653.3684,-0.275711
2105.76,653.8725,-0.239991
2108.76,654.379,-0.200309
2111.76,654.8818,-0.161374
2114.76,655.3825,-0.120921
2117.76,655.8859,-0.0800419
2120.76,656.3921,-0.0394231
2123.76,656.8942,0.002271123
2126.76,657.3982,0.0456703
2129.76,657.9028,0.0902969
2132.76,658.404,0.135803
2135.76,658.9054,0.182887
2138.76,659.4135,0.230227
2141.76,659.9152,0.27714
2144.76,660.4241,0.325041
2147.76,660.9296,0.372536
2150.76,661.4322,0.419845
2153.76,661.9387,0.468878
2156.76,662.4424,0.517073
2159.76,662.9536,0.565434
2162.76,663.4552,0.613522
2165.76,663.9611,0.660797
2168.76,664.4641,0.70809
2171.76,664.9668,0.755294
2174.76,665.4746,0.801637
2177.76,665.974,0.847454
2180.76,666.4788,0.89385
2183.76,666.9843,0.940106
2186.76,667.4898,0.985578
2189.76,667.9882,1.03112
2192.76,668.4935,1.07531
2195.76,668.9985,1.1188
2198.76,669.502,1.16297
2201.76,670.0032,1.20613
2204.76,670.512,1.25011
2207.76,671.0128,1.29366
2210.76,671.5147,1.33511
2213.76,672.0133,1.37522
2216.76,672.5192,1.41587
2219.76,673.0195,1.45699
2222.76,673.525,1.49561
2225.76,674.021,1.53292
2228.76,674.5228,1.57063
2231.76,675.0274,1.60752
2234.76,675.5272,1.64501
2237.76,676.0301,1.68034
2240.76,676.5303,1.71539
2243.76,677.0303,1.74847
2246.76,677.5317,1.78018
2249.76,678.035,1.81268
2252.76,678.5348,1.84492
2255.76,679.0314,1.87525
2258.76,679.5378,1.90541
2261.76,680.038,1.93469
2264.76,680.5396,1.96371
2267.76,681.0402,1.99122
2270.76,681.5392,2.01804
2273.76,682.0384,2.04565
2276.76,682.539,2.07197
2279.76,683.036,2.09752
2282.76,683.5352,2.1219
2285.76,684.032,2.1451
2288.76,684.5313,2.16716
2291.76,685.0272,2.18904
2294.76,685.5256,2.21032
2297.76,686.0272,2.23362
2300.76,686.5252,2.2568
2303.76,687.0256,2.27822
2306.76,687.5219,2.30105
2309.76,688.0206,2.32324
2312.76,688.5203,2.3428
2315.76,689.0172,2.36092
2318.76,689.5152,2.37849
2321.76,690.0154,2.39667
2324.76,690.515,2.41508
2327.76,691.0107,2.43262
2330.76,691.5083,2.44917
2333.76,692.0053,2.46692
2336.76,692.4994,2.48414
2339.76,692.996,2.49983
2342.76,693.4918,2.51593
2345.76,693.991,2.53059
2348.76,694.4934,2.54592
2351.76,694.9894,2.56106
2354.76,695.4817,2.57574
2357.76,695.9804,2.59066
2360.76,696.471,2.60491
2363.76,696.9748,2.61882
2366.76,697.4683,2.63277
2369.76,697.9648,2.64651
2372.76,698.4596,2.66014
2375.76,698.9574,2.67354
2378.76,699.456,2.68769
2381.76,699.9542,2.70129
2384.76,700.4446,2.7144
2387.76,700.9394,2.72679
2390.76,701.4359,2.73777
2393.76,701.9329,2.7493
2396.76,702.4297,2.76214
2399.76,702.928,2.77412
2402.76,703.4194,2.78477
2405.76,703.922,2.79651
2408.76,704.4156,2.80781
2411.76,704.9114,2.81786
2414.76,705.4096,2.82906
2417.76,705.9064,2.84042
2420.76,706.402,2.85012
2423.76,706.9015,2.8617
2426.76,707.3924,2.87369
2429.76,707.8929,2.88395
2432.76,708.386,2.89345
2435.76,708.885,2.90289
2438.76,709.3806,2.91297
2441.76,709.8781,2.92588
2444.76,710.3738,2.93882
2447.76,710.8656,2.94927
2450.76,711.368,2.95935
2453.76,711.8646,2.96928
2456.76,712.3586,2.97928
2459.76,712.8517,2.98707
2462.76,713.3447,2.99425
2465.76,713.8381,3.00301
2468.76,714.3372,3.01236
2471.76,714.8344,3.02164
2474.76,715.3322,3.0308
2477.76,715.8283,3.03892
2480.76,716.3189,3.04563
2483.76,716.8135,3.05185
2486.76,717.3078,3.05944
2489.76,717.8032,3.06656
2492.76,718.3014,3.07349
2495.76,718.7946,3.08017
2498.76,719.2946,3.08754
2501.76,719.7881,3.0953
2504.76,720.2821,3.10174
2507.76,720.7761,3.1073
2510.76,721.2721,3.1142
2513.76,721.7672,3.12244
2516.76,722.2618,3.12968
2519.76,722.76,3.13571
2522.76,723.2562,3.14149
2525.76,723.7488,3.14733
2528.76,724.2476,3.1552
2531.76,724.7398,3.16391
2534.76,725.2368,3.17038
2537.76,725.7292,3.17555
2540.76,726.2301,3.18126
2543.76,726.7184,3.18896
2546.76,727.2154,3.19759
2549.76,727.7159,3.20597
2552.76,728.2075,3.21377
2555.76,728.6988,3.22003
2558.76,729.1952,3.22486
2561.76,729.689,3.23084
2564.76,730.1874,3.2381
2567.76,730.6835,3.24465
2570.76,731.1805,3.24963
2573.76,731.679,3.25597
2576.76,732.1696,3.26103
2579.76,732.6656,3.2663
2582.76,733.161,3.27194
2585.76,733.6584,3.27712
2588.76,734.1509,3.28257
2591.76,734.643,3.28647
2594.76,735.142,3.29294
2597.76,735.635,3.30062
2600.76,736.1266,3.30681
2603.76,736.6216,3.31372
2606.76,737.1208,3.32071
2609.76,737.614,3.32595
2612.76,738.1068,3.33245
2615.76,738.6054,3.33925
2618.76,739.099,3.34424
2621.76,739.5906,3.34903
2624.76,740.0881,3.35418
2627.76,740.5872,3.36054
2630.76,741.0806,3.36709
2633.76,741.5784,3.37172
2636.76,742.0683,3.37808
2639.76,742.5633,3.38523
2642.76,743.0589,3.39099
2645.76,743.5556,3.39742
2648.76,744.049,3.40396
2651.76,744.5454,3.41028
2654.76,745.0428,3.41683
2657.76,745.5373,3.42269
2660.76,746.0312,3.42806
2663.76,746.5308,3.43513
2666.76,747.026,3.44171
2669.76,747.5188,3.44601
2672.76,748.0134,3.45103
2675.76,748.5072,3.45692
2678.76,749.0016,3.46276
2681.76,749.4998,3.46723
2684.76,749.9906,3.47296
2687.76,750.4881,3.47777
2690.76,750.9818,3.4835
2693.76,751.4793,3.48871
2696.76,751.9775,3.4936
2699.76,752.4728,3.49961
2702.76,752.9676,3.50585
2705.76,753.4604,3.51136
2708.76,753.9559,3.51563
2711.76,754.4489,3.52154
2714.76,754.947,3.52792
2717.76,755.4348,3.53417
2720.76,755.9358,3.5403
2723.76,756.4299,3.54653
2726.76,756.9246,3.55132
2729.76,757.4219,3.55426
2732.76,757.9124,3.55854
2735.76,758.4088,3.5637
2738.76,758.9006,3.56907
2741.76,759.4018,3.57493
2744.76,759.8946,3.58129
2747.76,760.3918,3.58724
2750.76,760.8861,3.59223
2753.76,761.3803,3.59798
2756.76,761.8754,3.60327
2759.76,762.368,3.60694
2762.76,762.8642,3.61097
2765.76,763.3586,3.61621
2768.76,763.8607,3.62063
2771.76,764.3521,3.62481
2774.76,764.8502,3.63185
2777.76,765.3481,3.63827
2780.76,765.8418,3.6428
2783.76,766.3383,3.6465
2786.76,766.8294,3.65104
2789.76,767.3267,3.65447
2792.76,767.8253,3.65813
2795.76,768.3194,3.66314
2798.76,768.8149,3.66655
2801.76,769.3094,3.67355
2804.76,769.806,3.67835
2807.76,770.303,3.6817
2810.76,770.7914,3.68329
2813.76,771.287,3.68532
2816.76,771.7832,3.6905
2819.76,772.281,3.69501
2822.76,772.7719,3.6991
2825.76,773.2688,3.70369
2828.76,773.762,3.70899
2831.76,774.2594,3.71305
2834.76,774.7516,3.71638
2837.76,775.2467,3.72063
2840.76,775.7447,3.72648
2843.76,776.2424,3.73348
2846.76,776.7348,3.7394
2849.76,777.228,3.74424
2852.76,777.7236,3.74863
2855.76,778.216,3.75355
2858.76,778.7116,3.75764
2861.76,779.207,3.76206
2864.76,779.7031,3.76659
2867.76,780.1965,3.7724
2870.76,780.6877,3.77619
2873.76,781.1877,3.77708
2876.76,781.6809,3.78034
2879.76,782.1744,3.78403
2882.76,782.6731,3.78713
2885.76,783.17,3.79134
2888.76,783.6632,3.79566
2891.76,784.1602,3.79964
2894.76,784.6533,3.80372
2897.76,785.1509,3.80497
2900.76,785.647,3.80998
2903.76,786.1382,3.81436
2906.76,786.6376,3.81737
2909.76,787.1332,3.8192
2912.76,787.6322,3.82257
2915.76,788.125,3.82652
2918.76,788.6217,3.8298
2921.76,789.1182,3.83416
2924.76,789.615,3.83745
2927.76,790.111,3.83989
2930.76,790.6052,3.84283
2933.76,791.104,3.84622
2936.76,791.5992,3.84766
2939.76,792.0899,3.84759
2942.76,792.5898,3.85142
2945.76,793.0837,3.85686
2948.76,793.5752,3.86041
2951.76,794.0712,3.86356
2954.76,794.5656,3.86657
2957.76,795.0608,3.87017
2960.76,795.5586,3.87466
2963.76,796.0508,3.8802
2966.76,796.5474,3.88515
2969.76,797.0411,3.89066
2972.76,797.5366,3.89495
2975.76,798.034,3.89784
2978.76,798.5236,3.90209
2981.76,799.023,3.90409
2984.76,799.515,3.90649
2987.76,800.0118,3.91101
2990.76,800.5044,3.91564
2993.76,801.0023,3.91731
2996.76,801.4961,3.91863
2999.76,801.9956,3.92187
3002.76,802.4899,3.92772
3005.76,802.9809,3.93315
3008.76,803.4756,3.93467
3011.76,803.9716,3.93794