File: Non-charring/PMMA/HKPoly/HKPoly_DSC_O2-21_10K_1.csv
Time,Temperature,Heat Flow
[s],[k],[W/g]
0.19,302.027,4.02801
2.76,302.026,4.02871
5.76,302.03,4.03224
8.76,302.04,4.03626
11.76,302.052,4.03559
14.76,302.067,4.0362
17.76,302.096,4.03925
20.76,302.141,4.03958
23.76,302.215,4.04161
26.76,302.309,4.04346
29.76,302.426,4.04821
32.76,302.564,4.05853
35.76,302.73,4.07278
38.76,302.934,4.08479
41.76,303.152,4.10064
44.76,303.412,4.1232
47.76,303.701,4.14448
50.76,304.016,4.16888
53.76,304.363,4.19634
56.76,304.74,4.22499
59.76,305.136,4.25531
62.76,305.563,4.28362
65.76,306.024,4.31306
68.76,306.509,4.34065
71.76,307.005,4.36769
74.76,307.53,4.39803
77.76,308.07,4.42538
80.76,308.638,4.45061
83.76,309.213,4.47566
86.76,309.809,4.49998
89.76,310.407,4.52488
92.76,311.028,4.54577
95.76,311.66,4.56464
98.76,312.29,4.58336
101.76,312.93,4.59658
104.76,313.581,4.60659
107.76,314.227,4.61582
110.76,314.876,4.62517
113.76,315.529,4.6314
116.76,316.182,4.63192
119.76,316.83,4.62991
122.76,317.481,4.62375
125.76,318.124,4.61519
128.76,318.757,4.60466
131.76,319.401,4.58912
134.76,320.026,4.57061
137.76,320.647,4.55088
140.76,321.271,4.52394
143.76,321.884,4.4935
146.76,322.498,4.45688
149.76,323.089,4.4186
152.76,323.679,4.37858
155.76,324.254,4.33482
158.76,324.829,4.28801
161.76,325.397,4.23559
164.76,325.951,4.18176
167.76,326.5,4.12712
170.76,327.042,4.06813
173.76,327.586,4.00655
176.76,328.116,3.94164
179.76,328.635,3.87503
182.76,329.157,3.80704
185.76,329.666,3.73725
188.76,330.174,3.66537
191.76,330.685,3.591
194.76,331.176,3.51628
197.76,331.664,3.4427
200.76,332.158,3.36717
203.76,332.643,3.29017
206.76,333.123,3.21366
209.76,333.604,3.13646
212.76,334.08,3.05904
215.76,334.551,2.98314
218.76,335.028,2.90699
221.76,335.497,2.83093
224.76,335.964,2.75517
227.76,336.441,2.68019
230.76,336.909,2.60659
233.76,337.378,2.53383
236.76,337.846,2.46202
239.76,338.317,2.39146
242.76,338.8,2.32076
245.76,339.271,2.25227
248.76,339.741,2.18641
251.76,340.219,2.12116
254.76,340.695,2.05723
257.76,341.182,1.99462
260.76,341.657,1.93442
263.76,342.152,1.8739
266.76,342.635,1.81508
269.76,343.125,1.75902
272.76,343.615,1.70518
275.76,344.107,1.65241
278.76,344.598,1.60148
281.76,345.101,1.55194
284.76,345.605,1.50351
287.76,346.105,1.45648
290.76,346.609,1.41152
293.76,347.119,1.36853
296.76,347.624,1.32703
299.76,348.133,1.28604
302.76,348.644,1.24516
305.76,349.165,1.20641
308.76,349.672,1.16973
311.76,350.195,1.1339
314.76,350.704,1.09987
317.76,351.223,1.06638
320.76,351.746,1.03313
323.76,352.263,1.00242
326.76,352.789,0.972536
329.76,353.311,0.941255
332.76,353.833,0.912115
335.76,354.354,0.88446
338.76,354.875,0.857573
341.76,355.402,0.830935
344.76,355.93,0.804774
347.76,356.451,0.779249
350.76,356.979,0.754314
353.76,357.497,0.729584
356.76,358.02,0.705836
359.76,358.546,0.681966
362.76,359.071,0.658774
365.76,359.595,0.636456
368.76,360.114,0.613595
371.76,360.638,0.591674
374.76,361.158,0.570272
377.76,361.677,0.549067
380.76,362.197,0.528144
383.76,362.721,0.507193
386.76,363.229,0.486363
389.76,363.748,0.465829
392.76,364.269,0.445264
395.76,364.783,0.425103
398.76,365.297,0.406273
401.76,365.813,0.387301
404.76,366.329,0.367903
407.76,366.845,0.348695
410.76,367.363,0.329417
413.76,367.877,0.310403
416.76,368.39,0.292739
419.76,368.895,0.275195
422.76,369.403,0.257577
425.76,369.917,0.240268
428.76,370.419,0.222488
431.76,370.926,0.205858
434.76,371.434,0.189194
437.76,371.936,0.173485
440.76,372.435,0.158272
443.76,372.944,0.142578
446.76,373.451,0.126806
449.76,373.952,0.112397
452.76,374.465,0.0975144
455.76,374.964,0.0832577
458.76,375.465,0.0689197
461.76,375.974,0.0541182
464.76,376.477,0.0406979
467.76,376.973,0.0276815
470.76,377.479,0.015859
473.76,377.977,0.004312051
476.76,378.484,-0.008094767
479.76,378.987,-0.0191263
482.76,379.493,-0.0295694
485.76,379.99,-0.04059854
488.76,380.494,-0.0510769
491.76,380.998,-0.0612044
494.76,381.499,-0.0703033
497.76,382.002,-0.0794366
500.76,382.509,-0.0888244
503.76,383.011,-0.09732939
506.76,383.522,-0.105872
509.76,384.026,-0.114419
512.76,384.533,-0.121897
515.76,385.033,-0.129032
518.76,385.546,-0.135727
521.76,386.049,-0.14249
524.76,386.56,-0.149173
527.76,387.061,-0.155702
530.76,387.56,-0.161893
533.76,388.078,-0.167784
536.76,388.583,-0.173832
539.76,389.084,-0.179597
542.76,389.588,-0.18503
545.76,390.104,-0.189776
548.76,390.605,-0.194177
551.76,391.108,-0.198762
554.76,391.627,-0.20362
557.76,392.13,-0.208518
560.76,392.639,-0.212829
563.76,393.144,-0.216491
566.76,393.651,-0.220294
569.76,394.159,-0.224556
572.76,394.669,-0.229006
575.76,395.176,-0.232338
578.76,395.687,-0.235553
581.76,396.194,-0.239145
584.76,396.7,-0.242946
587.76,397.209,-0.246208
590.76,397.715,-0.248697
593.76,398.225,-0.251445
596.76,398.731,-0.254226
599.76,399.237,-0.25689
602.76,399.745,-0.258944
605.76,400.256,-0.260984
608.76,400.769,-0.262952
611.76,401.269,-0.264949
614.76,401.78,-0.266857
617.76,402.287,-0.268103
620.76,402.794,-0.269451
623.76,403.301,-0.2707
626.76,403.808,-0.271899
629.76,404.316,-0.272739
632.76,404.821,-0.273293
635.76,405.331,-0.273902
638.76,405.829,-0.274613
641.76,406.339,-0.27516
644.76,406.843,-0.275755
647.76,407.349,-0.275642
650.76,407.845,-0.276069
653.76,408.355,-0.276192
656.76,408.862,-0.276496
659.76,409.363,-0.276473
662.76,409.867,-0.276334
665.76,410.37,-0.275604
668.76,410.878,-0.275094
671.76,411.384,-0.27407
674.76,411.891,-0.273143
677.76,412.391,-0.272722
680.76,412.893,-0.272332
683.76,413.399,-0.271512
686.76,413.906,-0.270549
689.76,414.405,-0.269744
692.76,414.908,-0.268465
695.76,415.415,-0.267161
698.76,415.922,-0.265727
701.76,416.421,-0.26416
704.76,416.92,-0.263021
707.76,417.426,-0.261759
710.76,417.934,-0.259926
713.76,418.436,-0.257859
716.76,418.941,-0.255917
719.76,419.442,-0.254188
722.76,419.943,-0.251995
725.76,420.448,-0.250092
728.76,420.954,-0.247825
731.76,421.459,-0.245527
734.76,421.958,-0.243001
737.76,422.459,-0.240656
740.76,422.966,-0.238381
743.76,423.469,-0.235947
746.76,423.976,-0.233459
749.76,424.478,-0.230867
752.76,424.978,-0.228049
755.76,425.484,-0.225376
758.76,425.988,-0.222415
761.76,426.489,-0.219649
764.76,426.997,-0.216449
767.76,427.504,-0.213299
770.76,428.005,-0.210064
773.76,428.514,-0.206859
776.76,429.012,-0.203909
779.76,429.513,-0.200252
782.76,430.019,-0.196515
785.76,430.528,-0.19321
788.76,431.029,-0.190097
791.76,431.532,-0.186552
794.76,432.034,-0.182358
797.76,432.538,-0.178453
800.76,433.043,-0.174919
803.76,433.545,-0.170964
806.76,434.055,-0.167362
809.76,434.552,-0.16361
812.76,435.054,-0.159461
815.76,435.558,-0.155112
818.76,436.06,-0.150991
821.76,436.561,-0.147245
824.76,437.068,-0.143048
827.76,437.572,-0.138562
830.76,438.071,-0.134452
833.76,438.582,-0.130329
836.76,439.078,-0.126215
839.76,439.585,-0.121411
842.76,440.088,-0.116867
845.76,440.592,-0.112151
848.76,441.094,-0.107677
851.76,441.6,-0.103117
854.76,442.097,-0.0985269
857.76,442.602,-0.0934346
860.76,443.106,-0.0886186
863.76,443.609,-0.083992
866.76,444.107,-0.0791223
869.76,444.611,-0.0741348
872.76,445.108,-0.0688974
875.76,445.613,-0.0637804
878.76,446.123,-0.0579361
881.76,446.622,-0.0530741
884.76,447.124,-0.0479975
887.76,447.628,-0.0422872
890.76,448.136,-0.0365009
893.76,448.638,-0.0308068
896.76,449.141,-0.0252289
899.76,449.641,-0.0194491
902.76,450.146,-0.0138315
905.76,450.649,-0.008210275
908.76,451.148,-0.00235399
911.76,451.653,0.003824244
914.76,452.149,0.009902173
917.76,452.648,0.0157063
920.76,453.151,0.0218
923.76,453.658,0.0274911
926.76,454.155,0.0334413
929.76,454.654,0.03969493
932.76,455.154,0.0462066
935.76,455.659,0.052429
938.76,456.158,0.0584692
941.76,456.66,0.0649806
944.76,457.162,0.07139912
947.76,457.665,0.07763965
950.76,458.168,0.0843469
953.76,458.67,0.0911588
956.76,459.171,0.0979795
959.76,459.677,0.105267
962.76,460.178,0.112604
965.76,460.676,0.119328
968.76,461.182,0.126014
971.76,461.679,0.132985
974.76,462.178,0.140076
977.76,462.677,0.147453
980.76,463.178,0.154286
983.76,463.685,0.161525
986.76,464.184,0.168947
989.76,464.684,0.176151
992.76,465.185,0.184029
995.76,465.686,0.191754
998.76,466.191,0.198956
1001.76,466.688,0.206537
1004.76,467.192,0.214316
1007.76,467.692,0.221994
1010.76,468.188,0.229831
1013.76,468.69,0.237542
1016.76,469.192,0.24562
1019.76,469.694,0.253322
1022.76,470.196,0.26136
1025.76,470.699,0.269349
1028.76,471.2,0.277759
1031.76,471.698,0.286003
1034.76,472.201,0.294479
1037.76,472.709,0.303245
1040.76,473.209,0.311793
1043.76,473.706,0.319742
1046.76,474.205,0.327841
1049.76,474.711,0.336147
1052.76,475.208,0.344813
1055.76,475.709,0.353318
1058.76,476.21,0.362304
1061.76,476.709,0.371287
1064.76,477.215,0.379836
1067.76,477.714,0.388231
1070.76,478.218,0.3969
1073.76,478.715,0.405764
1076.76,479.218,0.415049
1079.76,479.717,0.42369
1082.76,480.227,0.4327
1085.76,480.727,0.441922
1088.76,481.227,0.450734
1091.76,481.727,0.459685
1094.76,482.23,0.469086
1097.76,482.722,0.478257
1100.76,483.224,0.487015
1103.76,483.726,0.496275
1106.76,484.22,0.505743
1109.76,484.726,0.515352
1112.76,485.227,0.524488
1115.76,485.729,0.534143
1118.76,486.23,0.544141
1121.76,486.731,0.55353
1124.76,487.23,0.563103
1127.76,487.731,0.572734
1130.76,488.243,0.582054
1133.76,488.736,0.591807
1136.76,489.239,0.601723
1139.76,489.736,0.611643
1142.76,490.238,0.621241
1145.76,490.74,0.630939
1148.76,491.242,0.640835
1151.76,491.741,0.650565
1154.76,492.248,0.660284
1157.76,492.739,0.670227
1160.76,493.242,0.680076
1163.76,493.744,0.690157
1166.76,494.245,0.700549
1169.76,494.745,0.710333
1172.76,495.245,0.72023
1175.76,495.746,0.729955
1178.76,496.245,0.739721
1181.76,496.743,0.749657
1184.76,497.245,0.759313
1187.76,497.747,0.769106
1190.76,498.245,0.778497
1193.76,498.748,0.788188
1196.76,499.24,0.797778
1199.76,499.74,0.807339
1202.76,500.238,0.81703
1205.76,500.739,0.827119
1208.76,501.236,0.836383
1211.76,501.733,0.845729
1214.76,502.235,0.855093
1217.76,502.734,0.864336
1220.76,503.227,0.873764
1223.76,503.735,0.883455
1226.76,504.233,0.893215
1229.76,504.729,0.902254
1232.76,505.231,0.911735
1235.76,505.732,0.921566
1238.76,506.228,0.931197
1241.76,506.73,0.940724
1244.76,507.227,0.950452
1247.76,507.724,0.959678
1250.76,508.223,0.968908
1253.76,508.724,0.978542
1256.76,509.225,0.988699
1259.76,509.72,0.99794
1262.76,510.22,1.00709
1265.76,510.722,1.01719
1268.76,511.22,1.02698
1271.76,511.723,1.03645
1274.76,512.224,1.04588
1277.76,512.718,1.05523
1280.76,513.218,1.0648
1283.76,513.72,1.07487
1286.76,514.219,1.0846
1289.76,514.717,1.09376
1292.76,515.214,1.10341
1295.76,515.719,1.11375
1298.76,516.208,1.12295
1301.76,516.707,1.13221
1304.76,517.209,1.14157
1307.76,517.708,1.15115
1310.76,518.204,1.16127
1313.76,518.701,1.17069
1316.76,519.197,1.18048
1319.76,519.696,1.18997
1322.76,520.195,1.1989
1325.76,520.699,1.20824
1328.76,521.196,1.21783
1331.76,521.694,1.22776
1334.76,522.193,1.23702
1337.76,522.687,1.24607
1340.76,523.186,1.25548
1343.76,523.68,1.26492
1346.76,524.182,1.27393
1349.76,524.68,1.28362
1352.76,525.183,1.29346
1355.76,525.673,1.3029
1358.76,526.181,1.31303
1361.76,526.674,1.32287
1364.76,527.179,1.33203
1367.76,527.675,1.34186
1370.76,528.174,1.35149
1373.76,528.669,1.36125
1376.76,529.175,1.37109
1379.76,529.669,1.38088
1382.76,530.168,1.3907
1385.76,530.667,1.4006
1388.76,531.171,1.4104
1391.76,531.67,1.42055
1394.76,532.163,1.43013
1397.76,532.663,1.43972
1400.76,533.163,1.4497
1403.76,533.655,1.45943
1406.76,534.157,1.46947
1409.76,534.65,1.47859
1412.76,535.146,1.48793
1415.76,535.642,1.49816
1418.76,536.14,1.50812
1421.76,536.642,1.51762
1424.76,537.139,1.52693
1427.76,537.633,1.536657
1430.76,538.136,1.54659
1433.76,538.633,1.5565
1436.76,539.132,1.56602
1439.76,539.635,1.57524
1442.76,540.136,1.58458
1445.76,540.631,1.59411
1448.76,541.128,1.60383
1451.76,541.626,1.6129
1454.76,542.12,1.62186
1457.76,542.621,1.63073
1460.76,543.114,1.63929
1463.76,543.621,1.64842
1466.76,544.116,1.65781
1469.76,544.614,1.66663
1472.76,545.112,1.67513
1475.76,545.606,1.68346
1478.76,546.106,1.69225
1481.76,546.608,1.70182
1484.76,547.103,1.71078
1487.76,547.604,1.71912
1490.76,548.098,1.72743
1493.76,548.602,1.73587
1496.76,549.096,1.74407
1499.76,549.593,1.75256
1502.76,550.091,1.76099
1505.76,550.586,1.76933
1508.76,551.078,1.7771
1511.76,551.576,1.78502
1514.76,552.071,1.79301
1517.76,552.568,1.8012
1520.76,553.069,1.80899
1523.76,553.561,1.81661
1526.76,554.055,1.82518
1529.76,554.557,1.83327
1532.76,555.05,1.84147
1535.76,555.55,1.85011
1538.76,556.048,1.85865
1541.76,556.54,1.86628
1544.76,557.036,1.87425
1547.76,557.536,1.88286
1550.76,558.034,1.89141
1553.76,558.528,1.8999
1556.76,559.027,1.90836
1559.76,559.521,1.9159
1562.76,560.017,1.92338
1565.76,560.515,1.93187
1568.76,561.011,1.93947
1571.76,561.508,1.94684
1574.76,562.008,1.9548
1577.76,562.505,1.96224
1580.76,563,1.9696
1583.76,563.496,1.97669
1586.76,563.998,1.98366
1589.76,564.496,1.99038
1592.76,564.993,1.99687
1595.76,565.49,2.00283
1598.76,565.986,2.00879
1601.76,566.485,2.01403
1604.76,566.983,2.01948
1607.76,567.476,2.02438
1610.76,567.975,2.02859
1613.76,568.473,2.03253
1616.76,568.969,2.03559
1619.76,569.465,2.03819
1622.76,569.955,2.04079
1625.76,570.453,2.04256
1628.76,570.951,2.04325
1631.76,571.446,2.04393
1634.76,571.943,2.04308
1637.76,572.442,2.04105
1640.76,572.935,2.03834
1643.76,573.43,2.03419
1646.76,573.923,2.02904
1649.76,574.418,2.02214
1652.76,574.918,2.01501
1655.76,575.412,2.0052
1658.76,575.911,1.99275
1661.76,576.404,1.97801
1664.76,576.9,1.96135
1667.76,577.391,1.93914
1670.76,577.883,1.91185
1673.76,578.372,1.88105
1676.76,578.853,1.848
1679.76,579.335,1.81047
1682.76,579.826,1.77469
1685.76,580.307,1.73954
1688.76,580.793,1.70686
1691.76,581.269,1.67168
1694.76,581.753,1.63874
1697.76,582.241,1.61791
1700.76,582.727,1.59981
1703.76,583.216,1.58426
1706.76,583.697,1.57039
1709.76,584.189,1.55858
1712.76,584.694,1.59112
1715.76,585.198,1.62592
1718.76,585.671,1.62056
1721.76,586.159,1.58972
1724.76,586.644,1.58809
1727.76,587.135,1.58068
1730.76,587.627,1.58251
1733.76,588.128,1.59792
1736.76,588.614,1.61676
1739.76,589.112,1.61988
1742.76,589.601,1.61982
1745.76,590.096,1.61531
1748.76,590.586,1.62144
1751.76,591.134,1.65893
1754.76,591.606,1.7369
1757.76,592.088,1.71895
1760.76,592.576,1.68589
1763.76,593.064,1.65639
1766.76,593.554,1.63725
1769.76,594.064,1.63475
1772.76,594.562,1.65796
1775.76,595.046,1.65146
1778.76,595.54,1.62839
1781.76,596.039,1.62296
1784.76,596.535,1.62035
1787.76,597.025,1.60817
1790.76,597.518,1.58934
1793.76,598.013,1.56856
1796.76,598.505,1.54327
1799.76,598.993,1.50891
1802.76,599.477,1.47168
1805.76,599.962,1.43399
1808.76,600.448,1.39147
1811.76,600.933,1.34803
1814.76,601.426,1.31976
1817.76,601.918,1.29514
1820.76,602.405,1.31866
1823.76,602.89,1.27694
1826.76,603.385,1.22863
1829.76,603.883,1.22995
1832.76,604.376,1.23263
1835.76,604.874,1.23172
1838.76,605.365,1.22768
1841.76,605.854,1.22102
1844.76,606.347,1.21825
1847.76,606.836,1.2088
1850.76,607.336,1.20892
1853.76,607.828,1.21732
1856.76,608.328,1.22193
1859.76,608.822,1.22895
1862.76,609.314,1.23419
1865.76,609.81,1.24512
1868.76,610.305,1.26061
1871.76,610.8,1.26097
1874.76,611.295,1.2708
1877.76,611.793,1.2918
1880.76,612.288,1.31092
1883.76,612.79,1.32909
1886.76,613.29,1.34961
1889.76,613.786,1.37301
1892.76,614.307,1.40878
1895.76,614.801,1.46618
1898.76,615.311,1.52318
1901.76,615.821,1.5934
1904.76,616.335,1.67019
1907.76,616.843,1.74526
1910.76,617.357,1.81614
1913.76,617.865,1.88352
1916.76,618.372,1.94752
1919.76,618.881,2.00904
1922.76,619.388,2.06763
1925.76,619.895,2.12493
1928.76,620.398,2.17925
1931.76,620.905,2.23167
1934.76,621.41,2.28136
1937.76,621.917,2.32849
1940.76,622.417,2.37354
1943.76,622.922,2.41754
1946.76,623.423,2.4603
1949.76,623.928,2.5014
1952.76,624.433,2.54073
1955.76,624.934,2.57941
1958.76,625.441,2.616411
1961.76,625.94,2.65272
1964.76,626.441,2.6873
1967.76,626.94,2.72159
1970.76,627.443,2.75522
1973.76,627.943,2.7873
1976.76,628.449,2.81889
1979.76,628.95,2.85008
1982.76,629.452,2.8801
1985.76,629.957,2.90905
1988.76,630.453,2.93778
1991.76,630.954,2.96609
1994.76,631.457,2.99372
1997.76,631.953,3.02018
2000.76,632.453,3.04628
2003.76,632.959,3.07183
2006.76,633.455,3.09658
2009.76,633.957,3.12132
2012.76,634.455,3.14551
2015.76,634.954,3.1686
2018.76,635.448,3.19139
2021.76,635.952,3.21435
2024.76,636.452,3.23684
2027.76,636.948,3.25835
2030.76,637.45,3.27908
2033.76,637.948,3.30001
2036.76,638.444,3.32022
2039.76,638.942,3.34022
2042.76,639.439,3.36019
2045.76,639.941,3.37984
2048.76,640.435,3.39926
2051.76,640.934,3.41787
2054.76,641.43,3.43576
2057.76,641.927,3.45372
2060.76,642.426,3.47179
2063.76,642.925,3.48886
2066.76,643.422,3.50596
2069.76,643.918,3.52354
2072.76,644.416,3.54081
2075.76,644.915,3.5571
2078.76,645.411,3.57431
2081.76,645.904,3.59061
2084.76,646.403,3.60638
2087.76,646.901,3.62318
2090.76,647.396,3.63933
2093.76,647.893,3.65463
2096.76,648.392,3.67052
2099.76,648.891,3.68619
2102.76,649.389,3.70112
2105.76,649.885,3.71675
2108.76,650.376,3.73197
2111.76,650.875,3.74658
2114.76,651.377,3.76118
2117.76,651.874,3.7759
2120.76,652.361,3.79127
2123.76,652.857,3.8057
2126.76,653.35,3.81976
2129.76,653.849,3.83388
2132.76,654.348,3.84829
2135.76,654.845,3.86298
2138.76,655.347,3.87759
2141.76,655.842,3.89134
2144.76,656.337,3.90559
2147.76,656.829,3.92009
2150.76,657.326,3.93418
2153.76,657.821,3.94855
2156.76,658.319,3.96288
2159.76,658.812,3.97762
2162.76,659.309,3.99101
2165.76,659.809,4.00497
2168.76,660.301,4.0192
2171.76,660.796,4.03257
2174.76,661.295,4.0465
2177.76,661.792,4.06063
2180.76,662.284,4.07478
2183.76,662.785,4.08858
2186.76,663.279,4.10209
2189.76,663.771,4.1156
2192.76,664.272,4.13024
2195.76,664.77,4.14471
2198.76,665.265,4.15865
2201.76,665.761,4.17289
2204.76,666.26,4.18722
2207.76,666.756,4.2011
2210.76,667.248,4.21527
2213.76,667.742,4.22939
2216.76,668.24,4.24362
2219.76,668.738,4.25787
2222.76,669.237,4.27262
2225.76,669.733,4.28758
2228.76,670.225,4.30211
2231.76,670.725,4.31632
2234.76,671.218,4.33086
2237.76,671.715,4.34497
2240.76,672.212,4.35923
2243.76,672.709,4.37469
2246.76,673.201,4.3892
2249.76,673.698,4.40363
2252.76,674.194,4.41853
2255.76,674.693,4.43382
2258.76,675.189,4.44936
2261.76,675.683,4.46426
2264.76,676.183,4.47911
2267.76,676.676,4.49545
2270.76,677.173,4.51094
2273.76,677.664,4.52617
2276.76,678.168,4.54239
2279.76,678.662,4.55888
2282.76,679.16,4.57498
2285.76,679.661,4.59063
2288.76,680.153,4.60734
2291.76,680.651,4.62426
2294.76,681.148,4.64131
2297.76,681.646,4.65715
2300.76,682.147,4.67405
2303.76,682.644,4.691
2306.76,683.138,4.70741
2309.76,683.637,4.72284
2312.76,684.132,4.73723
2315.76,684.63,4.75045
2318.76,685.124,4.76292
2321.76,685.62,4.7749
2324.76,686.114,4.78612
2327.76,686.607,4.79751
2330.76,687.107,4.80866
2333.76,687.604,4.81928
2336.76,688.102,4.83046
2339.76,688.599,4.84102
2342.76,689.092,4.85213
2345.76,689.587,4.86303
2348.76,690.079,4.87437
2351.76,690.577,4.88602
2354.76,691.075,4.8974
2357.76,691.569,4.90867
2360.76,692.063,4.92009
2363.76,692.561,4.93104
2366.76,693.061,4.94355
2369.76,693.553,4.95579
2372.76,694.05,4.96769
2375.76,694.545,4.9801
2378.76,695.039,4.9922
2381.76,695.533,5.00408
2384.76,696.028,5.01613
2387.76,696.525,5.02887
2390.76,697.021,5.04201
2393.76,697.515,5.05464
2396.76,698.012,5.06721
2399.76,698.514,5.07976
2402.76,699.004,5.09288
2405.76,699.5,5.1065
2408.76,699.998,5.11986
2411.76,700.491,5.13205
2414.76,700.986,5.14445
2417.76,701.483,5.15778
2420.76,701.979,5.17065
2423.76,702.474,5.18275
2426.76,702.971,5.19564
2429.76,703.464,5.20895
2432.76,703.962,5.22227
2435.76,704.456,5.23533
2438.76,704.952,5.24894
2441.76,705.447,5.26201
2444.76,705.943,5.27542
2447.76,706.439,5.28905
2450.76,706.937,5.30233
2453.76,707.433,5.31548
2456.76,707.931,5.32812
2459.76,708.425,5.3418
2462.76,708.922,5.35523
2465.76,709.415,5.36812
2468.76,709.912,5.38139
2471.76,710.405,5.39439
2474.76,710.904,5.40771
2477.76,711.4,5.42222
2480.76,711.893,5.43582
2483.76,712.393,5.44886
2486.76,712.887,5.46128
2489.76,713.385,5.47435
2492.76,713.878,5.48752
2495.76,714.38,5.50047
2498.76,714.873,5.51351
2501.76,715.364,5.52626
2504.76,715.864,5.53911
2507.76,716.364,5.5522
2510.76,716.861,5.56594
2513.76,717.353,5.5787
2516.76,717.848,5.59106
2519.76,718.345,5.60385
2522.76,718.839,5.61687
2525.76,719.337,5.62985
2528.76,719.832,5.64285
2531.76,720.326,5.65511
2534.76,720.82,5.66765
2537.76,721.315,5.6795
2540.76,721.807,5.69209
2543.76,722.308,5.70514
2546.76,722.799,5.71748
2549.76,723.296,5.73021
2552.76,723.795,5.74248
2555.76,724.294,5.75679
2558.76,724.789,5.77004
2561.76,725.277,5.78158
2564.76,725.774,5.79397
2567.76,726.27,5.80709
2570.76,726.764,5.82
2573.76,727.26,5.83228
2576.76,727.758,5.84504
2579.76,728.249,5.85861
2582.76,728.753,5.87191
2585.76,729.247,5.88438
2588.76,729.741,5.8968
2591.76,730.239,5.90995
2594.76,730.733,5.9236
2597.76,731.23,5.93677
2600.76,731.728,5.95006
2603.76,732.226,5.96296
2606.76,732.719,5.97563
2609.76,733.212,5.98876
2612.76,733.71,6.00131
2615.76,734.205,6.01405
2618.76,734.709,6.02722
2621.76,735.206,6.04085
2624.76,735.7,6.05408
2627.76,736.193,6.06739
2630.76,736.692,6.08074
2633.76,737.183,6.09384
2636.76,737.68,6.10677
2639.76,738.178,6.12043
2642.76,738.674,6.13399
2645.76,739.168,6.14607
2648.76,739.663,6.1586
2651.76,740.159,6.17252
2654.76,740.653,6.18632
2657.76,741.148,6.19959
2660.76,741.644,6.21195
2663.76,742.143,6.22485
2666.76,742.635,6.23785
2669.76,743.138,6.25198
2672.76,743.631,6.26585
2675.76,744.123,6.27835
2678.76,744.619,6.29169
2681.76,745.113,6.30524
2684.76,745.614,6.31816
2687.76,746.113,6.33151
2690.76,746.606,6.34547
2693.76,747.103,6.35847
2696.76,747.602,6.3724
2699.76,748.097,6.3857
2702.76,748.594,6.39939
2705.76,749.089,6.41233
2708.76,749.585,6.4252
2711.76,750.08,6.43882
2714.76,750.583,6.45243
2717.76,751.076,6.46671
2720.76,751.577,6.48027
2723.76,752.068,6.49361
2726.76,752.563,6.50838
2729.76,753.057,6.52165
2732.76,753.553,6.5352
2735.76,754.05,6.54932
2738.76,754.546,6.56339
2741.76,755.043,6.57727
2744.76,755.53,6.59122
2747.76,756.026,6.60441
2750.76,756.521,6.61797
2753.76,757.02,6.63196
2756.76,757.516,6.64567
2759.76,758.012,6.65887
2762.76,758.505,6.67206
2765.76,759.004,6.68489
2768.76,759.496,6.69758
2771.76,759.993,6.71096
2774.76,760.493,6.72563
2777.76,760.986,6.73917
2780.76,761.487,6.75208
2783.76,761.981,6.7652
2786.76,762.479,6.7783
2789.76,762.979,6.79206
2792.76,763.472,6.80517
2795.76,763.966,6.81863
2798.76,764.468,6.8323
2801.76,764.966,6.84613
2804.76,765.458,6.85931
2807.76,765.955,6.87253
2810.76,766.447,6.88527
2813.76,766.945,6.89758
2816.76,767.443,6.91091
2819.76,767.937,6.9248
2822.76,768.434,6.93804
2825.76,768.928,6.95039
2828.76,769.425,6.96321
2831.76,769.92,6.97707
2834.76,770.418,6.98942
2837.76,770.915,7.00244
2840.76,771.406,7.01618
2843.76,771.902,7.02963
2846.76,772.4,7.04267
2849.76,772.897,7.06E+00
2852.76,773.39,7.06999
2855.76,773.889,7.08316
2858.76,774.386,7.09646
2861.76,774.879,7.11033
2864.76,775.371,7.12432
2867.76,775.869,7.13796
2870.76,776.368,7.15134
2873.76,776.863,7.16481
2876.76,777.357,7.17805
2879.76,777.853,7.19108
2882.76,778.355,7.20411
2885.76,778.85,7.21774
2888.76,779.348,7.23089
2891.76,779.846,7.24395
2894.76,780.343,7.25735
2897.76,780.841,7.27052
2900.76,781.334,7.28425
2903.76,781.83,7.2979
2906.76,782.329,7.31056
2909.76,782.822,7.32361
2912.76,783.32,7.33729
2915.76,783.817,7.35042
2918.76,784.311,7.36464
2921.76,784.808,7.37902
2924.76,785.305,7.39244
2927.76,785.802,7.40606
2930.76,786.3,7.41985
2933.76,786.793,7.43407
2936.76,787.289,7.44749
2939.76,787.782,7.4617
2942.76,788.279,7.47545
2945.76,788.777,7.48941
2948.76,789.272,7.50282
2951.76,789.766,7.51632
2954.76,790.265,7.53128
2957.76,790.764,7.54571
2960.76,791.258,7.55995
2963.76,791.754,7.57287
2966.76,792.255,7.58611
2969.76,792.754,7.601
2972.76,793.244,7.61482
2975.76,793.74,7.62861
2978.76,794.236,7.64214
2981.76,794.735,7.65557
2984.76,795.23,7.6699
2987.76,795.727,7.68437
2990.76,796.223,7.69836
2993.76,796.721,7.71192
2996.76,797.222,7.72626
2999.76,797.714,7.73921
3002.76,798.208,7.7529
3005.76,798.709,7.76726
3008.76,799.209,7.7816
3011.76,799.703,7.79576