File: Wood/Calibration_Data/IMT/IMT-Mines-Ales_Wood_TGA_O2-20_10K_R1.csv
Time (s),Temperature (K),Weight (mg)
0,383.15,5.006
4,383.15,5.006
8,383.15,5.006
12,383.36,5.007
16,383.86,5.007
20,384.40,5.007
24,384.96,5.008
28,385.53,5.008
32,386.10,5.008
36,386.70,5.008
40,387.30,5.008
44,387.91,5.008
48,388.53,5.008
52,389.15,5.008
56,389.79,5.008
60,390.43,5.008
64,391.07,5.008
68,391.72,5.008
72,392.36,5.008
76,393.02,5.008
80,393.67,5.007
84,394.34,5.007
88,394.99,5.007
92,395.65,5.007
96,396.31,5.007
100,396.98,5.007
104,397.65,5.007
108,398.31,5.007
112,398.98,5.007
116,399.64,5.007
120,400.31,5.007
124,400.98,5.007
128,401.65,5.007
132,402.32,5.007
136,402.99,5.007
140,403.65,5.007
144,404.33,5.006
148,404.99,5.006
152,405.67,5.006
156,406.33,5.006
160,407.01,5.006
164,407.68,5.006
168,408.34,5.006
172,409.02,5.006
176,409.69,5.006
180,410.36,5.006
184,411.03,5.005
188,411.70,5.005
192,412.38,5.005
196,413.03,5.005
200,413.72,5.005
204,414.38,5.005
208,415.05,5.005
212,415.72,5.004
216,416.40,5.004
220,417.06,5.004
224,417.74,5.004
228,418.41,5.004
232,419.09,5.004
236,419.75,5.003
240,420.43,5.003
244,421.09,5.003
248,421.77,5.003
252,422.43,5.003
256,423.11,5.002
260,423.78,5.002
264,424.45,5.002
268,425.12,5.002
272,425.80,5.001
276,426.47,5.001
280,427.14,5.001
284,427.80,5.000
288,428.47,5.000
292,429.15,5.000
296,429.82,5.000
300,430.49,4.999
304,431.16,4.999
308,431.82,4.999
312,432.49,4.998
316,433.16,4.998
320,433.83,4.997
324,434.50,4.997
328,435.17,4.997
332,435.84,4.996
336,436.51,4.996
340,437.18,4.995
344,437.86,4.995
348,438.51,4.995
352,439.19,4.994
356,439.85,4.994
360,440.52,4.993
364,441.19,4.993
368,441.87,4.992
372,442.54,4.992
376,443.20,4.992
380,443.88,4.991
384,444.54,4.991
388,445.22,4.990
392,445.88,4.989
396,446.55,4.989
400,447.22,4.988
404,447.89,4.988
408,448.56,4.987
412,449.23,4.987
416,449.90,4.986
420,450.57,4.985
424,451.24,4.985
428,451.90,4.984
432,452.58,4.983
436,453.24,4.982
440,453.91,4.982
444,454.58,4.981
448,455.25,4.980
452,455.93,4.979
456,456.59,4.979
460,457.25,4.978
464,457.93,4.977
468,458.59,4.976
472,459.27,4.975
476,459.94,4.974
480,460.60,4.973
484,461.27,4.972
488,461.94,4.971
492,462.62,4.970
496,463.28,4.969
500,463.95,4.969
504,464.63,4.967
508,465.29,4.966
512,465.97,4.965
516,466.62,4.964
520,467.30,4.963
524,467.96,4.962
528,468.64,4.961
532,469.31,4.960
536,469.98,4.959
540,470.64,4.957
544,471.32,4.956
548,471.98,4.955
552,472.66,4.954
556,473.32,4.953
560,473.99,4.951
564,474.66,4.950
568,475.33,4.949
572,476.00,4.947
576,476.67,4.946
580,477.34,4.944
584,478.01,4.943
588,478.68,4.941
592,479.35,4.940
596,480.02,4.938
600,480.69,4.937
604,481.36,4.935
608,482.02,4.934
612,482.69,4.932
616,483.36,4.931
620,484.03,4.929
624,484.70,4.927
628,485.37,4.926
632,486.04,4.924
636,486.71,4.922
640,487.38,4.920
644,488.05,4.918
648,488.72,4.916
652,489.38,4.914
656,490.05,4.912
660,490.72,4.909
664,491.39,4.907
668,492.07,4.905
672,492.73,4.903
676,493.40,4.901
680,494.07,4.899
684,494.74,4.896
688,495.41,4.894
692,496.08,4.892
696,496.75,4.890
700,497.42,4.888
704,498.09,4.885
708,498.75,4.883
712,499.43,4.881
716,500.09,4.878
720,500.77,4.876
724,501.43,4.873
728,502.11,4.871
732,502.77,4.868
736,503.44,4.865
740,504.11,4.863
744,504.78,4.860
748,505.45,4.857
752,506.11,4.854
756,506.79,4.851
760,507.45,4.848
764,508.13,4.845
768,508.79,4.842
772,509.47,4.838
776,510.13,4.836
780,510.81,4.833
784,511.47,4.830
788,512.14,4.826
792,512.81,4.822
796,513.48,4.818
800,514.15,4.815
804,514.82,4.812
808,515.49,4.809
812,516.16,4.806
816,516.83,4.802
820,517.49,4.798
824,518.17,4.794
828,518.83,4.790
832,519.50,4.786
836,520.18,4.782
840,520.85,4.778
844,521.51,4.773
848,522.18,4.769
852,522.84,4.764
856,523.52,4.759
860,524.19,4.755
864,524.86,4.750
868,525.53,4.745
872,526.20,4.740
876,526.87,4.734
880,527.53,4.729
884,528.21,4.724
888,528.88,4.719
892,529.54,4.713
896,530.21,4.707
900,530.88,4.702
904,531.56,4.695
908,532.22,4.689
912,532.89,4.683
916,533.56,4.676
920,534.23,4.670
924,534.89,4.664
928,535.57,4.657
932,536.24,4.651
936,536.90,4.644
940,537.57,4.637
944,538.24,4.630
948,538.91,4.624
952,539.59,4.616
956,540.26,4.609
960,540.92,4.602
964,541.59,4.595
968,542.26,4.587
972,542.92,4.579
976,543.60,4.572
980,544.27,4.565
984,544.94,4.557
988,545.60,4.549
992,546.27,4.541
996,546.95,4.533
1000,547.61,4.524
1004,548.28,4.516
1008,548.95,4.507
1012,549.62,4.498
1016,550.29,4.489
1020,550.96,4.481
1024,551.63,4.472
1028,552.31,4.463
1032,552.96,4.454
1036,553.64,4.445
1040,554.31,4.435
1044,554.97,4.426
1048,555.64,4.416
1052,556.32,4.407
1056,556.98,4.397
1060,557.65,4.387
1064,558.32,4.377
1068,558.99,4.367
1072,559.66,4.357
1076,560.33,4.347
1080,561.00,4.336
1084,561.67,4.326
1088,562.34,4.315
1092,563.00,4.305
1096,563.68,4.294
1100,564.34,4.283
1104,565.01,4.272
1108,565.68,4.261
1112,566.35,4.249
1116,567.02,4.238
1120,567.69,4.226
1124,568.36,4.215
1128,569.03,4.203
1132,569.70,4.191
1136,570.36,4.179
1140,571.04,4.167
1144,571.70,4.154
1148,572.38,4.142
1152,573.05,4.129
1156,573.71,4.116
1160,574.38,4.103
1164,575.05,4.090
1168,575.72,4.077
1172,576.39,4.063
1176,577.06,4.049
1180,577.73,4.035
1184,578.40,4.021
1188,579.07,4.007
1192,579.74,3.992
1196,580.40,3.978
1200,581.07,3.963
1204,581.74,3.947
1208,582.41,3.932
1212,583.08,3.916
1216,583.75,3.900
1220,584.42,3.884
1224,585.09,3.867
1228,585.76,3.850
1232,586.43,3.833
1236,587.10,3.816
1240,587.76,3.798
1244,588.44,3.780
1248,589.11,3.762
1252,589.77,3.743
1256,590.45,3.724
1260,591.11,3.704
1264,591.78,3.685
1268,592.45,3.664
1272,593.12,3.644
1276,593.79,3.623
1280,594.46,3.602
1284,595.13,3.580
1288,595.80,3.558
1292,596.46,3.535
1296,597.13,3.512
1300,597.81,3.489
1304,598.47,3.465
1308,599.14,3.440
1312,599.81,3.416
1316,600.48,3.390
1320,601.15,3.364
1324,601.82,3.337
1328,602.49,3.310
1332,603.16,3.282
1336,603.83,3.254
1340,604.49,3.225
1344,605.16,3.195
1348,605.84,3.164
1352,606.50,3.132
1356,607.18,3.099
1360,607.84,3.066
1364,608.51,3.031
1368,609.18,2.995
1372,609.84,2.958
1376,610.53,2.919
1380,611.19,2.879
1384,611.86,2.838
1388,612.53,2.795
1392,613.20,2.750
1396,613.86,2.704
1400,614.54,2.656
1404,615.20,2.607
1408,615.87,2.556
1412,616.54,2.503
1416,617.22,2.450
1420,617.88,2.396
1424,618.55,2.342
1428,619.22,2.288
1432,619.89,2.235
1436,620.56,2.183
1440,621.22,2.132
1444,621.90,2.084
1448,622.56,2.038
1452,623.23,1.995
1456,623.91,1.955
1460,624.57,1.919
1464,625.24,1.885
1468,625.91,1.855
1472,626.59,1.827
1476,627.25,1.802
1480,627.92,1.779
1484,628.59,1.758
1488,629.26,1.738
1492,629.93,1.720
1496,630.59,1.704
1500,631.26,1.688
1504,631.94,1.674
1508,632.60,1.660
1512,633.27,1.648
1516,633.94,1.635
1520,634.61,1.624
1524,635.29,1.613
1528,635.95,1.603
1532,636.61,1.593
1536,637.29,1.583
1540,637.95,1.573
1544,638.62,1.564
1548,639.30,1.555
1552,639.97,1.546
1556,640.64,1.538
1560,641.30,1.529
1564,641.97,1.521
1568,642.64,1.513
1572,643.31,1.505
1576,643.97,1.498
1580,644.65,1.490
1584,645.32,1.483
1588,645.99,1.475
1592,646.66,1.468
1596,647.32,1.461
1600,647.99,1.454
1604,648.66,1.447
1608,649.33,1.440
1612,650.00,1.434
1616,650.67,1.427
1620,651.34,1.420
1624,652.01,1.414
1628,652.68,1.407
1632,653.35,1.401
1636,654.02,1.395
1640,654.68,1.388
1644,655.36,1.383
1648,656.03,1.376
1652,656.69,1.370
1656,657.36,1.364
1660,658.04,1.358
1664,658.71,1.352
1668,659.37,1.346
1672,660.04,1.340
1676,660.71,1.334
1680,661.38,1.328
1684,662.04,1.323
1688,662.72,1.317
1692,663.38,1.311
1696,664.06,1.305
1700,664.73,1.300
1704,665.40,1.294
1708,666.07,1.288
1712,666.73,1.283
1716,667.41,1.277
1720,668.08,1.271
1724,668.75,1.265
1728,669.41,1.260
1732,670.08,1.254
1736,670.75,1.250
1740,671.42,1.244
1744,672.08,1.239
1748,672.75,1.233
1752,673.42,1.228
1756,674.09,1.222
1760,674.77,1.217
1764,675.43,1.211
1768,676.10,1.206
1772,676.77,1.200
1776,677.44,1.194
1780,678.11,1.189
1784,678.78,1.183
1788,679.46,1.178
1792,680.12,1.172
1796,680.79,1.166
1800,681.45,1.160
1804,682.12,1.155
1808,682.79,1.150
1812,683.46,1.144
1816,684.13,1.138
1820,684.80,1.133
1824,685.48,1.127
1828,686.14,1.122
1832,686.81,1.116
1836,687.48,1.111
1840,688.15,1.105
1844,688.82,1.099
1848,689.49,1.094
1852,690.16,1.088
1856,690.82,1.082
1860,691.50,1.077
1864,692.17,1.071
1868,692.84,1.065
1872,693.51,1.059
1876,694.18,1.054
1880,694.84,1.048
1884,695.51,1.042
1888,696.19,1.036
1892,696.85,1.030
1896,697.52,1.024
1900,698.19,1.018
1904,698.85,1.012
1908,699.54,1.006
1912,700.20,1.000
1916,700.86,0.994
1920,701.53,0.988
1924,702.19,0.982
1928,702.86,0.976
1932,703.53,0.970
1936,704.20,0.963
1940,704.87,0.957
1944,705.53,0.951
1948,706.19,0.945
1952,706.86,0.938
1956,707.52,0.932
1960,708.20,0.926
1964,708.86,0.919
1968,709.53,0.913
1972,710.19,0.907
1976,710.86,0.900
1980,711.53,0.894
1984,712.19,0.887
1988,712.87,0.880
1992,713.53,0.873
1996,714.20,0.866
2000,714.86,0.859
2004,715.53,0.852
2008,716.19,0.845
2012,716.86,0.838
2016,717.53,0.831
2020,718.19,0.823
2024,718.86,0.816
2028,719.53,0.808
2032,720.20,0.801
2036,720.87,0.793
2040,721.53,0.785
2044,722.20,0.777
2048,722.85,0.769
2052,723.53,0.761
2056,724.19,0.754
2060,724.86,0.745
2064,725.53,0.737
2068,726.19,0.729
2072,726.86,0.721
2076,727.53,0.712
2080,728.19,0.704
2084,728.87,0.696
2088,729.53,0.687
2092,730.19,0.679
2096,730.86,0.670
2100,731.53,0.661
2104,732.20,0.653
2108,732.86,0.644
2112,733.53,0.635
2116,734.19,0.627
2120,734.86,0.618
2124,735.53,0.609
2128,736.19,0.600
2132,736.87,0.591
2136,737.53,0.582
2140,738.20,0.573
2144,738.86,0.564
2148,739.53,0.555
2152,740.20,0.546
2156,740.87,0.537
2160,741.53,0.528
2164,742.20,0.519
2168,742.86,0.510
2172,743.53,0.501
2176,744.20,0.492
2180,744.87,0.483
2184,745.53,0.473
2188,746.20,0.464
2192,746.86,0.454
2196,747.53,0.445
2200,748.20,0.435
2204,748.87,0.425
2208,749.53,0.416
2212,750.21,0.406
2216,750.87,0.396
2220,751.53,0.386
2224,752.19,0.376
2228,752.86,0.366
2232,753.53,0.355
2236,754.20,0.345
2240,754.87,0.334
2244,755.53,0.323
2248,756.20,0.312
2252,756.86,0.301
2256,757.53,0.290
2260,758.19,0.279
2264,758.86,0.267
2268,759.53,0.255
2272,760.19,0.243
2276,760.86,0.231
2280,761.53,0.218
2284,762.20,0.204
2288,762.87,0.192
2292,763.53,0.178
2296,764.28,0.049
2300,764.65,0.024
2304,765.38,0.025
2308,766.11,0.025
2312,766.82,0.023
2316,767.50,0.022
2320,768.18,0.022
2324,768.85,0.021
2328,769.52,0.021
2332,770.19,0.021
2336,770.86,0.020
2340,771.53,0.020
2344,772.20,0.020
2348,772.86,0.020
2352,773.53,0.019
2356,774.20,0.019
2360,774.86,0.019
2364,775.54,0.019
2368,776.20,0.019
2372,776.86,0.018
2376,777.53,0.018
2380,778.20,0.018
2384,778.87,0.018
2388,779.53,0.018
2392,780.20,0.018
2396,780.87,0.018
2400,781.53,0.018
2404,782.20,0.018
2408,782.87,0.018
2412,783.53,0.017
2416,784.20,0.017
2420,784.87,0.017
2424,785.53,0.017
2428,786.20,0.017
2432,786.86,0.017
2436,787.53,0.017
2440,788.20,0.017
2444,788.87,0.017
2448,789.53,0.017
2452,790.20,0.017
2456,790.87,0.017
2460,791.53,0.017
2464,792.20,0.017
2468,792.87,0.017
2472,793.54,0.017
2476,794.20,0.017
2480,794.86,0.017
2484,795.54,0.017
2488,796.20,0.017
2492,796.87,0.017
2496,797.54,0.017
2500,798.19,0.017
2504,798.87,0.017
2508,799.53,0.017
2512,800.20,0.017
2516,800.87,0.017
2520,801.53,0.017
2524,802.20,0.017
2528,802.87,0.017
2532,803.53,0.017
2536,804.20,0.017
2540,804.87,0.017
2544,805.54,0.017
2548,806.20,0.017
2552,806.86,0.017
2556,807.53,0.017
2560,808.20,0.017
2564,808.87,0.017
2568,809.53,0.017
2572,810.20,0.017
2576,810.87,0.017
2580,811.54,0.017
2584,812.20,0.017
2588,812.87,0.017
2592,813.54,0.017
2596,814.20,0.017
2600,814.87,0.017
2604,815.53,0.017
2608,816.20,0.017
2612,816.87,0.017
2616,817.53,0.017
2620,818.20,0.017
2624,818.87,0.017
2628,819.54,0.017
2632,820.20,0.017
2636,820.87,0.017
2640,821.54,0.017
2644,822.19,0.016
2648,822.87,0.016
2652,823.54,0.016
2656,824.21,0.016
2660,824.87,0.016
2664,825.53,0.016
2668,826.20,0.016
2672,826.86,0.016
2676,827.53,0.016
2680,828.20,0.016
2684,828.87,0.016
2688,829.54,0.016
2692,830.20,0.016
2696,830.86,0.016
2700,831.54,0.016
2704,832.21,0.016
2708,832.87,0.016
2712,833.53,0.016
2716,834.20,0.016
2720,834.87,0.016
2724,835.53,0.016
2728,836.20,0.016
2732,836.87,0.016
2736,837.54,0.016
2740,838.20,0.016
2744,838.87,0.016
2748,839.54,0.016
2752,840.20,0.016
2756,840.87,0.016
2760,841.54,0.016
2764,842.20,0.016
2768,842.87,0.016
2772,843.54,0.016
2776,844.20,0.016
2780,844.87,0.016
2784,845.54,0.016
2788,846.20,0.016
2792,846.87,0.016
2796,847.53,0.016
2800,848.21,0.016
2804,848.87,0.016
2808,849.54,0.016
2812,850.20,0.016
2816,850.87,0.016
2820,851.54,0.016
2824,852.20,0.016
2828,852.87,0.016
2832,853.53,0.016
2836,854.21,0.016
2840,854.87,0.016
2844,855.54,0.016
2848,856.20,0.016
2852,856.87,0.016
2856,857.54,0.016
2860,858.21,0.016
2864,858.87,0.016
2868,859.54,0.016
2872,860.20,0.016
2876,860.87,0.016
2880,861.54,0.016
2884,862.21,0.016
2888,862.87,0.016
2892,863.54,0.016
2896,864.20,0.016
2900,864.87,0.016
2904,865.54,0.016
2908,866.21,0.016
2912,866.87,0.016
2916,867.54,0.016
2920,868.21,0.016
2924,868.87,0.016
2928,869.53,0.016
2932,870.20,0.016
2936,870.87,0.016
2940,871.54,0.016
2944,872.21,0.016
2948,872.87,0.016
2952,873.54,0.016
2956,874.21,0.016
2960,874.87,0.016
2964,875.54,0.016
2968,876.20,0.016
2972,876.87,0.016
2976,877.54,0.016
2980,878.21,0.016
2984,878.87,0.016
2988,879.54,0.016
2992,880.20,0.016
2996,880.87,0.016
3000,881.54,0.016
3004,882.21,0.016
3008,882.88,0.016
3012,883.54,0.016
3016,884.21,0.016
3020,884.87,0.016
3024,885.54,0.016
3028,886.20,0.016
3032,886.87,0.016
3036,887.54,0.016
3040,888.20,0.016
3044,888.87,0.016
3048,889.54,0.016
3052,890.21,0.016
3056,890.87,0.016
3060,891.54,0.016
3064,892.21,0.016
3068,892.87,0.016
3072,893.54,0.016
3076,894.21,0.016
3080,894.87,0.016
3084,895.54,0.015
3088,896.20,0.015
3092,896.87,0.015
3096,897.54,0.015
3100,898.21,0.015
3104,898.88,0.015
3108,899.54,0.015
3112,900.21,0.015
3116,900.87,0.015
3120,901.54,0.015
3124,902.21,0.015
3128,902.88,0.015
3132,903.54,0.015
3136,904.22,0.015
3140,904.88,0.015
3144,905.54,0.015
3148,906.21,0.015
3152,906.87,0.015
3156,907.54,0.015
3160,908.21,0.015
3164,908.88,0.015
3168,909.54,0.015
3172,910.21,0.015
3176,910.87,0.015
3180,911.54,0.015
3184,912.21,0.015
3188,912.87,0.015
3192,913.55,0.015
3196,914.21,0.015
3200,914.87,0.015
3204,915.54,0.015
3208,916.21,0.015
3212,916.87,0.015
3216,917.54,0.015
3220,918.21,0.015
3224,918.87,0.015
3228,919.54,0.015
3232,920.21,0.015
3236,920.88,0.015
3240,921.54,0.015
3244,922.21,0.015
3248,922.88,0.015
3252,923.55,0.015
3256,924.21,0.015
3260,924.87,0.015
3264,925.54,0.015
3268,926.21,0.015
3272,926.88,0.015
3276,927.54,0.015
3280,928.21,0.015
3284,928.88,0.015
3288,929.54,0.015
3292,930.21,0.015
3296,930.87,0.015
3300,931.54,0.015
3304,932.21,0.015
3308,932.88,0.015
3312,933.55,0.015
3316,934.21,0.015
3320,934.88,0.015
3324,935.54,0.015
3328,936.21,0.015
3332,936.88,0.015
3336,937.54,0.015
3340,938.21,0.015
3344,938.88,0.015
3348,939.55,0.015
3352,940.21,0.015
3356,940.87,0.015
3360,941.55,0.015
3364,942.21,0.015
3368,942.87,0.015
3372,943.54,0.015
3376,944.21,0.015
3380,944.87,0.015
3384,945.54,0.015
3388,946.21,0.015
3392,946.88,0.015
3396,947.54,0.015
3400,948.21,0.015
3404,948.88,0.015
3408,949.55,0.015
3412,950.21,0.015
3416,950.88,0.015
3420,951.54,0.015
3424,952.21,0.015
3428,952.88,0.015
3432,953.54,0.015
3436,954.21,0.015
3440,954.88,0.015
3444,955.55,0.015
3448,956.21,0.015
3452,956.87,0.015
3456,957.54,0.015
3460,958.21,0.015
3464,958.88,0.015
3468,959.54,0.015
3472,960.21,0.015
3476,960.88,0.015
3480,961.54,0.015
3484,962.22,0.015
3488,962.87,0.015
3492,963.54,0.015
3496,964.21,0.015
3500,964.88,0.015
3504,965.54,0.015
3508,966.21,0.015
3512,966.88,0.015
3516,967.55,0.015
3520,968.21,0.015
3524,968.87,0.015
3528,969.54,0.015
3532,970.21,0.015
3536,970.88,0.015
3540,971.54,0.015
3544,972.21,0.015
3548,972.88,0.015
3552,973.54,0.015
3556,974.21,0.015
3560,974.88,0.015
3564,975.55,0.015
3568,976.21,0.015
3572,976.88,0.015
3576,977.55,0.015
3580,978.21,0.015
3584,978.87,0.015
3588,979.54,0.015
3592,980.22,0.015
3596,980.88,0.015
3600,981.54,0.015
3604,982.21,0.015
3608,982.88,0.015
3612,983.54,0.015
3616,984.21,0.015
3620,984.88,0.015
3624,985.55,0.015
3628,986.21,0.015
3632,986.87,0.015
3636,987.54,0.015
3640,988.21,0.015
3644,988.88,0.015
3648,989.54,0.015
3652,990.21,0.015
3656,990.88,0.015
3660,991.55,0.015
3664,992.21,0.015
3668,992.88,0.015
3672,993.54,0.015
3676,994.21,0.015
3680,994.88,0.015
3684,995.55,0.015
3688,996.21,0.015
3692,996.88,0.015
3696,997.54,0.015
3700,998.20,0.015
3704,998.88,0.015
3708,999.54,0.015
3712,1000.21,0.015
3716,1000.88,0.015
3720,1001.54,0.015
3724,1002.21,0.015
3728,1002.88,0.015
3732,1003.55,0.015
3736,1004.22,0.015
3740,1004.88,0.015
3744,1005.54,0.016
3748,1006.21,0.015
3752,1006.87,0.015
3756,1007.54,0.015
3760,1008.21,0.015
3764,1008.88,0.015
3768,1009.55,0.015
3772,1010.21,0.015
3776,1010.88,0.015
3780,1011.54,0.015
3784,1012.21,0.015
3788,1012.87,0.015
3792,1013.54,0.015
3796,1014.21,0.015
3800,1014.88,0.015
3804,1015.55,0.015
3808,1016.21,0.015
3812,1016.88,0.015
3816,1017.54,0.015
3820,1018.21,0.015
3824,1018.88,0.015
3828,1019.55,0.015
3832,1020.21,0.015
3836,1020.87,0.015
3840,1021.54,0.015
3844,1022.21,0.015
3848,1022.88,0.015
3852,1023.55,0.015
3856,1024.21,0.015
3860,1024.88,0.015
3864,1025.55,0.015
3868,1026.21,0.015
3872,1026.88,0.015
3876,1027.54,0.015
3880,1028.22,0.015
3884,1028.88,0.015
3888,1029.55,0.015
3892,1030.21,0.015
3896,1030.88,0.015
3900,1031.55,0.015
3904,1032.21,0.015
3908,1032.88,0.015
3912,1033.54,0.015
3916,1034.21,0.015
3920,1034.88,0.015
3924,1035.54,0.015
3928,1036.21,0.015
3932,1036.88,0.015
3936,1037.54,0.015
3940,1038.21,0.015
3944,1038.88,0.015
3948,1039.55,0.015
3952,1040.22,0.015
3956,1040.87,0.015
3960,1041.55,0.015
3964,1042.22,0.015
3968,1042.88,0.015
3972,1043.54,0.015
3976,1044.21,0.015
3980,1044.87,0.015
3984,1045.54,0.015
3988,1046.21,0.015
3992,1046.88,0.015
3996,1047.54,0.015
4000,1048.21,0.015
4004,1048.88,0.015
4008,1049.55,0.015
4012,1050.21,0.015
4016,1050.88,0.015
4020,1051.54,0.015
4024,1052.21,0.015
4028,1052.88,0.015
4032,1053.54,0.015
4036,1054.21,0.015
4040,1054.87,0.015
4044,1055.55,0.015
4048,1056.21,0.015
4052,1056.87,0.015
4056,1057.55,0.015
4060,1058.21,0.015
4064,1058.87,0.015
4068,1059.54,0.015
4072,1060.21,0.015
4076,1060.87,0.015
4080,1061.54,0.015
4084,1062.21,0.015
4088,1062.88,0.015
4092,1063.54,0.015
4096,1064.21,0.015
4100,1064.88,0.015
4104,1065.54,0.015
4108,1066.21,0.015
4112,1066.87,0.015
4116,1067.54,0.015
4120,1068.21,0.015
4124,1068.88,0.015
4128,1069.54,0.015
4132,1070.21,0.015
4136,1070.88,0.015
4140,1071.54,0.015
4144,1072.21,0.015
4148,1072.88,0.015
4152,1073.54,0.015
4156,1074.21,0.015
4160,1074.87,0.015
4164,1075.54,0.015
4168,1076.21,0.015
4172,1076.88,0.015
4176,1077.55,0.015
4180,1078.21,0.015
4184,1078.88,0.015
4188,1079.54,0.015
4192,1080.21,0.015
4196,1080.88,0.015
4200,1081.54,0.015
4204,1082.20,0.015
4208,1082.88,0.015
4212,1083.54,0.015
4216,1084.20,0.015
4220,1084.88,0.015
4224,1085.54,0.015
4228,1086.21,0.015
4232,1086.88,0.015
4236,1087.55,0.015
4240,1088.21,0.015
4244,1088.88,0.015
4248,1089.54,0.015
4252,1090.21,0.015
4256,1090.88,0.015
4260,1091.54,0.015
4264,1092.21,0.015
4268,1092.87,0.015
4272,1093.54,0.015
4276,1094.21,0.015
4280,1094.87,0.015
4284,1095.54,0.014
4288,1096.21,0.014
4292,1096.87,0.014
4296,1097.54,0.014
4300,1098.21,0.014
4304,1098.87,0.014
4308,1099.54,0.014
4312,1100.21,0.014
4316,1100.88,0.014
4320,1101.54,0.014
4324,1102.20,0.014
4328,1102.88,0.014
4332,1103.54,0.014
4336,1104.20,0.014
4340,1104.87,0.014
4344,1105.55,0.014
4348,1106.21,0.014
4352,1106.88,0.014
4356,1107.54,0.014
4360,1108.20,0.014
4364,1108.87,0.014
4368,1109.55,0.014
4372,1110.21,0.014
4376,1110.87,0.014
4380,1111.55,0.014
4384,1112.20,0.014
4388,1112.88,0.014
4392,1113.54,0.014
4396,1114.21,0.014
4400,1114.87,0.014
4404,1115.55,0.014
4408,1116.20,0.014
4412,1116.87,0.014
4416,1117.54,0.014
4420,1118.21,0.014
4424,1118.87,0.014
4428,1119.55,0.014
4432,1120.21,0.014
4436,1120.88,0.014
4440,1121.54,0.014
4444,1122.21,0.014
4448,1122.87,0.014
4452,1123.54,0.014
4456,1124.20,0.014
4460,1124.88,0.014
4464,1125.54,0.014
4468,1126.20,0.014
4472,1126.88,0.014
4476,1127.54,0.014
4480,1128.21,0.014
4484,1128.87,0.014
4488,1129.54,0.014
4492,1130.21,0.014
4496,1130.87,0.014
4500,1131.54,0.014
4504,1132.21,0.014
4508,1132.87,0.014
4512,1133.54,0.014
4516,1134.21,0.014
4520,1134.87,0.013
4524,1135.54,0.013
4528,1136.20,0.013
4532,1136.87,0.013
4536,1137.55,0.013
4540,1138.21,0.013
4544,1138.88,0.013
4548,1139.54,0.013
4552,1140.20,0.013
4556,1140.88,0.013
4560,1141.55,0.013
4564,1142.21,0.013
4568,1142.87,0.013
4572,1143.54,0.013
4576,1144.21,0.013
4580,1144.87,0.013
4584,1145.54,0.013
4588,1146.21,0.013
4592,1146.88,0.013
4596,1147.53,0.013
4600,1148.21,0.013
4604,1148.87,0.013
4608,1149.54,0.013
4612,1150.21,0.013
4616,1150.87,0.013
4620,1151.54,0.013
4624,1152.20,0.013
4628,1152.87,0.013
4632,1153.54,0.013
4636,1154.20,0.013
4640,1154.88,0.013
4644,1155.54,0.013
4648,1156.20,0.013
4652,1156.88,0.013
4656,1157.55,0.013
4660,1158.20,0.013
4664,1158.88,0.013
4668,1159.53,0.013
4672,1160.21,0.013
4676,1160.87,0.013
4680,1161.54,0.013
4684,1162.21,0.013
4688,1162.87,0.013
4692,1163.54,0.012
4696,1164.21,0.012
4700,1164.88,0.012
4704,1165.54,0.012
4708,1166.20,0.012
4712,1166.87,0.012
4716,1167.54,0.012
4720,1168.20,0.012
4724,1168.88,0.012
4728,1169.54,0.012
4732,1170.21,0.012
4736,1170.87,0.012
4739,1171.37,0.012