File: Wood/Calibration_Data/IMT/IMT-Mines-Ales_Wood_Cone_75kW_hor_R1.csv
Time (s),Mass (g),HRR (kW/m²)
0,97.00,-0.04
5,95.61,74.01
10,95.11,226.95
15,94.34,251.96
20,93.72,222.53
25,93.02,201.51
30,92.52,180.08
35,91.92,164.52
40,91.53,153.97
45,90.88,144.67
50,90.42,138.75
55,90.10,130.23
60,89.60,127.18
65,89.12,120.78
70,88.72,121.38
75,88.32,115.84
80,88.02,113.28
85,87.60,111.49
90,87.22,111.00
95,86.91,107.66
100,86.52,107.24
105,86.22,106.31
110,85.81,103.65
115,85.42,103.34
120,85.10,101.86
125,84.82,99.32
130,84.41,101.52
135,84.10,99.90
140,83.70,100.95
145,83.50,101.57
150,83.00,100.94
155,82.72,101.87
160,82.42,99.76
165,82.11,99.23
170,81.80,98.66
175,81.42,94.85
180,81.10,96.16
185,80.79,96.16
190,80.50,95.71
195,80.13,95.97
200,79.82,94.92
205,79.52,94.47
210,79.21,93.83
215,78.78,92.82
220,78.50,93.01
225,78.10,91.42
230,77.82,91.10
235,77.51,91.43
240,77.11,91.85
245,76.90,90.62
250,76.51,90.91
255,76.30,91.14
260,75.92,92.57
265,75.60,90.60
270,75.22,89.10
275,74.91,89.92
280,74.65,86.00
285,74.23,87.51
290,74.10,85.09
295,73.71,85.76
300,73.31,85.05
305,73.10,87.22
310,72.80,87.10
315,72.51,86.45
320,72.11,85.15
325,71.82,86.49
330,71.49,84.14
335,71.20,86.35
340,70.90,83.81
345,70.51,87.08
350,70.31,86.39
355,69.86,85.19
360,69.61,81.22
365,69.40,82.04
370,69.02,81.77
375,68.80,80.69
380,68.41,85.08
385,68.19,84.69
390,67.81,83.97
395,67.50,84.46
400,67.21,82.09
405,66.99,81.67
410,66.61,82.60
415,66.22,81.32
420,66.01,81.29
425,65.71,81.15
430,65.49,78.40
435,65.19,80.07
440,64.89,80.35
445,64.60,82.38
450,64.29,81.42
455,63.99,81.53
460,63.60,82.45
465,63.31,80.71
470,63.11,81.61
475,62.81,80.74
480,62.52,80.45
485,62.20,83.05
490,61.99,83.49
495,61.61,81.58
500,61.31,80.92
505,61.10,82.59
510,60.71,82.88
515,60.49,80.86
520,60.19,81.03
525,59.90,82.93
530,59.60,82.07
535,59.29,82.62
540,58.99,81.33
545,58.71,83.18
550,58.39,82.73
555,58.21,84.67
560,57.89,84.49
565,57.61,84.67
570,57.29,83.20
575,57.01,83.14
580,56.69,84.67
585,56.28,87.11
590,56.10,88.46
595,55.81,87.89
600,55.50,85.83
605,55.21,84.45
610,54.99,84.75
615,54.64,86.82
620,54.39,88.10
625,54.10,88.91
630,53.79,90.33
635,53.49,91.47
640,53.21,89.88
645,53.00,89.42
650,52.52,87.59
655,52.29,91.50
660,51.99,90.71
665,51.61,93.27
670,51.20,96.22
675,51.01,94.78
680,50.73,96.05
685,50.51,96.05
690,50.19,94.92
695,49.89,95.88
700,49.49,96.26
705,49.21,97.96
710,48.88,100.80
715,48.39,99.68
720,48.20,101.97
725,47.80,103.01
730,47.52,103.09
735,47.29,103.70
740,46.90,103.35
745,46.59,107.16
750,46.19,105.25
755,45.79,107.55
760,45.51,109.16
765,45.10,110.50
770,44.80,111.76
775,44.50,109.17
780,44.10,111.73
785,43.81,111.88
790,43.40,113.33
795,43.02,113.48
800,42.70,114.31
805,42.21,114.66
810,41.97,119.31
815,41.60,120.35
820,41.10,119.25
825,40.80,120.97
830,40.50,122.01
835,40.01,122.13
840,39.61,124.52
845,39.28,127.07
850,38.71,127.05
855,38.38,131.09
860,37.90,130.64
865,37.60,128.92
870,37.19,133.56
875,36.70,131.60
880,36.38,132.89
885,35.90,134.49
890,35.50,131.76
895,35.08,131.40
900,34.70,134.97
905,34.08,136.46
910,33.78,139.67
915,33.31,138.78
920,32.90,138.06
925,32.50,141.06
930,31.98,137.73
935,31.60,139.95
940,31.08,139.12
945,30.69,140.28
950,30.30,139.76
955,29.78,141.68
960,29.39,141.10
965,29.00,143.42
970,28.42,142.84
975,27.88,142.84
980,27.60,143.40
985,27.19,143.71
990,26.68,146.69
995,26.28,147.65
1000,25.90,146.97
1005,25.40,146.45
1010,25.00,148.10
1015,24.38,144.05
1020,24.11,143.82
1025,23.69,141.59
1030,23.38,139.21
1035,22.89,138.02
1040,22.49,131.14
1045,22.09,132.45
1050,21.79,126.81
1055,21.38,127.52
1060,21.09,124.72
1065,20.78,119.11
1070,20.41,113.87
1075,20.16,108.66
1080,19.80,106.17
1085,19.58,103.33
1090,19.28,97.32
1095,18.99,94.02
1100,18.78,90.34
1105,18.50,86.28
1110,18.38,82.86
1115,18.17,80.99
1120,17.98,75.22
1125,17.79,73.17
1130,17.68,70.18
1135,17.48,68.34
1140,17.38,64.48
1145,17.19,60.99
1150,17.08,57.91
1155,16.98,56.56
1160,16.88,55.28
1165,16.78,53.16
1170,16.68,51.16
1175,16.58,50.28
1180,16.48,49.06
1185,16.46,47.11
1190,16.30,45.91
1195,16.29,46.88
1200,16.27,46.83
1205,16.17,45.98
1210,16.08,45.04
1215,15.97,43.34
1220,15.95,44.47
1225,15.87,43.51
1230,15.77,42.65
1235,15.68,42.11
1240,15.58,43.45
1245,15.58,41.92
1250,15.47,41.33
1255,15.39,42.94
1260,15.37,43.11
1265,15.28,41.92
1270,15.28,41.64
1275,15.17,41.85
1280,15.09,40.40
1285,15.07,41.90
1290,14.89,41.13
1295,14.89,40.16
1300,14.88,40.46
1305,14.87,39.38
1310,14.77,38.51
1315,25.11,110.70
1320,24.71,106.22
1325,24.52,103.20
1330,24.29,104.02
1335,24.00,98.32
1340,23.71,94.45
1345,23.49,92.19
1350,23.30,90.62
1355,23.10,86.32
1360,22.90,86.58
1365,22.70,84.68
1370,22.40,82.74
1375,22.30,83.35
1380,22.20,80.73
1385,21.90,74.81
1390,21.82,71.11
1395,21.69,67.22
1400,21.58,65.70
1405,21.40,64.80
1410,21.29,64.37
1415,21.11,62.96
1420,21.10,61.68
1425,20.99,58.45
1430,20.87,55.14
1435,20.71,52.45
1440,20.69,49.77
1445,20.60,48.84
1450,20.59,48.09
1455,20.50,45.99
1460,20.40,45.21
1465,20.22,43.96
1470,20.19,44.88
1475,20.23,47.46
1480,20.09,44.69
1485,20.00,44.44
1490,19.90,45.38
1495,19.90,45.36
1500,19.79,43.49
1505,19.79,43.64
1510,19.70,42.92
1515,19.59,42.72
1520,19.58,43.36
1525,19.49,43.32
1530,19.39,42.49
1535,19.31,43.40
1540,19.30,41.60
1545,19.21,43.28
1550,19.18,42.79
1555,19.09,45.24
1560,18.99,45.23
1565,18.92,42.70
1570,18.90,42.84
1575,18.90,42.02
1580,18.79,43.67
1585,18.69,44.82
1590,18.70,45.14
1595,18.68,44.73
1600,18.60,44.03
1605,18.49,42.90
1610,18.39,42.90