File: Wood/Calibration_Data/IMT/IMT-Mines-Ales_Wood_TGA_N2_5K_R1.csv
Time (s),Temperature (K),Weight (mg)
0,383.15,4.877
7,383.15,4.877
14,383.36,4.877
21,383.83,4.877
28,384.32,4.877
35,384.83,4.878
42,385.35,4.878
49,385.89,4.878
56,386.45,4.878
63,387.01,4.878
70,387.57,4.878
77,388.14,4.877
84,388.71,4.877
91,389.28,4.877
98,389.86,4.877
105,390.44,4.877
112,391.02,4.877
119,391.60,4.877
126,392.18,4.877
133,392.78,4.877
140,393.35,4.877
147,393.93,4.877
154,394.52,4.877
161,395.11,4.877
168,395.69,4.877
175,396.28,4.877
182,396.86,4.877
189,397.45,4.876
196,398.03,4.876
203,398.61,4.876
210,399.20,4.876
217,399.79,4.876
224,400.38,4.876
231,400.96,4.876
238,401.54,4.876
245,402.12,4.876
252,402.71,4.875
259,403.30,4.875
266,403.89,4.875
273,404.47,4.875
280,405.05,4.875
287,405.63,4.875
294,406.22,4.875
301,406.81,4.875
308,407.39,4.875
315,407.98,4.874
322,408.56,4.874
329,409.15,4.874
336,409.73,4.874
343,410.32,4.874
350,410.91,4.874
357,411.49,4.873
364,412.07,4.873
371,412.66,4.873
378,413.25,4.873
385,413.83,4.873
392,414.42,4.873
399,415.00,4.872
406,415.58,4.872
413,416.17,4.872
420,416.75,4.872
427,417.34,4.871
434,417.93,4.871
441,418.51,4.871
448,419.09,4.871
455,419.68,4.871
462,420.27,4.870
469,420.85,4.870
476,421.43,4.870
483,422.02,4.870
490,422.61,4.869
497,423.20,4.869
504,423.78,4.869
511,424.37,4.869
518,424.95,4.868
525,425.54,4.868
532,426.12,4.868
539,426.71,4.867
546,427.30,4.867
553,427.88,4.867
560,428.47,4.866
567,429.04,4.866
574,429.63,4.866
581,430.22,4.865
588,430.80,4.865
595,431.38,4.865
602,431.97,4.864
609,432.55,4.864
616,433.13,4.863
623,433.72,4.863
630,434.31,4.862
637,434.89,4.862
644,435.47,4.862
651,436.06,4.861
658,436.64,4.861
665,437.23,4.860
672,437.81,4.860
679,438.40,4.859
686,438.98,4.859
693,439.56,4.858
700,440.15,4.858
707,440.73,4.857
714,441.33,4.856
721,441.91,4.856
728,442.50,4.855
735,443.08,4.854
742,443.65,4.854
749,444.24,4.853
756,444.83,4.852
763,445.41,4.852
770,446.00,4.851
777,446.58,4.850
784,447.17,4.850
791,447.74,4.849
798,448.33,4.848
805,448.92,4.847
812,449.50,4.846
819,450.08,4.845
826,450.67,4.845
833,451.26,4.844
840,451.85,4.843
847,452.43,4.842
854,453.01,4.841
861,453.59,4.840
868,454.17,4.839
875,454.76,4.838
882,455.35,4.837
889,455.93,4.836
896,456.52,4.835
903,457.10,4.834
910,457.68,4.833
917,458.27,4.832
924,458.85,4.831
931,459.44,4.829
938,460.02,4.828
945,460.61,4.827
952,461.19,4.826
959,461.78,4.824
966,462.36,4.823
973,462.95,4.822
980,463.53,4.820
987,464.11,4.819
994,464.71,4.818
1001,465.29,4.817
1008,465.87,4.815
1015,466.45,4.814
1022,467.04,4.812
1029,467.62,4.811
1036,468.21,4.809
1043,468.79,4.808
1050,469.37,4.806
1057,469.95,4.805
1064,470.54,4.803
1071,471.13,4.802
1078,471.71,4.800
1085,472.30,4.799
1092,472.88,4.797
1099,473.46,4.795
1106,474.06,4.794
1113,474.64,4.792
1120,475.22,4.790
1127,475.81,4.788
1134,476.39,4.787
1141,476.97,4.785
1148,477.56,4.783
1155,478.15,4.781
1162,478.73,4.780
1169,479.31,4.778
1176,479.89,4.776
1183,480.48,4.774
1190,481.06,4.772
1197,481.65,4.770
1204,482.23,4.768
1211,482.82,4.767
1218,483.40,4.765
1225,483.99,4.763
1232,484.57,4.761
1239,485.15,4.759
1246,485.74,4.756
1253,486.32,4.755
1260,486.91,4.753
1267,487.50,4.751
1274,488.08,4.749
1281,488.66,4.746
1288,489.25,4.744
1295,489.84,4.742
1302,490.41,4.740
1309,491.00,4.738
1316,491.58,4.736
1323,492.17,4.733
1330,492.75,4.731
1337,493.33,4.729
1344,493.92,4.726
1351,494.50,4.724
1358,495.10,4.722
1365,495.68,4.719
1372,496.26,4.717
1379,496.85,4.715
1386,497.43,4.712
1393,498.01,4.710
1400,498.60,4.707
1407,499.19,4.705
1414,499.77,4.702
1421,500.35,4.700
1428,500.94,4.697
1435,501.52,4.694
1442,502.11,4.692
1449,502.69,4.689
1456,503.28,4.686
1463,503.86,4.683
1470,504.45,4.680
1477,505.03,4.677
1484,505.62,4.674
1491,506.20,4.671
1498,506.79,4.668
1505,507.37,4.665
1512,507.95,4.662
1519,508.53,4.659
1526,509.12,4.655
1533,509.71,4.652
1540,510.30,4.649
1547,510.88,4.645
1554,511.46,4.642
1561,512.04,4.638
1568,512.63,4.635
1575,513.21,4.631
1582,513.79,4.627
1589,514.38,4.624
1596,514.96,4.620
1603,515.55,4.616
1610,516.13,4.612
1617,516.71,4.608
1624,517.30,4.604
1631,517.89,4.599
1638,518.47,4.595
1645,519.05,4.591
1652,519.64,4.586
1659,520.23,4.582
1666,520.81,4.577
1673,521.39,4.573
1680,521.98,4.568
1687,522.56,4.563
1694,523.15,4.558
1701,523.73,4.554
1708,524.31,4.549
1715,524.90,4.544
1722,525.49,4.538
1729,526.06,4.533
1736,526.65,4.528
1743,527.24,4.523
1750,527.83,4.517
1757,528.41,4.511
1764,529.00,4.505
1771,529.57,4.500
1778,530.16,4.494
1785,530.75,4.488
1792,531.33,4.483
1799,531.92,4.478
1806,532.50,4.472
1813,533.08,4.466
1820,533.67,4.460
1827,534.26,4.454
1834,534.84,4.449
1841,535.42,4.443
1848,536.00,4.437
1855,536.59,4.430
1862,537.17,4.424
1869,537.76,4.418
1876,538.34,4.412
1883,538.92,4.405
1890,539.51,4.399
1897,540.10,4.393
1904,540.68,4.386
1911,541.26,4.379
1918,541.85,4.373
1925,542.43,4.366
1932,543.02,4.360
1939,543.61,4.353
1946,544.20,4.346
1953,544.77,4.340
1960,545.35,4.333
1967,545.95,4.326
1974,546.53,4.319
1981,547.11,4.312
1988,547.69,4.305
1995,548.28,4.298
2002,548.86,4.291
2009,549.45,4.284
2016,550.03,4.277
2023,550.61,4.270
2030,551.20,4.262
2037,551.78,4.255
2044,552.37,4.248
2051,552.95,4.241
2058,553.54,4.234
2065,554.12,4.227
2072,554.71,4.219
2079,555.30,4.211
2086,555.88,4.204
2093,556.47,4.196
2100,557.04,4.189
2107,557.63,4.181
2114,558.21,4.173
2121,558.80,4.166
2128,559.38,4.158
2135,559.97,4.150
2142,560.55,4.142
2149,561.14,4.134
2156,561.73,4.126
2163,562.31,4.118
2170,562.89,4.109
2177,563.48,4.101
2184,564.06,4.094
2191,564.64,4.085
2198,565.23,4.077
2205,565.81,4.069
2212,566.39,4.060
2219,566.97,4.052
2226,567.57,4.043
2233,568.15,4.035
2240,568.73,4.026
2247,569.32,4.017
2254,569.91,4.008
2261,570.49,4.000
2268,571.07,3.991
2275,571.65,3.982
2282,572.24,3.973
2289,572.82,3.963
2296,573.41,3.954
2303,573.99,3.945
2310,574.58,3.935
2317,575.16,3.926
2324,575.75,3.916
2331,576.33,3.906
2338,576.91,3.897
2345,577.50,3.887
2352,578.09,3.877
2359,578.67,3.867
2366,579.25,3.857
2373,579.84,3.847
2380,580.42,3.836
2387,581.01,3.825
2394,581.59,3.814
2401,582.18,3.804
2408,582.76,3.794
2415,583.35,3.783
2422,583.93,3.772
2429,584.51,3.761
2436,585.10,3.749
2443,585.68,3.737
2450,586.26,3.726
2457,586.86,3.715
2464,587.44,3.703
2471,588.02,3.692
2478,588.60,3.680
2485,589.19,3.667
2492,589.77,3.655
2499,590.35,3.643
2506,590.94,3.631
2513,591.53,3.618
2520,592.11,3.606
2527,592.70,3.593
2534,593.28,3.580
2541,593.87,3.566
2548,594.45,3.553
2555,595.03,3.540
2562,595.62,3.527
2569,596.20,3.513
2576,596.79,3.499
2583,597.37,3.485
2590,597.96,3.471
2597,598.54,3.456
2604,599.12,3.442
2611,599.71,3.428
2618,600.29,3.413
2625,600.88,3.399
2632,601.46,3.385
2639,602.05,3.369
2646,602.63,3.354
2653,603.22,3.339
2660,603.80,3.323
2667,604.39,3.307
2674,604.97,3.292
2681,605.55,3.276
2688,606.14,3.260
2695,606.73,3.244
2702,607.31,3.228
2709,607.90,3.212
2716,608.48,3.195
2723,609.06,3.178
2730,609.64,3.161
2737,610.23,3.144
2744,610.81,3.127
2751,611.40,3.110
2758,611.98,3.093
2765,612.57,3.076
2772,613.15,3.059
2779,613.73,3.041
2786,614.32,3.023
2793,614.90,3.005
2800,615.49,2.987
2807,616.07,2.969
2814,616.66,2.951
2821,617.24,2.933
2828,617.83,2.915
2835,618.41,2.896
2842,619.00,2.878
2849,619.58,2.860
2856,620.17,2.841
2863,620.75,2.822
2870,621.33,2.803
2877,621.92,2.784
2884,622.50,2.765
2891,623.09,2.745
2898,623.68,2.726
2905,624.26,2.706
2912,624.84,2.687
2919,625.42,2.667
2926,626.01,2.648
2933,626.60,2.628
2940,627.17,2.608
2947,627.76,2.588
2954,628.35,2.567
2961,628.94,2.547
2968,629.52,2.526
2975,630.10,2.505
2982,630.68,2.484
2989,631.27,2.464
2996,631.85,2.443
3003,632.44,2.421
3010,633.03,2.400
3017,633.61,2.379
3024,634.19,2.357
3031,634.78,2.336
3038,635.36,2.314
3045,635.94,2.292
3052,636.53,2.270
3059,637.12,2.248
3066,637.70,2.226
3073,638.29,2.204
3080,638.86,2.181
3087,639.45,2.159
3094,640.04,2.136
3101,640.62,2.114
3108,641.20,2.091
3115,641.79,2.068
3122,642.38,2.046
3129,642.96,2.023
3136,643.54,2.000
3143,644.13,1.977
3150,644.71,1.954
3157,645.30,1.932
3164,645.88,1.909
3171,646.46,1.886
3178,647.05,1.863
3185,647.64,1.840
3192,648.22,1.817
3199,648.80,1.795
3206,649.39,1.773
3213,649.97,1.751
3220,650.55,1.729
3227,651.14,1.707
3234,651.73,1.686
3241,652.30,1.665
3248,652.89,1.644
3255,653.48,1.623
3262,654.07,1.603
3269,654.65,1.583
3276,655.23,1.564
3283,655.82,1.545
3290,656.40,1.527
3297,656.98,1.509
3304,657.57,1.491
3311,658.15,1.474
3318,658.74,1.457
3325,659.32,1.441
3332,659.91,1.426
3339,660.49,1.410
3346,661.08,1.396
3353,661.66,1.381
3360,662.25,1.368
3367,662.82,1.355
3374,663.41,1.343
3381,664.00,1.331
3388,664.58,1.319
3395,665.17,1.308
3402,665.75,1.298
3409,666.33,1.288
3416,666.93,1.279
3423,667.51,1.269
3430,668.09,1.261
3437,668.67,1.253
3444,669.25,1.246
3451,669.84,1.239
3458,670.43,1.232
3465,671.01,1.226
3472,671.60,1.220
3479,672.18,1.214
3486,672.76,1.209
3493,673.35,1.205
3500,673.93,1.200
3507,674.52,1.196
3514,675.10,1.192
3521,675.69,1.188
3528,676.28,1.184
3535,676.85,1.181
3542,677.44,1.178
3549,678.03,1.175
3556,678.61,1.172
3563,679.19,1.170
3570,679.78,1.167
3577,680.36,1.165
3584,680.95,1.162
3591,681.53,1.160
3598,682.12,1.157
3605,682.71,1.155
3612,683.28,1.153
3619,683.87,1.151
3626,684.45,1.149
3633,685.05,1.147
3640,685.62,1.145
3647,686.21,1.143
3654,686.79,1.141
3661,687.38,1.139
3668,687.96,1.138
3675,688.55,1.136
3682,689.13,1.134
3689,689.71,1.132
3696,690.31,1.130
3703,690.88,1.129
3710,691.48,1.127
3717,692.05,1.125
3724,692.63,1.123
3731,693.22,1.122
3738,693.80,1.120
3745,694.39,1.118
3752,694.98,1.117
3759,695.56,1.115
3766,696.15,1.113
3773,696.73,1.111
3780,697.32,1.109
3787,697.89,1.108
3794,698.48,1.106
3801,699.06,1.105
3808,699.65,1.103
3815,700.23,1.101
3822,700.82,1.100
3829,701.40,1.098
3836,701.98,1.096
3843,702.56,1.095
3850,703.15,1.093
3857,703.73,1.092
3864,704.32,1.090
3871,704.90,1.088
3878,705.48,1.087
3885,706.07,1.085
3892,706.65,1.084
3899,707.24,1.082
3906,707.82,1.081
3913,708.40,1.079
3920,708.99,1.078
3927,709.56,1.076
3934,710.15,1.075
3941,710.73,1.073
3948,711.32,1.072
3955,711.90,1.070
3962,712.49,1.068
3969,713.07,1.067
3976,713.65,1.065
3983,714.24,1.064
3990,714.81,1.062
3997,715.40,1.061
4004,715.99,1.059
4011,716.56,1.058
4018,717.15,1.057
4025,717.73,1.055
4032,718.32,1.054
4039,718.90,1.052
4046,719.49,1.051
4053,720.07,1.049
4060,720.65,1.048
4067,721.23,1.046
4074,721.82,1.045
4081,722.40,1.044
4088,722.99,1.042
4095,723.57,1.041
4102,724.15,1.039
4109,724.74,1.038
4116,725.32,1.037
4123,725.90,1.035
4130,726.49,1.034
4137,727.07,1.032
4144,727.65,1.031
4151,728.24,1.030
4158,728.82,1.028
4165,729.40,1.027
4172,729.98,1.026
4179,730.57,1.024
4186,731.15,1.023
4193,731.73,1.022
4200,732.32,1.020
4207,732.90,1.019
4214,733.48,1.018
4221,734.06,1.016
4228,734.65,1.015
4235,735.23,1.014
4242,735.82,1.012
4249,736.40,1.011
4256,736.98,1.010
4263,737.57,1.009
4270,738.15,1.008
4277,738.73,1.007
4284,739.32,1.005
4291,739.90,1.004
4298,740.49,1.003
4305,741.06,1.001
4312,741.65,1.000
4319,742.24,0.999
4326,742.81,0.998
4333,743.40,0.997
4340,743.98,0.996
4347,744.57,0.995
4354,745.15,0.994
4361,745.74,0.992
4368,746.31,0.991
4375,746.90,0.990
4382,747.48,0.989
4389,748.07,0.988
4396,748.66,0.987
4403,749.23,0.986
4410,749.82,0.985
4417,750.40,0.984
4424,750.98,0.983
4431,751.57,0.982
4438,752.15,0.981
4445,752.73,0.979
4452,753.32,0.978
4459,753.90,0.978
4466,754.48,0.977
4473,755.07,0.976
4480,755.66,0.975
4487,756.24,0.974
4494,756.81,0.973
4501,757.41,0.972
4508,757.99,0.971
4515,758.57,0.970
4522,759.15,0.969
4529,759.74,0.968
4536,760.32,0.967
4543,760.90,0.966
4550,761.49,0.965
4557,762.07,0.964
4564,762.65,0.963
4571,763.23,0.962
4578,763.82,0.962
4585,764.41,0.961
4592,764.99,0.960
4599,765.57,0.959
4606,766.15,0.958
4613,766.74,0.957
4620,767.32,0.956
4627,767.90,0.955
4634,768.48,0.954
4641,769.07,0.954
4648,769.65,0.953
4655,770.24,0.952
4662,770.82,0.951
4669,771.40,0.950
4676,771.99,0.950
4683,772.57,0.949
4690,773.16,0.948
4697,773.73,0.947
4704,774.31,0.947
4711,774.90,0.946
4718,775.49,0.945
4725,776.07,0.944
4732,776.65,0.943
4739,777.24,0.942
4746,777.82,0.942
4753,778.40,0.941
4760,778.98,0.940
4767,779.57,0.939
4774,780.15,0.939
4781,780.74,0.938
4788,781.32,0.937
4795,781.90,0.936
4802,782.48,0.936
4809,783.07,0.935
4816,783.65,0.934
4823,784.24,0.934
4830,784.82,0.933
4837,785.40,0.932
4844,785.98,0.932
4851,786.57,0.931
4858,787.15,0.930
4865,787.73,0.929
4872,788.32,0.929
4879,788.90,0.928
4886,789.49,0.927
4893,790.07,0.927
4900,790.65,0.926
4907,791.23,0.925
4914,791.82,0.924
4921,792.40,0.924
4928,792.99,0.923
4935,793.56,0.922
4942,794.16,0.922
4949,794.74,0.921
4956,795.32,0.920
4963,795.90,0.920
4970,796.49,0.919
4977,797.07,0.918
4984,797.66,0.918
4991,798.24,0.917
4998,798.81,0.916
5005,799.40,0.916
5012,799.99,0.915
5019,800.57,0.915
5026,801.16,0.914
5033,801.74,0.913
5040,802.32,0.912
5047,802.91,0.912
5054,803.48,0.911
5061,804.07,0.910
5068,804.65,0.910
5075,805.23,0.909
5082,805.82,0.909
5089,806.41,0.908
5096,806.98,0.907
5103,807.57,0.907
5110,808.15,0.906
5117,808.74,0.905
5124,809.32,0.905
5131,809.90,0.904
5138,810.49,0.903
5145,811.08,0.903
5152,811.65,0.902
5159,812.23,0.902
5166,812.83,0.901
5173,813.40,0.900
5180,813.99,0.900
5187,814.57,0.899
5194,815.16,0.899
5201,815.74,0.898
5208,816.32,0.897
5215,816.90,0.897
5222,817.49,0.896
5229,818.07,0.896
5236,818.66,0.895
5243,819.23,0.894
5250,819.82,0.894
5257,820.40,0.893
5264,820.98,0.893
5271,821.57,0.892
5278,822.16,0.892
5285,822.74,0.891
5292,823.32,0.890
5299,823.90,0.890
5306,824.48,0.889
5313,825.07,0.888
5320,825.65,0.888
5327,826.24,0.887
5334,826.82,0.887
5341,827.40,0.886
5348,827.99,0.886
5355,828.57,0.885
5362,829.15,0.884
5369,829.74,0.884
5376,830.32,0.883
5383,830.91,0.883
5390,831.48,0.882
5397,832.07,0.882
5404,832.66,0.881
5411,833.24,0.880
5418,833.82,0.880
5425,834.41,0.879
5432,834.99,0.879
5439,835.57,0.878
5446,836.15,0.878
5453,836.74,0.877
5460,837.32,0.877
5467,837.91,0.876
5474,838.49,0.875
5481,839.07,0.875
5488,839.66,0.874
5495,840.24,0.874
5502,840.82,0.873
5509,841.41,0.873
5516,841.99,0.872
5523,842.57,0.872
5530,843.15,0.871
5537,843.74,0.870
5544,844.32,0.870
5551,844.91,0.869
5558,845.49,0.869
5565,846.07,0.869
5572,846.66,0.868
5579,847.24,0.867
5586,847.82,0.867
5593,848.40,0.866
5600,848.99,0.866
5607,849.57,0.865
5614,850.16,0.865
5621,850.74,0.864
5628,851.32,0.864
5635,851.91,0.863
5642,852.48,0.862
5649,853.07,0.862
5656,853.65,0.862
5663,854.24,0.861
5670,854.82,0.861
5677,855.40,0.860
5684,855.99,0.859
5691,856.57,0.859
5698,857.15,0.858
5705,857.74,0.858
5712,858.32,0.857
5719,858.91,0.857
5726,859.49,0.856
5733,860.07,0.856
5740,860.65,0.855
5747,861.24,0.855
5754,861.82,0.854
5761,862.41,0.854
5768,862.99,0.853
5775,863.57,0.853
5782,864.15,0.852
5789,864.74,0.852
5796,865.32,0.851
5803,865.91,0.851
5810,866.49,0.850
5817,867.07,0.850
5824,867.66,0.849
5831,868.24,0.849
5838,868.82,0.848
5845,869.40,0.848
5852,869.99,0.847
5859,870.57,0.847
5866,871.16,0.846
5873,871.74,0.846
5880,872.32,0.845
5887,872.91,0.845
5894,873.49,0.844
5901,874.07,0.844
5908,874.66,0.843
5915,875.24,0.843
5922,875.82,0.842
5929,876.40,0.842
5936,876.99,0.841
5943,877.57,0.841
5950,878.16,0.840
5957,878.74,0.840
5964,879.32,0.839
5971,879.91,0.839
5978,880.49,0.838
5985,881.07,0.838
5992,881.66,0.837
5999,882.24,0.837
6006,882.82,0.836
6013,883.40,0.836
6020,883.98,0.835
6027,884.57,0.835
6034,885.15,0.835
6041,885.74,0.834
6048,886.32,0.834
6055,886.91,0.833
6062,887.49,0.833
6069,888.08,0.832
6076,888.65,0.832
6083,889.24,0.831
6090,889.82,0.831
6097,890.40,0.830
6104,890.99,0.830
6111,891.57,0.829
6118,892.16,0.829
6125,892.74,0.829
6132,893.33,0.828
6139,893.90,0.828
6146,894.49,0.827
6153,895.07,0.827
6160,895.66,0.826
6167,896.24,0.826
6174,896.82,0.825
6181,897.41,0.825
6188,897.99,0.825
6195,898.58,0.824
6202,899.16,0.824
6209,899.74,0.823
6216,900.32,0.823
6223,900.91,0.822
6230,901.49,0.822
6237,902.07,0.821
6244,902.66,0.821
6251,903.24,0.821
6258,903.82,0.820
6265,904.41,0.820
6272,904.99,0.819
6279,905.57,0.819
6286,906.15,0.818
6293,906.75,0.818
6300,907.32,0.817
6307,907.91,0.817
6314,908.50,0.817
6321,909.08,0.816
6328,909.66,0.816
6335,910.24,0.815
6342,910.83,0.815
6349,911.41,0.815
6356,912.00,0.814
6363,912.58,0.814
6370,913.16,0.813
6377,913.74,0.813
6384,914.33,0.813
6391,914.91,0.812
6398,915.49,0.812
6405,916.07,0.811
6412,916.66,0.811
6419,917.24,0.810
6426,917.82,0.810
6433,918.41,0.810
6440,918.99,0.809
6447,919.58,0.809
6454,920.16,0.808
6461,920.74,0.808
6468,921.33,0.808
6475,921.90,0.807
6482,922.48,0.807
6489,923.07,0.807
6496,923.66,0.806
6503,924.24,0.806
6510,924.83,0.806
6517,925.40,0.805
6524,925.99,0.805
6531,926.58,0.804
6538,927.16,0.804
6545,927.74,0.803
6552,928.33,0.803
6559,928.91,0.803
6566,929.49,0.802
6573,930.07,0.802
6580,930.66,0.802
6587,931.24,0.801
6594,931.83,0.801
6601,932.41,0.801
6608,932.99,0.800
6615,933.58,0.800
6622,934.16,0.799
6629,934.74,0.799
6636,935.33,0.799
6643,935.91,0.798
6650,936.49,0.798
6657,937.08,0.798
6664,937.66,0.797
6671,938.24,0.797
6678,938.82,0.797
6685,939.41,0.796
6692,939.99,0.796
6699,940.57,0.795
6706,941.16,0.795
6713,941.74,0.795
6720,942.33,0.794
6727,942.91,0.794
6734,943.49,0.794
6741,944.07,0.793
6748,944.66,0.793
6755,945.24,0.793
6762,945.83,0.792
6769,946.40,0.792
6776,946.99,0.792
6783,947.58,0.791
6790,948.16,0.791
6797,948.74,0.791
6804,949.32,0.790
6811,949.91,0.790
6818,950.49,0.790
6825,951.08,0.789
6832,951.66,0.789
6839,952.24,0.789
6846,952.83,0.788
6853,953.41,0.788
6860,953.99,0.788
6867,954.57,0.787
6874,955.16,0.787
6881,955.74,0.787
6888,956.33,0.786
6895,956.91,0.786
6902,957.49,0.786
6909,958.07,0.785
6916,958.66,0.785
6923,959.24,0.785
6930,959.83,0.784
6937,960.40,0.784
6944,960.99,0.784
6951,961.58,0.783
6958,962.16,0.783
6965,962.74,0.783
6972,963.32,0.783
6979,963.91,0.782
6986,964.49,0.782
6993,965.07,0.782
7000,965.66,0.781
7007,966.24,0.781
7014,966.82,0.781
7021,967.41,0.781
7028,968.00,0.780
7035,968.57,0.780
7042,969.16,0.780
7049,969.74,0.779
7056,970.33,0.779
7063,970.91,0.779
7070,971.49,0.778
7077,972.08,0.778
7084,972.66,0.778
7091,973.24,0.778
7098,973.83,0.777
7105,974.41,0.777
7112,974.99,0.777
7119,975.57,0.776
7126,976.16,0.776
7133,976.74,0.776
7140,977.32,0.776
7147,977.91,0.775
7154,978.50,0.775
7161,979.08,0.775
7168,979.66,0.775
7175,980.24,0.774
7182,980.83,0.774
7189,981.41,0.774
7196,981.99,0.773
7203,982.58,0.773
7210,983.16,0.773
7217,983.74,0.773
7224,984.33,0.772
7231,984.91,0.772
7238,985.50,0.772
7245,986.07,0.772
7252,986.66,0.771
7259,987.24,0.771
7266,987.83,0.771
7273,988.41,0.770
7280,988.99,0.770
7287,989.58,0.770
7294,990.16,0.769
7301,990.74,0.769
7308,991.33,0.769
7315,991.91,0.769
7322,992.49,0.768
7329,993.08,0.768
7336,993.66,0.768
7343,994.24,0.767
7350,994.82,0.767
7357,995.41,0.767
7364,995.99,0.767
7371,996.58,0.766
7378,997.15,0.766
7385,997.74,0.766
7392,998.32,0.765
7399,998.91,0.765
7406,999.50,0.765
7413,1000.08,0.765
7420,1000.66,0.765
7427,1001.25,0.764
7434,1001.83,0.764
7441,1002.41,0.764
7448,1002.99,0.764
7455,1003.57,0.764
7462,1004.16,0.763
7469,1004.75,0.763
7476,1005.33,0.763
7483,1005.91,0.763
7490,1006.50,0.762
7497,1007.08,0.762
7504,1007.66,0.762
7511,1008.24,0.762
7518,1008.83,0.761
7525,1009.41,0.761
7532,1009.99,0.761
7539,1010.57,0.761
7546,1011.16,0.760
7553,1011.75,0.760
7560,1012.33,0.760
7567,1012.91,0.760
7574,1013.50,0.759
7581,1014.08,0.759
7588,1014.66,0.759
7595,1015.24,0.759
7602,1015.83,0.758
7609,1016.41,0.758
7616,1016.99,0.758
7623,1017.58,0.758
7630,1018.16,0.757
7637,1018.75,0.757
7644,1019.33,0.757
7651,1019.91,0.757
7658,1020.49,0.756
7665,1021.07,0.756
7672,1021.66,0.756
7679,1022.24,0.756
7686,1022.83,0.756
7693,1023.41,0.755
7700,1024.00,0.755
7707,1024.58,0.755
7714,1025.16,0.755
7721,1025.74,0.754
7728,1026.33,0.754
7735,1026.91,0.754
7742,1027.49,0.754
7749,1028.08,0.753
7756,1028.65,0.753
7763,1029.25,0.753
7770,1029.82,0.753
7777,1030.41,0.753
7784,1031.00,0.752
7791,1031.57,0.752
7798,1032.15,0.752
7805,1032.74,0.751
7812,1033.33,0.751
7819,1033.91,0.751
7826,1034.49,0.751
7833,1035.07,0.751
7840,1035.66,0.750
7847,1036.24,0.750
7854,1036.82,0.750
7861,1037.41,0.750
7868,1038.00,0.749
7875,1038.58,0.749
7882,1039.15,0.749
7889,1039.74,0.748
7896,1040.33,0.748
7903,1040.90,0.748
7910,1041.49,0.748
7917,1042.08,0.748
7924,1042.66,0.747
7931,1043.24,0.747
7938,1043.82,0.747
7945,1044.41,0.747
7952,1045.00,0.746
7959,1045.57,0.746
7966,1046.16,0.746
7973,1046.74,0.746
7980,1047.32,0.745
7987,1047.90,0.745
7994,1048.49,0.745
8001,1049.07,0.745
8008,1049.66,0.744
8015,1050.24,0.744
8022,1050.83,0.744
8029,1051.41,0.744
8036,1051.99,0.744
8043,1052.58,0.743
8050,1053.15,0.743
8057,1053.74,0.743
8064,1054.33,0.743
8071,1054.90,0.742
8078,1055.49,0.742
8085,1056.08,0.742
8092,1056.66,0.742
8099,1057.24,0.741
8106,1057.82,0.741
8113,1058.41,0.741
8120,1058.99,0.741
8127,1059.58,0.740
8134,1060.16,0.740
8141,1060.74,0.740
8148,1061.33,0.740
8155,1061.90,0.740
8162,1062.49,0.739
8169,1063.07,0.739
8176,1063.66,0.739
8183,1064.24,0.739
8190,1064.82,0.738
8197,1065.41,0.738
8204,1065.99,0.738
8211,1066.57,0.738
8218,1067.16,0.737
8225,1067.75,0.737
8232,1068.32,0.737
8239,1068.91,0.737
8246,1069.49,0.737
8253,1070.07,0.736
8260,1070.65,0.736
8267,1071.24,0.736
8274,1071.82,0.736
8281,1072.41,0.735
8288,1072.99,0.735
8295,1073.57,0.735
8302,1074.16,0.735
8309,1074.74,0.734
8316,1075.32,0.734
8323,1075.91,0.734
8330,1076.49,0.734
8337,1077.08,0.733
8344,1077.66,0.733
8351,1078.24,0.733
8358,1078.82,0.733
8365,1079.40,0.732
8372,1079.99,0.732
8379,1080.57,0.732
8386,1081.15,0.732
8393,1081.74,0.732
8400,1082.32,0.731
8407,1082.91,0.731
8414,1083.50,0.731
8421,1084.08,0.731
8428,1084.66,0.730
8435,1085.24,0.730
8442,1085.82,0.730
8449,1086.40,0.730
8456,1086.99,0.729
8463,1087.58,0.729
8470,1088.16,0.729
8477,1088.73,0.729
8484,1089.32,0.729
8491,1089.91,0.728
8498,1090.48,0.728
8505,1091.07,0.728
8512,1091.66,0.728
8519,1092.24,0.727
8526,1092.83,0.727
8533,1093.41,0.727
8540,1093.99,0.727
8547,1094.57,0.726
8554,1095.15,0.726
8561,1095.75,0.726
8568,1096.32,0.726
8575,1096.91,0.725
8582,1097.49,0.725
8589,1098.08,0.725
8596,1098.66,0.725
8603,1099.25,0.724
8610,1099.82,0.724
8617,1100.41,0.724
8624,1100.99,0.724
8631,1101.57,0.723
8638,1102.16,0.723
8645,1102.75,0.723
8652,1103.32,0.723
8659,1103.90,0.722
8666,1104.49,0.722
8673,1105.07,0.722
8680,1105.65,0.722
8687,1106.24,0.721
8694,1106.83,0.721
8701,1107.41,0.721
8708,1107.99,0.721
8715,1108.57,0.720
8722,1109.15,0.720
8729,1109.74,0.720
8736,1110.33,0.720
8743,1110.91,0.720
8750,1111.49,0.719
8757,1112.07,0.719
8764,1112.66,0.719
8771,1113.24,0.718
8778,1113.83,0.718
8785,1114.41,0.718
8792,1115.00,0.718
8799,1115.57,0.717
8806,1116.15,0.717
8813,1116.74,0.717
8820,1117.32,0.717
8827,1117.91,0.716
8834,1118.49,0.716
8841,1119.08,0.716
8848,1119.65,0.716
8855,1120.24,0.715
8862,1120.83,0.715
8869,1121.41,0.715
8876,1121.99,0.715
8883,1122.58,0.714
8890,1123.15,0.714
8897,1123.74,0.714
8904,1124.33,0.713
8911,1124.91,0.713
8918,1125.48,0.713
8925,1126.07,0.712
8932,1126.65,0.712
8939,1127.23,0.712
8946,1127.83,0.712
8953,1128.40,0.711
8960,1128.99,0.711
8967,1129.58,0.711
8974,1130.16,0.710
8981,1130.74,0.710
8988,1131.32,0.710
8995,1131.90,0.709
9002,1132.48,0.709
9009,1133.07,0.709
9016,1133.66,0.708
9023,1134.24,0.708
9030,1134.83,0.708
9037,1135.40,0.708
9044,1135.99,0.707
9051,1136.58,0.707
9058,1137.15,0.707
9065,1137.74,0.706
9072,1138.32,0.706
9079,1138.91,0.706
9086,1139.49,0.706
9093,1140.08,0.705
9100,1140.65,0.705
9107,1141.24,0.705
9114,1141.82,0.704
9121,1142.40,0.704
9128,1142.99,0.704
9135,1143.57,0.703
9142,1144.15,0.703
9149,1144.73,0.703
9156,1145.32,0.702
9163,1145.91,0.702
9170,1146.49,0.702
9177,1147.07,0.701
9184,1147.66,0.701
9191,1148.24,0.701
9198,1148.82,0.700
9205,1149.40,0.700
9212,1149.99,0.700
9219,1150.57,0.699
9226,1151.16,0.699
9233,1151.74,0.699
9240,1152.32,0.698
9247,1152.90,0.698
9254,1153.48,0.698
9261,1154.07,0.697
9268,1154.66,0.697
9275,1155.24,0.697
9282,1155.83,0.696
9289,1156.40,0.696
9296,1156.99,0.696
9303,1157.58,0.695
9310,1158.16,0.695
9317,1158.73,0.694
9324,1159.33,0.694
9331,1159.90,0.694
9338,1160.49,0.693
9345,1161.07,0.693
9352,1161.66,0.693
9359,1162.24,0.692
9366,1162.83,0.692
9373,1163.41,0.692
9380,1163.99,0.691
9387,1164.57,0.691
9394,1165.16,0.691
9401,1165.74,0.690
9408,1166.32,0.690
9415,1166.91,0.689
9422,1167.49,0.689
9429,1168.07,0.689
9436,1168.66,0.688
9443,1169.25,0.688
9450,1169.82,0.687
9457,1170.41,0.687
9464,1170.99,0.687
9471,1171.57,0.686
9478,1172.16,0.686
9479,1172.24,0.686