File: Wood/Calibration_Data/IMT/IMT-Mines-Ales_TGA_N2_10K_R1.csv
Time (s),Sample Temperature (K),Weight (mg)
0,383.15,4.921
4,383.15,4.921
8,383.15,4.922
12,383.33,4.922
16,383.83,4.922
20,384.37,4.922
24,384.92,4.923
28,385.49,4.923
32,386.07,4.923
36,386.66,4.923
40,387.26,4.923
44,387.88,4.923
48,388.48,4.923
52,389.12,4.923
56,389.75,4.923
60,390.39,4.923
64,391.03,4.923
68,391.67,4.923
72,392.33,4.923
76,392.98,4.923
80,393.64,4.923
84,394.29,4.923
88,394.95,4.923
92,395.62,4.923
96,396.27,4.923
100,396.94,4.922
104,397.60,4.922
108,398.27,4.922
112,398.93,4.922
116,399.61,4.922
120,400.26,4.922
124,400.94,4.922
128,401.60,4.922
132,402.28,4.922
136,402.93,4.922
140,403.62,4.922
144,404.29,4.922
148,404.95,4.922
152,405.62,4.922
156,406.29,4.921
160,406.97,4.921
164,407.63,4.921
168,408.31,4.921
172,408.97,4.921
176,409.65,4.921
180,410.32,4.921
184,410.99,4.921
188,411.66,4.921
192,412.33,4.920
196,413.00,4.920
200,413.67,4.920
204,414.35,4.920
208,415.01,4.920
212,415.69,4.920
216,416.35,4.920
220,417.03,4.919
224,417.70,4.919
228,418.37,4.919
232,419.04,4.919
236,419.72,4.919
240,420.37,4.918
244,421.06,4.918
248,421.72,4.918
252,422.40,4.918
256,423.07,4.918
260,423.74,4.918
264,424.41,4.917
268,425.08,4.917
272,425.76,4.917
276,426.42,4.917
280,427.10,4.916
284,427.76,4.916
288,428.44,4.916
292,429.10,4.916
296,429.78,4.915
300,430.44,4.915
304,431.12,4.915
308,431.78,4.914
312,432.45,4.914
316,433.12,4.914
320,433.79,4.914
324,434.46,4.913
328,435.13,4.913
332,435.80,4.912
336,436.46,4.912
340,437.14,4.912
344,437.81,4.911
348,438.48,4.911
352,439.15,4.910
356,439.81,4.910
360,440.49,4.909
364,441.15,4.909
368,441.83,4.909
372,442.49,4.908
376,443.16,4.908
380,443.83,4.907
384,444.50,4.906
388,445.16,4.906
392,445.84,4.905
396,446.51,4.905
400,447.18,4.904
404,447.84,4.904
408,448.52,4.903
412,449.18,4.902
416,449.86,4.902
420,450.52,4.901
424,451.20,4.900
428,451.86,4.899
432,452.53,4.899
436,453.20,4.898
440,453.87,4.897
444,454.54,4.896
448,455.21,4.895
452,455.88,4.895
456,456.55,4.894
460,457.22,4.893
464,457.88,4.892
468,458.56,4.891
472,459.23,4.890
476,459.89,4.889
480,460.56,4.888
484,461.24,4.887
488,461.90,4.886
492,462.58,4.885
496,463.24,4.884
500,463.92,4.882
504,464.58,4.881
508,465.25,4.880
512,465.92,4.879
516,466.59,4.877
520,467.26,4.876
524,467.93,4.875
528,468.60,4.873
532,469.26,4.872
536,469.94,4.871
540,470.60,4.869
544,471.27,4.868
548,471.94,4.866
552,472.61,4.864
556,473.28,4.863
560,473.95,4.861
564,474.62,4.860
568,475.29,4.858
572,475.96,4.856
576,476.63,4.854
580,477.29,4.853
584,477.97,4.851
588,478.64,4.849
592,479.30,4.847
596,479.98,4.845
600,480.64,4.843
604,481.32,4.841
608,481.98,4.839
612,482.65,4.837
616,483.32,4.835
620,483.99,4.833
624,484.66,4.831
628,485.33,4.829
632,486.00,4.827
636,486.67,4.825
640,487.33,4.823
644,488.01,4.820
648,488.67,4.818
652,489.35,4.816
656,490.01,4.814
660,490.68,4.811
664,491.35,4.809
668,492.02,4.807
672,492.69,4.804
676,493.36,4.802
680,494.03,4.800
684,494.70,4.797
688,495.37,4.795
692,496.04,4.792
696,496.70,4.790
700,497.38,4.787
704,498.04,4.784
708,498.72,4.782
712,499.38,4.779
716,500.06,4.777
720,500.72,4.774
724,501.39,4.771
728,502.06,4.769
732,502.73,4.766
736,503.41,4.763
740,504.07,4.760
744,504.74,4.757
748,505.41,4.755
752,506.08,4.752
756,506.75,4.749
760,507.42,4.746
764,508.09,4.743
768,508.75,4.740
772,509.43,4.737
776,510.09,4.734
780,510.76,4.731
784,511.43,4.727
788,512.10,4.724
792,512.77,4.721
796,513.44,4.718
800,514.11,4.714
804,514.78,4.711
808,515.45,4.707
812,516.12,4.704
816,516.79,4.700
820,517.45,4.696
824,518.12,4.693
828,518.79,4.689
832,519.46,4.685
836,520.13,4.681
840,520.80,4.677
844,521.47,4.673
848,522.14,4.669
852,522.80,4.665
856,523.48,4.660
860,524.15,4.656
864,524.81,4.652
868,525.49,4.647
872,526.15,4.642
876,526.82,4.638
880,527.49,4.633
884,528.17,4.628
888,528.83,4.623
892,529.50,4.618
896,530.18,4.613
900,530.84,4.607
904,531.50,4.602
908,532.18,4.597
912,532.85,4.591
916,533.52,4.585
920,534.18,4.580
924,534.85,4.574
928,535.53,4.568
932,536.20,4.562
936,536.86,4.556
940,537.53,4.550
944,538.20,4.543
948,538.87,4.537
952,539.54,4.531
956,540.21,4.525
960,540.88,4.518
964,541.55,4.511
968,542.21,4.504
972,542.89,4.497
976,543.55,4.491
980,544.23,4.484
984,544.89,4.477
988,545.56,4.470
992,546.24,4.462
996,546.90,4.455
1000,547.57,4.448
1004,548.24,4.441
1008,548.91,4.433
1012,549.58,4.425
1016,550.26,4.418
1020,550.91,4.410
1024,551.58,4.403
1028,552.25,4.395
1032,552.92,4.387
1036,553.59,4.379
1040,554.26,4.371
1044,554.93,4.363
1048,555.60,4.355
1052,556.27,4.347
1056,556.94,4.338
1060,557.61,4.330
1064,558.28,4.322
1068,558.95,4.314
1072,559.62,4.305
1076,560.28,4.297
1080,560.96,4.288
1084,561.63,4.280
1088,562.29,4.271
1092,562.97,4.263
1096,563.63,4.254
1100,564.30,4.245
1104,564.97,4.236
1108,565.64,4.228
1112,566.31,4.219
1116,566.97,4.210
1120,567.65,4.201
1124,568.31,4.192
1128,568.99,4.183
1132,569.66,4.174
1136,570.33,4.165
1140,571.00,4.155
1144,571.66,4.146
1148,572.33,4.137
1152,573.01,4.128
1156,573.67,4.118
1160,574.34,4.109
1164,575.01,4.100
1168,575.68,4.090
1172,576.34,4.081
1176,577.01,4.071
1180,577.69,4.061
1184,578.36,4.052
1188,579.03,4.042
1192,579.69,4.032
1196,580.36,4.022
1200,581.03,4.012
1204,581.70,4.002
1208,582.37,3.991
1212,583.05,3.981
1216,583.71,3.971
1220,584.38,3.960
1224,585.05,3.950
1228,585.72,3.939
1232,586.39,3.928
1236,587.06,3.917
1240,587.72,3.906
1244,588.39,3.895
1248,589.06,3.884
1252,589.74,3.872
1256,590.40,3.861
1260,591.07,3.849
1264,591.74,3.838
1268,592.41,3.826
1272,593.07,3.814
1276,593.75,3.802
1280,594.41,3.790
1284,595.09,3.777
1288,595.75,3.765
1292,596.43,3.752
1296,597.09,3.739
1300,597.76,3.727
1304,598.43,3.713
1308,599.10,3.700
1312,599.77,3.687
1316,600.43,3.673
1320,601.11,3.660
1324,601.77,3.646
1328,602.45,3.632
1332,603.12,3.618
1336,603.79,3.604
1340,604.46,3.589
1344,605.13,3.575
1348,605.79,3.560
1352,606.46,3.545
1356,607.13,3.530
1360,607.80,3.514
1364,608.47,3.499
1368,609.14,3.483
1372,609.81,3.468
1376,610.47,3.451
1380,611.15,3.435
1384,611.82,3.419
1388,612.49,3.403
1392,613.15,3.386
1396,613.82,3.369
1400,614.49,3.352
1404,615.16,3.335
1408,615.84,3.318
1412,616.50,3.300
1416,617.17,3.282
1420,617.84,3.265
1424,618.51,3.247
1428,619.18,3.229
1432,619.84,3.210
1436,620.51,3.192
1440,621.19,3.173
1444,621.85,3.155
1448,622.53,3.136
1452,623.19,3.117
1456,623.86,3.098
1460,624.54,3.079
1464,625.20,3.059
1468,625.87,3.040
1472,626.54,3.020
1476,627.21,3.000
1480,627.88,2.980
1484,628.54,2.960
1488,629.21,2.940
1492,629.89,2.920
1496,630.55,2.899
1500,631.22,2.879
1504,631.89,2.858
1508,632.56,2.837
1512,633.23,2.816
1516,633.90,2.795
1520,634.56,2.774
1524,635.24,2.752
1528,635.91,2.730
1532,636.58,2.709
1536,637.24,2.687
1540,637.92,2.665
1544,638.59,2.642
1548,639.25,2.620
1552,639.92,2.597
1556,640.59,2.575
1560,641.26,2.552
1564,641.93,2.529
1568,642.61,2.506
1572,643.27,2.482
1576,643.93,2.459
1580,644.61,2.435
1584,645.28,2.411
1588,645.95,2.387
1592,646.62,2.363
1596,647.29,2.339
1600,647.96,2.314
1604,648.62,2.289
1608,649.29,2.265
1612,649.96,2.240
1616,650.63,2.215
1620,651.30,2.190
1624,651.97,2.165
1628,652.64,2.140
1632,653.31,2.114
1636,653.97,2.089
1640,654.65,2.064
1644,655.31,2.038
1648,655.98,2.013
1652,656.65,1.988
1656,657.32,1.962
1660,657.99,1.937
1664,658.66,1.912
1668,659.33,1.887
1672,660.00,1.862
1676,660.67,1.837
1680,661.34,1.812
1684,662.00,1.788
1688,662.68,1.764
1692,663.35,1.740
1696,664.01,1.716
1700,664.68,1.693
1704,665.35,1.669
1708,666.02,1.647
1712,666.68,1.624
1716,667.36,1.602
1720,668.03,1.581
1724,668.70,1.560
1728,669.37,1.539
1732,670.04,1.519
1736,670.71,1.499
1740,671.38,1.480
1744,672.04,1.462
1748,672.72,1.444
1752,673.39,1.426
1756,674.05,1.409
1760,674.72,1.393
1764,675.39,1.377
1768,676.06,1.362
1772,676.73,1.347
1776,677.40,1.333
1780,678.07,1.320
1784,678.74,1.307
1788,679.40,1.295
1792,680.07,1.284
1796,680.74,1.273
1800,681.41,1.263
1804,682.08,1.254
1808,682.75,1.245
1812,683.42,1.236
1816,684.09,1.228
1820,684.76,1.221
1824,685.43,1.213
1828,686.10,1.207
1832,686.77,1.201
1836,687.44,1.195
1840,688.11,1.190
1844,688.78,1.185
1848,689.44,1.181
1852,690.12,1.177
1856,690.79,1.173
1860,691.46,1.169
1864,692.12,1.166
1868,692.80,1.162
1872,693.46,1.159
1876,694.13,1.156
1880,694.80,1.153
1884,695.47,1.150
1888,696.14,1.148
1892,696.81,1.145
1896,697.48,1.143
1900,698.15,1.141
1904,698.81,1.138
1908,699.48,1.136
1912,700.16,1.134
1916,700.82,1.132
1920,701.49,1.130
1924,702.16,1.127
1928,702.82,1.125
1932,703.49,1.123
1936,704.15,1.121
1940,704.83,1.119
1944,705.49,1.117
1948,706.16,1.115
1952,706.83,1.113
1956,707.49,1.111
1960,708.16,1.110
1964,708.82,1.108
1968,709.49,1.106
1972,710.16,1.104
1976,710.83,1.102
1980,711.49,1.100
1984,712.16,1.098
1988,712.82,1.096
1992,713.49,1.094
1996,714.16,1.093
2000,714.82,1.091
2004,715.49,1.089
2008,716.16,1.087
2012,716.83,1.085
2016,717.48,1.083
2020,718.16,1.082
2024,718.82,1.080
2028,719.49,1.078
2032,720.16,1.076
2036,720.82,1.075
2040,721.49,1.073
2044,722.15,1.071
2048,722.82,1.069
2052,723.49,1.067
2056,724.16,1.066
2060,724.82,1.064
2064,725.49,1.062
2068,726.15,1.060
2072,726.82,1.059
2076,727.49,1.057
2080,728.15,1.055
2084,728.82,1.054
2088,729.49,1.052
2092,730.16,1.050
2096,730.82,1.049
2100,731.49,1.047
2104,732.15,1.045
2108,732.82,1.044
2112,733.49,1.042
2116,734.15,1.040
2120,734.82,1.039
2124,735.49,1.037
2128,736.15,1.035
2132,736.83,1.034
2136,737.49,1.032
2140,738.15,1.031
2144,738.83,1.029
2148,739.49,1.027
2152,740.16,1.026
2156,740.83,1.024
2160,741.49,1.023
2164,742.16,1.021
2168,742.82,1.020
2172,743.49,1.018
2176,744.16,1.017
2180,744.82,1.015
2184,745.49,1.014
2188,746.16,1.012
2192,746.82,1.011
2196,747.49,1.009
2200,748.16,1.008
2204,748.82,1.006
2208,749.49,1.005
2212,750.15,1.004
2216,750.82,1.002
2220,751.49,1.001
2224,752.15,0.999
2228,752.82,0.998
2232,753.49,0.996
2236,754.15,0.995
2240,754.82,0.994
2244,755.49,0.992
2248,756.16,0.991
2252,756.83,0.990
2256,757.49,0.988
2260,758.16,0.987
2264,758.82,0.986
2268,759.49,0.984
2272,760.16,0.983
2276,760.82,0.982
2280,761.49,0.981
2284,762.16,0.979
2288,762.82,0.978
2292,763.49,0.977
2296,764.15,0.976
2300,764.83,0.975
2304,765.49,0.973
2308,766.15,0.972
2312,766.82,0.971
2316,767.49,0.970
2320,768.15,0.969
2324,768.82,0.968
2328,769.50,0.966
2332,770.16,0.965
2336,770.81,0.964
2340,771.49,0.963
2344,772.16,0.962
2348,772.83,0.961
2352,773.49,0.960
2356,774.16,0.959
2360,774.82,0.958
2364,775.49,0.957
2368,776.16,0.956
2372,776.82,0.955
2376,777.49,0.953
2380,778.16,0.952
2384,778.83,0.951
2388,779.49,0.950
2392,780.16,0.949
2396,780.82,0.948
2400,781.49,0.947
2404,782.15,0.946
2408,782.82,0.945
2412,783.49,0.944
2416,784.16,0.943
2420,784.83,0.942
2424,785.49,0.942
2428,786.16,0.941
2432,786.83,0.940
2436,787.49,0.939
2440,788.16,0.938
2444,788.82,0.937
2448,789.49,0.936
2452,790.16,0.935
2456,790.83,0.935
2460,791.49,0.934
2464,792.16,0.933
2468,792.82,0.932
2472,793.50,0.931
2476,794.16,0.930
2480,794.83,0.929
2484,795.49,0.929
2488,796.16,0.928
2492,796.83,0.927
2496,797.49,0.926
2500,798.16,0.925
2504,798.82,0.924
2508,799.49,0.923
2512,800.15,0.923
2516,800.83,0.922
2520,801.49,0.921
2524,802.16,0.920
2528,802.83,0.919
2532,803.50,0.919
2536,804.16,0.918
2540,804.83,0.917
2544,805.49,0.916
2548,806.16,0.915
2552,806.82,0.915
2556,807.49,0.914
2560,808.15,0.913
2564,808.83,0.912
2568,809.49,0.912
2572,810.16,0.911
2576,810.82,0.910
2580,811.49,0.909
2584,812.16,0.909
2588,812.82,0.908
2592,813.50,0.907
2596,814.15,0.906
2600,814.83,0.906
2604,815.49,0.905
2608,816.16,0.904
2612,816.83,0.903
2616,817.49,0.903
2620,818.16,0.902
2624,818.82,0.901
2628,819.49,0.901
2632,820.16,0.900
2636,820.83,0.899
2640,821.49,0.898
2644,822.16,0.898
2648,822.83,0.897
2652,823.49,0.896
2656,824.16,0.895
2660,824.83,0.895
2664,825.49,0.894
2668,826.16,0.893
2672,826.83,0.893
2676,827.50,0.892
2680,828.16,0.891
2684,828.83,0.890
2688,829.49,0.890
2692,830.16,0.889
2696,830.83,0.888
2700,831.49,0.888
2704,832.16,0.887
2708,832.83,0.886
2712,833.49,0.886
2716,834.16,0.885
2720,834.83,0.884
2724,835.49,0.884
2728,836.16,0.883
2732,836.82,0.882
2736,837.49,0.882
2740,838.16,0.881
2744,838.82,0.880
2748,839.49,0.880
2752,840.16,0.879
2756,840.82,0.878
2760,841.49,0.878
2764,842.17,0.877
2768,842.83,0.876
2772,843.50,0.876
2776,844.16,0.875
2780,844.83,0.874
2784,845.49,0.874
2788,846.16,0.873
2792,846.83,0.872
2796,847.49,0.872
2800,848.16,0.871
2804,848.83,0.870
2808,849.49,0.870
2812,850.16,0.869
2816,850.83,0.869
2820,851.49,0.868
2824,852.16,0.867
2828,852.83,0.867
2832,853.50,0.866
2836,854.16,0.865
2840,854.83,0.865
2844,855.49,0.864
2848,856.16,0.864
2852,856.83,0.863
2856,857.50,0.862
2860,858.17,0.862
2864,858.83,0.861
2868,859.49,0.860
2872,860.16,0.860
2876,860.83,0.859
2880,861.50,0.859
2884,862.16,0.858
2888,862.83,0.857
2892,863.50,0.857
2896,864.17,0.856
2900,864.83,0.856
2904,865.50,0.855
2908,866.16,0.854
2912,866.83,0.854
2916,867.49,0.853
2920,868.16,0.853
2924,868.82,0.852
2928,869.50,0.851
2932,870.16,0.851
2936,870.83,0.850
2940,871.50,0.850
2944,872.16,0.849
2948,872.84,0.848
2952,873.49,0.848
2956,874.16,0.847
2960,874.83,0.847
2964,875.50,0.846
2968,876.17,0.846
2972,876.83,0.845
2976,877.50,0.844
2980,878.16,0.844
2984,878.83,0.843
2988,879.50,0.843
2992,880.17,0.842
2996,880.83,0.841
3000,881.50,0.841
3004,882.17,0.840
3008,882.83,0.840
3012,883.49,0.839
3016,884.16,0.838
3020,884.83,0.838
3024,885.50,0.837
3028,886.17,0.837
3032,886.83,0.836
3036,887.50,0.836
3040,888.17,0.835
3044,888.83,0.835
3048,889.50,0.834
3052,890.16,0.833
3056,890.83,0.833
3060,891.50,0.832
3064,892.17,0.832
3068,892.83,0.831
3072,893.50,0.831
3076,894.17,0.830
3080,894.83,0.829
3084,895.50,0.829
3088,896.16,0.828
3092,896.83,0.828
3096,897.50,0.827
3100,898.17,0.827
3104,898.83,0.826
3108,899.50,0.826
3112,900.17,0.825
3116,900.83,0.825
3120,901.50,0.824
3124,902.17,0.823
3128,902.83,0.823
3132,903.50,0.822
3136,904.16,0.822
3140,904.83,0.821
3144,905.50,0.821
3148,906.17,0.820
3152,906.83,0.820
3156,907.50,0.819
3160,908.17,0.819
3164,908.83,0.818
3168,909.50,0.818
3172,910.16,0.817
3176,910.83,0.817
3180,911.50,0.816
3184,912.17,0.815
3188,912.83,0.815
3192,913.50,0.814
3196,914.16,0.814
3200,914.83,0.813
3204,915.50,0.813
3208,916.17,0.812
3212,916.84,0.812
3216,917.50,0.811
3220,918.17,0.811
3224,918.83,0.810
3228,919.50,0.810
3232,920.17,0.809
3236,920.83,0.809
3240,921.50,0.808
3244,922.17,0.808
3248,922.83,0.807
3252,923.50,0.807
3256,924.17,0.806
3260,924.83,0.806
3264,925.50,0.805
3268,926.17,0.805
3272,926.83,0.804
3276,927.50,0.804
3280,928.17,0.804
3284,928.83,0.803
3288,929.50,0.803
3292,930.17,0.802
3296,930.83,0.802
3300,931.50,0.801
3304,932.17,0.801
3308,932.83,0.800
3312,933.50,0.800
3316,934.17,0.799
3320,934.83,0.799
3324,935.50,0.798
3328,936.17,0.798
3332,936.84,0.797
3336,937.50,0.797
3340,938.17,0.797
3344,938.83,0.796
3348,939.51,0.796
3352,940.16,0.795
3356,940.84,0.795
3360,941.50,0.794
3364,942.18,0.794
3368,942.83,0.794
3372,943.50,0.793
3376,944.17,0.793
3380,944.84,0.792
3384,945.51,0.792
3388,946.17,0.791
3392,946.84,0.791
3396,947.50,0.791
3400,948.17,0.790
3404,948.83,0.790
3408,949.50,0.789
3412,950.17,0.789
3416,950.84,0.788
3420,951.50,0.788
3424,952.17,0.788
3428,952.83,0.787
3432,953.50,0.787
3436,954.17,0.786
3440,954.83,0.786
3444,955.50,0.786
3448,956.17,0.785
3452,956.84,0.785
3456,957.51,0.785
3460,958.17,0.784
3464,958.83,0.784
3468,959.50,0.783
3472,960.16,0.783
3476,960.83,0.783
3480,961.50,0.782
3484,962.17,0.782
3488,962.83,0.781
3492,963.51,0.781
3496,964.17,0.781
3500,964.84,0.780
3504,965.50,0.780
3508,966.17,0.780
3512,966.84,0.779
3516,967.51,0.779
3520,968.17,0.778
3524,968.84,0.778
3528,969.50,0.778
3532,970.17,0.777
3536,970.84,0.777
3540,971.50,0.776
3544,972.17,0.776
3548,972.84,0.776
3552,973.50,0.775
3556,974.17,0.775
3560,974.84,0.775
3564,975.50,0.774
3568,976.17,0.774
3572,976.84,0.774
3576,977.50,0.773
3580,978.17,0.773
3584,978.84,0.773
3588,979.50,0.772
3592,980.17,0.772
3596,980.84,0.772
3600,981.51,0.771
3604,982.17,0.771
3608,982.84,0.771
3612,983.50,0.770
3616,984.17,0.770
3620,984.83,0.770
3624,985.50,0.769
3628,986.17,0.769
3632,986.84,0.769
3636,987.50,0.768
3640,988.17,0.768
3644,988.83,0.768
3648,989.51,0.767
3652,990.17,0.767
3656,990.83,0.767
3660,991.50,0.766
3664,992.17,0.766
3668,992.83,0.766
3672,993.50,0.765
3676,994.17,0.765
3680,994.84,0.765
3684,995.50,0.764
3688,996.17,0.764
3692,996.84,0.764
3696,997.50,0.763
3700,998.17,0.763
3704,998.84,0.763
3708,999.50,0.762
3712,1000.17,0.762
3716,1000.84,0.762
3720,1001.51,0.762
3724,1002.17,0.761
3728,1002.84,0.761
3732,1003.50,0.761
3736,1004.17,0.760
3740,1004.83,0.760
3744,1005.50,0.760
3748,1006.17,0.759
3752,1006.84,0.759
3756,1007.51,0.759
3760,1008.17,0.759
3764,1008.84,0.758
3768,1009.51,0.758
3772,1010.17,0.758
3776,1010.84,0.757
3780,1011.51,0.757
3784,1012.17,0.757
3788,1012.84,0.756
3792,1013.50,0.756
3796,1014.17,0.756
3800,1014.84,0.756
3804,1015.50,0.755
3808,1016.17,0.755
3812,1016.84,0.755
3816,1017.50,0.754
3820,1018.17,0.754
3824,1018.84,0.754
3828,1019.51,0.754
3832,1020.17,0.753
3836,1020.83,0.753
3840,1021.50,0.753
3844,1022.17,0.752
3848,1022.84,0.752
3852,1023.50,0.752
3856,1024.17,0.752
3860,1024.84,0.751
3864,1025.50,0.751
3868,1026.17,0.751
3872,1026.83,0.750
3876,1027.51,0.750
3880,1028.17,0.750
3884,1028.83,0.750
3888,1029.50,0.749
3892,1030.18,0.749
3896,1030.84,0.749
3900,1031.50,0.749
3904,1032.18,0.748
3908,1032.83,0.748
3912,1033.51,0.748
3916,1034.17,0.747
3920,1034.84,0.747
3924,1035.50,0.747
3928,1036.17,0.747
3932,1036.84,0.746
3936,1037.50,0.746
3940,1038.17,0.746
3944,1038.83,0.745
3948,1039.50,0.745
3952,1040.17,0.745
3956,1040.84,0.745
3960,1041.51,0.744
3964,1042.18,0.744
3968,1042.84,0.744
3972,1043.50,0.744
3976,1044.17,0.743
3980,1044.84,0.743
3984,1045.50,0.743
3988,1046.17,0.743
3992,1046.83,0.742
3996,1047.50,0.742
4000,1048.17,0.742
4004,1048.83,0.742
4008,1049.50,0.741
4012,1050.17,0.741
4016,1050.84,0.741
4020,1051.50,0.740
4024,1052.17,0.740
4028,1052.84,0.740
4032,1053.51,0.740
4036,1054.17,0.739
4040,1054.84,0.739
4044,1055.50,0.739
4048,1056.17,0.739
4052,1056.83,0.738
4056,1057.50,0.738
4060,1058.17,0.738
4064,1058.83,0.737
4068,1059.49,0.737
4072,1060.17,0.737
4076,1060.83,0.736
4080,1061.50,0.736
4084,1062.17,0.736
4088,1062.84,0.736
4092,1063.51,0.735
4096,1064.17,0.735
4100,1064.84,0.735
4104,1065.51,0.735
4108,1066.18,0.734
4112,1066.84,0.734
4116,1067.51,0.734
4120,1068.17,0.734
4124,1068.83,0.734
4128,1069.49,0.733
4132,1070.17,0.733
4136,1070.84,0.733
4140,1071.50,0.732
4144,1072.17,0.732
4148,1072.83,0.732
4152,1073.50,0.731
4156,1074.16,0.731
4160,1074.84,0.731
4164,1075.50,0.731
4168,1076.17,0.731
4172,1076.84,0.730
4176,1077.50,0.730
4180,1078.16,0.730
4184,1078.83,0.729
4188,1079.50,0.729
4192,1080.16,0.729
4196,1080.83,0.729
4200,1081.50,0.728
4204,1082.18,0.728
4208,1082.84,0.728
4212,1083.50,0.727
4216,1084.17,0.727
4220,1084.83,0.727
4224,1085.50,0.727
4228,1086.17,0.726
4232,1086.83,0.726
4236,1087.50,0.726
4240,1088.16,0.726
4244,1088.83,0.726
4248,1089.50,0.725
4252,1090.17,0.725
4256,1090.83,0.725
4260,1091.50,0.724
4264,1092.16,0.724
4268,1092.83,0.724
4272,1093.49,0.724
4276,1094.17,0.723
4280,1094.83,0.723
4284,1095.51,0.723
4288,1096.17,0.723
4292,1096.84,0.722
4296,1097.49,0.722
4300,1098.17,0.722
4304,1098.84,0.722
4308,1099.50,0.721
4312,1100.17,0.721
4316,1100.83,0.721
4320,1101.49,0.721
4324,1102.17,0.721
4328,1102.84,0.720
4332,1103.50,0.720
4336,1104.17,0.720
4340,1104.83,0.720
4344,1105.49,0.719
4348,1106.16,0.719
4352,1106.83,0.719
4356,1107.50,0.718
4360,1108.17,0.718
4364,1108.83,0.718
4368,1109.50,0.718
4372,1110.17,0.717
4376,1110.84,0.717
4380,1111.50,0.717
4384,1112.16,0.717
4388,1112.84,0.716
4392,1113.51,0.716
4396,1114.17,0.716
4400,1114.83,0.716
4404,1115.50,0.715
4408,1116.16,0.715
4412,1116.84,0.715
4416,1117.50,0.714
4420,1118.17,0.714
4424,1118.83,0.714
4428,1119.50,0.714
4432,1120.17,0.713
4436,1120.83,0.713
4440,1121.50,0.713
4444,1122.17,0.713
4448,1122.83,0.713
4452,1123.49,0.712
4456,1124.16,0.712
4460,1124.83,0.712
4464,1125.50,0.712
4468,1126.16,0.711
4472,1126.83,0.711
4476,1127.51,0.711
4480,1128.16,0.710
4484,1128.83,0.710
4488,1129.50,0.710
4492,1130.16,0.709
4496,1130.84,0.709
4500,1131.50,0.709
4504,1132.16,0.709
4508,1132.83,0.708
4512,1133.50,0.708
4516,1134.17,0.708
4520,1134.84,0.707
4524,1135.50,0.707
4528,1136.16,0.707
4532,1136.82,0.707
4536,1137.50,0.706
4540,1138.17,0.706
4544,1138.83,0.706
4548,1139.49,0.706
4552,1140.16,0.705
4556,1140.84,0.705
4560,1141.50,0.705
4564,1142.16,0.705
4568,1142.84,0.704
4572,1143.50,0.704
4576,1144.17,0.704
4580,1144.83,0.703
4584,1145.50,0.703
4588,1146.16,0.703
4592,1146.84,0.702
4596,1147.50,0.702
4600,1148.16,0.702
4604,1148.83,0.702
4608,1149.50,0.701
4612,1150.17,0.701
4616,1150.83,0.701
4620,1151.50,0.700
4624,1152.16,0.700
4628,1152.83,0.700
4632,1153.50,0.699
4636,1154.16,0.699
4640,1154.83,0.699
4644,1155.49,0.699
4648,1156.17,0.698
4652,1156.83,0.698
4656,1157.50,0.698
4660,1158.16,0.698
4664,1158.83,0.697
4668,1159.49,0.697
4672,1160.16,0.697
4676,1160.83,0.696
4680,1161.49,0.696
4684,1162.17,0.696
4688,1162.82,0.696
4692,1163.50,0.695
4696,1164.17,0.695
4700,1164.83,0.695
4704,1165.50,0.694
4708,1166.16,0.694
4712,1166.82,0.693
4716,1167.49,0.693
4720,1168.15,0.693
4724,1168.83,0.692
4728,1169.50,0.692
4732,1170.16,0.692
4736,1170.83,0.691
4739,1171.32,0.691