File: Wood/Calibration_Data/IMT/IMT-Mines-Ales_Wood_TGA_O2-20_2K_R1.csv
Time (s),Temperature (K),Weight (mg)
0,383.15,4.993
16,383.29,4.993
32,383.74,4.993
48,384.22,4.993
64,384.72,4.993
80,385.24,4.993
96,385.77,4.993
112,386.30,4.993
128,386.83,4.993
144,387.36,4.993
160,387.90,4.993
176,388.43,4.992
192,388.95,4.992
208,389.49,4.992
224,390.02,4.992
240,390.57,4.992
256,391.10,4.992
272,391.64,4.992
288,392.17,4.992
304,392.70,4.992
320,393.23,4.991
336,393.77,4.991
352,394.30,4.991
368,394.83,4.991
384,395.37,4.991
400,395.90,4.991
416,396.44,4.991
432,396.97,4.991
448,397.50,4.990
464,398.04,4.990
480,398.57,4.990
496,399.10,4.990
512,399.65,4.990
528,400.17,4.989
544,400.71,4.989
560,401.24,4.989
576,401.78,4.989
592,402.31,4.989
608,402.85,4.988
624,403.38,4.988
640,403.91,4.988
656,404.45,4.988
672,404.98,4.987
688,405.52,4.987
704,406.05,4.987
720,406.59,4.987
736,407.11,4.987
752,407.65,4.986
768,408.18,4.986
784,408.72,4.986
800,409.25,4.985
816,409.79,4.985
832,410.32,4.985
848,410.86,4.985
864,411.39,4.984
880,411.92,4.984
896,412.45,4.984
912,412.99,4.983
928,413.52,4.983
944,414.05,4.983
960,414.59,4.982
976,415.13,4.982
992,415.66,4.981
1008,416.20,4.981
1024,416.73,4.981
1040,417.26,4.980
1056,417.80,4.980
1072,418.33,4.980
1088,418.86,4.979
1104,419.40,4.979
1120,419.93,4.978
1136,420.46,4.978
1152,421.00,4.977
1168,421.53,4.977
1184,422.07,4.977
1200,422.60,4.976
1216,423.14,4.975
1232,423.67,4.975
1248,424.20,4.974
1264,424.74,4.974
1280,425.27,4.973
1296,425.81,4.973
1312,426.34,4.972
1328,426.87,4.972
1344,427.41,4.971
1360,427.94,4.971
1376,428.48,4.970
1392,429.01,4.969
1408,429.54,4.969
1424,430.08,4.968
1440,430.61,4.967
1456,431.15,4.967
1472,431.68,4.966
1488,432.22,4.965
1504,432.75,4.965
1520,433.28,4.964
1536,433.81,4.963
1552,434.35,4.963
1568,434.88,4.962
1584,435.42,4.961
1600,435.95,4.960
1616,436.48,4.960
1632,437.02,4.959
1648,437.55,4.958
1664,438.09,4.957
1680,438.62,4.957
1696,439.15,4.956
1712,439.69,4.955
1728,440.22,4.954
1744,440.76,4.953
1760,441.29,4.952
1776,441.82,4.951
1792,442.36,4.951
1808,442.89,4.949
1824,443.42,4.949
1840,443.96,4.948
1856,444.49,4.947
1872,445.02,4.946
1888,445.56,4.945
1904,446.09,4.944
1920,446.63,4.943
1936,447.16,4.942
1952,447.70,4.941
1968,448.23,4.940
1984,448.76,4.939
2000,449.29,4.938
2016,449.83,4.937
2032,450.36,4.936
2048,450.89,4.935
2064,451.43,4.934
2080,451.96,4.933
2096,452.50,4.932
2112,453.02,4.931
2128,453.57,4.930
2144,454.10,4.928
2160,454.63,4.927
2176,455.16,4.926
2192,455.70,4.925
2208,456.23,4.924
2224,456.77,4.923
2240,457.30,4.921
2256,457.84,4.920
2272,458.37,4.919
2288,458.90,4.918
2304,459.43,4.916
2320,459.97,4.915
2336,460.50,4.914
2352,461.03,4.913
2368,461.57,4.911
2384,462.10,4.910
2400,462.63,4.909
2416,463.17,4.907
2432,463.70,4.906
2448,464.24,4.904
2464,464.77,4.903
2480,465.31,4.901
2496,465.84,4.900
2512,466.37,4.898
2528,466.91,4.897
2544,467.44,4.895
2560,467.98,4.894
2576,468.51,4.892
2592,469.04,4.890
2608,469.57,4.889
2624,470.11,4.887
2640,470.64,4.885
2656,471.18,4.884
2672,471.71,4.882
2688,472.25,4.880
2704,472.78,4.878
2720,473.31,4.876
2736,473.84,4.875
2752,474.38,4.873
2768,474.91,4.871
2784,475.45,4.869
2800,475.98,4.867
2816,476.51,4.865
2832,477.05,4.863
2848,477.59,4.861
2864,478.12,4.859
2880,478.65,4.857
2896,479.18,4.855
2912,479.72,4.852
2928,480.25,4.851
2944,480.79,4.848
2960,481.32,4.846
2976,481.86,4.844
2992,482.39,4.841
3008,482.92,4.839
3024,483.46,4.837
3040,483.99,4.834
3056,484.53,4.832
3072,485.06,4.829
3088,485.58,4.827
3104,486.12,4.824
3120,486.66,4.822
3136,487.19,4.819
3152,487.73,4.816
3168,488.26,4.814
3184,488.79,4.811
3200,489.33,4.808
3216,489.86,4.805
3232,490.39,4.802
3248,490.93,4.799
3264,491.46,4.797
3280,492.00,4.794
3296,492.53,4.791
3312,493.06,4.787
3328,493.60,4.784
3344,494.13,4.781
3360,494.66,4.778
3376,495.20,4.775
3392,495.73,4.771
3408,496.26,4.768
3424,496.80,4.764
3440,497.34,4.761
3456,497.87,4.757
3472,498.40,4.754
3488,498.93,4.750
3504,499.47,4.746
3520,500.01,4.743
3536,500.53,4.739
3552,501.06,4.735
3568,501.60,4.731
3584,502.14,4.727
3600,502.67,4.723
3616,503.20,4.719
3632,503.74,4.715
3648,504.26,4.710
3664,504.80,4.706
3680,505.34,4.702
3696,505.87,4.697
3712,506.41,4.693
3728,506.94,4.688
3744,507.47,4.684
3760,508.00,4.679
3776,508.54,4.674
3792,509.07,4.669
3808,509.62,4.665
3824,510.13,4.660
3840,510.68,4.655
3856,511.21,4.650
3872,511.74,4.645
3888,512.27,4.640
3904,512.81,4.634
3920,513.34,4.629
3936,513.88,4.624
3952,514.42,4.618
3968,514.94,4.613
3984,515.48,4.607
4000,516.01,4.602
4016,516.55,4.596
4032,517.08,4.591
4048,517.61,4.585
4064,518.15,4.579
4080,518.68,4.573
4096,519.22,4.567
4112,519.75,4.561
4128,520.28,4.555
4144,520.81,4.549
4160,521.35,4.543
4176,521.88,4.537
4192,522.42,4.531
4208,522.95,4.524
4224,523.48,4.518
4240,524.02,4.511
4256,524.55,4.505
4272,525.08,4.498
4288,525.62,4.492
4304,526.15,4.485
4320,526.69,4.478
4336,527.22,4.471
4352,527.75,4.464
4368,528.29,4.457
4384,528.83,4.450
4400,529.36,4.443
4416,529.88,4.436
4432,530.43,4.429
4448,530.96,4.421
4464,531.49,4.414
4480,532.03,4.406
4496,532.56,4.399
4512,533.09,4.391
4528,533.63,4.383
4544,534.16,4.375
4560,534.69,4.367
4576,535.23,4.359
4592,535.76,4.351
4608,536.30,4.343
4624,536.83,4.335
4640,537.36,4.326
4656,537.89,4.317
4672,538.43,4.309
4688,538.96,4.300
4704,539.50,4.291
4720,540.03,4.282
4736,540.57,4.273
4752,541.10,4.264
4768,541.64,4.255
4784,542.16,4.246
4800,542.70,4.236
4816,543.23,4.227
4832,543.77,4.217
4848,544.30,4.207
4864,544.83,4.197
4880,545.37,4.187
4896,545.89,4.177
4912,546.43,4.167
4928,546.97,4.156
4944,547.51,4.144
4960,548.03,4.135
4976,548.57,4.124
4992,549.11,4.113
5008,549.63,4.102
5024,550.17,4.090
5040,550.70,4.079
5056,551.24,4.067
5072,551.77,4.055
5088,552.31,4.043
5104,552.84,4.031
5120,553.37,4.019
5136,553.91,4.007
5152,554.44,3.994
5168,554.98,3.981
5184,555.52,3.967
5200,556.04,3.954
5216,556.58,3.941
5232,557.11,3.928
5248,557.65,3.914
5264,558.18,3.899
5280,558.71,3.886
5296,559.25,3.871
5312,559.78,3.855
5328,560.32,3.840
5344,560.85,3.826
5360,561.38,3.810
5376,561.91,3.794
5392,562.46,3.778
5408,562.98,3.761
5424,563.51,3.746
5440,564.05,3.731
5456,564.58,3.713
5472,565.12,3.696
5488,565.65,3.678
5504,566.18,3.661
5520,566.72,3.641
5536,567.25,3.624
5552,567.79,3.606
5568,568.32,3.587
5584,568.85,3.568
5600,569.39,3.548
5616,569.92,3.527
5632,570.45,3.506
5648,570.99,3.486
5664,571.53,3.466
5680,572.06,3.445
5696,572.59,3.423
5712,573.13,3.400
5728,573.65,3.378
5744,574.19,3.356
5760,574.73,3.332
5776,575.26,3.308
5792,575.79,3.284
5808,576.33,3.259
5824,576.86,3.234
5840,577.39,3.206
5856,577.92,3.180
5872,578.46,3.153
5888,578.99,3.126
5904,579.53,3.097
5920,580.07,3.067
5936,580.60,3.036
5952,581.13,3.004
5968,581.66,2.972
5984,582.20,2.938
6000,582.73,2.904
6016,583.26,2.869
6032,583.80,2.833
6048,584.33,2.795
6064,584.87,2.757
6080,585.40,2.717
6096,585.94,2.677
6112,586.47,2.636
6128,587.00,2.594
6144,587.53,2.552
6160,588.07,2.510
6176,588.60,2.468
6192,589.14,2.426
6208,589.66,2.385
6224,590.20,2.344
6240,590.74,2.305
6256,591.27,2.266
6272,591.80,2.229
6288,592.34,2.194
6304,592.86,2.159
6320,593.40,2.127
6336,593.93,2.095
6352,594.47,2.067
6368,595.01,2.040
6384,595.54,2.014
6400,596.07,1.989
6416,596.61,1.966
6432,597.14,1.945
6448,597.68,1.924
6464,598.21,1.905
6480,598.74,1.887
6496,599.27,1.869
6512,599.81,1.853
6528,600.34,1.837
6544,600.87,1.822
6560,601.41,1.808
6576,601.95,1.794
6592,602.48,1.780
6608,603.02,1.767
6624,603.54,1.755
6640,604.09,1.743
6656,604.61,1.731
6672,605.14,1.720
6688,605.69,1.708
6704,606.22,1.698
6720,606.75,1.687
6736,607.28,1.677
6752,607.81,1.667
6768,608.35,1.657
6784,608.88,1.647
6800,609.42,1.638
6816,609.95,1.629
6832,610.48,1.619
6848,611.02,1.610
6864,611.56,1.602
6880,612.08,1.593
6896,612.62,1.585
6912,613.15,1.577
6928,613.68,1.569
6944,614.22,1.561
6960,614.75,1.553
6976,615.29,1.545
6992,615.82,1.538
7008,616.35,1.530
7024,616.89,1.523
7040,617.42,1.515
7056,617.97,1.508
7072,618.49,1.501
7088,619.02,1.494
7104,619.55,1.487
7120,620.09,1.480
7136,620.63,1.474
7152,621.16,1.467
7168,621.69,1.460
7184,622.22,1.454
7200,622.75,1.447
7216,623.29,1.441
7232,623.82,1.435
7248,624.36,1.428
7264,624.90,1.422
7280,625.43,1.416
7296,625.96,1.410
7312,626.50,1.403
7328,627.03,1.397
7344,627.56,1.392
7360,628.10,1.386
7376,628.63,1.380
7392,629.16,1.374
7408,629.69,1.368
7424,630.23,1.362
7440,630.77,1.356
7456,631.30,1.351
7472,631.83,1.345
7488,632.36,1.339
7504,632.90,1.334
7520,633.44,1.328
7536,633.97,1.323
7552,634.50,1.317
7568,635.04,1.312
7584,635.57,1.306
7600,636.10,1.301
7616,636.65,1.296
7632,637.17,1.290
7648,637.70,1.285
7664,638.24,1.280
7680,638.77,1.274
7696,639.30,1.269
7712,639.85,1.264
7728,640.37,1.259
7744,640.90,1.253
7760,641.44,1.248
7776,641.97,1.243
7792,642.51,1.238
7808,643.04,1.233
7824,643.58,1.227
7840,644.11,1.222
7856,644.65,1.217
7872,645.18,1.212
7888,645.71,1.207
7904,646.24,1.202
7920,646.78,1.196
7936,647.31,1.191
7952,647.85,1.186
7968,648.39,1.181
7984,648.91,1.176
8000,649.45,1.171
8016,649.98,1.166
8032,650.51,1.161
8048,651.05,1.156
8064,651.58,1.151
8080,652.11,1.146
8096,652.65,1.141
8112,653.18,1.136
8128,653.72,1.130
8144,654.26,1.125
8160,654.79,1.120
8176,655.32,1.115
8192,655.84,1.110
8208,656.39,1.105
8224,656.92,1.100
8240,657.45,1.094
8256,657.99,1.089
8272,658.52,1.084
8288,659.05,1.079
8304,659.59,1.074
8320,660.12,1.068
8336,660.66,1.063
8352,661.18,1.058
8368,661.72,1.053
8384,662.26,1.047
8400,662.79,1.042
8416,663.32,1.037
8432,663.86,1.032
8448,664.39,1.026
8464,664.92,1.021
8480,665.46,1.015
8496,666.00,1.010
8512,666.52,1.005
8528,667.07,0.999
8544,667.59,0.993
8560,668.13,0.988
8576,668.66,0.983
8592,669.19,0.977
8608,669.73,0.972
8624,670.26,0.966
8640,670.80,0.961
8656,671.33,0.955
8672,671.87,0.949
8688,672.40,0.944
8704,672.93,0.938
8720,673.47,0.932
8736,674.00,0.926
8752,674.54,0.920
8768,675.06,0.915
8784,675.60,0.909
8800,676.13,0.903
8816,676.67,0.897
8832,677.21,0.891
8848,677.74,0.885
8864,678.27,0.879
8880,678.81,0.873
8896,679.34,0.866
8912,679.87,0.860
8928,680.40,0.854
8944,680.94,0.848
8960,681.47,0.841
8976,682.00,0.835
8992,682.54,0.829
9008,683.07,0.822
9024,683.60,0.816
9040,684.14,0.809
9056,684.67,0.803
9072,685.21,0.796
9088,685.75,0.790
9104,686.28,0.783
9120,686.81,0.776
9136,687.35,0.769
9152,687.87,0.763
9168,688.41,0.756
9184,688.95,0.749
9200,689.47,0.742
9216,690.01,0.735
9232,690.54,0.728
9248,691.08,0.721
9264,691.61,0.714
9280,692.14,0.707
9296,692.68,0.700
9312,693.22,0.693
9328,693.75,0.686
9344,694.29,0.679
9360,694.81,0.671
9376,695.35,0.664
9392,695.88,0.657
9408,696.42,0.650
9424,696.95,0.642
9440,697.49,0.635
9456,698.02,0.627
9472,698.55,0.620
9488,699.08,0.613
9504,699.62,0.605
9520,700.15,0.598
9536,700.68,0.590
9552,701.22,0.583
9568,701.75,0.575
9584,702.28,0.567
9600,702.82,0.560
9616,703.35,0.552
9632,703.88,0.545
9648,704.42,0.537
9664,704.96,0.529
9680,705.49,0.522
9696,706.02,0.514
9712,706.55,0.505
9728,707.09,0.499
9744,707.62,0.491
9760,708.16,0.483
9776,708.68,0.475
9792,709.22,0.467
9808,709.75,0.460
9824,710.29,0.452
9840,710.82,0.444
9856,711.35,0.436
9872,711.88,0.428
9888,712.42,0.420
9904,712.95,0.412
9920,713.49,0.404
9936,714.03,0.396
9952,714.55,0.387
9968,715.08,0.379
9984,715.62,0.371
10000,716.16,0.363
10016,716.69,0.355
10032,717.22,0.346
10048,717.75,0.338
10064,718.29,0.330
10080,718.82,0.321
10096,719.35,0.313
10112,719.89,0.305
10128,720.42,0.296
10144,720.96,0.288
10160,721.49,0.279
10176,722.02,0.270
10192,722.55,0.262
10208,723.09,0.253
10224,723.62,0.245
10240,724.15,0.236
10256,724.69,0.227
10272,725.22,0.219
10288,725.75,0.210
10304,726.29,0.201
10320,726.82,0.193
10336,727.36,0.184
10352,727.88,0.175
10368,728.43,0.167
10384,728.95,0.158
10400,729.49,0.150
10416,730.02,0.141
10432,730.56,0.132
10448,731.09,0.123
10464,731.62,0.116
10480,732.15,0.108
10496,732.69,0.100
10512,733.22,0.092
10528,733.76,0.085
10544,734.29,0.078
10560,734.82,0.071
10576,735.35,0.064
10592,735.89,0.058
10608,736.42,0.051
10624,736.95,0.046
10640,737.49,0.042
10656,738.02,0.037
10672,738.55,0.033
10688,739.09,0.030
10704,739.62,0.026
10720,740.15,0.023
10736,740.70,0.021
10752,741.22,0.019
10768,741.75,0.017
10784,742.28,0.016
10800,742.82,0.015
10816,743.35,0.013
10832,743.88,0.013
10848,744.42,0.012
10864,744.95,0.011
10880,745.49,0.011
10896,746.02,0.011
10912,746.55,0.010
10928,747.09,0.010
10944,747.62,0.010
10960,748.15,0.009
10976,748.69,0.009
10992,749.21,0.009
11008,749.75,0.009
11024,750.29,0.008
11040,750.82,0.008
11056,751.35,0.008
11072,751.89,0.008
11088,752.42,0.008
11104,752.96,0.008
11120,753.48,0.008
11136,754.02,0.008
11152,754.55,0.008
11168,755.08,0.007
11184,755.62,0.007
11200,756.15,0.007
11216,756.68,0.007
11232,757.22,0.007
11248,757.75,0.007
11264,758.29,0.007
11280,758.82,0.007
11296,759.35,0.007
11312,759.89,0.006
11328,760.42,0.006
11344,760.96,0.006
11360,761.49,0.006
11376,762.02,0.006
11392,762.55,0.006
11408,763.09,0.006
11424,763.62,0.006
11440,764.15,0.005
11456,764.69,0.005
11472,765.22,0.005
11488,765.74,0.005
11504,766.29,0.005
11520,766.82,0.005
11536,767.36,0.005
11552,767.89,0.005
11568,768.42,0.005
11584,768.95,0.004
11600,769.48,0.004
11616,770.02,0.004
11632,770.55,0.004
11648,771.08,0.004
11664,771.62,0.004
11680,772.15,0.004
11696,772.69,0.004
11712,773.22,0.004
11728,773.75,0.004
11744,774.29,0.003
11760,774.83,0.003
11776,775.35,0.003
11792,775.89,0.003
11808,776.42,0.003
11824,776.96,0.003
11840,777.49,0.003
11856,778.02,0.003
11872,778.55,0.003
11888,779.09,0.003
11904,779.62,0.003
11920,780.15,0.003
11936,780.68,0.003
11952,781.22,0.002
11968,781.76,0.002
11984,782.29,0.002
12000,782.82,0.002
12016,783.35,0.002
12032,783.89,0.002
12048,784.42,0.002
12064,784.96,0.002
12080,785.49,0.002
12096,786.02,0.002
12112,786.55,0.002
12128,787.08,0.002
12144,787.62,0.002
12160,788.15,0.002
12176,788.69,0.002
12192,789.22,0.002
12208,789.75,0.002
12224,790.29,0.002
12240,790.82,0.002
12256,791.35,0.002
12272,791.88,0.002
12288,792.42,0.002
12304,792.96,0.002
12320,793.48,0.002
12336,794.02,0.002
12352,794.55,0.001
12368,795.09,0.001
12384,795.62,0.001
12400,796.16,0.001
12416,796.69,0.001
12432,797.22,0.001
12448,797.75,0.001
12464,798.29,0.001
12480,798.82,0.001
12496,799.36,0.001
12512,799.89,0.001
12528,800.42,0.001
12544,800.96,0.001
12560,801.49,0.001
12576,802.02,0.001
12592,802.55,0.001
12608,803.09,0.001
12624,803.62,0.001
12640,804.15,0.001
12656,804.69,0.001
12672,805.22,0.001
12688,805.76,0.001
12704,806.29,0.001
12720,806.82,0.001
12736,807.35,0.001
12752,807.89,0.001
12768,808.42,0.001
12784,808.95,0.001
12800,809.49,0.001
12816,810.02,0.001
12832,810.55,0.001
12848,811.08,0.001
12864,811.62,0.001
12880,812.15,0.001
12896,812.69,0.000
12912,813.22,0.000
12928,813.75,0.000
12944,814.29,0.000
12960,814.82,0.000
12976,815.35,0.000
12992,815.89,0.000
13008,816.42,0.000
13024,816.96,0.000
13040,817.49,0.000
13056,818.02,0.000
13072,818.56,0.000
13088,819.08,0.000
13104,819.62,0.000
13120,820.15,0.000
13136,820.69,0.000
13152,821.22,0.000
13168,821.75,0.000
13184,822.28,0.000
13200,822.82,0.000
13216,823.36,0.000
13232,823.89,0.000
13248,824.42,0.000
13264,824.95,0.000
13280,825.48,0.000
13296,826.02,0.000
13312,826.56,0.000
13328,827.09,0.000
13344,827.62,0.000
13360,828.15,0.000
13376,828.69,0.000
13392,829.22,0.000
13408,829.75,0.000
13424,830.29,-0.001
13440,830.82,-0.001
13456,831.36,-0.001
13472,831.89,-0.001
13488,832.42,-0.001
13504,832.95,0.000
13520,833.50,-0.001
13536,834.02,-0.001
13552,834.55,-0.001
13568,835.09,-0.001
13584,835.62,-0.001
13600,836.16,-0.001
13616,836.69,-0.001
13632,837.22,-0.001
13648,837.75,-0.001
13664,838.29,-0.001
13680,838.82,-0.001
13696,839.35,-0.001
13712,839.89,-0.001
13728,840.42,-0.001
13744,840.95,-0.001
13760,841.49,-0.001
13776,842.01,-0.001
13792,842.56,-0.001
13808,843.09,-0.001
13824,843.63,-0.001
13840,844.15,-0.001
13856,844.68,-0.001
13872,845.22,-0.001
13888,845.75,-0.001
13904,846.28,-0.001
13920,846.82,-0.001
13936,847.35,-0.001
13952,847.89,-0.001
13968,848.42,-0.001
13984,848.96,-0.001
14000,849.49,-0.001
14016,850.01,-0.001
14032,850.56,-0.001
14048,851.09,-0.002
14064,851.62,-0.001
14080,852.15,-0.002
14096,852.69,-0.002
14112,853.22,-0.002
14128,853.75,-0.002
14144,854.28,-0.002
14160,854.82,-0.002
14176,855.36,-0.002
14192,855.88,-0.002
14208,856.42,-0.002
14224,856.95,-0.002
14240,857.48,-0.002
14256,858.02,-0.002
14272,858.55,-0.002
14288,859.09,-0.002
14304,859.61,-0.002
14320,860.16,-0.002
14336,860.69,-0.002
14352,861.23,-0.002
14368,861.75,-0.002
14384,862.28,-0.002
14400,862.82,-0.002
14416,863.35,-0.002
14432,863.89,-0.002
14448,864.42,-0.002
14464,864.95,-0.002
14480,865.48,-0.002
14496,866.02,-0.002
14512,866.56,-0.002
14528,867.09,-0.002
14544,867.62,-0.002
14560,868.16,-0.002
14576,868.69,-0.002
14592,869.23,-0.002
14608,869.76,-0.002
14624,870.29,-0.002
14640,870.82,-0.002
14656,871.36,-0.002
14672,871.89,-0.002
14688,872.42,-0.002
14704,872.96,-0.003
14720,873.49,-0.003
14736,874.02,-0.002
14752,874.56,-0.003
14768,875.09,-0.003
14784,875.62,-0.003
14800,876.15,-0.003
14816,876.69,-0.003
14832,877.22,-0.003
14848,877.75,-0.003
14864,878.29,-0.003
14880,878.82,-0.003
14896,879.35,-0.003
14912,879.89,-0.003
14928,880.42,-0.003
14944,880.95,-0.003
14960,881.49,-0.003
14976,882.02,-0.003
14992,882.55,-0.003
15008,883.09,-0.003
15024,883.62,-0.003
15040,884.16,-0.003
15056,884.69,-0.003
15072,885.22,-0.003
15088,885.75,-0.003
15104,886.29,-0.003
15120,886.82,-0.003
15136,887.35,-0.003
15152,887.89,-0.003
15168,888.42,-0.003
15184,888.96,-0.003
15200,889.49,-0.003
15216,890.02,-0.003
15232,890.55,-0.003
15248,891.09,-0.003
15264,891.62,-0.003
15280,892.15,-0.003
15296,892.69,-0.003
15312,893.22,-0.003
15328,893.76,-0.003
15344,894.29,-0.003
15360,894.83,-0.003
15376,895.36,-0.003
15392,895.89,-0.003
15408,896.42,-0.003
15424,896.96,-0.003
15440,897.49,-0.003
15456,898.02,-0.004
15472,898.55,-0.004
15488,899.09,-0.004
15504,899.62,-0.004
15520,900.15,-0.003
15536,900.69,-0.003
15552,901.22,-0.004
15568,901.76,-0.003
15584,902.29,-0.003
15600,902.82,-0.004
15616,903.35,-0.004
15632,903.90,-0.004
15648,904.42,-0.004
15664,904.96,-0.004
15680,905.49,-0.004
15696,906.02,-0.004
15712,906.56,-0.004
15728,907.09,-0.004
15744,907.62,-0.004
15760,908.16,-0.004
15776,908.69,-0.004
15792,909.22,-0.004
15808,909.76,-0.004
15824,910.29,-0.004
15840,910.82,-0.004
15856,911.36,-0.004
15872,911.89,-0.004
15888,912.42,-0.004
15904,912.96,-0.004
15920,913.49,-0.004
15936,914.02,-0.004
15952,914.55,-0.004
15968,915.09,-0.004
15984,915.62,-0.004
16000,916.16,-0.004
16016,916.69,-0.004
16032,917.22,-0.004
16048,917.75,-0.004
16064,918.29,-0.004
16080,918.82,-0.004
16096,919.35,-0.004
16112,919.88,-0.004
16128,920.42,-0.004
16144,920.96,-0.004
16160,921.49,-0.004
16176,922.02,-0.004
16192,922.56,-0.004
16208,923.09,-0.004
16224,923.62,-0.004
16240,924.16,-0.004
16256,924.69,-0.004
16272,925.22,-0.004
16288,925.76,-0.004
16304,926.29,-0.004
16320,926.82,-0.004
16336,927.36,-0.004
16352,927.89,-0.004
16368,928.42,-0.004
16384,928.95,-0.004
16400,929.49,-0.004
16416,930.02,-0.004
16432,930.56,-0.004
16448,931.09,-0.004
16464,931.62,-0.004
16480,932.15,-0.004
16496,932.69,-0.004
16512,933.22,-0.004
16528,933.75,-0.004
16544,934.29,-0.004
16560,934.82,-0.004
16576,935.35,-0.004
16592,935.89,-0.004
16608,936.43,-0.004
16624,936.96,-0.004
16640,937.49,-0.005
16656,938.02,-0.005
16672,938.55,-0.005
16688,939.08,-0.005
16704,939.62,-0.005
16720,940.16,-0.005
16736,940.69,-0.005
16752,941.22,-0.005
16768,941.75,-0.005
16784,942.30,-0.005
16800,942.83,-0.005
16816,943.36,-0.005
16832,943.88,-0.005
16848,944.42,-0.005
16864,944.96,-0.005
16880,945.49,-0.005
16896,946.02,-0.005
16912,946.56,-0.005
16928,947.09,-0.005
16944,947.62,-0.005
16960,948.16,-0.005
16976,948.69,-0.005
16992,949.23,-0.005
17008,949.75,-0.005
17024,950.29,-0.005
17040,950.82,-0.005
17056,951.35,-0.005
17072,951.89,-0.005
17088,952.42,-0.005
17104,952.96,-0.005
17120,953.49,-0.005
17136,954.02,-0.005
17152,954.56,-0.005
17168,955.09,-0.005
17184,955.62,-0.005
17200,956.16,-0.005
17216,956.69,-0.005
17232,957.23,-0.005
17248,957.75,-0.005
17264,958.29,-0.005
17280,958.82,-0.005
17296,959.36,-0.005
17312,959.89,-0.005
17328,960.42,-0.005
17344,960.95,-0.005
17360,961.49,-0.005
17376,962.03,-0.005
17392,962.56,-0.005
17408,963.09,-0.005
17424,963.62,-0.005
17440,964.15,-0.005
17456,964.69,-0.005
17472,965.22,-0.005
17488,965.76,-0.005
17504,966.29,-0.005
17520,966.83,-0.005
17536,967.35,-0.005
17552,967.89,-0.005
17568,968.42,-0.005
17584,968.95,-0.005
17600,969.49,-0.005
17616,970.02,-0.005
17632,970.56,-0.005
17648,971.09,-0.005
17664,971.62,-0.006
17680,972.16,-0.006
17696,972.69,-0.006
17712,973.22,-0.006
17728,973.76,-0.005
17744,974.29,-0.006
17760,974.82,-0.006
17776,975.36,-0.006
17792,975.89,-0.006
17808,976.42,-0.006
17824,976.95,-0.006
17840,977.49,-0.006
17856,978.03,-0.006
17872,978.56,-0.006
17888,979.09,-0.006
17904,979.62,-0.006
17920,980.16,-0.006
17936,980.69,-0.006
17952,981.22,-0.006
17968,981.76,-0.006
17984,982.28,-0.006
18000,982.82,-0.006
18016,983.36,-0.006
18032,983.89,-0.006
18048,984.42,-0.006
18064,984.95,-0.006
18080,985.49,-0.006
18096,986.02,-0.006
18112,986.56,-0.006
18128,987.08,-0.006
18144,987.62,-0.006
18160,988.16,-0.006
18176,988.69,-0.006
18192,989.23,-0.006
18208,989.76,-0.006
18224,990.29,-0.006
18240,990.82,-0.006
18256,991.36,-0.006
18272,991.89,-0.006
18288,992.43,-0.006
18304,992.95,-0.006
18320,993.49,-0.006
18336,994.03,-0.006
18352,994.56,-0.006
18368,995.09,-0.006
18384,995.63,-0.006
18400,996.16,-0.006
18416,996.69,-0.006
18432,997.22,-0.006
18448,997.75,-0.006
18464,998.29,-0.006
18480,998.82,-0.006
18496,999.36,-0.006
18512,999.89,-0.006
18528,1000.42,-0.006
18544,1000.96,-0.006
18560,1001.49,-0.006
18576,1002.03,-0.006
18592,1002.56,-0.006
18608,1003.09,-0.006
18624,1003.63,-0.006
18640,1004.16,-0.006
18656,1004.69,-0.006
18672,1005.22,-0.006
18688,1005.76,-0.006
18704,1006.29,-0.006
18720,1006.82,-0.006
18736,1007.35,-0.006
18752,1007.89,-0.006
18768,1008.42,-0.006
18784,1008.95,-0.006
18800,1009.49,-0.006
18816,1010.02,-0.006
18832,1010.56,-0.006
18848,1011.09,-0.006
18864,1011.63,-0.006
18880,1012.15,-0.006
18896,1012.69,-0.006
18912,1013.22,-0.006
18928,1013.75,-0.006
18944,1014.29,-0.006
18960,1014.82,-0.006
18976,1015.35,-0.006
18992,1015.89,-0.006
19008,1016.42,-0.006
19024,1016.95,-0.006
19040,1017.49,-0.006
19056,1018.03,-0.006
19072,1018.55,-0.006
19088,1019.09,-0.006
19104,1019.62,-0.006
19120,1020.16,-0.007
19136,1020.69,-0.007
19152,1021.23,-0.007
19168,1021.75,-0.007
19184,1022.28,-0.007
19200,1022.82,-0.007
19216,1023.36,-0.006
19232,1023.89,-0.007
19248,1024.42,-0.007
19264,1024.96,-0.007
19280,1025.49,-0.007
19296,1026.02,-0.007
19312,1026.55,-0.007
19328,1027.09,-0.007
19344,1027.62,-0.007
19360,1028.15,-0.007
19376,1028.69,-0.007
19392,1029.22,-0.007
19408,1029.76,-0.007
19424,1030.29,-0.007
19440,1030.82,-0.007
19456,1031.35,-0.007
19472,1031.89,-0.007
19488,1032.43,-0.007
19504,1032.95,-0.007
19520,1033.49,-0.007
19536,1034.02,-0.007
19552,1034.56,-0.007
19568,1035.08,-0.007
19584,1035.62,-0.007
19600,1036.16,-0.007
19616,1036.69,-0.007
19632,1037.22,-0.007
19648,1037.76,-0.007
19664,1038.29,-0.007
19680,1038.82,-0.007
19696,1039.36,-0.007
19712,1039.89,-0.007
19728,1040.42,-0.007
19744,1040.96,-0.007
19760,1041.49,-0.007
19776,1042.02,-0.007
19792,1042.55,-0.007
19808,1043.09,-0.007
19824,1043.63,-0.007
19840,1044.15,-0.007
19856,1044.69,-0.007
19872,1045.22,-0.007
19888,1045.76,-0.007
19904,1046.29,-0.007
19920,1046.83,-0.007
19936,1047.35,-0.007
19952,1047.89,-0.007
19968,1048.42,-0.007
19984,1048.96,-0.007
20000,1049.49,-0.007
20016,1050.02,-0.007
20032,1050.56,-0.007
20048,1051.09,-0.007
20064,1051.62,-0.007
20080,1052.16,-0.007
20096,1052.69,-0.007
20112,1053.22,-0.007
20128,1053.75,-0.007
20144,1054.29,-0.007
20160,1054.83,-0.007
20176,1055.36,-0.007
20192,1055.88,-0.007
20208,1056.42,-0.007
20224,1056.95,-0.007
20240,1057.49,-0.007
20256,1058.02,-0.007
20272,1058.56,-0.007
20288,1059.09,-0.007
20304,1059.62,-0.007
20320,1060.16,-0.007
20336,1060.69,-0.007
20352,1061.23,-0.007
20368,1061.76,-0.007
20384,1062.29,-0.007
20400,1062.82,-0.007
20416,1063.36,-0.007
20432,1063.89,-0.007
20448,1064.42,-0.007
20464,1064.96,-0.007
20480,1065.49,-0.008
20496,1066.02,-0.008
20512,1066.56,-0.007
20528,1067.09,-0.007
20544,1067.62,-0.007
20560,1068.16,-0.007
20576,1068.69,-0.007
20592,1069.22,-0.007
20608,1069.76,-0.007
20624,1070.29,-0.008
20640,1070.82,-0.008
20656,1071.36,-0.007
20672,1071.89,-0.007
20688,1072.42,-0.007
20704,1072.95,-0.007
20720,1073.49,-0.007
20736,1074.02,-0.007
20752,1074.55,-0.007
20768,1075.08,-0.007
20784,1075.62,-0.007
20800,1076.15,-0.007
20816,1076.69,-0.007
20832,1077.22,-0.008
20848,1077.75,-0.007
20864,1078.29,-0.007
20880,1078.83,-0.007
20896,1079.35,-0.007
20912,1079.89,-0.007
20928,1080.42,-0.007
20944,1080.96,-0.008
20960,1081.49,-0.007
20976,1082.02,-0.007
20992,1082.56,-0.008
21008,1083.09,-0.008
21024,1083.62,-0.008
21040,1084.16,-0.008
21056,1084.69,-0.008
21072,1085.21,-0.008
21088,1085.75,-0.008
21104,1086.29,-0.008
21120,1086.83,-0.008
21136,1087.35,-0.008
21152,1087.89,-0.008
21168,1088.42,-0.008
21184,1088.96,-0.008
21200,1089.49,-0.008
21216,1090.03,-0.008
21232,1090.55,-0.008
21248,1091.09,-0.008
21264,1091.62,-0.008
21280,1092.15,-0.008
21296,1092.69,-0.008
21312,1093.23,-0.008
21328,1093.76,-0.008
21344,1094.30,-0.008
21360,1094.83,-0.008
21376,1095.35,-0.008
21392,1095.89,-0.008
21408,1096.43,-0.008
21424,1096.96,-0.008
21440,1097.49,-0.008
21456,1098.02,-0.008
21472,1098.56,-0.008
21488,1099.09,-0.008
21504,1099.62,-0.008
21520,1100.16,-0.008
21536,1100.69,-0.008
21552,1101.23,-0.008
21568,1101.76,-0.008
21584,1102.29,-0.008
21600,1102.82,-0.008
21616,1103.36,-0.008
21632,1103.89,-0.008
21648,1104.42,-0.008
21664,1104.96,-0.008
21680,1105.49,-0.008
21696,1106.02,-0.008
21712,1106.56,-0.008
21728,1107.08,-0.008
21744,1107.62,-0.008
21760,1108.16,-0.008
21776,1108.69,-0.008
21792,1109.22,-0.008
21808,1109.75,-0.008
21824,1110.29,-0.008
21840,1110.82,-0.008
21856,1111.36,-0.008
21872,1111.89,-0.008
21888,1112.42,-0.008
21904,1112.95,-0.008
21920,1113.49,-0.009
21936,1114.03,-0.008
21952,1114.56,-0.008
21968,1115.09,-0.009
21984,1115.63,-0.009
22000,1116.16,-0.009
22016,1116.69,-0.009
22032,1117.22,-0.009
22048,1117.75,-0.009
22064,1118.29,-0.009
22080,1118.82,-0.009
22096,1119.36,-0.009
22112,1119.89,-0.009
22128,1120.43,-0.009
22144,1120.96,-0.009
22160,1121.49,-0.009
22176,1122.03,-0.009
22192,1122.55,-0.009
22208,1123.09,-0.009
22224,1123.62,-0.009
22240,1124.15,-0.009
22256,1124.69,-0.009
22272,1125.22,-0.009
22288,1125.76,-0.009
22304,1126.28,-0.009
22320,1126.82,-0.009
22336,1127.36,-0.009
22352,1127.88,-0.009
22368,1128.42,-0.009
22384,1128.96,-0.009
22400,1129.50,-0.009
22416,1130.02,-0.009
22432,1130.55,-0.009
22448,1131.09,-0.009
22464,1131.63,-0.009
22480,1132.15,-0.009
22496,1132.69,-0.009
22512,1133.22,-0.009
22528,1133.75,-0.010
22544,1134.30,-0.010
22560,1134.82,-0.010
22576,1135.35,-0.010
22592,1135.89,-0.010
22608,1136.43,-0.010
22624,1136.95,-0.010
22640,1137.49,-0.010
22656,1138.03,-0.010
22672,1138.56,-0.010
22688,1139.09,-0.010
22704,1139.63,-0.010
22720,1140.15,-0.010
22736,1140.69,-0.010
22752,1141.22,-0.010
22768,1141.76,-0.010
22784,1142.28,-0.010
22800,1142.83,-0.010
22816,1143.36,-0.010
22832,1143.88,-0.010
22848,1144.42,-0.010
22864,1144.95,-0.010
22880,1145.48,-0.010
22896,1146.03,-0.010
22912,1146.56,-0.010
22928,1147.09,-0.010
22944,1147.62,-0.010
22960,1148.16,-0.010
22976,1148.69,-0.010
22992,1149.22,-0.011
23008,1149.75,-0.011
23024,1150.29,-0.011
23040,1150.81,-0.011
23056,1151.36,-0.011
23072,1151.88,-0.011
23088,1152.41,-0.011
23104,1152.96,-0.011
23120,1153.49,-0.011
23136,1154.02,-0.011
23152,1154.56,-0.011
23168,1155.09,-0.011
23184,1155.62,-0.011
23200,1156.16,-0.011
23216,1156.69,-0.011
23232,1157.22,-0.011
23248,1157.76,-0.011
23264,1158.29,-0.011
23280,1158.82,-0.011
23296,1159.35,-0.012
23312,1159.89,-0.012
23328,1160.43,-0.012
23344,1160.95,-0.012
23360,1161.48,-0.012
23376,1162.02,-0.012
23392,1162.55,-0.012
23408,1163.09,-0.012
23424,1163.63,-0.012
23440,1164.15,-0.012
23456,1164.69,-0.012
23472,1165.22,-0.012
23488,1165.75,-0.012
23504,1166.29,-0.012
23520,1166.83,-0.012
23536,1167.36,-0.012
23552,1167.89,-0.012
23568,1168.42,-0.012
23584,1168.95,-0.012
23600,1169.49,-0.012
23616,1170.02,-0.012
23632,1170.55,-0.012
23648,1171.08,-0.012
23664,1171.62,-0.012
23680,1172.16,-0.013
23696,1172.69,-0.013
23699,1172.79,-0.013