File: Wood/Calibration_Data/IMT/IMT-Mines-Ales_TGA_N2_2K_R1.csv
Time (s),Sample Temperature (K),Weight (mg)
0,383.15,4.975
16,383.28,4.975
32,383.73,4.975
48,384.22,4.975
64,384.72,4.975
80,385.24,4.975
96,385.76,4.975
112,386.29,4.975
128,386.83,4.975
144,387.36,4.974
160,387.89,4.974
176,388.42,4.974
192,388.96,4.974
208,389.49,4.974
224,390.03,4.974
240,390.56,4.973
256,391.09,4.973
272,391.63,4.973
288,392.17,4.973
304,392.69,4.973
320,393.23,4.973
336,393.76,4.972
352,394.30,4.972
368,394.82,4.972
384,395.36,4.972
400,395.89,4.972
416,396.43,4.971
432,396.96,4.971
448,397.50,4.971
464,398.03,4.971
480,398.56,4.971
496,399.10,4.970
512,399.64,4.970
528,400.17,4.970
544,400.71,4.970
560,401.24,4.969
576,401.78,4.969
592,402.30,4.969
608,402.84,4.969
624,403.37,4.968
640,403.90,4.968
656,404.44,4.968
672,404.97,4.968
688,405.51,4.967
704,406.04,4.967
720,406.58,4.967
736,407.11,4.967
752,407.64,4.966
768,408.18,4.966
784,408.71,4.966
800,409.25,4.965
816,409.78,4.965
832,410.31,4.965
848,410.85,4.964
864,411.38,4.964
880,411.91,4.964
896,412.45,4.964
912,412.98,4.963
928,413.52,4.963
944,414.05,4.963
960,414.59,4.962
976,415.12,4.962
992,415.66,4.962
1008,416.19,4.961
1024,416.72,4.961
1040,417.26,4.960
1056,417.80,4.960
1072,418.32,4.960
1088,418.86,4.959
1104,419.40,4.959
1120,419.93,4.958
1136,420.47,4.958
1152,421.00,4.957
1168,421.54,4.957
1184,422.07,4.956
1200,422.60,4.956
1216,423.13,4.956
1232,423.66,4.955
1248,424.20,4.955
1264,424.74,4.954
1280,425.27,4.953
1296,425.80,4.953
1312,426.33,4.952
1328,426.87,4.952
1344,427.40,4.951
1360,427.94,4.951
1376,428.47,4.950
1392,429.00,4.950
1408,429.54,4.949
1424,430.08,4.948
1440,430.60,4.948
1456,431.14,4.947
1472,431.68,4.946
1488,432.20,4.946
1504,432.75,4.945
1520,433.27,4.944
1536,433.81,4.943
1552,434.34,4.943
1568,434.88,4.942
1584,435.41,4.941
1600,435.95,4.940
1616,436.48,4.939
1632,437.01,4.939
1648,437.54,4.938
1664,438.08,4.937
1680,438.62,4.936
1696,439.15,4.935
1712,439.68,4.934
1728,440.22,4.933
1744,440.75,4.932
1760,441.28,4.931
1776,441.82,4.930
1792,442.35,4.929
1808,442.88,4.928
1824,443.41,4.927
1840,443.95,4.926
1856,444.49,4.925
1872,445.02,4.924
1888,445.55,4.923
1904,446.09,4.922
1920,446.62,4.921
1936,447.16,4.920
1952,447.68,4.918
1968,448.22,4.917
1984,448.76,4.916
2000,449.29,4.915
2016,449.83,4.914
2032,450.36,4.912
2048,450.89,4.911
2064,451.42,4.910
2080,451.96,4.908
2096,452.49,4.907
2112,453.02,4.906
2128,453.56,4.904
2144,454.09,4.903
2160,454.63,4.902
2176,455.16,4.900
2192,455.69,4.899
2208,456.23,4.897
2224,456.76,4.896
2240,457.30,4.895
2256,457.82,4.893
2272,458.36,4.892
2288,458.90,4.890
2304,459.43,4.889
2320,459.97,4.887
2336,460.50,4.886
2352,461.03,4.884
2368,461.56,4.882
2384,462.10,4.881
2400,462.63,4.879
2416,463.17,4.878
2432,463.70,4.876
2448,464.23,4.874
2464,464.77,4.873
2480,465.30,4.871
2496,465.83,4.869
2512,466.36,4.868
2528,466.90,4.866
2544,467.43,4.864
2560,467.97,4.862
2576,468.50,4.861
2592,469.04,4.859
2608,469.57,4.857
2624,470.10,4.855
2640,470.64,4.854
2656,471.18,4.852
2672,471.71,4.850
2688,472.24,4.848
2704,472.78,4.846
2720,473.31,4.844
2736,473.85,4.842
2752,474.38,4.841
2768,474.91,4.839
2784,475.44,4.837
2800,475.98,4.835
2816,476.50,4.833
2832,477.04,4.831
2848,477.58,4.829
2864,478.11,4.827
2880,478.65,4.825
2896,479.18,4.823
2912,479.71,4.821
2928,480.25,4.819
2944,480.78,4.816
2960,481.32,4.814
2976,481.85,4.812
2992,482.38,4.810
3008,482.91,4.808
3024,483.45,4.805
3040,483.98,4.803
3056,484.52,4.801
3072,485.05,4.799
3088,485.59,4.796
3104,486.12,4.794
3120,486.65,4.792
3136,487.18,4.789
3152,487.72,4.787
3168,488.25,4.784
3184,488.79,4.782
3200,489.32,4.779
3216,489.85,4.777
3232,490.39,4.774
3248,490.93,4.771
3264,491.45,4.769
3280,491.99,4.766
3296,492.52,4.763
3312,493.05,4.760
3328,493.59,4.757
3344,494.12,4.754
3360,494.66,4.751
3376,495.19,4.748
3392,495.72,4.745
3408,496.26,4.742
3424,496.80,4.739
3440,497.33,4.736
3456,497.86,4.732
3472,498.40,4.729
3488,498.93,4.726
3504,499.47,4.722
3520,500.00,4.719
3536,500.53,4.715
3552,501.06,4.712
3568,501.59,4.708
3584,502.13,4.704
3600,502.67,4.701
3616,503.20,4.697
3632,503.74,4.693
3648,504.26,4.689
3664,504.80,4.685
3680,505.33,4.681
3696,505.86,4.677
3712,506.40,4.673
3728,506.93,4.669
3744,507.47,4.665
3760,508.00,4.660
3776,508.54,4.656
3792,509.07,4.651
3808,509.61,4.647
3824,510.14,4.642
3840,510.67,4.638
3856,511.21,4.633
3872,511.74,4.629
3888,512.27,4.624
3904,512.80,4.619
3920,513.33,4.614
3936,513.87,4.609
3952,514.40,4.604
3968,514.94,4.598
3984,515.47,4.594
4000,516.01,4.589
4016,516.54,4.584
4032,517.07,4.579
4048,517.61,4.574
4064,518.15,4.569
4080,518.68,4.563
4096,519.21,4.558
4112,519.75,4.553
4128,520.28,4.547
4144,520.81,4.542
4160,521.34,4.536
4176,521.88,4.531
4192,522.42,4.525
4208,522.95,4.520
4224,523.48,4.514
4240,524.01,4.508
4256,524.55,4.502
4272,525.08,4.497
4288,525.62,4.491
4304,526.16,4.485
4320,526.69,4.478
4336,527.22,4.473
4352,527.75,4.467
4368,528.29,4.461
4384,528.82,4.455
4400,529.35,4.450
4416,529.88,4.443
4432,530.42,4.436
4448,530.96,4.430
4464,531.49,4.424
4480,532.02,4.419
4496,532.55,4.413
4512,533.09,4.406
4528,533.62,4.400
4544,534.15,4.394
4560,534.69,4.387
4576,535.22,4.381
4592,535.76,4.374
4608,536.30,4.368
4624,536.83,4.361
4640,537.36,4.355
4656,537.89,4.347
4672,538.43,4.341
4688,538.96,4.334
4704,539.50,4.328
4720,540.03,4.321
4736,540.56,4.314
4752,541.09,4.307
4768,541.63,4.300
4784,542.16,4.293
4800,542.70,4.286
4816,543.23,4.279
4832,543.77,4.271
4848,544.30,4.264
4864,544.83,4.256
4880,545.36,4.249
4896,545.90,4.241
4912,546.44,4.233
4928,546.96,4.226
4944,547.50,4.218
4960,548.03,4.212
4976,548.56,4.204
4992,549.10,4.195
5008,549.64,4.188
5024,550.17,4.179
5040,550.70,4.171
5056,551.24,4.164
5072,551.77,4.155
5088,552.31,4.147
5104,552.84,4.140
5120,553.37,4.132
5136,553.91,4.124
5152,554.43,4.114
5168,554.97,4.105
5184,555.50,4.098
5200,556.04,4.088
5216,556.57,4.080
5232,557.11,4.072
5248,557.64,4.064
5264,558.18,4.055
5280,558.71,4.046
5296,559.24,4.037
5312,559.77,4.028
5328,560.31,4.019
5344,560.84,4.010
5360,561.38,3.999
5376,561.90,3.989
5392,562.45,3.980
5408,562.98,3.970
5424,563.50,3.961
5440,564.05,3.951
5456,564.58,3.941
5472,565.11,3.931
5488,565.64,3.921
5504,566.18,3.911
5520,566.71,3.902
5536,567.25,3.893
5552,567.77,3.883
5568,568.31,3.871
5584,568.85,3.861
5600,569.39,3.851
5616,569.92,3.840
5632,570.46,3.829
5648,570.98,3.818
5664,571.52,3.807
5680,572.05,3.794
5696,572.58,3.783
5712,573.12,3.772
5728,573.65,3.760
5744,574.19,3.749
5760,574.72,3.737
5776,575.25,3.726
5792,575.79,3.713
5808,576.32,3.701
5824,576.85,3.689
5840,577.38,3.676
5856,577.92,3.664
5872,578.46,3.651
5888,578.99,3.638
5904,579.52,3.626
5920,580.06,3.612
5936,580.59,3.599
5952,581.13,3.586
5968,581.66,3.573
5984,582.20,3.559
6000,582.72,3.545
6016,583.26,3.532
6032,583.80,3.518
6048,584.33,3.504
6064,584.86,3.490
6080,585.39,3.475
6096,585.93,3.462
6112,586.46,3.446
6128,586.99,3.431
6144,587.53,3.418
6160,588.06,3.401
6176,588.59,3.387
6192,589.14,3.372
6208,589.66,3.356
6224,590.20,3.341
6240,590.73,3.325
6256,591.26,3.310
6272,591.80,3.294
6288,592.33,3.278
6304,592.86,3.261
6320,593.40,3.245
6336,593.93,3.228
6352,594.47,3.211
6368,595.00,3.194
6384,595.54,3.178
6400,596.07,3.160
6416,596.60,3.143
6432,597.13,3.126
6448,597.67,3.108
6464,598.20,3.093
6480,598.74,3.074
6496,599.27,3.056
6512,599.80,3.038
6528,600.34,3.021
6544,600.87,3.003
6560,601.41,2.985
6576,601.94,2.967
6592,602.48,2.948
6608,603.01,2.930
6624,603.54,2.912
6640,604.08,2.894
6656,604.61,2.875
6672,605.15,2.856
6688,605.68,2.838
6704,606.21,2.819
6720,606.75,2.802
6736,607.28,2.781
6752,607.81,2.764
6768,608.35,2.744
6784,608.88,2.724
6800,609.41,2.704
6816,609.95,2.685
6832,610.48,2.665
6848,611.01,2.646
6864,611.54,2.625
6880,612.08,2.605
6896,612.61,2.585
6912,613.15,2.565
6928,613.68,2.547
6944,614.21,2.526
6960,614.75,2.505
6976,615.28,2.485
6992,615.82,2.465
7008,616.36,2.444
7024,616.88,2.423
7040,617.42,2.402
7056,617.95,2.381
7072,618.49,2.360
7088,619.02,2.338
7104,619.55,2.317
7120,620.08,2.295
7136,620.62,2.273
7152,621.16,2.251
7168,621.69,2.229
7184,622.23,2.207
7200,622.76,2.184
7216,623.29,2.161
7232,623.83,2.139
7248,624.36,2.118
7264,624.90,2.094
7280,625.42,2.072
7296,625.96,2.049
7312,626.49,2.026
7328,627.02,2.004
7344,627.56,1.981
7360,628.09,1.958
7376,628.63,1.935
7392,629.16,1.912
7408,629.70,1.890
7424,630.22,1.868
7440,630.76,1.844
7456,631.30,1.822
7472,631.83,1.799
7488,632.36,1.777
7504,632.90,1.754
7520,633.43,1.732
7536,633.96,1.710
7552,634.50,1.689
7568,635.04,1.668
7584,635.56,1.647
7600,636.10,1.626
7616,636.63,1.606
7632,637.17,1.586
7648,637.70,1.567
7664,638.23,1.548
7680,638.76,1.530
7696,639.30,1.512
7712,639.83,1.495
7728,640.37,1.478
7744,640.90,1.462
7760,641.44,1.446
7776,641.96,1.431
7792,642.51,1.417
7808,643.04,1.403
7824,643.57,1.390
7840,644.11,1.378
7856,644.64,1.368
7872,645.17,1.355
7888,645.70,1.344
7904,646.24,1.336
7920,646.77,1.327
7936,647.31,1.318
7952,647.84,1.310
7968,648.37,1.302
7984,648.90,1.295
8000,649.45,1.288
8016,649.98,1.282
8032,650.51,1.276
8048,651.05,1.271
8064,651.58,1.266
8080,652.11,1.261
8096,652.64,1.257
8112,653.18,1.253
8128,653.72,1.249
8144,654.24,1.245
8160,654.78,1.242
8176,655.31,1.239
8192,655.84,1.236
8208,656.38,1.233
8224,656.91,1.231
8240,657.45,1.228
8256,657.98,1.226
8272,658.51,1.223
8288,659.05,1.221
8304,659.59,1.219
8320,660.12,1.217
8336,660.65,1.215
8352,661.18,1.213
8368,661.72,1.211
8384,662.25,1.209
8400,662.79,1.207
8416,663.32,1.205
8432,663.85,1.203
8448,664.39,1.201
8464,664.93,1.199
8480,665.45,1.197
8496,665.99,1.195
8512,666.53,1.194
8528,667.06,1.192
8544,667.59,1.190
8560,668.13,1.188
8576,668.66,1.187
8592,669.19,1.185
8608,669.73,1.183
8624,670.26,1.181
8640,670.79,1.180
8656,671.33,1.178
8672,671.86,1.176
8688,672.39,1.175
8704,672.93,1.173
8720,673.46,1.171
8736,673.99,1.170
8752,674.53,1.168
8768,675.07,1.166
8784,675.60,1.165
8800,676.13,1.163
8816,676.66,1.162
8832,677.20,1.160
8848,677.73,1.158
8864,678.27,1.157
8880,678.80,1.155
8896,679.33,1.154
8912,679.87,1.152
8928,680.40,1.151
8944,680.93,1.149
8960,681.47,1.148
8976,682.00,1.146
8992,682.53,1.145
9008,683.08,1.143
9024,683.60,1.142
9040,684.14,1.140
9056,684.67,1.139
9072,685.20,1.137
9088,685.74,1.136
9104,686.27,1.134
9120,686.80,1.133
9136,687.34,1.131
9152,687.87,1.130
9168,688.40,1.128
9184,688.94,1.127
9200,689.47,1.125
9216,690.01,1.124
9232,690.54,1.122
9248,691.08,1.121
9264,691.61,1.119
9280,692.14,1.118
9296,692.67,1.117
9312,693.21,1.115
9328,693.74,1.114
9344,694.28,1.112
9360,694.81,1.111
9376,695.34,1.110
9392,695.88,1.108
9408,696.41,1.107
9424,696.95,1.105
9440,697.48,1.104
9456,698.01,1.103
9472,698.55,1.101
9488,699.08,1.100
9504,699.62,1.098
9520,700.14,1.097
9536,700.68,1.096
9552,701.22,1.094
9568,701.75,1.093
9584,702.28,1.092
9600,702.82,1.090
9616,703.35,1.089
9632,703.88,1.088
9648,704.42,1.086
9664,704.95,1.085
9680,705.48,1.084
9696,706.01,1.083
9712,706.55,1.081
9728,707.09,1.080
9744,707.62,1.079
9760,708.14,1.078
9776,708.68,1.076
9792,709.21,1.075
9808,709.75,1.074
9824,710.28,1.072
9840,710.82,1.071
9856,711.35,1.070
9872,711.89,1.069
9888,712.41,1.068
9904,712.95,1.066
9920,713.48,1.065
9936,714.01,1.064
9952,714.56,1.063
9968,715.08,1.062
9984,715.61,1.060
10000,716.15,1.059
10016,716.68,1.058
10032,717.22,1.057
10048,717.74,1.056
10064,718.28,1.055
10080,718.81,1.054
10096,719.35,1.053
10112,719.88,1.051
10128,720.42,1.050
10144,720.95,1.049
10160,721.48,1.048
10176,722.02,1.047
10192,722.55,1.046
10208,723.08,1.045
10224,723.62,1.044
10240,724.15,1.043
10256,724.68,1.042
10272,725.21,1.041
10288,725.75,1.040
10304,726.29,1.039
10320,726.81,1.038
10336,727.35,1.037
10352,727.88,1.036
10368,728.42,1.035
10384,728.94,1.034
10400,729.48,1.033
10416,730.01,1.032
10432,730.55,1.031
10448,731.08,1.030
10464,731.61,1.029
10480,732.15,1.028
10496,732.68,1.027
10512,733.21,1.026
10528,733.75,1.025
10544,734.29,1.024
10560,734.81,1.023
10576,735.35,1.022
10592,735.89,1.021
10608,736.42,1.021
10624,736.95,1.020
10640,737.48,1.019
10656,738.02,1.018
10672,738.55,1.017
10688,739.08,1.016
10704,739.61,1.015
10720,740.15,1.014
10736,740.68,1.014
10752,741.22,1.013
10768,741.75,1.012
10784,742.29,1.011
10800,742.82,1.010
10816,743.34,1.009
10832,743.88,1.009
10848,744.42,1.008
10864,744.95,1.007
10880,745.48,1.006
10896,746.02,1.005
10912,746.55,1.005
10928,747.08,1.004
10944,747.61,1.003
10960,748.15,1.002
10976,748.69,1.001
10992,749.22,1.001
11008,749.75,1.000
11024,750.28,0.999
11040,750.82,0.998
11056,751.35,0.998
11072,751.88,0.997
11088,752.41,0.996
11104,752.95,0.995
11120,753.48,0.995
11136,754.01,0.994
11152,754.55,0.993
11168,755.08,0.992
11184,755.62,0.992
11200,756.15,0.991
11216,756.68,0.990
11232,757.22,0.990
11248,757.75,0.989
11264,758.28,0.988
11280,758.82,0.987
11296,759.35,0.987
11312,759.88,0.986
11328,760.42,0.985
11344,760.95,0.984
11360,761.49,0.984
11376,762.02,0.983
11392,762.55,0.982
11408,763.08,0.982
11424,763.62,0.981
11440,764.15,0.980
11456,764.68,0.980
11472,765.21,0.979
11488,765.75,0.978
11504,766.28,0.978
11520,766.82,0.977
11536,767.35,0.976
11552,767.88,0.976
11568,768.41,0.975
11584,768.95,0.974
11600,769.48,0.974
11616,770.02,0.973
11632,770.55,0.972
11648,771.08,0.972
11664,771.61,0.971
11680,772.14,0.970
11696,772.69,0.970
11712,773.22,0.969
11728,773.75,0.968
11744,774.28,0.968
11760,774.81,0.967
11776,775.35,0.966
11792,775.88,0.966
11808,776.42,0.965
11824,776.95,0.964
11840,777.48,0.964
11856,778.01,0.963
11872,778.55,0.962
11888,779.08,0.962
11904,779.61,0.961
11920,780.15,0.961
11936,780.68,0.960
11952,781.21,0.959
11968,781.75,0.959
11984,782.28,0.958
12000,782.82,0.957
12016,783.35,0.957
12032,783.89,0.956
12048,784.42,0.955
12064,784.95,0.955
12080,785.48,0.954
12096,786.01,0.953
12112,786.55,0.953
12128,787.08,0.952
12144,787.62,0.952
12160,788.15,0.951
12176,788.68,0.950
12192,789.21,0.950
12208,789.75,0.949
12224,790.28,0.948
12240,790.82,0.948
12256,791.35,0.947
12272,791.88,0.947
12288,792.41,0.946
12304,792.95,0.945
12320,793.49,0.945
12336,794.02,0.944
12352,794.55,0.944
12368,795.08,0.943
12384,795.62,0.942
12400,796.15,0.942
12416,796.68,0.941
12432,797.21,0.940
12448,797.75,0.940
12464,798.29,0.939
12480,798.82,0.939
12496,799.35,0.938
12512,799.89,0.937
12528,800.41,0.937
12544,800.95,0.936
12560,801.48,0.936
12576,802.02,0.935
12592,802.55,0.934
12608,803.08,0.934
12624,803.62,0.933
12640,804.15,0.933
12656,804.69,0.932
12672,805.22,0.931
12688,805.75,0.931
12704,806.28,0.930
12720,806.82,0.930
12736,807.35,0.929
12752,807.88,0.929
12768,808.41,0.928
12784,808.95,0.927
12800,809.49,0.927
12816,810.02,0.926
12832,810.55,0.926
12848,811.08,0.925
12864,811.62,0.924
12880,812.15,0.924
12896,812.68,0.923
12912,813.21,0.923
12928,813.75,0.922
12944,814.29,0.921
12960,814.82,0.921
12976,815.35,0.920
12992,815.88,0.920
13008,816.41,0.919
13024,816.95,0.919
13040,817.48,0.918
13056,818.01,0.918
13072,818.55,0.917
13088,819.09,0.916
13104,819.62,0.916
13120,820.15,0.915
13136,820.68,0.915
13152,821.21,0.914
13168,821.75,0.913
13184,822.28,0.913
13200,822.82,0.912
13216,823.35,0.912
13232,823.89,0.911
13248,824.42,0.911
13264,824.95,0.910
13280,825.48,0.910
13296,826.02,0.909
13312,826.55,0.909
13328,827.08,0.908
13344,827.61,0.907
13360,828.15,0.907
13376,828.69,0.906
13392,829.22,0.906
13408,829.74,0.905
13424,830.29,0.905
13440,830.81,0.904
13456,831.35,0.904
13472,831.88,0.903
13488,832.42,0.903
13504,832.95,0.902
13520,833.49,0.901
13536,834.02,0.901
13552,834.55,0.900
13568,835.08,0.900
13584,835.62,0.899
13600,836.15,0.899
13616,836.69,0.898
13632,837.22,0.898
13648,837.75,0.897
13664,838.29,0.897
13680,838.82,0.896
13696,839.35,0.895
13712,839.89,0.895
13728,840.42,0.894
13744,840.95,0.894
13760,841.48,0.893
13776,842.02,0.893
13792,842.55,0.892
13808,843.08,0.892
13824,843.62,0.891
13840,844.16,0.891
13856,844.68,0.890
13872,845.22,0.890
13888,845.76,0.889
13904,846.28,0.889
13920,846.82,0.888
13936,847.35,0.888
13952,847.88,0.887
13968,848.42,0.887
13984,848.95,0.886
14000,849.49,0.886
14016,850.02,0.885
14032,850.55,0.884
14048,851.08,0.884
14064,851.62,0.883
14080,852.15,0.883
14096,852.69,0.882
14112,853.22,0.882
14128,853.75,0.881
14144,854.28,0.881
14160,854.82,0.880
14176,855.35,0.880
14192,855.88,0.880
14208,856.42,0.879
14224,856.95,0.879
14240,857.48,0.878
14256,858.02,0.877
14272,858.55,0.877
14288,859.08,0.876
14304,859.62,0.876
14320,860.15,0.875
14336,860.68,0.875
14352,861.21,0.874
14368,861.75,0.874
14384,862.28,0.873
14400,862.82,0.873
14416,863.35,0.872
14432,863.88,0.872
14448,864.41,0.871
14464,864.95,0.871
14480,865.48,0.870
14496,866.01,0.870
14512,866.55,0.870
14528,867.09,0.869
14544,867.62,0.869
14560,868.15,0.868
14576,868.68,0.868
14592,869.22,0.867
14608,869.75,0.867
14624,870.29,0.866
14640,870.81,0.866
14656,871.35,0.865
14672,871.89,0.865
14688,872.42,0.864
14704,872.95,0.864
14720,873.49,0.863
14736,874.02,0.863
14752,874.55,0.862
14768,875.08,0.862
14784,875.62,0.861
14800,876.15,0.861
14816,876.68,0.861
14832,877.22,0.860
14848,877.75,0.859
14864,878.28,0.859
14880,878.82,0.858
14896,879.35,0.858
14912,879.88,0.858
14928,880.42,0.857
14944,880.95,0.857
14960,881.48,0.856
14976,882.02,0.856
14992,882.55,0.855
15008,883.08,0.855
15024,883.62,0.855
15040,884.15,0.854
15056,884.68,0.854
15072,885.21,0.853
15088,885.76,0.853
15104,886.28,0.852
15120,886.82,0.852
15136,887.35,0.851
15152,887.89,0.851
15168,888.41,0.850
15184,888.95,0.850
15200,889.49,0.849
15216,890.02,0.849
15232,890.55,0.849
15248,891.08,0.848
15264,891.62,0.848
15280,892.15,0.847
15296,892.68,0.847
15312,893.22,0.846
15328,893.76,0.846
15344,894.28,0.845
15360,894.82,0.845
15376,895.35,0.845
15392,895.89,0.844
15408,896.41,0.844
15424,896.95,0.843
15440,897.48,0.843
15456,898.02,0.842
15472,898.55,0.842
15488,899.09,0.842
15504,899.62,0.841
15520,900.15,0.841
15536,900.69,0.840
15552,901.22,0.840
15568,901.75,0.839
15584,902.28,0.839
15600,902.82,0.839
15616,903.35,0.838
15632,903.88,0.838
15648,904.42,0.837
15664,904.95,0.837
15680,905.48,0.837
15696,906.02,0.836
15712,906.55,0.836
15728,907.09,0.835
15744,907.62,0.835
15760,908.15,0.835
15776,908.69,0.834
15792,909.22,0.834
15808,909.75,0.833
15824,910.28,0.833
15840,910.82,0.832
15856,911.34,0.832
15872,911.88,0.832
15888,912.42,0.831
15904,912.94,0.831
15920,913.49,0.830
15936,914.02,0.830
15952,914.55,0.830
15968,915.09,0.829
15984,915.62,0.829
16000,916.15,0.828
16016,916.69,0.828
16032,917.22,0.828
16048,917.75,0.827
16064,918.28,0.827
16080,918.82,0.826
16096,919.35,0.826
16112,919.89,0.826
16128,920.42,0.825
16144,920.96,0.825
16160,921.49,0.824
16176,922.02,0.824
16192,922.55,0.824
16208,923.09,0.823
16224,923.62,0.823
16240,924.15,0.823
16256,924.69,0.822
16272,925.22,0.822
16288,925.75,0.821
16304,926.29,0.821
16320,926.82,0.821
16336,927.35,0.820
16352,927.89,0.820
16368,928.42,0.820
16384,928.95,0.819
16400,929.50,0.819
16416,930.02,0.819
16432,930.55,0.818
16448,931.09,0.818
16464,931.62,0.818
16480,932.15,0.817
16496,932.69,0.817
16512,933.21,0.816
16528,933.75,0.816
16544,934.29,0.816
16560,934.82,0.816
16576,935.35,0.815
16592,935.89,0.815
16608,936.42,0.814
16624,936.95,0.814
16640,937.48,0.814
16656,938.02,0.813
16672,938.55,0.813
16688,939.09,0.813
16704,939.61,0.812
16720,940.15,0.812
16736,940.69,0.812
16752,941.22,0.811
16768,941.75,0.811
16784,942.28,0.811
16800,942.82,0.810
16816,943.35,0.810
16832,943.89,0.810
16848,944.42,0.810
16864,944.95,0.809
16880,945.49,0.809
16896,946.02,0.808
16912,946.55,0.808
16928,947.08,0.808
16944,947.62,0.808
16960,948.16,0.807
16976,948.68,0.807
16992,949.22,0.807
17008,949.75,0.807
17024,950.29,0.806
17040,950.82,0.806
17056,951.35,0.805
17072,951.89,0.805
17088,952.42,0.805
17104,952.96,0.804
17120,953.48,0.804
17136,954.03,0.804
17152,954.55,0.804
17168,955.08,0.803
17184,955.62,0.803
17200,956.15,0.803
17216,956.69,0.802
17232,957.21,0.802
17248,957.75,0.802
17264,958.28,0.801
17280,958.82,0.801
17296,959.35,0.801
17312,959.88,0.801
17328,960.42,0.800
17344,960.95,0.800
17360,961.48,0.800
17376,962.02,0.800
17392,962.55,0.799
17408,963.09,0.799
17424,963.62,0.799
17440,964.16,0.798
17456,964.68,0.798
17472,965.22,0.797
17488,965.75,0.797
17504,966.29,0.797
17520,966.82,0.797
17536,967.36,0.796
17552,967.89,0.796
17568,968.41,0.796
17584,968.96,0.796
17600,969.49,0.795
17616,970.02,0.795
17632,970.55,0.795
17648,971.09,0.795
17664,971.62,0.794
17680,972.15,0.794
17696,972.69,0.793
17712,973.21,0.793
17728,973.75,0.793
17744,974.28,0.793
17760,974.82,0.792
17776,975.36,0.792
17792,975.89,0.792
17808,976.42,0.791
17824,976.95,0.792
17840,977.49,0.791
17856,978.02,0.791
17872,978.56,0.790
17888,979.08,0.791
17904,979.62,0.790
17920,980.15,0.790
17936,980.68,0.790
17952,981.22,0.789
17968,981.75,0.789
17984,982.28,0.789
18000,982.81,0.788
18016,983.35,0.788
18032,983.89,0.788
18048,984.42,0.788
18064,984.96,0.788
18080,985.49,0.787
18096,986.02,0.787
18112,986.56,0.786
18128,987.09,0.786
18144,987.63,0.786
18160,988.15,0.786
18176,988.69,0.786
18192,989.22,0.785
18208,989.75,0.785
18224,990.28,0.785
18240,990.82,0.785
18256,991.35,0.784
18272,991.88,0.784
18288,992.41,0.784
18304,992.95,0.783
18320,993.49,0.783
18336,994.02,0.783
18352,994.55,0.783
18368,995.09,0.782
18384,995.62,0.782
18400,996.15,0.782
18416,996.69,0.782
18432,997.22,0.781
18448,997.75,0.781
18464,998.29,0.781
18480,998.82,0.781
18496,999.34,0.780
18512,999.88,0.780
18528,1000.42,0.780
18544,1000.95,0.780
18560,1001.48,0.779
18576,1002.02,0.779
18592,1002.55,0.778
18608,1003.09,0.779
18624,1003.62,0.778
18640,1004.15,0.778
18656,1004.69,0.778
18672,1005.22,0.777
18688,1005.76,0.777
18704,1006.28,0.777
18720,1006.82,0.777
18736,1007.35,0.776
18752,1007.88,0.776
18768,1008.42,0.776
18784,1008.95,0.776
18800,1009.49,0.776
18816,1010.02,0.775
18832,1010.56,0.775
18848,1011.08,0.774
18864,1011.62,0.774
18880,1012.15,0.774
18896,1012.69,0.774
18912,1013.22,0.774
18928,1013.75,0.773
18944,1014.29,0.773
18960,1014.82,0.773
18976,1015.35,0.773
18992,1015.88,0.772
19008,1016.42,0.772
19024,1016.95,0.772
19040,1017.48,0.772
19056,1018.01,0.772
19072,1018.55,0.771
19088,1019.09,0.771
19104,1019.62,0.771
19120,1020.15,0.771
19136,1020.68,0.770
19152,1021.22,0.770
19168,1021.75,0.770
19184,1022.29,0.769
19200,1022.82,0.769
19216,1023.35,0.770
19232,1023.89,0.768
19248,1024.42,0.768
19264,1024.95,0.768
19280,1025.49,0.768
19296,1026.02,0.768
19312,1026.55,0.767
19328,1027.09,0.767
19344,1027.61,0.767
19360,1028.15,0.767
19376,1028.68,0.767
19392,1029.22,0.766
19408,1029.75,0.766
19424,1030.28,0.766
19440,1030.82,0.766
19456,1031.36,0.765
19472,1031.88,0.765
19488,1032.42,0.765
19504,1032.95,0.765
19520,1033.49,0.765
19536,1034.02,0.764
19552,1034.55,0.764
19568,1035.09,0.764
19584,1035.62,0.764
19600,1036.15,0.763
19616,1036.68,0.763
19632,1037.22,0.763
19648,1037.75,0.763
19664,1038.29,0.762
19680,1038.82,0.762
19696,1039.35,0.762
19712,1039.89,0.762
19728,1040.42,0.761
19744,1040.95,0.761
19760,1041.49,0.761
19776,1042.02,0.761
19792,1042.55,0.760
19808,1043.08,0.760
19824,1043.62,0.760
19840,1044.16,0.760
19856,1044.68,0.760
19872,1045.22,0.759
19888,1045.75,0.759
19904,1046.29,0.759
19920,1046.82,0.759
19936,1047.35,0.759
19952,1047.89,0.758
19968,1048.42,0.758
19984,1048.95,0.758
20000,1049.49,0.758
20016,1050.02,0.757
20032,1050.55,0.757
20048,1051.09,0.757
20064,1051.61,0.757
20080,1052.16,0.756
20096,1052.68,0.756
20112,1053.22,0.756
20128,1053.75,0.756
20144,1054.29,0.755
20160,1054.82,0.755
20176,1055.36,0.755
20192,1055.88,0.755
20208,1056.42,0.754
20224,1056.95,0.754
20240,1057.48,0.754
20256,1058.02,0.754
20272,1058.55,0.753
20288,1059.09,0.753
20304,1059.62,0.753
20320,1060.15,0.753
20336,1060.68,0.753
20352,1061.22,0.752
20368,1061.74,0.752
20384,1062.29,0.752
20400,1062.82,0.751
20416,1063.35,0.751
20432,1063.89,0.751
20448,1064.42,0.751
20464,1064.95,0.751
20480,1065.49,0.750
20496,1066.02,0.750
20512,1066.55,0.750
20528,1067.09,0.750
20544,1067.62,0.750
20560,1068.15,0.749
20576,1068.69,0.749
20592,1069.22,0.749
20608,1069.75,0.748
20624,1070.28,0.748
20640,1070.82,0.748
20656,1071.36,0.748
20672,1071.89,0.748
20688,1072.42,0.747
20704,1072.95,0.747
20720,1073.49,0.747
20736,1074.02,0.746
20752,1074.55,0.746
20768,1075.08,0.746
20784,1075.62,0.746
20800,1076.15,0.745
20816,1076.69,0.745
20832,1077.22,0.745
20848,1077.75,0.744
20864,1078.29,0.744
20880,1078.82,0.744
20896,1079.35,0.744
20912,1079.88,0.743
20928,1080.42,0.743
20944,1080.95,0.743
20960,1081.48,0.743
20976,1082.02,0.743
20992,1082.55,0.742
21008,1083.09,0.742
21024,1083.62,0.742
21040,1084.15,0.741
21056,1084.68,0.741
21072,1085.22,0.741
21088,1085.76,0.740
21104,1086.28,0.740
21120,1086.81,0.740
21136,1087.35,0.740
21152,1087.88,0.740
21168,1088.42,0.739
21184,1088.94,0.739
21200,1089.48,0.739
21216,1090.02,0.738
21232,1090.55,0.738
21248,1091.09,0.738
21264,1091.62,0.738
21280,1092.15,0.737
21296,1092.69,0.737
21312,1093.22,0.737
21328,1093.75,0.737
21344,1094.28,0.736
21360,1094.81,0.736
21376,1095.35,0.736
21392,1095.88,0.735
21408,1096.42,0.735
21424,1096.95,0.735
21440,1097.48,0.734
21456,1098.02,0.734
21472,1098.55,0.734
21488,1099.08,0.733
21504,1099.62,0.733
21520,1100.15,0.733
21536,1100.68,0.733
21552,1101.21,0.732
21568,1101.75,0.732
21584,1102.29,0.732
21600,1102.82,0.731
21616,1103.35,0.731
21632,1103.89,0.731
21648,1104.42,0.731
21664,1104.96,0.730
21680,1105.48,0.730
21696,1106.02,0.730
21712,1106.55,0.729
21728,1107.08,0.729
21744,1107.62,0.729
21760,1108.16,0.728
21776,1108.69,0.728
21792,1109.22,0.728
21808,1109.76,0.727
21824,1110.28,0.727
21840,1110.82,0.727
21856,1111.35,0.726
21872,1111.88,0.726
21888,1112.42,0.725
21904,1112.95,0.725
21920,1113.49,0.725
21936,1114.02,0.725
21952,1114.55,0.724
21968,1115.09,0.723
21984,1115.61,0.724
22000,1116.16,0.723
22016,1116.68,0.723
22032,1117.22,0.722
22048,1117.75,0.722
22064,1118.29,0.722
22080,1118.82,0.721
22096,1119.35,0.721
22112,1119.88,0.721
22128,1120.41,0.720
22144,1120.95,0.720
22160,1121.49,0.720
22176,1122.02,0.719
22192,1122.55,0.719
22208,1123.09,0.719
22224,1123.61,0.718
22240,1124.15,0.718
22256,1124.69,0.718
22272,1125.22,0.717
22288,1125.75,0.716
22304,1126.29,0.716
22320,1126.82,0.716
22336,1127.35,0.715
22352,1127.89,0.715
22368,1128.42,0.715
22384,1128.95,0.715
22400,1129.48,0.714
22416,1130.01,0.714
22432,1130.55,0.713
22448,1131.09,0.713
22464,1131.62,0.713
22480,1132.15,0.712
22496,1132.68,0.712
22512,1133.22,0.711
22528,1133.75,0.711
22544,1134.28,0.710
22560,1134.82,0.710
22576,1135.35,0.709
22592,1135.89,0.709
22608,1136.42,0.709
22624,1136.95,0.708
22640,1137.49,0.708
22656,1138.01,0.707
22672,1138.55,0.707
22688,1139.08,0.707
22704,1139.61,0.706
22720,1140.16,0.706
22736,1140.68,0.705
22752,1141.22,0.705
22768,1141.76,0.704
22784,1142.28,0.704
22800,1142.82,0.703
22816,1143.35,0.703
22832,1143.88,0.703
22848,1144.42,0.702
22864,1144.95,0.702
22880,1145.49,0.701
22896,1146.02,0.701
22912,1146.55,0.700
22928,1147.08,0.700
22944,1147.62,0.699
22960,1148.15,0.699
22976,1148.69,0.698
22992,1149.21,0.698
23008,1149.75,0.697
23024,1150.28,0.697
23040,1150.82,0.696
23056,1151.35,0.696
23072,1151.88,0.695
23088,1152.42,0.695
23104,1152.95,0.695
23120,1153.49,0.694
23136,1154.02,0.693
23152,1154.55,0.692
23168,1155.09,0.692
23184,1155.61,0.692
23200,1156.15,0.691
23216,1156.69,0.691
23232,1157.22,0.690
23248,1157.75,0.690
23264,1158.28,0.689
23280,1158.81,0.688
23296,1159.35,0.688
23312,1159.88,0.687
23328,1160.42,0.687
23344,1160.96,0.686
23360,1161.49,0.686
23376,1162.01,0.685
23392,1162.56,0.684
23408,1163.09,0.684
23424,1163.61,0.683
23440,1164.16,0.683
23456,1164.68,0.682
23472,1165.21,0.681
23488,1165.75,0.681
23504,1166.29,0.680
23520,1166.82,0.680
23536,1167.36,0.679
23552,1167.89,0.678
23568,1168.41,0.678
23584,1168.94,0.677
23600,1169.48,0.677
23616,1170.01,0.676
23632,1170.55,0.675
23648,1171.08,0.675
23664,1171.62,0.674
23680,1172.15,0.674
23696,1172.69,0.673
23699,1172.79,0.673