File: Wood/Calibration_Data/IMT/IMT-Mines-Ales_TGA_O2-20_20K_R1.csv
Time (s),Sample Temperature (K),Weight (mg)
0,383.15,4.299
2,383.15,4.299
4,383.14,4.299
6,383.15,4.299
8,383.15,4.299
10,383.26,4.300
12,383.63,4.300
14,384.13,4.300
16,384.66,4.300
18,385.18,4.301
20,385.73,4.301
22,386.28,4.301
24,386.84,4.301
26,387.41,4.302
28,387.98,4.302
30,388.56,4.302
32,389.15,4.302
34,389.73,4.302
36,390.33,4.302
38,390.93,4.302
40,391.53,4.302
42,392.15,4.302
44,392.77,4.302
46,393.39,4.302
48,394.01,4.302
50,394.63,4.302
52,395.27,4.302
54,395.91,4.302
56,396.55,4.302
58,397.18,4.302
60,397.83,4.302
62,398.48,4.301
64,399.12,4.301
66,399.78,4.301
68,400.43,4.301
70,401.07,4.301
72,401.74,4.301
74,402.39,4.301
76,403.05,4.301
78,403.71,4.301
80,404.37,4.301
82,405.03,4.301
84,405.70,4.301
86,406.36,4.301
88,407.03,4.301
90,407.69,4.301
92,408.36,4.300
94,409.03,4.300
96,409.69,4.300
98,410.36,4.300
100,411.04,4.300
102,411.71,4.300
104,412.37,4.300
106,413.05,4.300
108,413.73,4.300
110,414.39,4.300
112,415.06,4.300
114,415.74,4.299
116,416.41,4.299
118,417.08,4.299
120,417.76,4.299
122,418.42,4.299
124,419.10,4.299
126,419.78,4.299
128,420.46,4.299
130,421.12,4.299
132,421.81,4.298
134,422.48,4.298
136,423.15,4.298
138,423.83,4.298
140,424.51,4.298
142,425.17,4.298
144,425.85,4.298
146,426.53,4.297
148,427.20,4.297
150,427.87,4.297
152,428.54,4.297
154,429.21,4.297
156,429.89,4.296
158,430.56,4.296
160,431.23,4.296
162,431.90,4.296
164,432.57,4.296
166,433.24,4.295
168,433.92,4.295
170,434.59,4.295
172,435.26,4.295
174,435.94,4.294
176,436.60,4.294
178,437.27,4.294
180,437.95,4.294
182,438.62,4.293
184,439.29,4.293
186,439.96,4.293
188,440.64,4.292
190,441.31,4.292
192,441.98,4.292
194,442.65,4.291
196,443.33,4.291
198,443.99,4.291
200,444.67,4.290
202,445.34,4.290
204,446.01,4.289
206,446.69,4.289
208,447.35,4.289
210,448.02,4.288
212,448.70,4.288
214,449.38,4.287
216,450.04,4.287
218,450.71,4.286
220,451.39,4.286
222,452.06,4.285
224,452.73,4.285
226,453.40,4.284
228,454.08,4.284
230,454.75,4.283
232,455.42,4.282
234,456.09,4.282
236,456.76,4.281
238,457.44,4.281
240,458.11,4.280
242,458.78,4.279
244,459.46,4.279
246,460.13,4.278
248,460.79,4.277
250,461.47,4.277
252,462.14,4.276
254,462.81,4.275
256,463.49,4.275
258,464.16,4.274
260,464.83,4.273
262,465.51,4.272
264,466.17,4.271
266,466.85,4.271
268,467.53,4.270
270,468.19,4.269
272,468.86,4.268
274,469.53,4.267
276,470.20,4.266
278,470.88,4.265
280,471.56,4.264
282,472.22,4.263
284,472.90,4.263
286,473.57,4.262
288,474.24,4.260
290,474.91,4.259
292,475.59,4.258
294,476.26,4.257
296,476.93,4.256
298,477.61,4.255
300,478.27,4.254
302,478.95,4.253
304,479.62,4.251
306,480.28,4.250
308,480.96,4.249
310,481.63,4.248
312,482.31,4.246
314,482.98,4.245
316,483.64,4.244
318,484.32,4.242
320,484.99,4.241
322,485.66,4.239
324,486.34,4.238
326,487.01,4.236
328,487.68,4.235
330,488.35,4.234
332,489.03,4.232
334,489.70,4.230
336,490.37,4.229
338,491.04,4.227
340,491.71,4.225
342,492.39,4.224
344,493.05,4.222
346,493.73,4.220
348,494.40,4.218
350,495.07,4.217
352,495.75,4.215
354,496.41,4.213
356,497.08,4.211
358,497.76,4.209
360,498.44,4.207
362,499.10,4.205
364,499.78,4.203
366,500.45,4.201
368,501.11,4.199
370,501.79,4.197
372,502.47,4.194
374,503.13,4.192
376,503.81,4.190
378,504.49,4.188
380,505.15,4.186
382,505.83,4.183
384,506.49,4.181
386,507.17,4.179
388,507.85,4.177
390,508.51,4.174
392,509.18,4.172
394,509.86,4.169
396,510.53,4.167
398,511.20,4.164
400,511.87,4.162
402,512.55,4.159
404,513.21,4.157
406,513.89,4.154
408,514.56,4.151
410,515.23,4.149
412,515.90,4.146
414,516.58,4.143
416,517.25,4.140
418,517.92,4.137
420,518.59,4.134
422,519.26,4.131
424,519.94,4.128
426,520.60,4.125
428,521.28,4.122
430,521.95,4.119
432,522.63,4.116
434,523.29,4.112
436,523.97,4.109
438,524.64,4.106
440,525.31,4.102
442,525.98,4.099
444,526.65,4.095
446,527.33,4.091
448,528.00,4.087
450,528.67,4.083
452,529.34,4.080
454,530.02,4.076
456,530.69,4.071
458,531.36,4.067
460,532.03,4.063
462,532.70,4.059
464,533.37,4.054
466,534.05,4.050
468,534.72,4.045
470,535.38,4.041
472,536.06,4.036
474,536.74,4.031
476,537.40,4.026
478,538.08,4.021
480,538.74,4.016
482,539.42,4.011
484,540.09,4.006
486,540.76,4.000
488,541.44,3.995
490,542.11,3.989
492,542.77,3.984
494,543.46,3.978
496,544.13,3.972
498,544.79,3.966
500,545.47,3.960
502,546.14,3.954
504,546.81,3.948
506,547.48,3.942
508,548.16,3.935
510,548.83,3.929
512,549.50,3.923
514,550.17,3.916
516,550.84,3.910
518,551.51,3.903
520,552.19,3.896
522,552.86,3.889
524,553.53,3.883
526,554.20,3.876
528,554.87,3.868
530,555.54,3.861
532,556.22,3.854
534,556.89,3.847
536,557.56,3.839
538,558.24,3.832
540,558.90,3.824
542,559.57,3.817
544,560.25,3.809
546,560.92,3.801
548,561.60,3.793
550,562.26,3.785
552,562.94,3.777
554,563.62,3.769
556,564.27,3.761
558,564.95,3.752
560,565.63,3.744
562,566.29,3.735
564,566.96,3.727
566,567.64,3.718
568,568.31,3.709
570,568.99,3.701
572,569.65,3.692
574,570.32,3.683
576,571.01,3.673
578,571.67,3.664
580,572.34,3.655
582,573.02,3.645
584,573.68,3.636
586,574.36,3.626
588,575.02,3.617
590,575.70,3.607
592,576.37,3.597
594,577.05,3.587
596,577.73,3.577
598,578.39,3.567
600,579.06,3.557
602,579.74,3.546
604,580.40,3.536
606,581.08,3.525
608,581.75,3.514
610,582.42,3.503
612,583.09,3.492
614,583.77,3.481
616,584.44,3.470
618,585.10,3.459
620,585.78,3.447
622,586.45,3.435
624,587.12,3.423
626,587.79,3.411
628,588.47,3.399
630,589.14,3.387
632,589.81,3.375
634,590.48,3.362
636,591.16,3.349
638,591.83,3.336
640,592.50,3.323
642,593.17,3.309
644,593.84,3.296
646,594.51,3.282
648,595.19,3.268
650,595.85,3.253
652,596.53,3.239
654,597.20,3.224
656,597.87,3.209
658,598.54,3.194
660,599.21,3.179
662,599.89,3.163
664,600.56,3.147
666,601.23,3.131
668,601.91,3.114
670,602.57,3.098
672,603.24,3.081
674,603.93,3.063
676,604.59,3.046
678,605.26,3.028
680,605.94,3.010
682,606.60,2.991
684,607.28,2.972
686,607.95,2.953
688,608.62,2.934
690,609.29,2.914
692,609.97,2.894
694,610.64,2.874
696,611.31,2.853
698,611.97,2.832
700,612.65,2.810
702,613.32,2.788
704,614.00,2.766
706,614.67,2.743
708,615.34,2.719
710,616.01,2.695
712,616.68,2.671
714,617.35,2.646
716,618.03,2.620
718,618.70,2.594
720,619.37,2.567
722,620.05,2.540
724,620.72,2.511
726,621.39,2.482
728,622.06,2.452
730,622.73,2.421
732,623.40,2.389
734,624.08,2.356
736,624.75,2.321
738,625.41,2.286
740,626.10,2.250
742,626.76,2.212
744,627.44,2.174
746,628.11,2.135
748,628.77,2.094
750,629.46,2.053
752,630.12,2.011
754,630.79,1.968
756,631.47,1.926
758,632.14,1.883
760,632.81,1.841
762,633.49,1.799
764,634.15,1.758
766,634.82,1.719
768,635.50,1.681
770,636.16,1.645
772,636.84,1.611
774,637.51,1.580
776,638.18,1.551
778,638.85,1.525
780,639.53,1.502
782,640.20,1.482
784,640.87,1.463
786,641.54,1.446
788,642.21,1.431
790,642.88,1.417
792,643.56,1.405
794,644.22,1.393
796,644.90,1.382
798,645.57,1.371
800,646.24,1.361
802,646.91,1.352
804,647.58,1.343
806,648.26,1.334
808,648.93,1.325
810,649.60,1.317
812,650.27,1.309
814,650.94,1.301
816,651.62,1.294
818,652.29,1.287
820,652.96,1.280
822,653.63,1.273
824,654.31,1.266
826,654.98,1.260
828,655.65,1.253
830,656.32,1.247
832,656.99,1.241
834,657.67,1.235
836,658.33,1.229
838,659.01,1.223
840,659.68,1.217
842,660.35,1.212
844,661.02,1.206
846,661.70,1.201
848,662.37,1.195
850,663.04,1.190
852,663.71,1.185
854,664.38,1.180
856,665.05,1.174
858,665.73,1.169
860,666.40,1.164
862,667.07,1.159
864,667.74,1.154
866,668.41,1.149
868,669.09,1.144
870,669.76,1.139
872,670.43,1.135
874,671.10,1.130
876,671.78,1.125
878,672.45,1.120
880,673.12,1.115
882,673.79,1.111
884,674.46,1.106
886,675.13,1.101
888,675.81,1.097
890,676.48,1.092
892,677.15,1.088
894,677.82,1.083
896,678.49,1.078
898,679.17,1.074
900,679.83,1.069
902,680.52,1.065
904,681.18,1.060
906,681.86,1.056
908,682.53,1.052
910,683.19,1.047
912,683.88,1.043
914,684.54,1.039
916,685.21,1.034
918,685.89,1.030
920,686.55,1.025
922,687.23,1.021
924,687.90,1.016
926,688.57,1.012
928,689.25,1.007
930,689.92,1.003
932,690.59,0.999
934,691.26,0.994
936,691.94,0.990
938,692.60,0.985
940,693.27,0.981
942,693.95,0.976
944,694.62,0.972
946,695.30,0.967
948,695.96,0.963
950,696.64,0.958
952,697.31,0.953
954,697.98,0.949
956,698.64,0.944
958,699.32,0.940
960,700.00,0.935
962,700.67,0.931
964,701.33,0.926
966,702.00,0.922
968,702.66,0.917
970,703.33,0.913
972,703.99,0.908
974,704.67,0.903
976,705.32,0.899
978,706.00,0.894
980,706.66,0.889
982,707.33,0.885
984,708.00,0.880
986,708.66,0.875
988,709.33,0.870
990,710.00,0.866
992,710.66,0.861
994,711.33,0.856
996,711.99,0.851
998,712.67,0.846
1000,713.33,0.842
1002,713.99,0.837
1004,714.67,0.832
1006,715.33,0.827
1008,716.00,0.823
1010,716.66,0.818
1012,717.33,0.813
1014,718.00,0.808
1016,718.66,0.803
1018,719.33,0.798
1020,720.00,0.793
1022,720.66,0.788
1024,721.33,0.783
1026,721.99,0.778
1028,722.66,0.772
1030,723.33,0.767
1032,723.99,0.762
1034,724.66,0.757
1036,725.33,0.751
1038,726.00,0.746
1040,726.66,0.741
1042,727.33,0.735
1044,727.99,0.730
1046,728.67,0.724
1048,729.33,0.718
1050,730.00,0.713
1052,730.66,0.707
1054,731.33,0.701
1056,731.99,0.696
1058,732.66,0.690
1060,733.33,0.684
1062,734.00,0.678
1064,734.66,0.672
1066,735.33,0.666
1068,735.99,0.660
1070,736.67,0.654
1072,737.33,0.647
1074,738.00,0.641
1076,738.66,0.635
1078,739.33,0.628
1080,740.00,0.622
1082,740.67,0.616
1084,741.33,0.609
1086,742.00,0.603
1088,742.67,0.596
1090,743.33,0.590
1092,744.00,0.583
1094,744.66,0.576
1096,745.33,0.570
1098,746.00,0.563
1100,746.67,0.556
1102,747.32,0.549
1104,748.00,0.543
1106,748.66,0.536
1108,749.33,0.529
1110,750.00,0.522
1112,750.66,0.515
1114,751.33,0.509
1116,752.00,0.502
1118,752.66,0.495
1120,753.33,0.488
1122,754.00,0.481
1124,754.67,0.474
1126,755.33,0.467
1128,756.00,0.460
1130,756.66,0.453
1132,757.33,0.446
1134,758.00,0.439
1136,758.66,0.432
1138,759.33,0.425
1140,759.99,0.418
1142,760.66,0.411
1144,761.33,0.404
1146,762.00,0.397
1148,762.66,0.390
1150,763.34,0.383
1152,764.00,0.375
1154,764.66,0.368
1156,765.33,0.360
1158,765.99,0.353
1160,766.67,0.345
1162,767.33,0.338
1164,768.00,0.330
1166,768.67,0.322
1168,769.33,0.314
1170,769.99,0.306
1172,770.67,0.298
1174,771.33,0.289
1176,772.01,0.281
1178,772.66,0.272
1180,773.33,0.263
1182,774.00,0.254
1184,774.67,0.244
1186,775.33,0.235
1188,776.01,0.226
1190,776.67,0.216
1192,777.34,0.207
1194,778.01,0.196
1196,779.59,0.113
1198,778.81,0.029
1200,780.22,0.018
1202,780.42,0.018
1204,781.38,0.018
1206,781.88,0.018
1208,782.67,0.019
1210,783.26,0.018
1212,783.99,0.017
1214,784.63,0.016
1216,785.32,0.016
1218,785.98,0.015
1220,786.65,0.015
1222,787.32,0.015
1224,787.99,0.014
1226,788.66,0.014
1228,789.33,0.014
1230,789.99,0.014
1232,790.66,0.014
1234,791.33,0.013
1236,791.99,0.013
1238,792.67,0.013
1240,793.33,0.013
1242,794.00,0.013
1244,794.67,0.013
1246,795.33,0.013
1248,796.00,0.013
1250,796.67,0.013
1252,797.33,0.013
1254,798.01,0.013
1256,798.66,0.012
1258,799.34,0.012
1260,799.99,0.012
1262,800.67,0.012
1264,801.33,0.012
1266,802.01,0.012
1268,802.67,0.012
1270,803.33,0.012
1272,804.00,0.012
1274,804.67,0.012
1276,805.34,0.012
1278,806.00,0.012
1280,806.67,0.012
1282,807.33,0.012
1284,808.01,0.012
1286,808.67,0.012
1288,809.33,0.012
1290,810.00,0.012
1292,810.67,0.012
1294,811.34,0.012
1296,812.01,0.012
1298,812.67,0.012
1300,813.33,0.012
1302,814.00,0.012
1304,814.67,0.012
1306,815.34,0.011
1308,816.00,0.011
1310,816.67,0.011
1312,817.34,0.011
1314,818.00,0.011
1316,818.68,0.011
1318,819.34,0.011
1320,820.00,0.011
1322,820.67,0.011
1324,821.34,0.011
1326,822.00,0.011
1328,822.67,0.011
1330,823.34,0.011
1332,824.01,0.011
1334,824.67,0.011
1336,825.34,0.011
1338,826.00,0.011
1340,826.68,0.011
1342,827.33,0.011
1344,828.00,0.011
1346,828.68,0.011
1348,829.34,0.011
1350,830.00,0.011
1352,830.67,0.011
1354,831.34,0.011
1356,832.01,0.011
1358,832.68,0.011
1360,833.34,0.011
1362,834.01,0.010
1364,834.67,0.010
1366,835.34,0.010
1368,836.00,0.010
1370,836.67,0.010
1372,837.34,0.010
1374,838.00,0.010
1376,838.67,0.010
1378,839.34,0.010
1380,840.01,0.010
1382,840.67,0.010
1384,841.35,0.010
1386,842.01,0.010
1388,842.68,0.010
1390,843.34,0.010
1392,844.01,0.010
1394,844.67,0.010
1396,845.34,0.010
1398,846.01,0.010
1400,846.68,0.010
1402,847.35,0.010
1404,848.00,0.010
1406,848.67,0.010
1408,849.34,0.010
1410,850.01,0.010
1412,850.68,0.010
1414,851.34,0.010
1416,852.01,0.010
1418,852.67,0.010
1420,853.35,0.009
1422,854.00,0.009
1424,854.68,0.009
1426,855.34,0.009
1428,856.01,0.009
1430,856.67,0.009
1432,857.34,0.009
1434,858.01,0.009
1436,858.68,0.009
1438,859.34,0.009
1440,860.01,0.009
1442,860.68,0.009
1444,861.35,0.009
1446,862.01,0.009
1448,862.68,0.009
1450,863.34,0.009
1452,864.01,0.009
1454,864.68,0.009
1456,865.35,0.009
1458,866.01,0.009
1460,866.67,0.009
1462,867.35,0.009
1464,868.01,0.009
1466,868.68,0.009
1468,869.35,0.009
1470,870.01,0.009
1472,870.68,0.009
1474,871.34,0.009
1476,872.02,0.009
1478,872.68,0.008
1480,873.34,0.008
1482,874.02,0.008
1484,874.68,0.008
1486,875.35,0.008
1488,876.02,0.008
1490,876.68,0.008
1492,877.35,0.008
1494,878.01,0.008
1496,878.68,0.008
1498,879.34,0.008
1500,880.01,0.008
1502,880.68,0.008
1504,881.35,0.008
1506,882.02,0.008
1508,882.68,0.008
1510,883.35,0.008
1512,884.01,0.008
1514,884.68,0.008
1516,885.35,0.008
1518,886.02,0.008
1520,886.69,0.008
1522,887.35,0.008
1524,888.02,0.008
1526,888.69,0.008
1528,889.35,0.008
1530,890.01,0.008
1532,890.68,0.008
1534,891.35,0.008
1536,892.02,0.008
1538,892.68,0.008
1540,893.36,0.007
1542,894.02,0.007
1544,894.68,0.007
1546,895.35,0.007
1548,896.01,0.007
1550,896.68,0.007
1552,897.35,0.007
1554,898.02,0.007
1556,898.69,0.007
1558,899.35,0.007
1560,900.02,0.007
1562,900.68,0.007
1564,901.35,0.007
1566,902.02,0.007
1568,902.68,0.007
1570,903.35,0.007
1572,904.02,0.007
1574,904.69,0.007
1576,905.35,0.007
1578,906.02,0.007
1580,906.68,0.007
1582,907.35,0.007
1584,908.02,0.007
1586,908.68,0.007
1588,909.35,0.007
1590,910.02,0.007
1592,910.69,0.007
1594,911.35,0.007
1596,912.02,0.006
1598,912.69,0.006
1600,913.35,0.006
1602,914.02,0.006
1604,914.69,0.006
1606,915.36,0.006
1608,916.02,0.006
1610,916.69,0.006
1612,917.36,0.006
1614,918.02,0.006
1616,918.69,0.006
1618,919.35,0.006
1620,920.02,0.006
1622,920.69,0.006
1624,921.35,0.006
1626,922.02,0.006
1628,922.69,0.006
1630,923.35,0.006
1632,924.02,0.006
1634,924.69,0.006
1636,925.35,0.006
1638,926.02,0.006
1640,926.69,0.006
1642,927.35,0.006
1644,928.02,0.006
1646,928.69,0.006
1648,929.36,0.006
1650,930.02,0.006
1652,930.69,0.006
1654,931.35,0.006
1656,932.02,0.006
1658,932.69,0.006
1660,933.36,0.006
1662,934.03,0.006
1664,934.69,0.006
1666,935.36,0.006
1668,936.03,0.006
1670,936.69,0.006
1672,937.35,0.006
1674,938.02,0.005
1676,938.69,0.005
1678,939.36,0.005
1680,940.02,0.005
1682,940.69,0.005
1684,941.36,0.005
1686,942.02,0.005
1688,942.70,0.005
1690,943.35,0.005
1692,944.03,0.005
1694,944.69,0.005
1696,945.35,0.005
1698,946.02,0.005
1700,946.69,0.005
1702,947.35,0.005
1704,948.03,0.005
1706,948.69,0.005
1708,949.35,0.005
1710,950.03,0.005
1712,950.68,0.005
1714,951.36,0.005
1716,952.02,0.005
1718,952.69,0.005
1720,953.36,0.005
1722,954.03,0.005
1724,954.69,0.005
1726,955.36,0.005
1728,956.03,0.005
1730,956.69,0.005
1732,957.36,0.005
1734,958.03,0.005
1736,958.69,0.005
1738,959.36,0.005
1740,960.02,0.005
1742,960.70,0.005
1744,961.36,0.005
1746,962.03,0.005
1748,962.69,0.005
1750,963.36,0.005
1752,964.02,0.005
1754,964.69,0.004
1756,965.35,0.004
1758,966.02,0.004
1760,966.69,0.004
1762,967.36,0.004
1764,968.02,0.004
1766,968.69,0.004
1768,969.36,0.004
1770,970.03,0.004
1772,970.69,0.004
1774,971.36,0.004
1776,972.03,0.004
1778,972.69,0.004
1780,973.36,0.004
1782,974.03,0.004
1784,974.69,0.004
1786,975.36,0.004
1788,976.02,0.004
1790,976.69,0.004
1792,977.36,0.004
1794,978.02,0.004
1796,978.70,0.004
1798,979.36,0.004
1800,980.03,0.004
1802,980.70,0.004
1804,981.36,0.004
1806,982.02,0.004
1808,982.69,0.004
1810,983.36,0.004
1812,984.02,0.004
1814,984.69,0.004
1816,985.36,0.003
1818,986.03,0.003
1820,986.69,0.003
1822,987.36,0.003
1824,988.03,0.003
1826,988.69,0.003
1828,989.36,0.003
1830,990.02,0.003
1832,990.69,0.003
1834,991.36,0.003
1836,992.02,0.003
1838,992.69,0.003
1840,993.36,0.003
1842,994.02,0.003
1844,994.70,0.003
1846,995.36,0.003
1848,996.02,0.003
1850,996.69,0.003
1852,997.36,0.003
1854,998.02,0.003
1856,998.69,0.003
1858,999.36,0.003
1860,1000.02,0.003
1862,1000.69,0.003
1864,1001.36,0.003
1866,1002.03,0.003
1868,1002.69,0.003
1870,1003.36,0.003
1872,1004.02,0.003
1874,1004.69,0.003
1876,1005.36,0.003
1878,1006.03,0.003
1880,1006.69,0.003
1882,1007.36,0.003
1884,1008.02,0.003
1886,1008.69,0.003
1888,1009.36,0.003
1890,1010.03,0.003
1892,1010.69,0.003
1894,1011.36,0.003
1896,1012.03,0.003
1898,1012.69,0.003
1900,1013.36,0.003
1902,1014.02,0.003
1904,1014.70,0.003
1906,1015.36,0.003
1908,1016.02,0.003
1910,1016.69,0.003
1912,1017.36,0.002
1914,1018.02,0.002
1916,1018.69,0.002
1918,1019.36,0.002
1920,1020.02,0.002
1922,1020.70,0.002
1924,1021.36,0.002
1926,1022.03,0.002
1928,1022.70,0.002
1930,1023.36,0.002
1932,1024.02,0.002
1934,1024.68,0.002
1936,1025.36,0.002
1938,1026.03,0.002
1940,1026.70,0.002
1942,1027.36,0.002
1944,1028.02,0.002
1946,1028.70,0.002
1948,1029.36,0.002
1950,1030.02,0.002
1952,1030.69,0.002
1954,1031.36,0.002
1956,1032.02,0.002
1958,1032.69,0.002
1960,1033.36,0.002
1962,1034.03,0.002
1964,1034.69,0.002
1966,1035.35,0.002
1968,1036.03,0.002
1970,1036.68,0.002
1972,1037.36,0.002
1974,1038.03,0.002
1976,1038.70,0.002
1978,1039.36,0.002
1980,1040.02,0.002
1982,1040.69,0.002
1984,1041.35,0.002
1986,1042.02,0.002
1988,1042.69,0.002
1990,1043.36,0.002
1992,1044.03,0.002
1994,1044.69,0.002
1996,1045.36,0.002
1998,1046.02,0.002
2000,1046.68,0.002
2002,1047.36,0.002
2004,1048.02,0.002
2006,1048.69,0.002
2008,1049.35,0.001
2010,1050.03,0.001
2012,1050.68,0.001
2014,1051.36,0.001
2016,1052.03,0.001
2018,1052.70,0.001
2020,1053.35,0.001
2022,1054.02,0.001
2024,1054.69,0.001
2026,1055.36,0.001
2028,1056.02,0.001
2030,1056.69,0.001
2032,1057.36,0.001
2034,1058.02,0.001
2036,1058.69,0.001
2038,1059.36,0.001
2040,1060.02,0.001
2042,1060.69,0.001
2044,1061.36,0.001
2046,1062.02,0.001
2048,1062.68,0.001
2050,1063.36,0.001
2052,1064.02,0.001
2054,1064.69,0.001
2056,1065.36,0.001
2058,1066.02,0.001
2060,1066.69,0.001
2062,1067.36,0.001
2064,1068.02,0.001
2066,1068.69,0.001
2068,1069.35,0.001
2070,1070.03,0.001
2072,1070.69,0.001
2074,1071.35,0.001
2076,1072.02,0.001
2078,1072.69,0.001
2080,1073.35,0.001
2082,1074.02,0.001
2084,1074.69,0.000
2086,1075.35,0.000
2088,1076.02,0.000
2090,1076.69,0.000
2092,1077.36,0.000
2094,1078.02,0.000
2096,1078.69,0.000
2098,1079.36,0.000
2100,1080.02,0.000
2102,1080.69,0.000
2104,1081.35,0.000
2106,1082.02,0.000
2108,1082.69,0.000
2110,1083.36,0.000
2112,1084.03,0.000
2114,1084.69,0.000
2116,1085.35,0.000
2118,1086.02,0.000
2120,1086.68,0.000
2122,1087.35,0.000
2124,1088.03,0.000
2126,1088.68,-0.001
2128,1089.36,-0.001
2130,1090.02,-0.001
2132,1090.68,-0.001
2134,1091.35,-0.001
2136,1092.02,-0.001
2138,1092.69,-0.001
2140,1093.35,-0.001
2142,1094.01,-0.001
2144,1094.69,-0.001
2146,1095.36,-0.001
2148,1096.02,-0.001
2150,1096.68,-0.001
2152,1097.35,-0.001
2154,1098.03,-0.001
2156,1098.68,-0.001
2158,1099.35,-0.001
2160,1100.02,-0.001
2162,1100.69,-0.001
2164,1101.35,-0.001
2166,1102.02,-0.001
2168,1102.68,-0.001
2170,1103.35,-0.001
2172,1104.02,-0.001
2174,1104.69,-0.001
2176,1105.35,-0.002
2178,1106.02,-0.002
2180,1106.69,-0.002
2182,1107.35,-0.002
2184,1108.02,-0.002
2186,1108.68,-0.002
2188,1109.35,-0.002
2190,1110.02,-0.002
2192,1110.68,-0.002
2194,1111.36,-0.002
2196,1112.01,-0.002
2198,1112.69,-0.002
2200,1113.36,-0.002
2202,1114.02,-0.002
2204,1114.68,-0.002
2206,1115.35,-0.002
2208,1116.02,-0.002
2210,1116.69,-0.002
2212,1117.35,-0.002
2214,1118.02,-0.002
2216,1118.68,-0.002
2218,1119.36,-0.002
2220,1120.01,-0.002
2222,1120.68,-0.002
2224,1121.36,-0.002
2226,1122.02,-0.002
2228,1122.68,-0.002
2230,1123.35,-0.002
2232,1124.02,-0.003
2234,1124.68,-0.003
2236,1125.35,-0.003
2238,1126.02,-0.003
2240,1126.69,-0.003
2242,1127.35,-0.003
2244,1128.02,-0.003
2246,1128.69,-0.003
2248,1129.35,-0.003
2250,1130.02,-0.003
2252,1130.69,-0.003
2254,1131.35,-0.003
2256,1132.01,-0.003
2258,1132.69,-0.003
2260,1133.35,-0.003
2262,1134.01,-0.003
2264,1134.68,-0.003
2266,1135.35,-0.003
2268,1136.01,-0.003
2270,1136.69,-0.003
2272,1137.34,-0.003
2274,1138.02,-0.003
2276,1138.68,-0.003
2278,1139.35,-0.003
2280,1140.02,-0.003
2282,1140.69,-0.003
2284,1141.35,-0.003
2286,1142.01,-0.003
2288,1142.69,-0.004
2290,1143.34,-0.004
2292,1144.02,-0.004
2294,1144.68,-0.004
2296,1145.35,-0.004
2298,1146.01,-0.004
2300,1146.68,-0.004
2302,1147.36,-0.004
2304,1148.02,-0.004
2306,1148.68,-0.004
2308,1149.35,-0.004
2310,1150.02,-0.004
2312,1150.68,-0.004
2314,1151.35,-0.004
2316,1152.02,-0.004
2318,1152.68,-0.004
2320,1153.35,-0.004
2322,1154.01,-0.004
2324,1154.68,-0.004
2326,1155.35,-0.005
2328,1156.02,-0.005
2330,1156.68,-0.005
2332,1157.34,-0.005
2334,1158.01,-0.005
2336,1158.68,-0.005
2338,1159.35,-0.005
2340,1160.02,-0.005
2342,1160.69,-0.005
2344,1161.34,-0.005
2346,1162.02,-0.005
2348,1162.67,-0.005
2350,1163.35,-0.005
2352,1164.01,-0.005
2354,1164.68,-0.005
2356,1165.35,-0.005
2358,1166.02,-0.005
2360,1166.68,-0.005
2362,1167.35,-0.005
2364,1168.01,-0.005
2366,1168.69,-0.005
2368,1169.34,-0.006
2369,1169.67,-0.006