File: Wood/Calibration_Data/IMT/IMT-Mines-Ales_MCC_O2-20_60K_R2.csv
Time (s),Temperature (K),HRR (W/g)
0,400.88,0
0.5,401.23,-0.452
1,401.6,-0.734
1.5,401.94,-1.155
2,402.3,-0.93
2.5,402.62,-0.664
3,403.02,-0.516
3.5,403.34,-0.171
4,403.72,-0.571
4.5,404.03,-1.2
5,404.41,-0.509
5.5,404.75,-0.898
6,405.16,-0.631
6.5,405.5,-0.255
7,405.93,-0.757
7.5,406.26,-1.083
8,406.59,-0.837
8.5,406.98,-0.492
9,407.32,-0.952
9.5,407.66,-0.573
10,408.14,-0.892
10.5,408.49,-1.181
11,408.82,-1.459
11.5,409.21,-1.364
12,409.57,-1.162
12.5,409.96,-0.647
13,410.35,-0.577
13.5,410.73,-1.11
14,411.14,-1.302
14.5,411.5,-1.343
15,411.88,-1.599
15.5,412.29,-1.488
16,412.62,-0.953
16.5,413.06,-0.874
17,413.41,-0.727
17.5,413.83,-1.054
18,414.19,-1.591
18.5,414.59,-1.574
19,415,-1.494
19.5,415.42,-1.097
20,415.82,-0.967
20.5,416.21,-1.083
21,416.61,-1.083
21.5,416.95,-1.193
22,417.42,-1.474
22.5,417.81,-1.372
23,418.22,-1.526
23.5,418.61,-1.372
24,419.01,-0.856
24.5,419.41,-0.771
25,419.84,-1.275
25.5,420.22,-1.495
26,420.66,-1.577
26.5,421.07,-1.962
27,421.44,-1.168
27.5,421.87,-1.352
28,422.29,-1.538
28.5,422.75,-1.065
29,423.16,-1.123
29.5,423.59,-1.32
30,424.01,-0.757
30.5,424.44,-0.231
31,424.83,-0.012
31.5,425.26,0.099
32,425.66,-0.106
32.5,426.11,-0.765
33,426.52,-0.552
33.5,426.94,-0.466
34,427.4,-0.074
34.5,427.81,-0.136
35,428.22,-0.241
35.5,428.65,-0.445
36,429.13,-0.785
36.5,429.51,-0.437
37,429.97,-1.03
37.5,430.43,-0.732
38,430.9,-0.431
38.5,431.32,-0.071
39,431.77,-0.148
39.5,432.15,-0.53
40,432.63,-0.485
40.5,433.08,-0.019
41,433.52,0.274
41.5,433.95,0.667
42,434.38,0.95
42.5,434.86,0.723
43,435.28,0.47
43.5,435.78,0.306
44,436.21,0.152
44.5,436.62,0.358
45,437.09,0.824
45.5,437.55,0.907
46,437.98,0.884
46.5,438.48,0.371
47,438.91,-0.215
47.5,439.37,-0.004
48,439.84,0.816
48.5,440.25,0.976
49,440.77,1.138
49.5,441.22,1.009
50,441.7,1.002
50.5,442.14,1.032
51,442.61,1.371
51.5,443.09,1.178
52,443.59,1.686
52.5,444.04,2
53,444.51,1.727
53.5,444.96,1.441
54,445.48,1.453
54.5,445.92,2.013
55,446.39,2.571
55.5,446.88,2.617
56,447.37,2.735
56.5,447.84,2.289
57,448.34,2.46
57.5,448.83,2.559
58,449.22,1.969
58.5,449.73,2.93
59,450.18,3.203
59.5,450.72,3.08
60,451.22,3.049
60.5,451.66,3.084
61,452.17,3.442
61.5,452.66,3.038
62,453.14,3.735
62.5,453.6,4.249
63,454.11,4.386
63.5,454.61,4.032
64,455.09,4.336
64.5,455.57,4
65,456.02,4.35
65.5,456.52,4.769
66,457.05,5.157
66.5,457.55,5.665
67,457.98,5.443
67.5,458.53,6.085
68,458.98,5.715
68.5,459.5,6.059
69,460,6.327
69.5,460.48,6.442
70,460.97,6.658
70.5,461.48,6.932
71,461.98,6.649
71.5,462.52,6.918
72,463.04,7.606
72.5,463.52,8.076
73,464.05,7.752
73.5,464.55,8.086
74,465.09,8.088
74.5,465.57,8.472
75,466.09,8.697
75.5,466.58,8.978
76,467.04,8.89
76.5,467.61,9.491
77,468.12,9.271
77.5,468.6,9.699
78,469.17,10.677
78.5,469.63,10.827
79,470.16,11.621
79.5,470.69,11.306
80,471.17,11.552
80.5,471.72,11.405
81,472.22,12.163
81.5,472.67,12.267
82,473.2,13.028
82.5,473.71,14.014
83,474.24,13.817
83.5,474.73,14.111
84,475.28,14.309
84.5,475.8,13.838
85,476.35,14.717
85.5,476.82,15.266
86,477.32,15.512
86.5,477.84,16.084
87,478.38,16.015
87.5,478.9,15.886
88,479.4,15.987
88.5,479.96,15.835
89,480.46,16.389
89.5,480.98,17.131
90,481.49,17.126
90.5,482.01,17.733
91,482.5,17.543
91.5,483.05,17.26
92,483.57,17.779
92.5,484.1,17.947
93,484.63,17.892
93.5,485.13,18.414
94,485.62,19.384
94.5,486.16,19.011
95,486.67,19.363
95.5,487.18,19.349
96,487.77,19.137
96.5,488.31,19.468
97,488.78,19.896
97.5,489.3,20.257
98,489.83,20.611
98.5,490.36,20.769
99,490.88,20.486
99.5,491.35,20.17
100,491.95,20.379
100.5,492.44,20.896
101,492.97,21.225
101.5,493.46,21.937
102,494.06,22.102
102.5,494.55,22.222
103,495.08,22.042
103.5,495.61,21.926
104,496.14,22.41
104.5,496.69,22.91
105,497.19,23.496
105.5,497.73,24.164
106,498.22,23.972
106.5,498.72,23.191
107,499.28,23.486
107.5,499.83,23.515
108,500.32,24.061
108.5,500.85,23.582
109,501.33,24.14
109.5,501.87,24.033
110,502.39,24.131
110.5,502.92,24.011
111,503.5,24.126
111.5,503.99,23.771
112,504.54,23.579
112.5,505.02,23.878
113,505.6,24.508
113.5,506.07,24.807
114,506.62,25.22
114.5,507.15,25.027
115,507.69,25.064
115.5,508.19,25.411
116,508.75,25.708
116.5,509.26,26.194
117,509.77,26.596
117.5,510.3,27.208
118,510.85,27.037
118.5,511.38,27.547
119,511.9,27.481
119.5,512.41,27.211
120,512.96,27.612
120.5,513.48,28.125
121,513.97,28.354
121.5,514.5,28.117
122,515.02,28.371
122.5,515.57,28.079
123,516.08,28.459
123.5,516.59,28.549
124,517.11,28.855
124.5,517.63,28.777
125,518.13,28.969
125.5,518.65,29.192
126,519.2,28.752
126.5,519.67,28.917
127,520.18,29.474
127.5,520.75,29.433
128,521.25,30.046
128.5,521.74,30.318
129,522.32,30.215
129.5,522.84,30.593
130,523.35,30.882
130.5,523.89,31.245
131,524.37,31.77
131.5,524.87,32.406
132,525.4,33.316
132.5,525.91,34.099
133,526.43,34.556
133.5,526.99,35.029
134,527.5,35.752
134.5,528.05,35.928
135,528.54,36.705
135.5,529.08,37.143
136,529.56,37.817
136.5,530.13,37.691
137,530.67,38.182
137.5,531.15,37.834
138,531.7,37.939
138.5,532.19,38.43
139,532.69,38.501
139.5,533.27,39.068
140,533.76,39.551
140.5,534.27,39.042
141,534.75,38.957
141.5,535.34,39.395
142,535.82,39.295
142.5,536.36,40.122
143,536.86,40.338
143.5,537.37,41.12
144,537.91,47.523
144.5,538.39,53.714
145,538.88,53.316
145.5,539.43,51.772
146,539.91,50.812
146.5,540.44,50.253
147,540.96,49.566
147.5,541.44,48.749
148,541.96,47.918
148.5,542.49,47.821
149,542.99,42.445
149.5,543.5,36.164
150,544.05,35.875
150.5,544.58,36.773
151,545.08,38.294
151.5,545.58,39.783
152,546.09,41.893
152.5,546.62,43.717
153,547.08,45.649
153.5,547.61,47.736
154,548.17,49.285
154.5,548.65,50.975
155,549.17,52.362
155.5,549.65,52.635
156,550.16,54.221
156.5,550.69,54.797
157,551.23,55.849
157.5,551.74,57.864
158,552.22,60.757
158.5,552.7,63.439
159,553.24,66.91
159.5,553.72,70.213
160,554.24,72.497
160.5,554.74,73.284
161,555.26,73.845
161.5,555.78,72.379
162,556.31,70.6
162.5,556.83,67.895
163,557.31,65.336
163.5,557.84,62.124
164,558.34,59.07
164.5,558.82,56.473
165,559.32,53.774
165.5,559.85,51.334
166,560.3,50.657
166.5,560.88,49.706
167,561.3,49.696
167.5,561.84,49.881
168,562.32,50.721
168.5,562.86,51.047
169,563.36,51.574
169.5,563.86,52.674
170,564.35,53.675
170.5,564.84,55.15
171,565.36,56.117
171.5,565.87,57.725
172,566.38,58.853
172.5,566.88,59.478
173,567.38,60.252
173.5,567.86,61.174
174,568.41,61.609
174.5,568.92,62.232
175,569.4,63.021
175.5,569.92,63.598
176,570.44,64.59
176.5,570.9,64.953
177,571.45,64.761
177.5,571.96,65.666
178,572.48,65.825
178.5,572.97,65.89
179,573.48,66.474
179.5,573.99,66.717
180,574.51,67.391
180.5,575,67.929
181,575.53,68.132
181.5,576.01,68.494
182,576.5,68.652
182.5,577,68.457
183,577.49,69.556
183.5,577.96,69.945
184,578.51,70.249
184.5,578.98,70.721
185,579.54,71.237
185.5,580.03,71.163
186,580.53,71.483
186.5,581.03,72.154
187,581.5,72.846
187.5,582.04,73.56
188,582.54,74.65
188.5,582.99,75.369
189,583.52,75.232
189.5,583.99,75.998
190,584.5,76.516
190.5,584.98,77.421
191,585.53,77.688
191.5,586.03,78.621
192,586.51,79.384
192.5,587,79.89
193,587.5,80.445
193.5,588.01,81.07
194,588.51,81.687
194.5,589.01,82.582
195,589.51,83.46
195.5,590.05,84.274
196,590.54,85.028
196.5,591.03,85.768
197,591.57,85.922
197.5,592.05,86.953
198,592.53,87.879
198.5,593.06,88.676
199,593.6,89.166
199.5,594.07,90.248
200,594.63,91.157
200.5,595.12,92.412
201,595.57,93.388
201.5,596.1,93.367
202,596.59,94.412
202.5,597.13,94.853
203,597.58,95.889
203.5,598.11,96.788
204,598.55,98.056
204.5,599.13,98.581
205,599.64,99.849
205.5,600.1,100.169
206,600.64,100.962
206.5,601.12,102.547
207,601.62,103.11
207.5,602.1,104.761
208,602.6,106.292
208.5,603.1,107.687
209,603.58,108.769
209.5,604.1,109.859
210,604.62,111.476
210.5,605.09,112.186
211,605.59,114.592
211.5,606.14,116.319
212,606.64,118.07
212.5,607.15,119.718
213,607.65,121.411
213.5,608.12,123.11
214,608.67,124.914
214.5,609.1,126.898
215,609.62,129.637
215.5,610.19,131.913
216,610.69,133.59
216.5,611.18,135.824
217,611.68,137.866
217.5,612.23,139.801
218,612.72,141.894
218.5,613.23,144.176
219,613.77,145.779
219.5,614.27,148.467
220,614.82,150.586
220.5,615.28,151.908
221,615.78,153.6
221.5,616.29,155.256
222,616.79,156.955
222.5,617.33,158.58
223,617.81,160.26
223.5,618.36,161.328
224,618.87,163.378
224.5,619.34,164.085
225,619.88,165.14
225.5,620.38,165.534
226,620.92,166.128
226.5,621.39,166.858
227,621.92,167.036
227.5,622.4,167.357
228,622.92,167.546
228.5,623.44,167.804
229,623.95,167.146
229.5,624.47,166.555
230,624.99,165.939
230.5,625.51,164.927
231,625.98,164.103
231.5,626.53,162.791
232,627.04,161.751
232.5,627.56,160.564
233,628.07,159.552
233.5,628.57,157.483
234,629.06,155.798
234.5,629.58,153.289
235,630.12,151.654
235.5,630.64,149.772
236,631.13,147.244
236.5,631.67,145.489
237,632.16,143.48
237.5,632.72,141.353
238,633.26,138.436
238.5,633.77,135.974
239,634.28,133.189
239.5,634.79,131.377
240,635.3,129.12
240.5,635.8,126.678
241,636.35,124.441
241.5,636.82,121.726
242,637.37,119.273
242.5,637.91,116.58
243,638.39,113.935
243.5,638.93,111.261
244,639.44,109.1
244.5,639.97,106.575
245,640.48,104.44
245.5,641,101.175
246,641.5,98.71
246.5,642,96.164
247,642.52,93.93
247.5,643.06,92.241
248,643.53,89.273
248.5,644.04,88.209
249,644.6,86.051
249.5,645.09,83.554
250,645.62,81.616
250.5,646.14,79.887
251,646.65,77.711
251.5,647.14,76.437
252,647.65,74.624
252.5,648.17,74.134
253,648.68,71.989
253.5,649.17,70.356
254,649.68,68.601
254.5,650.18,67.768
255,650.67,66.532
255.5,651.21,65.424
256,651.71,64.4
256.5,652.21,63.751
257,652.73,62.472
257.5,653.2,61.418
258,653.65,60.177
258.5,654.18,59.275
259,654.68,58.402
259.5,655.19,57.986
260,655.68,57.786
260.5,656.18,56.622
261,656.7,55.478
261.5,657.17,54.865
262,657.7,54.218
262.5,658.15,54.038
263,658.64,53.43
263.5,659.2,53.496
264,659.63,53.016
264.5,660.15,51.719
265,660.67,51.468
265.5,661.15,50.752
266,661.66,50.256
266.5,662.14,50.161
267,662.65,50.113
267.5,663.16,50.018
268,663.65,49.36
268.5,664.13,48.443
269,664.61,47.868
269.5,665.1,47.777
270,665.6,47.292
270.5,666.07,47.593
271,666.59,46.776
271.5,667.06,46.532
272,667.54,45.938
272.5,668.04,45.739
273,668.51,45.745
273.5,669,45.365
274,669.56,45.415
274.5,670.04,45.62
275,670.48,45.221
275.5,670.97,44.586
276,671.45,44.352
276.5,671.94,44.671
277,672.44,44.459
277.5,672.93,44.079
278,673.41,44.348
278.5,673.95,44.045
279,674.41,43.468
279.5,674.96,43.18
280,675.45,42.745
280.5,675.95,42.608
281,676.41,42.759
281.5,676.91,42.897
282,677.39,42.408
282.5,677.89,42.335
283,678.38,42.276
283.5,678.87,42.171
284,679.34,42.134
284.5,679.9,41.975
285,680.36,42.253
285.5,680.83,42.19
286,681.31,41.865
286.5,681.81,41.89
287,682.3,41.925
287.5,682.78,41.618
288,683.26,41.104
288.5,683.74,41.269
289,684.21,42.088
289.5,684.74,42.038
290,685.23,42.009
290.5,685.68,41.611
291,686.16,41.696
291.5,686.7,41.397
292,687.15,41.636
292.5,687.66,41.617
293,688.18,41.031
293.5,688.68,41.17
294,689.18,41.465
294.5,689.64,41.582
295,690.12,40.998
295.5,690.61,40.759
296,691.13,41.258
296.5,691.6,41.026
297,692.12,40.818
297.5,692.6,41.068
298,693.1,41.063
298.5,693.61,41.501
299,694.12,41.639
299.5,694.59,41.132
300,695.12,41.11
300.5,695.62,41.021
301,696.06,41.019
301.5,696.58,40.912
302,697.11,41.307
302.5,697.58,41.44
303,698.06,41.568
303.5,698.59,41.949
304,699.11,41.854
304.5,699.57,41.792
305,700.07,41.5
305.5,700.57,41.565
306,701.06,41.802
306.5,701.6,41.806
307,702.1,42.603
307.5,702.54,42.763
308,703.11,42.594
308.5,703.58,42.454
309,704.07,42.197
309.5,704.58,42.266
310,705.07,43.4
310.5,705.55,42.685
311,706.1,43.919
311.5,706.54,44.147
312,707.05,43.855
312.5,707.56,43.718
313,708.06,44.269
313.5,708.59,43.89
314,709.09,43.953
314.5,709.62,45.09
315,710.1,45.164
315.5,710.63,45.622
316,711.11,45.829
316.5,711.64,45.744
317,712.16,45.84
317.5,712.62,46.085
318,713.18,46.252
318.5,713.69,46.958
319,714.16,47.321
319.5,714.72,47.28
320,715.26,46.742
320.5,715.74,47.438
321,716.27,47.916
321.5,716.77,47.586
322,717.27,48.264
322.5,717.77,45.497
323,718.29,42.207
323.5,718.8,39.845
324,719.3,38.598
324.5,719.83,37.587
325,720.35,36.385
325.5,720.83,35.526
326,721.35,35.59
326.5,721.89,35.667
327,722.4,36.107
327.5,722.91,39.863
328,723.45,43.682
328.5,723.94,46.585
329,724.45,48.698
329.5,724.95,51.078
330,725.47,53.803
330.5,725.99,56.622
331,726.52,58.628
331.5,727.01,60.376
332,727.55,62.061
332.5,728.06,62.82
333,728.62,63.86
333.5,729.11,66.255
334,729.63,70.658
334.5,730.16,77.682
335,730.7,86.927
335.5,731.22,98.436
336,731.74,112.226
336.5,732.36,127.345
337,733.13,142.576
337.5,733.94,158.519
338,734.67,173.76
338.5,735.39,187.375
339,736.09,200.061
339.5,736.76,211.42
340,737.51,220.163
340.5,738.16,227.615
341,738.84,232.962
341.5,739.53,236.053
342,740.14,236.938
342.5,740.83,235.315
343,741.56,230.41
343.5,742.34,223.18
344,742.99,215.04
344.5,743.51,204.274
345,744.13,191.46
345.5,744.64,178.323
346,745.18,164.334
346.5,745.69,150.836
347,746.23,137.94
347.5,746.73,126.351
348,747.26,115.696
348.5,747.76,105.709
349,748.28,95.826
349.5,748.74,87.356
350,749.25,80.441
350.5,749.7,73.164
351,750.14,67.95
351.5,750.62,62.494
352,751.1,58.097
352.5,751.54,53.734
353,751.97,49.956
353.5,752.46,46.394
354,752.86,43.775
354.5,753.32,41.234
355,753.75,39.14
355.5,754.22,37.422
356,754.62,35.173
356.5,755.1,33.372
357,755.55,31.352
357.5,755.95,30.555
358,756.44,29.783
358.5,756.84,28.334
359,757.3,27.642
359.5,757.72,26.342
360,758.16,25.662
360.5,758.58,24.779
361,759.04,24.428
361.5,759.5,23.604
362,759.92,23.168
362.5,760.36,22.825
363,760.82,22.086
363.5,761.29,21.45
364,761.68,21.086
364.5,762.19,20.995
365,762.64,20.314
365.5,763.08,20.691
366,763.52,20.004
366.5,763.95,20.018
367,764.39,19.838
367.5,764.84,18.915
368,765.28,18.676
368.5,765.75,18.745
369,766.22,18.487
369.5,766.66,18.577
370,767.13,18.144
370.5,767.63,18.008
371,768.12,17.147
371.5,768.55,16.819
372,769.05,16.696
372.5,769.48,16.265
373,769.98,16.354
373.5,770.46,16.026
374,770.91,16.294
374.5,771.35,15.751
375,771.85,15.342
375.5,772.31,14.76
376,772.81,15.129
376.5,773.31,14.696
377,773.76,15.155
377.5,774.24,14.458
378,774.73,14.917
378.5,775.22,14.945
379,775.72,14.646
379.5,776.21,14.517
380,776.7,13.886
380.5,777.16,14.417
381,777.66,13.914
381.5,778.14,14.107
382,778.62,13.898
382.5,779.12,13.917
383,779.61,14.073
383.5,780.09,13.469
384,780.59,13.547
384.5,781.1,13.356
385,781.55,13.056
385.5,782.08,12.909
386,782.57,13.222
386.5,783.08,13.199
387,783.54,13.164
387.5,784.11,12.88
388,784.54,12.871
388.5,785.07,12.293
389,785.56,12.747
389.5,786.05,12.759
390,786.55,12.991
390.5,787.05,13.269
391,787.56,12.629
391.5,788.06,12.181
392,788.54,12.524
392.5,789.05,11.988
393,789.54,12.459
393.5,790.06,12.348
394,790.57,12.691
394.5,791.04,12.257
395,791.58,12.195
395.5,792.08,11.676
396,792.6,11.689
396.5,793.12,11.781
397,793.63,11.604
397.5,794.15,12.049
398,794.68,11.251
398.5,795.23,11.274
399,795.75,10.761
399.5,796.26,10.313
400,796.77,10.462
400.5,797.29,10.494
401,797.82,10.55
401.5,798.35,10.703
402,798.85,10.498
402.5,799.38,10.305
403,799.88,9.857
403.5,800.46,9.715
404,800.99,9.234
404.5,801.48,9.709
405,801.98,9.594
405.5,802.52,9.44
406,803.05,9.279
406.5,803.55,8.927
407,804.12,8.511
407.5,804.62,8.367
408,805.12,9.011
408.5,805.64,9.447
409,806.17,9.737
409.5,806.7,9.042
410,807.25,8.633
410.5,807.71,8.198
411,808.29,8.269
411.5,808.78,8.187
412,809.32,8.37
412.5,809.85,8.037
413,810.37,8.195
413.5,810.92,7.516
414,811.46,7.249
414.5,811.97,7.188
415,812.46,6.663
415.5,813.03,6.239
416,813.53,6.262
416.5,814.06,6.447
417,814.56,7.041
417.5,815.09,6.465
418,815.61,6.186
418.5,816.19,6.258
419,816.74,5.843
419.5,817.24,5.339
420,817.82,5.888
420.5,818.3,5.885
421,818.82,5.96
421.5,819.36,5.416
422,819.87,4.819
422.5,820.41,4.589
423,820.95,4.888
423.5,821.46,4.795
424,821.99,4.953
424.5,822.53,5.238
425,823.05,4.747
425.5,823.61,4.757
426,824.14,4.546
426.5,824.65,3.698
427,825.19,3.723
427.5,825.68,3.902
428,826.23,4.233
428.5,826.74,4.37
429,827.28,3.717
429.5,827.77,3.576
430,828.34,3.621
430.5,828.86,3.165
431,829.39,3.063
431.5,829.92,3.953
432,830.45,4.067
432.5,830.99,4.147
433,831.5,3.834
433.5,832.01,4.053
434,832.52,3.487
434.5,833.06,3.611
435,833.58,3.163
435.5,834.11,3.87
436,834.67,3.867
436.5,835.2,3.353
437,835.72,3.482
437.5,836.25,3.36
438,836.83,3.495
438.5,837.31,3.405
439,837.85,3.336
439.5,838.43,2.986
440,838.96,3.483
440.5,839.46,3.398
441,840,3.208
441.5,840.51,2.827
442,841.06,2.494
442.5,841.58,2.511
443,842.1,2.706
443.5,842.66,2.786
444,843.15,2.978
444.5,843.69,2.837
445,844.2,2.729
445.5,844.74,2.444
446,845.24,2.544
446.5,845.77,2.534
447,846.31,2.788
447.5,846.82,3.089
448,847.32,2.658
448.5,847.88,2.858
449,848.42,2.511
449.5,848.96,2.251
450,849.48,2.79
450.5,849.97,2.588
451,850.5,2.524
451.5,851.05,2.454
452,851.6,2.299
452.5,852.1,2.219
453,852.62,1.842
453.5,853.15,1.7
454,853.67,2.264
454.5,854.2,1.8
455,854.72,1.866
455.5,855.24,1.518
456,855.81,1.357
456.5,856.35,1.198
457,856.87,1.409
457.5,857.38,1.704
458,857.88,1.556
458.5,858.46,1.985
459,858.96,1.34
459.5,859.48,1.423
460,859.97,1.013
460.5,860.5,1.293
461,861.06,1
461.5,861.62,0.908
462,862.08,1.07
462.5,862.61,0.902
463,863.14,0.559
463.5,863.69,0.656
464,864.18,0.943
464.5,864.69,0.655
465,865.22,0.342
465.5,865.77,0.225
466,866.26,0.464
466.5,866.8,1.112
467,867.33,0.688
467.5,867.84,0.795
468,868.33,0.503
468.5,868.89,0.519
469,869.39,0.207
469.5,869.94,0.298
470,870.47,0.258
470.5,871,0.442
471,871.48,0.435
471.5,872,-0.042
472,872.53,0.006
472.5,873.05,-0.256
473,873.64,-0.342
473.5,874.17,-0.458
474,874.65,-0.02
474.5,875.16,-0.105
475,875.69,-0.039
475.5,876.22,-0.468
476,876.79,-0.696
476.5,877.27,-0.426
477,877.8,-0.429
477.5,878.33,-0.103
478,878.83,0.116
478.5,879.35,-0.082
479,879.87,-0.176
479.5,880.41,-0.708
480,880.89,-0.785
480.5,881.46,-0.77
481,881.96,-0.572
481.5,882.53,-0.652
482,883,-0.904
482.5,883.53,-1.106
483,884.08,-1.268
483.5,884.57,-0.897
484,885.11,-0.89
484.5,885.6,-0.979
485,886.13,-0.546
485.5,886.62,-0.746
486,887.16,-1.038
486.5,887.66,-1.135
487,888.22,-1.411
487.5,888.73,-1.424
488,889.21,-1.222
488.5,889.77,-1.196
489,890.29,-1.122
489.5,890.8,-1.117
490,891.3,-1.511
490.5,891.85,-1.602
491,892.35,-1.87
491.5,892.88,-1.439
492,893.39,-0.899
492.5,893.9,-1.429
493,894.44,-1.383
493.5,894.94,-1.668
494,895.45,-1.303
494.5,896.04,-1.889
495,896.52,-1.597
495.5,897.09,-1.542
496,897.6,-1.244
496.5,898.12,-1.321
497,898.66,-1.455
497.5,899.16,-1.674
498,899.72,-1.703
498.5,900.22,-1.306
499,900.7,-1.831
499.5,901.25,-1.643
500,901.76,-1.615
500.5,902.25,-2.213
501,902.8,-1.274
501.5,903.3,-1.531
502,903.82,-2.044
502.5,904.33,-2.6
503,904.87,-2.381
503.5,905.36,-2.105
504,905.93,-2.644
504.5,906.38,-2.368
505,906.89,-2.572
505.5,907.45,-2.335
506,907.98,-2.473
506.5,908.47,-2.493
507,908.95,-3.01
507.5,909.47,-2.716
508,910.06,-2.268
508.5,910.55,-2.373
509,911.1,-2.434
509.5,911.58,-2.838
510,912.1,-2.816
510.5,912.6,-3.427
511,913.17,-3.245
511.5,913.59,-2.805
512,914.12,-2.951
512.5,914.69,-2.753
513,915.13,-2.884
513.5,915.72,-3.296
514,916.23,-3.473
514.5,916.79,-3.753
515,917.3,-3.385
515.5,917.81,-2.983
516,918.38,-3.03
516.5,918.78,-3.212
517,919.45,-3.292
517.5,919.89,-3.581
518,920.42,-3.569
518.5,920.9,-2.882
519,921.44,-2.743
519.5,922.05,-2.406
520,922.47,-1.94
520.5,923.1,-2.362
521,923.61,-2.169
521.5,924.07,-2.06
522,924.56,-2.031
522.5,925.11,-1.759
523,925.67,-1.579
523.5,926.13,-1.149
524,926.65,-1.522
524.5,927.09,-1.937
525,927.7,-2.377
525.5,928.2,-2.504
526,928.73,-2.722
526.5,929.26,-2.485
527,929.74,-2.255
527.5,930.25,-2.662
528,930.78,-2.561
528.5,931.27,-3.2
529,931.74,-3.583
529.5,932.36,-3.579
530,932.84,-3.3
530.5,933.37,-3.425
531,933.94,-2.898
531.5,934.45,-3.202
532,934.93,-2.799
532.5,935.51,-3.125
533,935.94,-2.797
533.5,936.52,-2.405
534,937.07,-1.612
534.5,937.61,-0.784
535,938.11,-1.069
535.5,938.56,-0.893
536,939.15,-0.801
536.5,939.65,-0.806
537,940.17,-0.066
537.5,940.71,1.011
538,941.22,1.234
538.5,941.75,0.746
539,942.26,0.692
539.5,942.76,0.428
540,943.29,0.573
540.5,943.85,0.843
541,944.34,0.909
541.5,944.85,0.79
542,945.39,1.018
542.5,945.91,0.66
543,946.41,0.558
543.5,946.97,0.411
544,947.46,0.961
544.5,947.98,0.746
545,948.5,0.791
545.5,949.02,0.092
546,949.51,0.45
546.5,950.09,0.758
547,950.59,0.744
547.5,951.12,0.477
548,951.66,0.149
548.5,952.16,0.346
549,952.67,0.355
549.5,953.25,0.677
550,953.76,0.697
550.5,954.24,0.918
551,954.78,0.999
551.5,955.3,0.354
552,955.84,-0.082
552.5,956.34,-0.367
553,956.88,-0.946
553.5,957.43,-0.693
554,957.98,-0.467
554.5,958.45,-0.957
555,958.99,-1.043
555.5,959.56,-1.719
556,960.03,-1.999
556.5,960.58,-2.184
557,961.11,-2.355
557.5,961.65,-2.38
558,962.17,-2.166
558.5,962.7,-2.208
559,963.18,-2.407
559.5,963.74,-2.278
560,964.24,-2.621
560.5,964.77,-2.618
561,965.28,-1.852
561.5,965.82,-1.676
562,966.36,-1.075
562.5,966.84,-0.86
563,967.37,-0.761
563.5,967.88,-0.717
564,968.41,-0.156
564.5,968.93,0.093
565,969.46,0.119
565.5,969.94,0.888
566,970.49,1.644
566.5,971.01,1.132
567,971.52,1.349
567.5,972.06,1.21
568,972.61,1.085
568.5,973.14,1.199
569,973.65,1.779
569.5,974.16,1.935
570,974.72,2.11
570.5,975.2,2.545
571,975.69,1.838
571.5,976.26,2.17
572,976.77,1.644
572.5,977.31,1.339
573,977.84,1.596
573.5,978.34,1.005
574,978.86,1.087
574.5,979.37,0.562
575,979.91,0.663
575.5,980.41,0.196
576,980.93,0.322
576.5,981.46,-0.21
577,981.99,-0.564
577.5,982.51,-1.01
578,983.07,-1.093
578.5,983.56,-1.417
579,984.07,-1.849
579.5,984.6,-1.637
580,985.14,-1.505
580.5,985.65,-2.07
581,986.2,-2.409
581.5,986.72,-1.758
582,987.24,-1.492
582.5,987.72,-1.529
583,988.28,-1.003
583.5,988.75,-0.162
584,989.28,-0.51
584.5,989.81,-0.191
585,990.36,0