File: Wood/Calibration_Data/IMT/IMT-Mines-Ales_Wood_TGA_O2-20_5K_R1.csv
Time (s),Temperature (K),Weight (mg)
0,383.15,4.615
7,383.15,4.615
14,383.38,4.615
21,383.86,4.616
28,384.34,4.616
35,384.86,4.616
42,385.39,4.616
49,385.92,4.616
56,386.48,4.616
63,387.04,4.616
70,387.60,4.616
77,388.17,4.616
84,388.74,4.616
91,389.32,4.616
98,389.89,4.616
105,390.48,4.616
112,391.06,4.616
119,391.63,4.616
126,392.22,4.616
133,392.80,4.616
140,393.39,4.616
147,393.97,4.615
154,394.55,4.615
161,395.15,4.615
168,395.73,4.615
175,396.30,4.615
182,396.88,4.615
189,397.48,4.615
196,398.06,4.615
203,398.65,4.615
210,399.23,4.615
217,399.82,4.615
224,400.40,4.615
231,400.99,4.615
238,401.57,4.615
245,402.15,4.614
252,402.74,4.614
259,403.33,4.614
266,403.92,4.614
273,404.50,4.614
280,405.08,4.614
287,405.66,4.614
294,406.25,4.614
301,406.84,4.613
308,407.43,4.613
315,408.01,4.613
322,408.60,4.613
329,409.18,4.613
336,409.76,4.613
343,410.35,4.613
350,410.93,4.612
357,411.52,4.612
364,412.10,4.612
371,412.69,4.612
378,413.28,4.612
385,413.86,4.612
392,414.45,4.611
399,415.03,4.611
406,415.61,4.611
413,416.20,4.611
420,416.79,4.611
427,417.37,4.610
434,417.95,4.610
441,418.54,4.610
448,419.12,4.610
455,419.72,4.609
462,420.30,4.609
469,420.88,4.609
476,421.47,4.609
483,422.05,4.608
490,422.64,4.608
497,423.23,4.608
504,423.81,4.608
511,424.40,4.607
518,424.98,4.607
525,425.56,4.607
532,426.15,4.606
539,426.74,4.606
546,427.33,4.606
553,427.90,4.605
560,428.49,4.605
567,429.08,4.605
574,429.67,4.604
581,430.25,4.604
588,430.83,4.603
595,431.42,4.603
602,432.00,4.603
609,432.58,4.602
616,433.17,4.602
623,433.76,4.601
630,434.34,4.601
637,434.92,4.600
644,435.50,4.600
651,436.08,4.599
658,436.67,4.599
665,437.26,4.598
672,437.85,4.598
679,438.44,4.597
686,439.02,4.597
693,439.60,4.596
700,440.18,4.596
707,440.76,4.595
714,441.35,4.594
721,441.94,4.594
728,442.52,4.593
735,443.10,4.593
742,443.69,4.592
749,444.28,4.591
756,444.86,4.591
763,445.45,4.590
770,446.03,4.589
777,446.61,4.588
784,447.19,4.588
791,447.78,4.587
798,448.37,4.586
805,448.96,4.586
812,449.54,4.585
819,450.12,4.584
826,450.71,4.583
833,451.28,4.583
840,451.88,4.582
847,452.46,4.581
854,453.04,4.580
861,453.63,4.579
868,454.21,4.579
875,454.79,4.578
882,455.38,4.577
889,455.97,4.576
896,456.56,4.575
903,457.14,4.574
910,457.71,4.573
917,458.30,4.572
924,458.88,4.571
931,459.47,4.570
938,460.06,4.569
945,460.64,4.568
952,461.23,4.567
959,461.81,4.566
966,462.39,4.565
973,462.98,4.564
980,463.56,4.563
987,464.15,4.562
994,464.73,4.561
1001,465.32,4.560
1008,465.90,4.559
1015,466.48,4.558
1022,467.07,4.557
1029,467.65,4.555
1036,468.24,4.554
1043,468.82,4.553
1050,469.41,4.552
1057,470.00,4.551
1064,470.58,4.549
1071,471.16,4.548
1078,471.74,4.547
1085,472.33,4.546
1092,472.91,4.544
1099,473.50,4.543
1106,474.09,4.542
1113,474.67,4.540
1120,475.25,4.539
1127,475.84,4.537
1134,476.43,4.536
1141,477.00,4.534
1148,477.59,4.533
1155,478.18,4.532
1162,478.76,4.530
1169,479.35,4.528
1176,479.93,4.527
1183,480.51,4.525
1190,481.10,4.524
1197,481.68,4.522
1204,482.26,4.520
1211,482.85,4.519
1218,483.43,4.517
1225,484.01,4.515
1232,484.61,4.513
1239,485.19,4.511
1246,485.78,4.510
1253,486.36,4.508
1260,486.94,4.506
1267,487.53,4.504
1274,488.11,4.502
1281,488.70,4.500
1288,489.28,4.498
1295,489.87,4.496
1302,490.44,4.494
1309,491.03,4.492
1316,491.62,4.490
1323,492.20,4.488
1330,492.78,4.486
1337,493.37,4.484
1344,493.96,4.481
1351,494.54,4.479
1358,495.12,4.477
1365,495.71,4.474
1372,496.30,4.472
1379,496.88,4.470
1386,497.46,4.467
1393,498.04,4.465
1400,498.63,4.462
1407,499.22,4.460
1414,499.80,4.457
1421,500.38,4.454
1428,500.97,4.452
1435,501.55,4.449
1442,502.14,4.446
1449,502.72,4.443
1456,503.30,4.440
1463,503.89,4.437
1470,504.48,4.434
1477,505.07,4.431
1484,505.65,4.428
1491,506.23,4.425
1498,506.82,4.422
1505,507.40,4.419
1512,507.98,4.416
1519,508.57,4.412
1526,509.15,4.409
1533,509.73,4.405
1540,510.32,4.402
1547,510.90,4.398
1554,511.49,4.394
1561,512.08,4.391
1568,512.66,4.387
1575,513.24,4.383
1582,513.82,4.379
1589,514.41,4.375
1596,515.00,4.371
1603,515.59,4.367
1610,516.16,4.363
1617,516.75,4.358
1624,517.33,4.354
1631,517.92,4.350
1638,518.51,4.345
1645,519.09,4.340
1652,519.67,4.336
1659,520.26,4.331
1666,520.84,4.327
1673,521.43,4.322
1680,522.01,4.317
1687,522.59,4.312
1694,523.18,4.307
1701,523.77,4.302
1708,524.35,4.296
1715,524.93,4.291
1722,525.52,4.286
1729,526.10,4.280
1736,526.69,4.275
1743,527.27,4.269
1750,527.85,4.264
1757,528.44,4.258
1764,529.03,4.253
1771,529.61,4.247
1778,530.19,4.241
1785,530.77,4.235
1792,531.36,4.229
1799,531.95,4.223
1806,532.53,4.217
1813,533.11,4.211
1820,533.70,4.204
1827,534.29,4.198
1834,534.88,4.192
1841,535.46,4.185
1848,536.04,4.179
1855,536.62,4.172
1862,537.21,4.166
1869,537.79,4.159
1876,538.37,4.152
1883,538.96,4.146
1890,539.55,4.139
1897,540.12,4.132
1904,540.71,4.125
1911,541.30,4.118
1918,541.88,4.111
1925,542.46,4.103
1932,543.05,4.096
1939,543.64,4.089
1946,544.22,4.081
1953,544.80,4.074
1960,545.39,4.066
1967,545.97,4.059
1974,546.56,4.051
1981,547.14,4.043
1988,547.73,4.035
1995,548.31,4.027
2002,548.90,4.019
2009,549.48,4.011
2016,550.07,4.003
2023,550.65,3.995
2030,551.24,3.986
2037,551.82,3.978
2044,552.40,3.969
2051,552.99,3.960
2058,553.57,3.952
2065,554.16,3.943
2072,554.74,3.934
2079,555.32,3.925
2086,555.91,3.916
2093,556.49,3.906
2100,557.08,3.897
2107,557.66,3.887
2114,558.25,3.878
2121,558.83,3.868
2128,559.41,3.858
2135,560.00,3.848
2142,560.58,3.838
2149,561.17,3.828
2156,561.76,3.817
2163,562.34,3.807
2170,562.92,3.797
2177,563.51,3.786
2184,564.09,3.775
2191,564.68,3.764
2198,565.26,3.753
2205,565.85,3.741
2212,566.42,3.730
2219,567.01,3.718
2226,567.60,3.706
2233,568.18,3.694
2240,568.77,3.682
2247,569.35,3.670
2254,569.94,3.657
2261,570.52,3.644
2268,571.11,3.631
2275,571.69,3.618
2282,572.27,3.605
2289,572.86,3.591
2296,573.45,3.577
2303,574.03,3.563
2310,574.61,3.549
2317,575.19,3.535
2324,575.79,3.520
2331,576.36,3.505
2338,576.95,3.490
2345,577.53,3.474
2352,578.11,3.459
2359,578.70,3.443
2366,579.29,3.427
2373,579.87,3.410
2380,580.46,3.393
2387,581.04,3.376
2394,581.63,3.359
2401,582.20,3.341
2408,582.79,3.323
2415,583.38,3.305
2422,583.96,3.287
2429,584.55,3.268
2436,585.13,3.249
2443,585.72,3.229
2450,586.30,3.209
2457,586.89,3.189
2464,587.46,3.168
2471,588.05,3.147
2478,588.64,3.126
2485,589.22,3.104
2492,589.80,3.082
2499,590.39,3.060
2506,590.98,3.037
2513,591.56,3.013
2520,592.14,2.989
2527,592.73,2.964
2534,593.31,2.939
2541,593.89,2.913
2548,594.48,2.887
2555,595.07,2.859
2562,595.65,2.831
2569,596.23,2.802
2576,596.82,2.772
2583,597.41,2.742
2590,597.99,2.710
2597,598.58,2.677
2604,599.16,2.644
2611,599.74,2.609
2618,600.32,2.573
2625,600.91,2.535
2632,601.50,2.497
2639,602.08,2.458
2646,602.67,2.418
2653,603.25,2.377
2660,603.83,2.335
2667,604.42,2.293
2674,604.99,2.251
2681,605.58,2.209
2688,606.17,2.167
2695,606.75,2.126
2702,607.34,2.086
2709,607.92,2.046
2716,608.51,2.008
2723,609.09,1.972
2730,609.68,1.938
2737,610.26,1.905
2744,610.85,1.874
2751,611.43,1.845
2758,612.02,1.818
2765,612.60,1.793
2772,613.18,1.769
2779,613.77,1.748
2786,614.35,1.728
2793,614.93,1.709
2800,615.53,1.692
2807,616.11,1.676
2814,616.68,1.661
2821,617.28,1.647
2828,617.86,1.633
2835,618.44,1.620
2842,619.03,1.608
2849,619.61,1.597
2856,620.20,1.585
2863,620.77,1.574
2870,621.37,1.564
2877,621.95,1.554
2884,622.54,1.544
2891,623.12,1.534
2898,623.71,1.525
2905,624.29,1.516
2912,624.87,1.507
2919,625.46,1.499
2926,626.04,1.490
2933,626.62,1.482
2940,627.21,1.474
2947,627.79,1.466
2954,628.38,1.458
2961,628.96,1.451
2968,629.55,1.443
2975,630.13,1.436
2982,630.72,1.429
2989,631.30,1.422
2996,631.89,1.415
3003,632.47,1.408
3010,633.05,1.402
3017,633.64,1.395
3024,634.22,1.388
3031,634.80,1.382
3038,635.40,1.376
3045,635.97,1.369
3052,636.56,1.363
3059,637.15,1.357
3066,637.73,1.351
3073,638.31,1.345
3080,638.90,1.339
3087,639.48,1.334
3094,640.06,1.328
3101,640.66,1.322
3108,641.23,1.316
3115,641.82,1.311
3122,642.41,1.305
3129,642.99,1.300
3136,643.58,1.294
3143,644.16,1.289
3150,644.74,1.283
3157,645.33,1.278
3164,645.91,1.273
3171,646.49,1.268
3178,647.09,1.262
3185,647.66,1.257
3192,648.25,1.252
3199,648.83,1.246
3206,649.42,1.241
3213,650.01,1.236
3220,650.58,1.231
3227,651.17,1.226
3234,651.76,1.221
3241,652.34,1.216
3248,652.92,1.211
3255,653.51,1.206
3262,654.10,1.201
3269,654.68,1.196
3276,655.27,1.191
3283,655.84,1.186
3290,656.43,1.181
3297,657.02,1.176
3304,657.60,1.171
3311,658.18,1.166
3318,658.77,1.161
3325,659.35,1.157
3332,659.94,1.152
3339,660.53,1.147
3346,661.11,1.142
3353,661.69,1.137
3360,662.28,1.133
3367,662.86,1.128
3374,663.45,1.123
3381,664.03,1.118
3388,664.62,1.114
3395,665.20,1.109
3402,665.78,1.104
3409,666.37,1.099
3416,666.96,1.095
3423,667.54,1.090
3430,668.12,1.085
3437,668.70,1.080
3444,669.29,1.076
3451,669.87,1.071
3458,670.46,1.066
3465,671.04,1.061
3472,671.62,1.057
3479,672.22,1.052
3486,672.80,1.047
3493,673.38,1.042
3500,673.97,1.038
3507,674.56,1.033
3514,675.14,1.028
3521,675.72,1.023
3528,676.31,1.019
3535,676.89,1.014
3542,677.47,1.009
3549,678.06,1.004
3556,678.64,0.999
3563,679.23,0.994
3570,679.81,0.990
3577,680.39,0.985
3584,680.98,0.980
3591,681.57,0.975
3598,682.15,0.970
3605,682.73,0.965
3612,683.32,0.960
3619,683.90,0.955
3626,684.49,0.950
3633,685.06,0.945
3640,685.66,0.940
3647,686.24,0.935
3654,686.83,0.930
3661,687.40,0.925
3668,687.99,0.920
3675,688.58,0.915
3682,689.16,0.910
3689,689.75,0.904
3696,690.33,0.899
3703,690.92,0.894
3710,691.50,0.889
3717,692.08,0.883
3724,692.67,0.878
3731,693.25,0.873
3738,693.84,0.867
3745,694.42,0.862
3752,695.01,0.856
3759,695.60,0.851
3766,696.17,0.845
3773,696.76,0.840
3780,697.35,0.834
3787,697.93,0.828
3794,698.51,0.823
3801,699.10,0.817
3808,699.68,0.811
3815,700.27,0.804
3822,700.85,0.798
3829,701.43,0.793
3836,702.02,0.788
3843,702.60,0.782
3850,703.19,0.775
3857,703.77,0.769
3864,704.35,0.763
3871,704.93,0.757
3878,705.52,0.751
3885,706.10,0.745
3892,706.69,0.738
3899,707.27,0.732
3906,707.84,0.725
3913,708.44,0.719
3920,709.02,0.712
3927,709.59,0.705
3934,710.18,0.699
3941,710.76,0.692
3948,711.35,0.685
3955,711.94,0.679
3962,712.51,0.672
3969,713.10,0.665
3976,713.68,0.659
3983,714.27,0.652
3990,714.85,0.645
3997,715.43,0.638
4004,716.01,0.631
4011,716.61,0.624
4018,717.18,0.617
4025,717.77,0.610
4032,718.36,0.603
4039,718.93,0.596
4046,719.52,0.589
4053,720.10,0.582
4060,720.68,0.575
4067,721.27,0.568
4074,721.85,0.560
4081,722.44,0.553
4088,723.02,0.546
4095,723.60,0.539
4102,724.19,0.531
4109,724.77,0.524
4116,725.36,0.517
4123,725.93,0.510
4130,726.52,0.502
4137,727.11,0.495
4144,727.68,0.487
4151,728.27,0.480
4158,728.85,0.472
4165,729.43,0.465
4172,730.02,0.457
4179,730.60,0.450
4186,731.18,0.442
4193,731.77,0.435
4200,732.34,0.427
4207,732.94,0.419
4214,733.52,0.411
4221,734.10,0.404
4228,734.68,0.396
4235,735.27,0.388
4242,735.85,0.380
4249,736.43,0.372
4256,737.02,0.364
4263,737.60,0.356
4270,738.18,0.348
4277,738.77,0.340
4284,739.35,0.332
4291,739.93,0.324
4298,740.52,0.316
4305,741.10,0.307
4312,741.68,0.299
4319,742.26,0.291
4326,742.85,0.282
4333,743.44,0.274
4340,744.02,0.265
4347,744.60,0.257
4354,745.18,0.248
4361,745.77,0.239
4368,746.36,0.231
4375,746.93,0.222
4382,747.52,0.213
4389,748.10,0.204
4396,748.69,0.195
4403,749.27,0.186
4410,749.84,0.176
4417,750.43,0.168
4424,751.02,0.159
4431,751.60,0.150
4438,752.18,0.141
4445,752.76,0.132
4452,753.35,0.123
4459,753.94,0.115
4466,754.51,0.107
4473,755.10,0.099
4480,755.68,0.092
4487,756.27,0.084
4494,756.85,0.077
4501,757.44,0.071
4508,758.02,0.065
4515,758.60,0.061
4522,759.19,0.055
4529,759.77,0.051
4536,760.35,0.048
4543,760.93,0.045
4550,761.51,0.043
4557,762.10,0.041
4564,762.68,0.039
4571,763.26,0.037
4578,763.85,0.035
4585,764.43,0.034
4592,765.01,0.032
4599,765.60,0.032
4606,766.18,0.031
4613,766.77,0.030
4620,767.35,0.030
4627,767.94,0.029
4634,768.52,0.029
4641,769.10,0.029
4648,769.68,0.029
4655,770.27,0.028
4662,770.85,0.028
4669,771.43,0.028
4676,772.02,0.028
4683,772.60,0.028
4690,773.18,0.028
4697,773.76,0.028
4704,774.35,0.028
4711,774.94,0.028
4718,775.52,0.028
4725,776.10,0.028
4732,776.69,0.027
4739,777.27,0.027
4746,777.85,0.027
4753,778.43,0.027
4760,779.02,0.027
4767,779.60,0.027
4774,780.18,0.027
4781,780.77,0.027
4788,781.35,0.027
4795,781.94,0.027
4802,782.52,0.027
4809,783.10,0.027
4816,783.68,0.027
4823,784.27,0.027
4830,784.85,0.027
4837,785.43,0.027
4844,786.02,0.026
4851,786.60,0.026
4858,787.19,0.026
4865,787.77,0.026
4872,788.35,0.026
4879,788.93,0.026
4886,789.51,0.026
4893,790.10,0.026
4900,790.68,0.026
4907,791.27,0.026
4914,791.85,0.026
4921,792.43,0.026
4928,793.02,0.026
4935,793.60,0.026
4942,794.18,0.026
4949,794.76,0.026
4956,795.36,0.026
4963,795.94,0.026
4970,796.52,0.026
4977,797.10,0.025
4984,797.68,0.025
4991,798.27,0.025
4998,798.85,0.025
5005,799.43,0.025
5012,800.02,0.025
5019,800.60,0.025
5026,801.19,0.025
5033,801.77,0.025
5040,802.35,0.025
5047,802.94,0.025
5054,803.52,0.025
5061,804.10,0.025
5068,804.68,0.025
5075,805.27,0.025
5082,805.86,0.025
5089,806.43,0.025
5096,807.02,0.025
5103,807.61,0.025
5110,808.18,0.025
5117,808.77,0.025
5124,809.35,0.025
5131,809.93,0.025
5138,810.52,0.025
5145,811.10,0.025
5152,811.68,0.025
5159,812.27,0.025
5166,812.86,0.025
5173,813.43,0.025
5180,814.02,0.025
5187,814.61,0.025
5194,815.18,0.025
5201,815.77,0.025
5208,816.35,0.025
5215,816.93,0.025
5222,817.52,0.025
5229,818.10,0.025
5236,818.69,0.025
5243,819.27,0.025
5250,819.85,0.025
5257,820.44,0.025
5264,821.02,0.025
5271,821.60,0.025
5278,822.18,0.025
5285,822.77,0.025
5292,823.36,0.025
5299,823.94,0.025
5306,824.52,0.025
5313,825.10,0.025
5320,825.69,0.025
5327,826.27,0.025
5334,826.85,0.025
5341,827.44,0.025
5348,828.02,0.025
5355,828.60,0.025
5362,829.19,0.025
5369,829.77,0.025
5376,830.35,0.025
5383,830.94,0.025
5390,831.52,0.025
5397,832.11,0.025
5404,832.68,0.025
5411,833.27,0.025
5418,833.86,0.025
5425,834.44,0.025
5432,835.02,0.025
5439,835.61,0.025
5446,836.19,0.025
5453,836.77,0.025
5460,837.35,0.025
5467,837.94,0.025
5474,838.52,0.025
5481,839.10,0.025
5488,839.69,0.025
5495,840.27,0.025
5502,840.85,0.025
5509,841.44,0.025
5516,842.02,0.025
5523,842.61,0.025
5530,843.19,0.025
5537,843.77,0.025
5544,844.35,0.025
5551,844.95,0.025
5558,845.52,0.025
5565,846.10,0.025
5572,846.69,0.025
5579,847.27,0.025
5586,847.85,0.025
5593,848.43,0.025
5600,849.02,0.025
5607,849.61,0.025
5614,850.19,0.025
5621,850.77,0.025
5628,851.36,0.025
5635,851.94,0.025
5642,852.52,0.025
5649,853.10,0.025
5656,853.68,0.025
5663,854.27,0.025
5670,854.85,0.025
5677,855.43,0.025
5684,856.02,0.024
5691,856.61,0.024
5698,857.19,0.024
5705,857.77,0.024
5712,858.36,0.024
5719,858.94,0.024
5726,859.52,0.024
5733,860.10,0.024
5740,860.68,0.024
5747,861.27,0.024
5754,861.85,0.024
5761,862.43,0.024
5768,863.02,0.024
5775,863.61,0.024
5782,864.19,0.024
5789,864.77,0.024
5796,865.35,0.024
5803,865.94,0.024
5810,866.52,0.024
5817,867.10,0.024
5824,867.69,0.024
5831,868.27,0.024
5838,868.85,0.024
5845,869.44,0.024
5852,870.02,0.024
5859,870.60,0.024
5866,871.19,0.024
5873,871.77,0.024
5880,872.35,0.024
5887,872.93,0.024
5894,873.52,0.024
5901,874.11,0.024
5908,874.69,0.024
5915,875.27,0.024
5922,875.86,0.024
5929,876.44,0.024
5936,877.03,0.024
5943,877.60,0.024
5950,878.19,0.024
5957,878.78,0.024
5964,879.35,0.024
5971,879.94,0.024
5978,880.52,0.024
5985,881.11,0.024
5992,881.68,0.024
5999,882.27,0.024
6006,882.86,0.024
6013,883.44,0.024
6020,884.02,0.024
6027,884.61,0.024
6034,885.19,0.024
6041,885.77,0.024
6048,886.36,0.024
6055,886.94,0.024
6062,887.52,0.024
6069,888.11,0.024
6076,888.69,0.024
6083,889.27,0.024
6090,889.85,0.024
6097,890.44,0.024
6104,891.02,0.024
6111,891.61,0.024
6118,892.19,0.024
6125,892.77,0.024
6132,893.36,0.024
6139,893.94,0.024
6146,894.53,0.024
6153,895.11,0.024
6160,895.69,0.024
6167,896.27,0.024
6174,896.86,0.024
6181,897.44,0.024
6188,898.03,0.024
6195,898.61,0.024
6202,899.19,0.024
6209,899.77,0.024
6216,900.36,0.024
6223,900.94,0.024
6230,901.52,0.024
6237,902.11,0.024
6244,902.69,0.024
6251,903.27,0.024
6258,903.86,0.024
6265,904.44,0.023
6272,905.02,0.023
6279,905.60,0.023
6286,906.19,0.023
6293,906.77,0.023
6300,907.36,0.023
6307,907.94,0.023
6314,908.52,0.023
6321,909.10,0.024
6328,909.69,0.024
6335,910.27,0.024
6342,910.86,0.024
6349,911.44,0.024
6356,912.02,0.024
6363,912.60,0.024
6370,913.19,0.024
6377,913.77,0.024
6384,914.36,0.024
6391,914.94,0.024
6398,915.53,0.024
6405,916.11,0.024
6412,916.68,0.024
6419,917.27,0.024
6426,917.86,0.024
6433,918.44,0.024
6440,919.03,0.024
6447,919.61,0.024
6454,920.19,0.024
6461,920.77,0.024
6468,921.36,0.024
6475,921.94,0.024
6482,922.53,0.024
6489,923.11,0.024
6496,923.69,0.024
6503,924.27,0.024
6510,924.86,0.024
6517,925.44,0.024
6524,926.02,0.024
6531,926.60,0.024
6538,927.19,0.024
6545,927.77,0.024
6552,928.36,0.024
6559,928.94,0.024
6566,929.53,0.024
6573,930.10,0.024
6580,930.69,0.024
6587,931.28,0.024
6594,931.86,0.024
6601,932.43,0.024
6608,933.02,0.024
6615,933.61,0.024
6622,934.19,0.024
6629,934.77,0.024
6636,935.35,0.024
6643,935.94,0.024
6650,936.53,0.024
6657,937.11,0.024
6664,937.69,0.024
6671,938.27,0.024
6678,938.85,0.024
6685,939.44,0.024
6692,940.03,0.024
6699,940.61,0.024
6706,941.19,0.024
6713,941.77,0.024
6720,942.35,0.024
6727,942.94,0.024
6734,943.53,0.024
6741,944.10,0.024
6748,944.69,0.024
6755,945.27,0.024
6762,945.86,0.024
6769,946.44,0.024
6776,947.02,0.024
6783,947.61,0.024
6790,948.19,0.024
6797,948.77,0.024
6804,949.36,0.024
6811,949.94,0.024
6818,950.52,0.024
6825,951.10,0.024
6832,951.69,0.024
6839,952.28,0.024
6846,952.85,0.024
6853,953.44,0.024
6860,954.03,0.024
6867,954.61,0.024
6874,955.19,0.024
6881,955.77,0.024
6888,956.36,0.024
6895,956.94,0.024
6902,957.53,0.024
6909,958.10,0.024
6916,958.69,0.024
6923,959.27,0.024
6930,959.86,0.024
6937,960.43,0.024
6944,961.02,0.024
6951,961.61,0.024
6958,962.19,0.024
6965,962.78,0.024
6972,963.36,0.024
6979,963.94,0.024
6986,964.52,0.023
6993,965.11,0.024
7000,965.69,0.024
7007,966.27,0.024
7014,966.86,0.024
7021,967.44,0.024
7028,968.03,0.024
7035,968.61,0.024
7042,969.19,0.024
7049,969.77,0.024
7056,970.36,0.024
7063,970.95,0.024
7070,971.52,0.024
7077,972.11,0.024
7084,972.69,0.024
7091,973.28,0.024
7098,973.86,0.024
7105,974.44,0.024
7112,975.02,0.024
7119,975.61,0.024
7126,976.20,0.024
7133,976.78,0.024
7140,977.36,0.024
7147,977.94,0.024
7154,978.53,0.024
7161,979.11,0.024
7168,979.69,0.024
7175,980.28,0.024
7182,980.86,0.024
7189,981.44,0.024
7196,982.02,0.024
7203,982.61,0.024
7210,983.19,0.024
7217,983.78,0.024
7224,984.35,0.024
7231,984.94,0.024
7238,985.52,0.024
7245,986.10,0.024
7252,986.69,0.024
7259,987.28,0.024
7266,987.86,0.024
7273,988.45,0.024
7280,989.02,0.024
7287,989.61,0.024
7294,990.19,0.024
7301,990.77,0.024
7308,991.36,0.024
7315,991.94,0.024
7322,992.53,0.024
7329,993.11,0.024
7336,993.69,0.024
7343,994.27,0.024
7350,994.86,0.024
7357,995.44,0.024
7364,996.02,0.024
7371,996.61,0.024
7378,997.19,0.024
7385,997.77,0.025
7392,998.36,0.024
7399,998.95,0.024
7406,999.53,0.024
7413,1000.11,0.024
7420,1000.69,0.024
7427,1001.28,0.025
7434,1001.86,0.024
7441,1002.44,0.024
7448,1003.02,0.024
7455,1003.60,0.025
7462,1004.19,0.025
7469,1004.77,0.025
7476,1005.36,0.025
7483,1005.94,0.024
7490,1006.53,0.024
7497,1007.11,0.024
7504,1007.69,0.024
7511,1008.28,0.024
7518,1008.85,0.024
7525,1009.44,0.024
7532,1010.02,0.025
7539,1010.61,0.025
7546,1011.20,0.025
7553,1011.78,0.025
7560,1012.36,0.025
7567,1012.94,0.025
7574,1013.53,0.025
7581,1014.10,0.025
7588,1014.69,0.025
7595,1015.27,0.025
7602,1015.86,0.025
7609,1016.44,0.025
7616,1017.02,0.025
7623,1017.61,0.025
7630,1018.19,0.025
7637,1018.77,0.025
7644,1019.35,0.025
7651,1019.94,0.025
7658,1020.53,0.025
7665,1021.11,0.025
7672,1021.69,0.025
7679,1022.28,0.025
7686,1022.86,0.025
7693,1023.44,0.025
7700,1024.02,0.025
7707,1024.60,0.025
7714,1025.19,0.025
7721,1025.78,0.025
7728,1026.36,0.025
7735,1026.94,0.025
7742,1027.53,0.025
7749,1028.11,0.025
7756,1028.69,0.025
7763,1029.27,0.025
7770,1029.86,0.025
7777,1030.44,0.025
7784,1031.02,0.025
7791,1031.61,0.025
7798,1032.19,0.025
7805,1032.78,0.025
7812,1033.36,0.025
7819,1033.94,0.025
7826,1034.52,0.025
7833,1035.11,0.025
7840,1035.70,0.025
7847,1036.27,0.025
7854,1036.86,0.025
7861,1037.44,0.025
7868,1038.02,0.025
7875,1038.61,0.025
7882,1039.19,0.025
7889,1039.77,0.025
7896,1040.35,0.025
7903,1040.94,0.025
7910,1041.53,0.025
7917,1042.11,0.025
7924,1042.69,0.025
7931,1043.27,0.025
7938,1043.86,0.025
7945,1044.44,0.025
7952,1045.02,0.025
7959,1045.61,0.025
7966,1046.19,0.025
7973,1046.78,0.025
7980,1047.35,0.025
7987,1047.94,0.025
7994,1048.53,0.025
8001,1049.11,0.025
8008,1049.69,0.025
8015,1050.27,0.025
8022,1050.86,0.025
8029,1051.44,0.025
8036,1052.02,0.025
8043,1052.61,0.024
8050,1053.20,0.024
8057,1053.77,0.025
8064,1054.36,0.025
8071,1054.94,0.025
8078,1055.53,0.025
8085,1056.10,0.025
8092,1056.69,0.025
8099,1057.28,0.025
8106,1057.86,0.025
8113,1058.44,0.025
8120,1059.02,0.025
8127,1059.60,0.025
8134,1060.19,0.025
8141,1060.77,0.025
8148,1061.36,0.025
8155,1061.94,0.025
8162,1062.52,0.025
8169,1063.10,0.025
8176,1063.69,0.025
8183,1064.28,0.025
8190,1064.86,0.025
8197,1065.44,0.025
8204,1066.02,0.025
8211,1066.61,0.025
8218,1067.19,0.025
8225,1067.77,0.025
8232,1068.36,0.025
8239,1068.94,0.025
8246,1069.52,0.025
8253,1070.11,0.025
8260,1070.69,0.024
8267,1071.28,0.024
8274,1071.85,0.024
8281,1072.44,0.024
8288,1073.02,0.024
8295,1073.61,0.024
8302,1074.19,0.024
8309,1074.78,0.024
8316,1075.35,0.024
8323,1075.94,0.025
8330,1076.53,0.025
8337,1077.11,0.025
8344,1077.68,0.025
8351,1078.27,0.025
8358,1078.85,0.025
8365,1079.44,0.025
8372,1080.02,0.025
8379,1080.60,0.025
8386,1081.20,0.025
8393,1081.77,0.025
8400,1082.36,0.025
8407,1082.94,0.025
8414,1083.53,0.025
8421,1084.10,0.025
8428,1084.69,0.025
8435,1085.27,0.025
8442,1085.86,0.025
8449,1086.44,0.025
8456,1087.02,0.025
8463,1087.61,0.025
8470,1088.18,0.025
8477,1088.77,0.025
8484,1089.36,0.025
8491,1089.94,0.025
8498,1090.53,0.025
8505,1091.11,0.025
8512,1091.69,0.025
8519,1092.27,0.025
8526,1092.86,0.025
8533,1093.44,0.025
8540,1094.03,0.025
8547,1094.61,0.025
8554,1095.19,0.025
8561,1095.78,0.025
8568,1096.35,0.025
8575,1096.94,0.025
8582,1097.52,0.025
8589,1098.10,0.025
8596,1098.69,0.025
8603,1099.28,0.025
8610,1099.85,0.025
8617,1100.44,0.025
8624,1101.02,0.024
8631,1101.61,0.024
8638,1102.19,0.024
8645,1102.77,0.024
8652,1103.37,0.024
8659,1103.94,0.024
8666,1104.52,0.025
8673,1105.11,0.025
8680,1105.69,0.025
8687,1106.27,0.025
8694,1106.86,0.025
8701,1107.44,0.025
8708,1108.02,0.025
8715,1108.61,0.025
8722,1109.19,0.025
8729,1109.77,0.025
8736,1110.36,0.025
8743,1110.94,0.025
8750,1111.52,0.025
8757,1112.11,0.025
8764,1112.69,0.025
8771,1113.27,0.025
8778,1113.85,0.025
8785,1114.44,0.025
8792,1115.02,0.025
8799,1115.60,0.025
8806,1116.20,0.025
8813,1116.78,0.025
8820,1117.36,0.025
8827,1117.93,0.025
8834,1118.53,0.025
8841,1119.10,0.025
8848,1119.69,0.025
8855,1120.28,0.025
8862,1120.86,0.025
8869,1121.43,0.025
8876,1122.03,0.025
8883,1122.60,0.025
8890,1123.19,0.025
8897,1123.77,0.025
8904,1124.36,0.025
8911,1124.94,0.025
8918,1125.52,0.025
8925,1126.11,0.025
8932,1126.68,0.025
8939,1127.27,0.025
8946,1127.86,0.025
8953,1128.44,0.025
8960,1129.02,0.025
8967,1129.61,0.025
8974,1130.19,0.025
8981,1130.77,0.025
8988,1131.36,0.025
8995,1131.94,0.025
9002,1132.52,0.025
9009,1133.10,0.025
9016,1133.69,0.025
9023,1134.27,0.025
9030,1134.85,0.024
9037,1135.44,0.024
9044,1136.02,0.024
9051,1136.60,0.025
9058,1137.19,0.024
9065,1137.77,0.024
9072,1138.35,0.024
9079,1138.95,0.024
9086,1139.52,0.024
9093,1140.11,0.024
9100,1140.70,0.024
9107,1141.27,0.024
9114,1141.86,0.024
9121,1142.44,0.024
9128,1143.02,0.024
9135,1143.61,0.024
9142,1144.19,0.024
9149,1144.76,0.024
9156,1145.36,0.024
9163,1145.94,0.024
9170,1146.51,0.024
9177,1147.11,0.024
9184,1147.69,0.024
9191,1148.26,0.024
9198,1148.86,0.024
9205,1149.44,0.024
9212,1150.02,0.024
9219,1150.60,0.024
9226,1151.18,0.024
9233,1151.78,0.024
9240,1152.35,0.024
9247,1152.94,0.024
9254,1153.52,0.024
9261,1154.11,0.024
9268,1154.69,0.024
9275,1155.27,0.024
9282,1155.86,0.024
9289,1156.44,0.023
9296,1157.02,0.023
9303,1157.61,0.023
9310,1158.19,0.023
9317,1158.77,0.023
9324,1159.35,0.023
9331,1159.93,0.023
9338,1160.52,0.023
9345,1161.10,0.023
9352,1161.68,0.023
9359,1162.28,0.023
9366,1162.85,0.023
9373,1163.44,0.023
9380,1164.02,0.023
9387,1164.61,0.023
9394,1165.19,0.023
9401,1165.77,0.023
9408,1166.36,0.023
9415,1166.93,0.023
9422,1167.52,0.023
9429,1168.10,0.023
9436,1168.69,0.023
9443,1169.27,0.023
9450,1169.86,0.023
9457,1170.44,0.023
9464,1171.02,0.023
9471,1171.60,0.023
9478,1172.19,0.023
9479,1172.27,0.023