File: Wood/Calibration_Data/IMT/IMT-Mines-Ales_TGA_N2_20K_R1.csv
Time (s),Sample Temperature (K),Weight (mg)
0,383.15,5.110
4,383.15,5.110
8,383.15,5.111
12,383.44,5.111
16,384.42,5.112
20,385.48,5.113
24,386.59,5.114
28,387.72,5.114
32,388.89,5.114
36,390.06,5.114
40,391.27,5.114
44,392.50,5.114
48,393.73,5.113
52,394.99,5.113
56,396.26,5.113
60,397.55,5.113
64,398.84,5.113
68,400.14,5.113
72,401.45,5.113
76,402.76,5.113
80,404.09,5.113
84,405.41,5.113
88,406.74,5.112
92,408.07,5.112
96,409.40,5.112
100,410.74,5.112
104,412.09,5.112
108,413.42,5.112
112,414.78,5.111
116,416.11,5.111
120,417.46,5.111
124,418.80,5.111
128,420.16,5.110
132,421.51,5.110
136,422.86,5.110
140,424.21,5.110
144,425.55,5.109
148,426.91,5.109
152,428.24,5.109
156,429.60,5.108
160,430.93,5.108
164,432.28,5.107
168,433.62,5.107
172,434.97,5.107
176,436.32,5.106
180,437.65,5.106
184,439.00,5.105
188,440.34,5.105
192,441.68,5.104
196,443.03,5.103
200,444.38,5.102
204,445.72,5.102
208,447.06,5.101
212,448.40,5.100
216,449.75,5.099
220,451.09,5.098
224,452.45,5.097
228,453.78,5.097
232,455.13,5.095
236,456.47,5.094
240,457.82,5.093
244,459.15,5.092
248,460.50,5.090
252,461.85,5.089
256,463.19,5.087
260,464.54,5.086
264,465.88,5.084
268,467.22,5.083
272,468.57,5.081
276,469.91,5.079
280,471.26,5.077
284,472.60,5.075
288,473.95,5.073
292,475.29,5.070
296,476.63,5.068
300,477.98,5.065
304,479.32,5.063
308,480.66,5.060
312,482.01,5.057
316,483.36,5.054
320,484.70,5.051
324,486.04,5.048
328,487.39,5.045
332,488.73,5.041
336,490.08,5.038
340,491.42,5.034
344,492.77,5.030
348,494.11,5.026
352,495.45,5.022
356,496.80,5.018
360,498.14,5.014
364,499.48,5.009
368,500.83,5.005
372,502.18,5.000
376,503.51,4.996
380,504.86,4.991
384,506.20,4.986
388,507.54,4.981
392,508.89,4.976
396,510.24,4.971
400,511.58,4.965
404,512.92,4.960
408,514.26,4.954
412,515.61,4.949
416,516.95,4.943
420,518.30,4.937
424,519.64,4.931
428,520.99,4.924
432,522.32,4.918
436,523.67,4.911
440,525.02,4.905
444,526.36,4.898
448,527.70,4.890
452,529.04,4.882
456,530.39,4.875
460,531.73,4.867
464,533.08,4.858
468,534.43,4.849
472,535.77,4.840
476,537.11,4.831
480,538.46,4.821
484,539.80,4.811
488,541.15,4.801
492,542.48,4.790
496,543.83,4.778
500,545.18,4.767
504,546.52,4.754
508,547.86,4.742
512,549.20,4.729
516,550.55,4.716
520,551.89,4.703
524,553.24,4.690
528,554.58,4.676
532,555.92,4.662
536,557.27,4.648
540,558.61,4.633
544,559.95,4.617
548,561.29,4.602
552,562.65,4.586
556,563.99,4.570
560,565.32,4.554
564,566.67,4.537
568,568.02,4.521
572,569.35,4.504
576,570.70,4.487
580,572.05,4.469
584,573.38,4.451
588,574.74,4.434
592,576.08,4.416
596,577.42,4.397
600,578.77,4.379
604,580.11,4.360
608,581.45,4.341
612,582.80,4.322
616,584.14,4.303
620,585.48,4.283
624,586.83,4.264
628,588.17,4.244
632,589.52,4.224
636,590.86,4.204
640,592.20,4.184
644,593.55,4.163
648,594.89,4.143
652,596.23,4.122
656,597.58,4.100
660,598.92,4.079
664,600.27,4.056
668,601.61,4.034
672,602.95,4.011
676,604.29,3.987
680,605.64,3.964
684,606.98,3.939
688,608.32,3.915
692,609.67,3.889
696,611.02,3.863
700,612.35,3.837
704,613.71,3.810
708,615.05,3.783
712,616.39,3.754
716,617.73,3.725
720,619.08,3.696
724,620.42,3.665
728,621.76,3.634
732,623.10,3.603
736,624.45,3.571
740,625.79,3.538
744,627.14,3.505
748,628.48,3.471
752,629.83,3.436
756,631.17,3.401
760,632.51,3.365
764,633.86,3.328
768,635.20,3.291
772,636.53,3.254
776,637.88,3.215
780,639.23,3.177
784,640.58,3.137
788,641.91,3.098
792,643.26,3.057
796,644.60,3.016
800,645.94,2.974
804,647.29,2.932
808,648.64,2.889
812,649.97,2.845
816,651.32,2.801
820,652.66,2.756
824,654.01,2.710
828,655.35,2.664
832,656.70,2.617
836,658.05,2.569
840,659.38,2.521
844,660.73,2.472
848,662.07,2.422
852,663.42,2.372
856,664.77,2.322
860,666.11,2.271
864,667.45,2.220
868,668.79,2.169
872,670.13,2.118
876,671.48,2.067
880,672.82,2.016
884,674.16,1.966
888,675.51,1.917
892,676.86,1.868
896,678.20,1.820
900,679.54,1.774
904,680.89,1.729
908,682.24,1.685
912,683.57,1.642
916,684.92,1.601
920,686.26,1.561
924,687.61,1.524
928,688.95,1.488
932,690.30,1.454
936,691.63,1.423
940,692.99,1.393
944,694.32,1.365
948,695.67,1.340
952,697.02,1.316
956,698.36,1.295
960,699.70,1.275
964,701.03,1.258
968,702.37,1.242
972,703.70,1.228
976,705.04,1.216
980,706.37,1.205
984,707.71,1.197
988,709.03,1.189
992,710.37,1.182
996,711.71,1.176
1000,713.04,1.170
1004,714.37,1.164
1008,715.71,1.159
1012,717.04,1.155
1016,718.37,1.150
1020,719.70,1.146
1024,721.03,1.141
1028,722.37,1.137
1032,723.70,1.133
1036,725.04,1.129
1040,726.37,1.125
1044,727.71,1.121
1048,729.04,1.117
1052,730.37,1.113
1056,731.70,1.109
1060,733.04,1.106
1064,734.37,1.102
1068,735.71,1.098
1072,737.04,1.095
1076,738.37,1.091
1080,739.70,1.087
1084,741.04,1.084
1088,742.37,1.080
1092,743.70,1.077
1096,745.04,1.073
1100,746.36,1.070
1104,747.70,1.066
1108,749.04,1.063
1112,750.37,1.059
1116,751.70,1.056
1120,753.04,1.053
1124,754.37,1.049
1128,755.71,1.046
1132,757.04,1.043
1136,758.37,1.040
1140,759.71,1.037
1144,761.04,1.034
1148,762.38,1.030
1152,763.71,1.027
1156,765.04,1.024
1160,766.37,1.021
1164,767.71,1.018
1168,769.04,1.015
1172,770.37,1.012
1176,771.71,1.010
1180,773.04,1.007
1184,774.37,1.004
1188,775.71,1.002
1192,777.05,0.999
1196,778.37,0.997
1200,779.71,0.994
1204,781.04,0.992
1208,782.38,0.989
1212,783.71,0.987
1216,785.04,0.985
1220,786.37,0.982
1224,787.71,0.980
1228,789.04,0.978
1232,790.38,0.976
1236,791.71,0.973
1240,793.04,0.971
1244,794.37,0.969
1248,795.71,0.967
1252,797.05,0.965
1256,798.37,0.963
1260,799.71,0.961
1264,801.04,0.959
1268,802.37,0.957
1272,803.71,0.955
1276,805.04,0.953
1280,806.38,0.952
1284,807.71,0.950
1288,809.04,0.948
1292,810.38,0.946
1296,811.71,0.945
1300,813.04,0.943
1304,814.38,0.942
1308,815.71,0.940
1312,817.04,0.938
1316,818.38,0.937
1320,819.71,0.935
1324,821.05,0.934
1328,822.38,0.932
1332,823.71,0.930
1336,825.04,0.929
1340,826.38,0.927
1344,827.71,0.926
1348,829.04,0.924
1352,830.37,0.923
1356,831.72,0.921
1360,833.05,0.920
1364,834.38,0.918
1368,835.72,0.917
1372,837.05,0.915
1376,838.39,0.914
1380,839.71,0.912
1384,841.05,0.911
1388,842.39,0.910
1392,843.71,0.908
1396,845.05,0.907
1400,846.38,0.906
1404,847.72,0.904
1408,849.05,0.903
1412,850.39,0.901
1416,851.72,0.900
1420,853.06,0.899
1424,854.38,0.897
1428,855.72,0.896
1432,857.05,0.895
1436,858.38,0.894
1440,859.71,0.892
1444,861.05,0.891
1448,862.39,0.890
1452,863.72,0.888
1456,865.06,0.887
1460,866.38,0.886
1464,867.72,0.885
1468,869.05,0.883
1472,870.39,0.882
1476,871.72,0.881
1480,873.05,0.880
1484,874.39,0.879
1488,875.72,0.877
1492,877.06,0.876
1496,878.39,0.875
1500,879.72,0.874
1504,881.05,0.872
1508,882.39,0.871
1512,883.72,0.870
1516,885.06,0.869
1520,886.39,0.868
1524,887.72,0.867
1528,889.06,0.866
1532,890.39,0.865
1536,891.72,0.863
1540,893.06,0.862
1544,894.39,0.861
1548,895.72,0.860
1552,897.06,0.859
1556,898.40,0.858
1560,899.72,0.857
1564,901.06,0.856
1568,902.39,0.855
1572,903.73,0.854
1576,905.07,0.853
1580,906.39,0.852
1584,907.72,0.851
1588,909.07,0.850
1592,910.40,0.849
1596,911.74,0.847
1600,913.06,0.846
1604,914.40,0.845
1608,915.72,0.844
1612,917.06,0.843
1616,918.40,0.842
1620,919.73,0.841
1624,921.06,0.840
1628,922.39,0.838
1632,923.73,0.837
1636,925.06,0.836
1640,926.40,0.835
1644,927.74,0.834
1648,929.07,0.833
1652,930.40,0.832
1656,931.73,0.831
1660,933.06,0.830
1664,934.40,0.829
1668,935.73,0.828
1672,937.06,0.827
1676,938.40,0.826
1680,939.73,0.826
1684,941.06,0.825
1688,942.40,0.824
1692,943.73,0.823
1696,945.07,0.822
1700,946.40,0.821
1704,947.73,0.820
1708,949.06,0.819
1712,950.40,0.818
1716,951.73,0.817
1720,953.07,0.816
1724,954.40,0.815
1728,955.73,0.814
1732,957.07,0.813
1736,958.40,0.812
1740,959.74,0.811
1744,961.07,0.810
1748,962.40,0.809
1752,963.73,0.808
1756,965.06,0.807
1760,966.39,0.806
1764,967.73,0.805
1768,969.07,0.805
1772,970.40,0.804
1776,971.73,0.803
1780,973.06,0.802
1784,974.40,0.802
1788,975.73,0.801
1792,977.07,0.800
1796,978.40,0.799
1800,979.73,0.799
1804,981.06,0.798
1808,982.40,0.797
1812,983.73,0.796
1816,985.07,0.796
1820,986.40,0.795
1824,987.73,0.794
1828,989.07,0.794
1832,990.40,0.793
1836,991.74,0.792
1840,993.07,0.792
1844,994.40,0.791
1848,995.74,0.791
1852,997.07,0.790
1856,998.40,0.790
1860,999.74,0.789
1864,1001.07,0.789
1868,1002.40,0.788
1872,1003.73,0.788
1876,1005.06,0.787
1880,1006.40,0.786
1884,1007.74,0.786
1888,1009.07,0.785
1892,1010.39,0.785
1896,1011.74,0.784
1900,1013.07,0.783
1904,1014.40,0.782
1908,1015.74,0.782
1912,1017.07,0.781
1916,1018.40,0.780
1920,1019.73,0.779
1924,1021.06,0.779
1928,1022.40,0.778
1932,1023.73,0.778
1936,1025.06,0.777
1940,1026.40,0.776
1944,1027.73,0.776
1948,1029.06,0.775
1952,1030.40,0.775
1956,1031.73,0.774
1960,1033.07,0.774
1964,1034.40,0.773
1968,1035.73,0.772
1972,1037.07,0.772
1976,1038.41,0.771
1980,1039.74,0.771
1984,1041.06,0.770
1988,1042.40,0.770
1992,1043.73,0.769
1996,1045.06,0.769
2000,1046.40,0.768
2004,1047.73,0.768
2008,1049.06,0.767
2012,1050.39,0.767
2016,1051.73,0.766
2020,1053.07,0.766
2024,1054.40,0.765
2028,1055.73,0.765
2032,1057.07,0.764
2036,1058.40,0.764
2040,1059.74,0.763
2044,1061.07,0.762
2048,1062.39,0.762
2052,1063.73,0.761
2056,1065.06,0.761
2060,1066.39,0.760
2064,1067.73,0.760
2068,1069.06,0.760
2072,1070.40,0.759
2076,1071.73,0.759
2080,1073.06,0.758
2084,1074.40,0.757
2088,1075.73,0.757
2092,1077.06,0.756
2096,1078.39,0.756
2100,1079.72,0.755
2104,1081.06,0.755
2108,1082.39,0.754
2112,1083.73,0.754
2116,1085.06,0.753
2120,1086.39,0.753
2124,1087.73,0.752
2128,1089.06,0.751
2132,1090.40,0.751
2136,1091.73,0.750
2140,1093.06,0.750
2144,1094.40,0.749
2148,1095.73,0.749
2152,1097.06,0.748
2156,1098.40,0.748
2160,1099.73,0.747
2164,1101.06,0.747
2168,1102.39,0.746
2172,1103.72,0.746
2176,1105.06,0.745
2180,1106.40,0.745
2184,1107.72,0.744
2188,1109.06,0.743
2192,1110.39,0.743
2196,1111.72,0.743
2200,1113.06,0.742
2204,1114.39,0.742
2208,1115.72,0.741
2212,1117.06,0.741
2216,1118.39,0.740
2220,1119.73,0.740
2224,1121.05,0.739
2228,1122.40,0.739
2232,1123.72,0.738
2236,1125.05,0.738
2240,1126.40,0.737
2244,1127.73,0.737
2248,1129.06,0.736
2252,1130.40,0.736
2256,1131.73,0.735
2260,1133.06,0.735
2264,1134.39,0.734
2268,1135.73,0.734
2272,1137.05,0.733
2276,1138.39,0.733
2280,1139.73,0.732
2284,1141.06,0.732
2288,1142.38,0.731
2292,1143.72,0.730
2296,1145.05,0.730
2300,1146.39,0.729
2304,1147.72,0.729
2308,1149.05,0.728
2312,1150.40,0.728
2316,1151.73,0.727
2320,1153.05,0.727
2324,1154.39,0.726
2328,1155.72,0.726
2332,1157.06,0.725
2336,1158.39,0.725
2340,1159.72,0.724
2344,1161.06,0.724
2348,1162.39,0.723
2352,1163.71,0.723
2356,1165.05,0.722
2360,1166.39,0.721
2364,1167.72,0.721
2368,1169.06,0.720
2376,777.49,0.950
2380,778.16,0.950
2384,778.83,0.950
2388,779.49,0.950
2392,780.16,0.950
2396,780.82,0.950
2400,781.49,0.950
2404,782.15,0.950
2408,782.82,0.950
2412,783.49,0.940
2416,784.16,0.940
2420,784.83,0.940
2424,785.49,0.940
2428,786.16,0.940
2432,786.83,0.940
2436,787.49,0.940
2440,788.16,0.940
2444,788.82,0.940
2448,789.49,0.940
2452,790.16,0.940
2456,790.83,0.930
2460,791.49,0.930
2464,792.16,0.930
2468,792.82,0.930
2472,793.50,0.930
2476,794.16,0.930
2480,794.83,0.930
2484,795.49,0.930
2488,796.16,0.930
2492,796.83,0.930
2496,797.49,0.930
2500,798.16,0.930
2504,798.82,0.920
2508,799.49,0.920
2512,800.15,0.920
2516,800.83,0.920
2520,801.49,0.920
2524,802.16,0.920
2528,802.83,0.920
2532,803.50,0.920
2536,804.16,0.920
2540,804.83,0.920
2544,805.49,0.920
2548,806.16,0.920
2552,806.82,0.910
2556,807.49,0.910
2560,808.15,0.910
2564,808.83,0.910
2568,809.49,0.910
2572,810.16,0.910
2576,810.82,0.910
2580,811.49,0.910
2584,812.16,0.910
2588,812.82,0.910
2592,813.50,0.910
2596,814.15,0.910
2600,814.83,0.910
2604,815.49,0.900
2608,816.16,0.900
2612,816.83,0.900
2616,817.49,0.900
2620,818.16,0.900
2624,818.82,0.900
2628,819.49,0.900
2632,820.16,0.900
2636,820.83,0.900
2640,821.49,0.900
2644,822.16,0.900
2648,822.83,0.900
2652,823.49,0.900
2656,824.16,0.900
2660,824.83,0.890
2664,825.49,0.890
2668,826.16,0.890
2672,826.83,0.890
2676,827.50,0.890
2680,828.16,0.890
2684,828.83,0.890
2688,829.49,0.890
2692,830.16,0.890
2696,830.83,0.890
2700,831.49,0.890
2704,832.16,0.890
2708,832.83,0.890
2712,833.49,0.890
2716,834.16,0.890
2720,834.83,0.880
2724,835.49,0.880
2728,836.16,0.880
2732,836.82,0.880
2736,837.49,0.880
2740,838.16,0.880
2744,838.82,0.880
2748,839.49,0.880
2752,840.16,0.880
2756,840.82,0.880
2760,841.49,0.880
2764,842.17,0.880
2768,842.83,0.880
2772,843.50,0.880
2776,844.16,0.880
2780,844.83,0.870
2784,845.49,0.870
2788,846.16,0.870
2792,846.83,0.870
2796,847.49,0.870
2800,848.16,0.870
2804,848.83,0.870
2808,849.49,0.870
2812,850.16,0.870
2816,850.83,0.870
2820,851.49,0.870
2824,852.16,0.870
2828,852.83,0.870
2832,853.50,0.870
2836,854.16,0.870
2840,854.83,0.860
2844,855.49,0.860
2848,856.16,0.860
2852,856.83,0.860
2856,857.50,0.860
2860,858.17,0.860
2864,858.83,0.860
2868,859.49,0.860
2872,860.16,0.860
2876,860.83,0.860
2880,861.50,0.860
2884,862.16,0.860
2888,862.83,0.860
2892,863.50,0.860
2896,864.17,0.860
2900,864.83,0.860
2904,865.50,0.860
2908,866.16,0.850
2912,866.83,0.850
2916,867.49,0.850
2920,868.16,0.850
2924,868.82,0.850
2928,869.50,0.850
2932,870.16,0.850
2936,870.83,0.850
2940,871.50,0.850
2944,872.16,0.850
2948,872.84,0.850
2952,873.49,0.850
2956,874.16,0.850
2960,874.83,0.850
2964,875.50,0.850
2968,876.17,0.850
2972,876.83,0.840
2976,877.50,0.840
2980,878.16,0.840
2984,878.83,0.840
2988,879.50,0.840
2992,880.17,0.840
2996,880.83,0.840
3000,881.50,0.840
3004,882.17,0.840
3008,882.83,0.840
3012,883.49,0.840
3016,884.16,0.840
3020,884.83,0.840
3024,885.50,0.840
3028,886.17,0.840
3032,886.83,0.840
3036,887.50,0.840
3040,888.17,0.840
3044,888.83,0.830
3048,889.50,0.830
3052,890.16,0.830
3056,890.83,0.830
3060,891.50,0.830
3064,892.17,0.830
3068,892.83,0.830
3072,893.50,0.830
3076,894.17,0.830
3080,894.83,0.830
3084,895.50,0.830
3088,896.16,0.830
3092,896.83,0.830
3096,897.50,0.830
3100,898.17,0.830
3104,898.83,0.830
3108,899.50,0.830
3112,900.17,0.830
3116,900.83,0.820
3120,901.50,0.820
3124,902.17,0.820
3128,902.83,0.820
3132,903.50,0.820
3136,904.16,0.820
3140,904.83,0.820
3144,905.50,0.820
3148,906.17,0.820
3152,906.83,0.820
3156,907.50,0.820
3160,908.17,0.820
3164,908.83,0.820
3168,909.50,0.820
3172,910.16,0.820
3176,910.83,0.820
3180,911.50,0.820
3184,912.17,0.820
3188,912.83,0.810
3192,913.50,0.810
3196,914.16,0.810
3200,914.83,0.810
3204,915.50,0.810
3208,916.17,0.810
3212,916.84,0.810
3216,917.50,0.810
3220,918.17,0.810
3224,918.83,0.810
3228,919.50,0.810
3232,920.17,0.810
3236,920.83,0.810
3240,921.50,0.810
3244,922.17,0.810
3248,922.83,0.810
3252,923.50,0.810
3256,924.17,0.810
3260,924.83,0.810
3264,925.50,0.810
3268,926.17,0.800
3272,926.83,0.800
3276,927.50,0.800
3280,928.17,0.800
3284,928.83,0.800
3288,929.50,0.800
3292,930.17,0.800
3296,930.83,0.800
3300,931.50,0.800
3304,932.17,0.800
3308,932.83,0.800
3312,933.50,0.800
3316,934.17,0.800
3320,934.83,0.800
3324,935.50,0.800
3328,936.17,0.800
3332,936.84,0.800
3336,937.50,0.800
3340,938.17,0.800
3344,938.83,0.800
3348,939.51,0.800
3352,940.16,0.800
3356,940.84,0.790
3360,941.50,0.790
3364,942.18,0.790
3368,942.83,0.790
3372,943.50,0.790
3376,944.17,0.790
3380,944.84,0.790
3384,945.51,0.790
3388,946.17,0.790
3392,946.84,0.790
3396,947.50,0.790
3400,948.17,0.790
3404,948.83,0.790
3408,949.50,0.790
3412,950.17,0.790
3416,950.84,0.790
3420,951.50,0.790
3424,952.17,0.790
3428,952.83,0.790
3432,953.50,0.790
3436,954.17,0.790
3440,954.83,0.790
3444,955.50,0.790
3448,956.17,0.790
3452,956.84,0.780
3456,957.51,0.780
3460,958.17,0.780
3464,958.83,0.780
3468,959.50,0.780
3472,960.16,0.780
3476,960.83,0.780
3480,961.50,0.780
3484,962.17,0.780
3488,962.83,0.780
3492,963.51,0.780
3496,964.17,0.780
3500,964.84,0.780
3504,965.50,0.780
3508,966.17,0.780
3512,966.84,0.780
3516,967.51,0.780
3520,968.17,0.780
3524,968.84,0.780
3528,969.50,0.780
3532,970.17,0.780
3536,970.84,0.780
3540,971.50,0.780
3544,972.17,0.780
3548,972.84,0.780
3552,973.50,0.780
3556,974.17,0.780
3560,974.84,0.770
3564,975.50,0.770
3568,976.17,0.770
3572,976.84,0.770
3576,977.50,0.770
3580,978.17,0.770
3584,978.84,0.770
3588,979.50,0.770
3592,980.17,0.770
3596,980.84,0.770
3600,981.51,0.770
3604,982.17,0.770
3608,982.84,0.770
3612,983.50,0.770
3616,984.17,0.770
3620,984.83,0.770
3624,985.50,0.770
3628,986.17,0.770
3632,986.84,0.770
3636,987.50,0.770
3640,988.17,0.770
3644,988.83,0.770
3648,989.51,0.770
3652,990.17,0.770
3656,990.83,0.770
3660,991.50,0.770
3664,992.17,0.770
3668,992.83,0.770
3672,993.50,0.770
3676,994.17,0.770
3680,994.84,0.760
3684,995.50,0.760
3688,996.17,0.760
3692,996.84,0.760
3696,997.50,0.760
3700,998.17,0.760
3704,998.84,0.760
3708,999.50,0.760
3712,1000.17,0.760
3716,1000.84,0.760
3720,1001.51,0.760
3724,1002.17,0.760
3728,1002.84,0.760
3732,1003.50,0.760
3736,1004.17,0.760
3740,1004.83,0.760
3744,1005.50,0.760
3748,1006.17,0.760
3752,1006.84,0.760
3756,1007.51,0.760
3760,1008.17,0.760
3764,1008.84,0.760
3768,1009.51,0.760
3772,1010.17,0.760
3776,1010.84,0.760
3780,1011.51,0.760
3784,1012.17,0.760
3788,1012.84,0.760
3792,1013.50,0.760
3796,1014.17,0.760
3800,1014.84,0.760
3804,1015.50,0.760
3808,1016.17,0.750
3812,1016.84,0.750
3816,1017.50,0.750
3820,1018.17,0.750
3824,1018.84,0.750
3828,1019.51,0.750
3832,1020.17,0.750
3836,1020.83,0.750
3840,1021.50,0.750
3844,1022.17,0.750
3848,1022.84,0.750
3852,1023.50,0.750
3856,1024.17,0.750
3860,1024.84,0.750
3864,1025.50,0.750
3868,1026.17,0.750
3872,1026.83,0.750
3876,1027.51,0.750
3880,1028.17,0.750
3884,1028.83,0.750
3888,1029.50,0.750
3892,1030.18,0.750
3896,1030.84,0.750
3900,1031.50,0.750
3904,1032.18,0.750
3908,1032.83,0.750
3912,1033.51,0.750
3916,1034.17,0.750
3920,1034.84,0.750
3924,1035.50,0.750
3928,1036.17,0.750
3932,1036.84,0.750
3936,1037.50,0.750
3940,1038.17,0.750
3944,1038.83,0.750
3948,1039.50,0.750
3952,1040.17,0.740
3956,1040.84,0.740
3960,1041.51,0.740
3964,1042.18,0.740
3968,1042.84,0.740
3972,1043.50,0.740
3976,1044.17,0.740
3980,1044.84,0.740
3984,1045.50,0.740
3988,1046.17,0.740
3992,1046.83,0.740
3996,1047.50,0.740
4000,1048.17,0.740
4004,1048.83,0.740
4008,1049.50,0.740
4012,1050.17,0.740
4016,1050.84,0.740
4020,1051.50,0.740
4024,1052.17,0.740
4028,1052.84,0.740
4032,1053.51,0.740
4036,1054.17,0.740
4040,1054.84,0.740
4044,1055.50,0.740
4048,1056.17,0.740
4052,1056.83,0.740
4056,1057.50,0.740
4060,1058.17,0.740
4064,1058.83,0.740
4068,1059.49,0.740
4072,1060.17,0.740
4076,1060.83,0.740
4080,1061.50,0.740
4084,1062.17,0.740
4088,1062.84,0.740
4092,1063.51,0.740
4096,1064.17,0.740
4100,1064.84,0.730
4104,1065.51,0.730
4108,1066.18,0.730
4112,1066.84,0.730
4116,1067.51,0.730
4120,1068.17,0.730
4124,1068.83,0.730
4128,1069.49,0.730
4132,1070.17,0.730
4136,1070.84,0.730
4140,1071.50,0.730
4144,1072.17,0.730
4148,1072.83,0.730
4152,1073.50,0.730
4156,1074.16,0.730
4160,1074.84,0.730
4164,1075.50,0.730
4168,1076.17,0.730
4172,1076.84,0.730
4176,1077.50,0.730
4180,1078.16,0.730
4184,1078.83,0.730
4188,1079.50,0.730
4192,1080.16,0.730
4196,1080.83,0.730
4200,1081.50,0.730
4204,1082.18,0.730
4208,1082.84,0.730
4212,1083.50,0.730
4216,1084.17,0.730
4220,1084.83,0.730
4224,1085.50,0.730
4228,1086.17,0.730
4232,1086.83,0.730
4236,1087.50,0.730
4240,1088.16,0.730
4244,1088.83,0.730
4248,1089.50,0.730
4252,1090.17,0.730
4256,1090.83,0.720
4260,1091.50,0.720
4264,1092.16,0.720
4268,1092.83,0.720
4272,1093.49,0.720
4276,1094.17,0.720
4280,1094.83,0.720
4284,1095.51,0.720
4288,1096.17,0.720
4292,1096.84,0.720
4296,1097.49,0.720
4300,1098.17,0.720
4304,1098.84,0.720
4308,1099.50,0.720
4312,1100.17,0.720
4316,1100.83,0.720
4320,1101.49,0.720
4324,1102.17,0.720
4328,1102.84,0.720
4332,1103.50,0.720
4336,1104.17,0.720
4340,1104.83,0.720
4344,1105.49,0.720
4348,1106.16,0.720
4352,1106.83,0.720
4356,1107.50,0.720
4360,1108.17,0.720
4364,1108.83,0.720
4368,1109.50,0.720
4372,1110.17,0.720
4376,1110.84,0.720
4380,1111.50,0.720
4384,1112.16,0.720
4388,1112.84,0.720
4392,1113.51,0.720
4396,1114.17,0.720
4400,1114.83,0.720
4404,1115.50,0.720
4408,1116.16,0.720
4412,1116.84,0.710
4416,1117.50,0.710
4420,1118.17,0.710
4424,1118.83,0.710
4428,1119.50,0.710
4432,1120.17,0.710
4436,1120.83,0.710
4440,1121.50,0.710
4444,1122.17,0.710
4448,1122.83,0.710
4452,1123.49,0.710
4456,1124.16,0.710
4460,1124.83,0.710
4464,1125.50,0.710
4468,1126.16,0.710
4472,1126.83,0.710
4476,1127.51,0.710
4480,1128.16,0.710
4484,1128.83,0.710
4488,1129.50,0.710
4492,1130.16,0.710
4496,1130.84,0.710
4500,1131.50,0.710
4504,1132.16,0.710
4508,1132.83,0.710
4512,1133.50,0.710
4516,1134.17,0.710
4520,1134.84,0.710
4524,1135.50,0.710
4528,1136.16,0.710
4532,1136.82,0.710
4536,1137.50,0.710
4540,1138.17,0.710
4544,1138.83,0.710
4548,1139.49,0.710
4552,1140.16,0.710
4556,1140.84,0.710
4560,1141.50,0.700
4564,1142.16,0.700
4568,1142.84,0.700
4572,1143.50,0.700
4576,1144.17,0.700
4580,1144.83,0.700
4584,1145.50,0.700
4588,1146.16,0.700
4592,1146.84,0.700
4596,1147.50,0.700
4600,1148.16,0.700
4604,1148.83,0.700
4608,1149.50,0.700
4612,1150.17,0.700
4616,1150.83,0.700
4620,1151.50,0.700
4624,1152.16,0.700
4628,1152.83,0.700
4632,1153.50,0.700
4636,1154.16,0.700
4640,1154.83,0.700
4644,1155.49,0.700
4648,1156.17,0.700
4652,1156.83,0.700
4656,1157.50,0.700
4660,1158.16,0.700
4664,1158.83,0.700
4668,1159.49,0.700
4672,1160.16,0.700
4676,1160.83,0.700
4680,1161.49,0.700
4684,1162.17,0.700
4688,1162.82,0.700
4692,1163.50,0.700
4696,1164.17,0.690
4700,1164.83,0.690
4704,1165.50,0.690
4708,1166.16,0.690
4712,1166.82,0.690
4716,1167.49,0.690
4720,1168.15,0.690
4724,1168.83,0.690
4728,1169.50,0.690
4732,1170.16,0.690
4736,1170.83,0.690
4739,1171.32,0.690