File: Wood/Calibration_Data/IMT/IMT_Wood_TGA_O2-20_2K_R1.csv
Time (s),Temperature (K),Mass (mg)
0,383,4.993
41,384,4.993
72,385,4.993
103,386,4.993
133,387,4.993
163,388,4.992
193,389,4.992
223,390,4.992
253,391,4.992
283,392,4.992
313,393,4.991
343,394,4.991
373,395,4.991
403,396,4.991
433,397,4.99
462,398,4.99
492,399,4.99
522,400,4.989
553,401,4.989
582,402,4.989
612,403,4.988
642,404,4.988
672,405,4.987
702,406,4.987
732,407,4.987
762,408,4.986
792,409,4.986
822,410,4.985
852,411,4.984
882,412,4.984
912,413,4.983
942,414,4.983
972,415,4.982
1002,416,4.981
1032,417,4.981
1062,418,4.98
1092,419,4.979
1122,420,4.978
1152,421,4.977
1182,422,4.977
1211,423,4.976
1242,424,4.975
1271,425,4.974
1302,426,4.973
1331,427,4.972
1361,428,4.971
1391,429,4.969
1421,430,4.968
1451,431,4.967
1481,432,4.966
1511,433,4.964
1541,434,4.963
1571,435,4.962
1601,436,4.96
1631,437,4.959
1661,438,4.958
1691,439,4.956
1721,440,4.954
1751,441,4.953
1781,442,4.951
1811,443,4.949
1841,444,4.948
1871,445,4.946
1901,446,4.944
1931,447,4.942
1961,448,4.94
1991,449,4.939
2021,450,4.937
2051,451,4.935
2081,452,4.933
2111,453,4.931
2141,454,4.929
2171,455,4.927
2201,456,4.924
2231,457,4.922
2261,458,4.92
2291,459,4.917
2321,460,4.915
2351,461,4.913
2381,462,4.91
2411,463,4.908
2441,464,4.905
2470,465,4.902
2500,466,4.899
2531,467,4.897
2560,468,4.894
2590,469,4.89
2620,470,4.888
2650,471,4.884
2680,472,4.881
2710,473,4.878
2740,474,4.874
2770,475,4.871
2800,476,4.867
2830,477,4.863
2860,478,4.86
2890,479,4.855
2920,480,4.852
2950,481,4.847
2980,482,4.843
3010,483,4.839
3040,484,4.834
3070,485,4.829
3100,486,4.825
3130,487,4.82
3160,488,4.815
3190,489,4.81
3220,490,4.805
3250,491,4.799
3280,492,4.794
3310,493,4.788
3340,494,4.782
3370,495,4.776
3400,496,4.769
3430,497,4.763
3460,498,4.756
3490,499,4.749
3519,500,4.743
3550,501,4.735
3580,502,4.728
3609,503,4.721
3640,504,4.712
3670,505,4.704
3700,506,4.696
3730,507,4.688
3760,508,4.679
3790,509,4.67
3819,510,4.661
3849,511,4.652
3879,512,4.642
3909,513,4.633
3939,514,4.623
3969,515,4.613
3999,516,4.602
4029,517,4.592
4059,518,4.581
4089,519,4.57
4119,520,4.559
4149,521,4.547
4179,522,4.536
4209,523,4.524
4239,524,4.512
4269,525,4.5
4299,526,4.487
4329,527,4.474
4359,528,4.461
4389,529,4.448
4419,530,4.434
4449,531,4.421
4479,532,4.407
4509,533,4.392
4539,534,4.378
4569,535,4.363
4599,536,4.348
4629,537,4.332
4659,538,4.316
4689,539,4.3
4719,540,4.283
4749,541,4.266
4779,542,4.249
4809,543,4.231
4838,544,4.213
4869,545,4.194
4899,546,4.175
4929,547,4.155
4959,548,4.135
4989,549,4.115
5018,550,4.095
5049,551,4.072
5079,552,4.05
5108,553,4.028
5139,554,4.004
5168,555,3.981
5198,556,3.956
5228,557,3.931
5258,558,3.905
5288,559,3.878
5318,560,3.849
5348,561,3.823
5378,562,3.792
5408,563,3.761
5438,564,3.733
5468,565,3.701
5498,566,3.668
5528,567,3.633
5558,568,3.599
5588,569,3.562
5618,570,3.524
5648,571,3.486
5678,572,3.448
5708,573,3.406
5738,574,3.364
5768,575,3.32
5798,576,3.275
5828,577,3.227
5858,578,3.177
5888,579,3.126
5918,580,3.071
5948,581,3.012
5978,582,2.951
6008,583,2.887
6038,584,2.819
6068,585,2.747
6098,586,2.672
6128,587,2.594
6158,588,2.515
6188,589,2.437
6218,590,2.359
6247,591,2.288
6278,592,2.216
6307,593,2.153
6338,594,2.092
6367,595,2.041
6397,596,1.994
6427,597,1.951
6457,598,1.913
6487,599,1.879
6517,600,1.848
6547,601,1.819
6577,602,1.793
6607,603,1.768
6637,604,1.745
6667,605,1.723
6697,606,1.702
6727,607,1.683
6757,608,1.664
6787,609,1.645
6817,610,1.628
6847,611,1.611
6877,612,1.595
6907,613,1.579
6937,614,1.564
6967,615,1.549
6997,616,1.535
7027,617,1.521
7057,618,1.508
7087,619,1.495
7117,620,1.482
7147,621,1.469
7177,622,1.457
7207,623,1.445
7237,624,1.433
7267,625,1.421
7297,626,1.409
7327,627,1.398
7357,628,1.387
7387,629,1.376
7417,630,1.365
7447,631,1.354
7477,632,1.343
7507,633,1.333
7536,634,1.323
7567,635,1.312
7596,636,1.302
7627,637,1.292
7657,638,1.282
7686,639,1.272
7717,640,1.262
7746,641,1.253
7777,642,1.243
7806,643,1.233
7836,644,1.223
7866,645,1.214
7896,646,1.204
7926,647,1.195
7956,648,1.185
7986,649,1.175
8016,650,1.166
8046,651,1.156
8076,652,1.147
8106,653,1.137
8136,654,1.128
8166,655,1.118
8196,656,1.109
8226,657,1.099
8256,658,1.089
8286,659,1.08
8316,660,1.07
8346,661,1.06
8376,662,1.05
8406,663,1.04
8436,664,1.03
8466,665,1.02
8496,666,1.01
8526,667,1
8556,668,0.99
8586,669,0.979
8616,670,0.969
8645,671,0.959
8676,672,0.948
8706,673,0.937
8736,674,0.926
8766,675,0.915
8796,676,0.904
8826,677,0.893
8855,678,0.882
8886,679,0.87
8916,680,0.859
8945,681,0.847
8976,682,0.835
9006,683,0.823
9035,684,0.811
9065,685,0.799
9096,686,0.786
9125,687,0.774
9155,688,0.762
9185,689,0.749
9215,690,0.736
9245,691,0.723
9275,692,0.709
9305,693,0.696
9335,694,0.683
9365,695,0.669
9395,696,0.655
9425,697,0.642
9455,698,0.628
9485,699,0.614
9515,700,0.6
9545,701,0.586
9575,702,0.572
9605,703,0.558
9635,704,0.543
9665,705,0.529
9695,706,0.515
9725,707,0.5
9755,708,0.486
9785,709,0.471
9815,710,0.456
9845,711,0.441
9875,712,0.426
9905,713,0.411
9935,714,0.396
9965,715,0.381
9995,716,0.365
10025,717,0.35
10055,718,0.334
10085,719,0.319
10115,720,0.303
10145,721,0.287
10175,722,0.271
10205,723,0.255
10235,724,0.239
10265,725,0.222
10295,726,0.206
10325,727,0.19
10355,728,0.174
10385,729,0.158
10415,730,0.142
10445,731,0.124
10475,732,0.11
10505,733,0.096
10535,734,0.082
10565,735,0.069
10595,736,0.057
10625,737,0.046
10655,738,0.038
10685,739,0.03
10715,740,0.024
10745,741,0.02
10775,742,0.017
10805,743,0.014
10835,744,0.012
10865,745,0.011
10895,746,0.011
10925,747,0.01
10955,748,0.009
10985,749,0.009
11015,750,0.009
11045,751,0.008
11075,752,0.008
11105,753,0.008
11135,754,0.008
11165,755,0.007
11195,756,0.007
11225,757,0.007
11255,758,0.007
11285,759,0.007
11315,760,0.006
11345,761,0.006
11375,762,0.006
11405,763,0.006
11435,764,0.005
11465,765,0.005
11495,766,0.005
11525,767,0.005
11555,768,0.005
11585,769,0.004
11615,770,0.004
11645,771,0.004
11675,772,0.004
11705,773,0.004
11735,774,0.003
11765,775,0.003
11795,776,0.003
11825,777,0.003
11855,778,0.003
11885,779,0.003
11915,780,0.003
11945,781,0.003
11975,782,0.002
12005,783,0.002
12035,784,0.002
12065,785,0.002
12095,786,0.002
12125,787,0.002
12155,788,0.002
12185,789,0.002
12215,790,0.002
12245,791,0.002
12275,792,0.002
12305,793,0.002
12335,794,0.002
12365,795,0.001
12395,796,0.001
12425,797,0.001
12455,798,0.001
12485,799,0.001
12515,800,0.001
12545,801,0.001
12575,802,0.001
12605,803,0.001
12635,804,0.001
12665,805,0.001
12695,806,0.001
12725,807,0.001
12755,808,0.001
12785,809,0.001
12815,810,0.001
12845,811,0.001
12875,812,0.001
12905,813,0
12935,814,0
12965,815,0
12995,816,0
13025,817,0
13055,818,0
13085,819,0
13115,820,0
13145,821,0
13175,822,0
13205,823,0
13235,824,0
13265,825,0
13295,826,0
13325,827,0
13355,828,0
13385,829,0
13415,830,0
13445,831,-0.001
13475,832,-0.001
13505,833,0
13535,834,-0.001
13565,835,-0.001
13595,836,-0.001
13625,837,-0.001
13655,838,-0.001
13685,839,-0.001
13715,840,-0.001
13745,841,-0.001
13775,842,-0.001
13805,843,-0.001
13835,844,-0.001
13865,845,-0.001
13895,846,-0.001
13925,847,-0.001
13955,848,-0.001
13985,849,-0.001
14015,850,-0.001
14045,851,-0.002
14075,852,-0.002
14105,853,-0.002
14135,854,-0.002
14165,855,-0.002
14195,856,-0.002
14225,857,-0.002
14255,858,-0.002
14285,859,-0.002
14315,860,-0.002
14345,861,-0.002
14375,862,-0.002
14405,863,-0.002
14435,864,-0.002
14465,865,-0.002
14495,866,-0.002
14525,867,-0.002
14555,868,-0.002
14585,869,-0.002
14615,870,-0.002
14645,871,-0.002
14675,872,-0.002
14705,873,-0.003
14735,874,-0.002
14765,875,-0.003
14795,876,-0.003
14825,877,-0.003
14855,878,-0.003
14885,879,-0.003
14915,880,-0.003
14945,881,-0.003
14975,882,-0.003
15005,883,-0.003
15035,884,-0.003
15065,885,-0.003
15095,886,-0.003
15125,887,-0.003
15155,888,-0.003
15185,889,-0.003
15215,890,-0.003
15245,891,-0.003
15275,892,-0.003
15305,893,-0.003
15335,894,-0.003
15365,895,-0.003
15395,896,-0.003
15425,897,-0.003
15455,898,-0.004
15485,899,-0.004
15515,900,-0.003
15545,901,-0.004
15575,902,-0.003
15605,903,-0.004
15635,904,-0.004
15665,905,-0.004
15695,906,-0.004
15725,907,-0.004
15755,908,-0.004
15785,909,-0.004
15815,910,-0.004
15845,911,-0.004
15875,912,-0.004
15905,913,-0.004
15935,914,-0.004
15965,915,-0.004
15995,916,-0.004
16025,917,-0.004
16055,918,-0.004
16085,919,-0.004
16115,920,-0.004
16145,921,-0.004
16175,922,-0.004
16205,923,-0.004
16235,924,-0.004
16265,925,-0.004
16295,926,-0.004
16325,927,-0.004
16355,928,-0.004
16385,929,-0.004
16415,930,-0.004
16445,931,-0.004
16475,932,-0.004
16505,933,-0.004
16535,934,-0.004
16565,935,-0.004
16595,936,-0.004
16625,937,-0.004
16655,938,-0.005
16685,939,-0.005
16715,940,-0.005
16745,941,-0.005
16775,942,-0.005
16805,943,-0.005
16835,944,-0.005
16865,945,-0.005
16895,946,-0.005
16925,947,-0.005
16955,948,-0.005
16985,949,-0.005
17015,950,-0.005
17045,951,-0.005
17075,952,-0.005
17105,953,-0.005
17135,954,-0.005
17165,955,-0.005
17195,956,-0.005
17225,957,-0.005
17255,958,-0.005
17285,959,-0.005
17315,960,-0.005
17345,961,-0.005
17375,962,-0.005
17405,963,-0.005
17435,964,-0.005
17465,965,-0.005
17495,966,-0.005
17525,967,-0.005
17555,968,-0.005
17585,969,-0.005
17615,970,-0.005
17645,971,-0.005
17675,972,-0.006
17705,973,-0.006
17735,974,-0.006
17765,975,-0.006
17795,976,-0.006
17825,977,-0.006
17855,978,-0.006
17885,979,-0.006
17915,980,-0.006
17945,981,-0.006
17975,982,-0.006
18005,983,-0.006
18035,984,-0.006
18065,985,-0.006
18095,986,-0.006
18125,987,-0.006
18155,988,-0.006
18185,989,-0.006
18215,990,-0.006
18245,991,-0.006
18275,992,-0.006
18305,993,-0.006
18335,994,-0.006
18365,995,-0.006
18395,996,-0.006
18425,997,-0.006
18455,998,-0.006
18485,999,-0.006
18515,1000,-0.006
18545,1001,-0.006
18575,1002,-0.006
18605,1003,-0.006
18635,1004,-0.006
18665,1005,-0.006
18695,1006,-0.006
18725,1007,-0.006
18755,1008,-0.006
18785,1009,-0.006
18815,1010,-0.006
18845,1011,-0.006
18875,1012,-0.006
18905,1013,-0.006
18935,1014,-0.006
18965,1015,-0.006
18995,1016,-0.006
19025,1017,-0.006
19055,1018,-0.006
19085,1019,-0.006
19115,1020,-0.007
19145,1021,-0.006
19175,1022,-0.007
19205,1023,-0.007
19235,1024,-0.007
19265,1025,-0.007
19295,1026,-0.007
19325,1027,-0.007
19355,1028,-0.007
19385,1029,-0.007
19415,1030,-0.007
19445,1031,-0.007
19475,1032,-0.007
19505,1033,-0.007
19535,1034,-0.007
19565,1035,-0.007
19595,1036,-0.007
19625,1037,-0.007
19655,1038,-0.007
19685,1039,-0.007
19715,1040,-0.007
19745,1041,-0.007
19775,1042,-0.007
19805,1043,-0.007
19835,1044,-0.007
19865,1045,-0.007
19895,1046,-0.007
19925,1047,-0.007
19955,1048,-0.007
19985,1049,-0.007
20015,1050,-0.007
20045,1051,-0.007
20075,1052,-0.007
20105,1053,-0.007
20135,1054,-0.007
20165,1055,-0.007
20195,1056,-0.007
20225,1057,-0.007
20255,1058,-0.007
20285,1059,-0.007
20315,1060,-0.007
20345,1061,-0.007
20375,1062,-0.007
20405,1063,-0.007
20435,1064,-0.007
20465,1065,-0.007
20495,1066,-0.008
20525,1067,-0.007
20555,1068,-0.007
20585,1069,-0.007
20615,1070,-0.008
20645,1071,-0.007
20675,1072,-0.007
20705,1073,-0.007
20735,1074,-0.007
20765,1075,-0.007
20795,1076,-0.007
20825,1077,-0.007
20855,1078,-0.007
20885,1079,-0.007
20915,1080,-0.007
20945,1081,-0.008
20975,1082,-0.007
21005,1083,-0.008
21035,1084,-0.008
21065,1085,-0.008
21095,1086,-0.008
21125,1087,-0.008
21155,1088,-0.008
21185,1089,-0.008
21215,1090,-0.008
21245,1091,-0.008
21275,1092,-0.008
21305,1093,-0.008
21335,1094,-0.008
21365,1095,-0.008
21395,1096,-0.008
21425,1097,-0.008
21455,1098,-0.008
21485,1099,-0.008
21515,1100,-0.008
21545,1101,-0.008
21575,1102,-0.008
21605,1103,-0.008
21635,1104,-0.008
21665,1105,-0.008
21695,1106,-0.008
21725,1107,-0.008
21755,1108,-0.008
21785,1109,-0.008
21815,1110,-0.008
21845,1111,-0.008
21875,1112,-0.008
21905,1113,-0.008
21935,1114,-0.008
21965,1115,-0.009
21995,1116,-0.009
22025,1117,-0.009
22055,1118,-0.009
22085,1119,-0.009
22115,1120,-0.009
22145,1121,-0.009
22175,1122,-0.009
22205,1123,-0.009
22235,1124,-0.009
22265,1125,-0.009
22295,1126,-0.009
22325,1127,-0.009
22355,1128,-0.009
22385,1129,-0.009
22415,1130,-0.009
22445,1131,-0.009
22475,1132,-0.009
22505,1133,-0.009
22535,1134,-0.01
22565,1135,-0.01
22595,1136,-0.01
22625,1137,-0.01
22655,1138,-0.01
22685,1139,-0.01
22715,1140,-0.01
22745,1141,-0.01
22775,1142,-0.01
22805,1143,-0.01
22835,1144,-0.01
22865,1145,-0.01
22895,1146,-0.01
22925,1147,-0.01
22955,1148,-0.01
22985,1149,-0.01
23015,1150,-0.011
23045,1151,-0.011
23075,1152,-0.011
23105,1153,-0.011
23135,1154,-0.011
23165,1155,-0.011
23195,1156,-0.011
23225,1157,-0.011
23255,1158,-0.011
23285,1159,-0.011
23315,1160,-0.012
23345,1161,-0.012
23375,1162,-0.012
23405,1163,-0.012
23435,1164,-0.012
23465,1165,-0.012
23495,1166,-0.012
23525,1167,-0.012
23555,1168,-0.012
23585,1169,-0.012
23615,1170,-0.012
23645,1171,-0.012
23675,1172,-0.012
23699,1173,-0.013