File: Wood/Calibration_Data/IMT/IMT_Wood_TGA_O2-20_20K_R1.csv
Time (s),Temperature (K),Mass (mg)
0,383,4.299
13,384,4.3
17,385,4.301
21,386,4.301
24,387,4.301
28,388,4.302
31,389,4.302
34,390,4.302
38,391,4.302
41,392,4.302
44,393,4.302
47,394,4.302
51,395,4.302
54,396,4.302
57,397,4.302
60,398,4.302
63,399,4.301
66,400,4.301
69,401,4.301
72,402,4.301
75,403,4.301
78,404,4.301
81,405,4.301
84,406,4.301
87,407,4.301
90,408,4.301
93,409,4.3
96,410,4.3
99,411,4.3
102,412,4.3
105,413,4.3
108,414,4.3
111,415,4.3
114,416,4.299
117,417,4.299
120,418,4.299
123,419,4.299
126,420,4.299
129,421,4.299
132,422,4.298
135,423,4.298
138,424,4.298
141,425,4.298
144,426,4.298
147,427,4.297
150,428,4.297
153,429,4.297
156,430,4.296
159,431,4.296
162,432,4.296
165,433,4.295
168,434,4.295
171,435,4.295
174,436,4.294
177,437,4.294
180,438,4.294
183,439,4.293
186,440,4.293
189,441,4.292
192,442,4.292
195,443,4.291
198,444,4.291
201,445,4.29
203,446,4.29
206,447,4.289
209,448,4.288
212,449,4.288
215,450,4.287
218,451,4.286
221,452,4.285
224,453,4.285
227,454,4.284
230,455,4.283
233,456,4.282
236,457,4.281
239,458,4.28
242,459,4.279
245,460,4.278
248,461,4.277
251,462,4.276
254,463,4.275
257,464,4.274
260,465,4.273
263,466,4.272
266,467,4.271
269,468,4.269
272,469,4.268
275,470,4.267
278,471,4.265
281,472,4.264
284,473,4.263
287,474,4.261
290,475,4.259
293,476,4.258
296,477,4.256
299,478,4.254
302,479,4.253
305,480,4.251
308,481,4.249
311,482,4.247
314,483,4.245
317,484,4.243
320,485,4.241
323,486,4.239
325,487,4.237
328,488,4.235
331,489,4.233
334,490,4.23
337,491,4.228
340,492,4.225
343,493,4.223
346,494,4.22
349,495,4.218
352,496,4.215
355,497,4.212
358,498,4.209
361,499,4.206
364,500,4.203
367,501,4.2
370,502,4.197
373,503,4.193
376,504,4.19
379,505,4.187
382,506,4.183
385,507,4.18
388,508,4.177
391,509,4.173
394,510,4.169
397,511,4.166
400,512,4.162
403,513,4.158
406,514,4.154
409,515,4.15
412,516,4.146
415,517,4.142
418,518,4.137
421,519,4.133
424,520,4.128
427,521,4.124
430,522,4.119
433,523,4.114
436,524,4.109
439,525,4.104
442,526,4.099
445,527,4.093
448,528,4.087
450,529,4.083
453,530,4.078
456,531,4.071
459,532,4.065
462,533,4.059
465,534,4.052
468,535,4.045
471,536,4.038
474,537,4.031
477,538,4.024
480,539,4.016
483,540,4.008
486,541,4
489,542,3.992
492,543,3.984
495,544,3.975
498,545,3.966
501,546,3.957
504,547,3.948
507,548,3.939
510,549,3.929
513,550,3.919
516,551,3.91
519,552,3.9
522,553,3.889
525,554,3.879
528,555,3.868
531,556,3.858
534,557,3.847
537,558,3.836
540,559,3.824
543,560,3.813
546,561,3.801
549,562,3.789
552,563,3.777
555,564,3.765
558,565,3.752
561,566,3.74
564,567,3.727
567,568,3.714
570,569,3.701
573,570,3.687
575,571,3.678
579,572,3.66
581,573,3.65
584,574,3.636
587,575,3.622
590,576,3.607
593,577,3.592
596,578,3.577
599,579,3.562
602,580,3.546
605,581,3.53
608,582,3.514
611,583,3.498
614,584,3.481
617,585,3.464
620,586,3.447
623,587,3.429
626,588,3.411
629,589,3.393
632,590,3.375
635,591,3.355
638,592,3.336
641,593,3.316
644,594,3.296
647,595,3.275
650,596,3.253
653,597,3.232
656,598,3.209
659,599,3.186
662,600,3.163
665,601,3.139
668,602,3.114
671,603,3.089
674,604,3.063
677,605,3.037
680,606,3.01
683,607,2.982
686,608,2.953
689,609,2.924
692,610,2.894
695,611,2.863
698,612,2.832
701,613,2.799
704,614,2.766
706,615,2.743
709,616,2.707
712,617,2.671
715,618,2.633
718,619,2.594
721,620,2.553
724,621,2.511
727,622,2.467
730,623,2.421
733,624,2.372
736,625,2.321
739,626,2.268
742,627,2.212
745,628,2.154
748,629,2.094
751,630,2.032
754,631,1.968
757,632,1.904
760,633,1.841
763,634,1.779
766,635,1.719
769,636,1.663
772,637,1.611
775,638,1.565
778,639,1.525
781,640,1.492
784,641,1.463
787,642,1.439
790,643,1.417
793,644,1.399
796,645,1.382
799,646,1.366
802,647,1.352
805,648,1.338
808,649,1.325
811,650,1.313
814,651,1.301
817,652,1.29
820,653,1.28
823,654,1.269
826,655,1.26
829,656,1.25
832,657,1.241
835,658,1.232
837,659,1.226
840,660,1.217
843,661,1.209
846,662,1.201
849,663,1.193
852,664,1.185
855,665,1.177
858,666,1.169
861,667,1.162
864,668,1.154
867,669,1.147
870,670,1.139
873,671,1.132
876,672,1.125
879,673,1.118
882,674,1.111
885,675,1.104
888,676,1.097
891,677,1.09
894,678,1.083
897,679,1.076
900,680,1.069
903,681,1.063
906,682,1.056
909,683,1.05
912,684,1.043
915,685,1.036
918,686,1.03
921,687,1.023
924,688,1.016
927,689,1.01
930,690,1.003
933,691,0.996
936,692,0.99
939,693,0.983
942,694,0.976
945,695,0.97
948,696,0.963
951,697,0.956
954,698,0.949
957,699,0.942
960,700,0.935
963,701,0.929
966,702,0.922
969,703,0.915
972,704,0.908
975,705,0.901
978,706,0.894
981,707,0.887
984,708,0.88
987,709,0.873
990,710,0.866
993,711,0.858
996,712,0.851
999,713,0.844
1002,714,0.837
1005,715,0.83
1008,716,0.823
1011,717,0.815
1014,718,0.808
1017,719,0.8
1020,720,0.793
1023,721,0.785
1026,722,0.778
1029,723,0.77
1032,724,0.762
1035,725,0.754
1038,726,0.746
1041,727,0.738
1044,728,0.73
1047,729,0.721
1050,730,0.713
1053,731,0.704
1056,732,0.696
1059,733,0.687
1062,734,0.678
1065,735,0.669
1068,736,0.66
1071,737,0.65
1074,738,0.641
1077,739,0.632
1080,740,0.622
1083,741,0.612
1086,742,0.603
1089,743,0.593
1092,744,0.583
1095,745,0.573
1098,746,0.563
1101,747,0.553
1104,748,0.543
1107,749,0.532
1110,750,0.522
1113,751,0.512
1116,752,0.502
1119,753,0.491
1122,754,0.481
1125,755,0.471
1128,756,0.46
1131,757,0.45
1134,758,0.439
1137,759,0.429
1140,760,0.418
1143,761,0.408
1146,762,0.397
1149,763,0.386
1152,764,0.375
1155,765,0.364
1158,766,0.353
1161,767,0.341
1164,768,0.33
1167,769,0.318
1170,770,0.306
1173,771,0.293
1175,772,0.285
1179,773,0.268
1182,774,0.254
1185,775,0.239
1187,776,0.23
1191,777,0.212
1193,778,0.201
1198,779,0.029
1199,780,0.02
1203,781,0.018
1206,782,0.018
1209,783,0.019
1212,784,0.017
1215,785,0.016
1218,786,0.015
1221,787,0.015
1224,788,0.014
1227,789,0.014
1230,790,0.014
1233,791,0.014
1236,792,0.013
1239,793,0.013
1242,794,0.013
1245,795,0.013
1248,796,0.013
1251,797,0.013
1253,798,0.013
1257,799,0.012
1260,800,0.012
1262,801,0.012
1265,802,0.012
1269,803,0.012
1272,804,0.012
1275,805,0.012
1278,806,0.012
1281,807,0.012
1283,808,0.012
1287,809,0.012
1290,810,0.012
1293,811,0.012
1295,812,0.012
1299,813,0.012
1302,814,0.012
1305,815,0.011
1308,816,0.011
1310,817,0.011
1314,818,0.011
1317,819,0.011
1320,820,0.011
1322,821,0.011
1326,822,0.011
1328,823,0.011
1331,824,0.011
1334,825,0.011
1338,826,0.011
1340,827,0.011
1344,828,0.011
1346,829,0.011
1350,830,0.011
1352,831,0.011
1355,832,0.011
1358,833,0.011
1361,834,0.01
1365,835,0.01
1368,836,0.01
1370,837,0.01
1374,838,0.01
1376,839,0.01
1379,840,0.01
1383,841,0.01
1385,842,0.01
1388,843,0.01
1391,844,0.01
1394,845,0.01
1397,846,0.01
1400,847,0.01
1404,848,0.01
1406,849,0.01
1409,850,0.01
1412,851,0.01
1415,852,0.01
1418,853,0.01
1422,854,0.009
1424,855,0.009
1427,856,0.009
1430,857,0.009
1433,858,0.009
1436,859,0.009
1439,860,0.009
1442,861,0.009
1445,862,0.009
1448,863,0.009
1451,864,0.009
1454,865,0.009
1457,866,0.009
1460,867,0.009
1463,868,0.009
1466,869,0.009
1469,870,0.009
1472,871,0.009
1475,872,0.009
1478,873,0.008
1481,874,0.008
1484,875,0.008
1487,876,0.008
1490,877,0.008
1493,878,0.008
1496,879,0.008
1499,880,0.008
1502,881,0.008
1505,882,0.008
1508,883,0.008
1511,884,0.008
1514,885,0.008
1517,886,0.008
1520,887,0.008
1523,888,0.008
1526,889,0.008
1529,890,0.008
1532,891,0.008
1535,892,0.008
1538,893,0.008
1541,894,0.007
1544,895,0.007
1547,896,0.007
1550,897,0.007
1553,898,0.007
1556,899,0.007
1559,900,0.007
1562,901,0.007
1565,902,0.007
1568,903,0.007
1571,904,0.007
1574,905,0.007
1577,906,0.007
1580,907,0.007
1583,908,0.007
1586,909,0.007
1589,910,0.007
1592,911,0.007
1595,912,0.007
1598,913,0.006
1601,914,0.006
1604,915,0.006
1607,916,0.006
1610,917,0.006
1613,918,0.006
1616,919,0.006
1619,920,0.006
1622,921,0.006
1625,922,0.006
1628,923,0.006
1631,924,0.006
1634,925,0.006
1637,926,0.006
1640,927,0.006
1643,928,0.006
1646,929,0.006
1649,930,0.006
1652,931,0.006
1655,932,0.006
1658,933,0.006
1661,934,0.006
1664,935,0.006
1667,936,0.006
1670,937,0.006
1673,938,0.005
1676,939,0.005
1679,940,0.005
1682,941,0.005
1685,942,0.005
1688,943,0.005
1691,944,0.005
1694,945,0.005
1697,946,0.005
1700,947,0.005
1703,948,0.005
1706,949,0.005
1709,950,0.005
1712,951,0.005
1715,952,0.005
1718,953,0.005
1721,954,0.005
1724,955,0.005
1727,956,0.005
1730,957,0.005
1733,958,0.005
1736,959,0.005
1739,960,0.005
1742,961,0.005
1745,962,0.005
1748,963,0.005
1751,964,0.005
1754,965,0.004
1757,966,0.004
1760,967,0.004
1763,968,0.004
1766,969,0.004
1769,970,0.004
1772,971,0.004
1775,972,0.004
1778,973,0.004
1781,974,0.004
1784,975,0.004
1787,976,0.004
1790,977,0.004
1793,978,0.004
1796,979,0.004
1799,980,0.004
1802,981,0.004
1805,982,0.004
1808,983,0.004
1811,984,0.004
1814,985,0.004
1817,986,0.003
1820,987,0.003
1823,988,0.003
1826,989,0.003
1829,990,0.003
1832,991,0.003
1835,992,0.003
1838,993,0.003
1841,994,0.003
1844,995,0.003
1847,996,0.003
1850,997,0.003
1853,998,0.003
1856,999,0.003
1859,1000,0.003
1862,1001,0.003
1865,1002,0.003
1868,1003,0.003
1871,1004,0.003
1874,1005,0.003
1877,1006,0.003
1880,1007,0.003
1883,1008,0.003
1886,1009,0.003
1889,1010,0.003
1892,1011,0.003
1895,1012,0.003
1898,1013,0.003
1901,1014,0.003
1904,1015,0.003
1907,1016,0.003
1910,1017,0.003
1913,1018,0.002
1916,1019,0.002
1919,1020,0.002
1922,1021,0.002
1925,1022,0.002
1928,1023,0.002
1931,1024,0.002
1934,1025,0.002
1937,1026,0.002
1940,1027,0.002
1943,1028,0.002
1946,1029,0.002
1949,1030,0.002
1952,1031,0.002
1955,1032,0.002
1958,1033,0.002
1961,1034,0.002
1964,1035,0.002
1967,1036,0.002
1970,1037,0.002
1973,1038,0.002
1976,1039,0.002
1979,1040,0.002
1982,1041,0.002
1985,1042,0.002
1988,1043,0.002
1991,1044,0.002
1994,1045,0.002
1997,1046,0.002
2000,1047,0.002
2003,1048,0.002
2006,1049,0.002
2009,1050,0.001
2012,1051,0.001
2015,1052,0.001
2018,1053,0.001
2021,1054,0.001
2024,1055,0.001
2027,1056,0.001
2030,1057,0.001
2033,1058,0.001
2036,1059,0.001
2039,1060,0.001
2042,1061,0.001
2045,1062,0.001
2048,1063,0.001
2051,1064,0.001
2054,1065,0.001
2057,1066,0.001
2060,1067,0.001
2063,1068,0.001
2066,1069,0.001
2069,1070,0.001
2072,1071,0.001
2075,1072,0.001
2078,1073,0.001
2081,1074,0.001
2084,1075,0
2087,1076,0
2090,1077,0
2093,1078,0
2096,1079,0
2099,1080,0
2102,1081,0
2105,1082,0
2108,1083,0
2111,1084,0
2114,1085,0
2117,1086,0
2120,1087,0
2123,1088,0
2126,1089,-0.001
2129,1090,-0.001
2132,1091,-0.001
2135,1092,-0.001
2138,1093,-0.001
2141,1094,-0.001
2144,1095,-0.001
2147,1096,-0.001
2150,1097,-0.001
2153,1098,-0.001
2156,1099,-0.001
2159,1100,-0.001
2162,1101,-0.001
2165,1102,-0.001
2168,1103,-0.001
2171,1104,-0.001
2174,1105,-0.001
2177,1106,-0.002
2180,1107,-0.002
2183,1108,-0.002
2186,1109,-0.002
2189,1110,-0.002
2192,1111,-0.002
2195,1112,-0.002
2198,1113,-0.002
2201,1114,-0.002
2204,1115,-0.002
2207,1116,-0.002
2210,1117,-0.002
2213,1118,-0.002
2216,1119,-0.002
2219,1120,-0.002
2222,1121,-0.002
2225,1122,-0.002
2228,1123,-0.002
2231,1124,-0.002
2234,1125,-0.003
2237,1126,-0.003
2240,1127,-0.003
2243,1128,-0.003
2246,1129,-0.003
2249,1130,-0.003
2252,1131,-0.003
2255,1132,-0.003
2258,1133,-0.003
2261,1134,-0.003
2264,1135,-0.003
2267,1136,-0.003
2270,1137,-0.003
2273,1138,-0.003
2276,1139,-0.003
2279,1140,-0.003
2282,1141,-0.003
2285,1142,-0.003
2288,1143,-0.004
2291,1144,-0.004
2294,1145,-0.004
2297,1146,-0.004
2300,1147,-0.004
2303,1148,-0.004
2306,1149,-0.004
2309,1150,-0.004
2312,1151,-0.004
2315,1152,-0.004
2318,1153,-0.004
2321,1154,-0.004
2324,1155,-0.004
2327,1156,-0.005
2330,1157,-0.005
2333,1158,-0.005
2336,1159,-0.005
2339,1160,-0.005
2342,1161,-0.005
2345,1162,-0.005
2348,1163,-0.005
2351,1164,-0.005
2354,1165,-0.005
2357,1166,-0.005
2360,1167,-0.005
2363,1168,-0.005
2366,1169,-0.005
2369,1170,-0.006