File: Wood/Calibration_Data/IMT/IMT_Wood_TGA_O2-20_10K_R1.csv
Time (s),Temperature (K),Mass (mg)
0,383,5.006
17,384,5.007
24,385,5.008
31,386,5.008
38,387,5.008
44,388,5.008
51,389,5.008
57,390,5.008
63,391,5.008
69,392,5.008
75,393,5.008
81,394,5.007
88,395,5.007
94,396,5.007
100,397,5.007
106,398,5.007
112,399,5.007
118,400,5.007
124,401,5.007
130,402,5.007
136,403,5.007
142,404,5.007
148,405,5.006
154,406,5.006
159,407,5.006
165,408,5.006
171,409,5.006
177,410,5.006
183,411,5.005
189,412,5.005
195,413,5.005
201,414,5.005
207,415,5.005
213,416,5.004
219,417,5.004
225,418,5.004
231,419,5.004
237,420,5.003
243,421,5.003
249,422,5.003
255,423,5.002
261,424,5.002
267,425,5.002
273,426,5.001
279,427,5.001
285,428,5
291,429,5
297,430,4.999
303,431,4.999
309,432,4.998
315,433,4.998
321,434,4.997
326,435,4.997
332,436,4.996
339,437,4.996
344,438,4.995
350,439,4.994
356,440,4.994
362,441,4.993
368,442,4.992
374,443,4.992
380,444,4.991
386,445,4.99
392,446,4.989
398,447,4.989
404,448,4.988
410,449,4.987
416,450,4.986
422,451,4.985
428,452,4.984
434,453,4.983
440,454,4.982
446,455,4.981
452,456,4.979
458,457,4.978
464,458,4.977
470,459,4.976
476,460,4.974
482,461,4.973
488,462,4.971
494,463,4.97
500,464,4.969
506,465,4.967
512,466,4.965
518,467,4.964
524,468,4.962
530,469,4.96
536,470,4.959
542,471,4.957
548,472,4.955
554,473,4.953
560,474,4.951
566,475,4.949
572,476,4.947
578,477,4.945
583,478,4.943
589,479,4.941
595,480,4.939
601,481,4.937
607,482,4.934
613,483,4.932
619,484,4.929
625,485,4.927
631,486,4.924
637,487,4.922
643,488,4.919
649,489,4.915
655,490,4.912
661,491,4.909
667,492,4.905
673,493,4.902
679,494,4.899
685,495,4.896
691,496,4.893
697,497,4.889
703,498,4.886
709,499,4.882
715,500,4.879
721,501,4.875
727,502,4.871
733,503,4.867
739,504,4.863
745,505,4.859
751,506,4.855
757,507,4.851
763,508,4.846
769,509,4.841
775,510,4.836
781,511,4.832
787,512,4.827
793,513,4.821
799,514,4.815
805,515,4.811
811,516,4.806
817,517,4.801
823,518,4.795
829,519,4.789
834,520,4.784
840,521,4.778
846,522,4.771
852,523,4.764
858,524,4.757
864,525,4.75
870,526,4.742
876,527,4.734
882,528,4.727
888,529,4.719
894,530,4.71
900,531,4.702
906,532,4.692
912,533,4.683
918,534,4.673
924,535,4.664
930,536,4.654
936,537,4.644
942,538,4.634
948,539,4.624
954,540,4.613
960,541,4.602
966,542,4.591
972,543,4.579
978,544,4.568
984,545,4.557
990,546,4.545
996,547,4.533
1002,548,4.52
1008,549,4.507
1014,550,4.494
1020,551,4.481
1026,552,4.467
1032,553,4.454
1038,554,4.44
1044,555,4.426
1050,556,4.411
1056,557,4.397
1062,558,4.382
1068,559,4.367
1074,560,4.352
1080,561,4.336
1086,562,4.321
1092,563,4.305
1097,564,4.291
1103,565,4.275
1109,566,4.258
1115,567,4.241
1121,568,4.223
1127,569,4.206
1133,570,4.188
1139,571,4.17
1145,572,4.151
1151,573,4.132
1157,574,4.113
1163,575,4.093
1169,576,4.073
1175,577,4.053
1181,578,4.032
1187,579,4.011
1193,580,3.989
1199,581,3.966
1205,582,3.943
1211,583,3.92
1217,584,3.896
1223,585,3.871
1229,586,3.846
1235,587,3.82
1241,588,3.793
1247,589,3.766
1253,590,3.738
1259,591,3.709
1265,592,3.68
1271,593,3.649
1277,594,3.618
1283,595,3.585
1289,596,3.552
1295,597,3.518
1301,598,3.483
1307,599,3.447
1313,600,3.409
1319,601,3.371
1325,602,3.331
1331,603,3.289
1337,604,3.247
1343,605,3.202
1349,606,3.156
1354,607,3.116
1360,608,3.066
1366,609,3.013
1372,610,2.958
1378,611,2.899
1384,612,2.838
1390,613,2.773
1396,614,2.704
1402,615,2.632
1408,616,2.556
1414,617,2.477
1420,618,2.396
1426,619,2.315
1432,620,2.235
1438,621,2.157
1444,622,2.084
1450,623,2.016
1456,624,1.955
1462,625,1.902
1468,626,1.855
1474,627,1.814
1480,628,1.779
1486,629,1.748
1492,630,1.72
1498,631,1.696
1504,632,1.674
1510,633,1.654
1516,634,1.635
1522,635,1.619
1528,636,1.603
1534,637,1.588
1540,638,1.573
1546,639,1.56
1552,640,1.546
1558,641,1.534
1564,642,1.521
1570,643,1.509
1576,644,1.498
1582,645,1.486
1588,646,1.475
1594,647,1.465
1600,648,1.454
1606,649,1.444
1612,650,1.434
1617,651,1.425
1623,652,1.415
1629,653,1.406
1635,654,1.396
1641,655,1.387
1647,656,1.378
1653,657,1.369
1659,658,1.359
1665,659,1.351
1671,660,1.342
1677,661,1.333
1683,662,1.324
1689,663,1.315
1695,664,1.307
1701,665,1.298
1707,666,1.29
1713,667,1.282
1719,668,1.273
1725,669,1.264
1731,670,1.256
1737,671,1.248
1743,672,1.24
1749,673,1.232
1755,674,1.224
1761,675,1.215
1767,676,1.207
1773,677,1.199
1779,678,1.19
1785,679,1.182
1791,680,1.173
1797,681,1.164
1803,682,1.156
1809,683,1.148
1815,684,1.14
1821,685,1.131
1827,686,1.123
1833,687,1.115
1839,688,1.106
1845,689,1.098
1851,690,1.089
1857,691,1.081
1863,692,1.072
1869,693,1.064
1874,694,1.057
1880,695,1.048
1886,696,1.039
1892,697,1.03
1898,698,1.021
1904,699,1.012
1910,700,1.004
1916,701,0.994
1922,702,0.985
1928,703,0.976
1934,704,0.967
1940,705,0.957
1946,706,0.948
1952,707,0.938
1958,708,0.929
1964,709,0.919
1970,710,0.91
1976,711,0.9
1982,712,0.89
1988,713,0.88
1994,714,0.87
2000,715,0.859
2006,716,0.849
2012,717,0.838
2018,718,0.827
2024,719,0.816
2030,720,0.804
2036,721,0.793
2042,722,0.781
2048,723,0.769
2054,724,0.757
2060,725,0.745
2066,726,0.733
2072,727,0.721
2078,728,0.708
2084,729,0.696
2090,730,0.683
2096,731,0.67
2102,732,0.657
2108,733,0.644
2114,734,0.631
2120,735,0.618
2126,736,0.605
2132,737,0.591
2138,738,0.578
2144,739,0.564
2150,740,0.551
2156,741,0.537
2162,742,0.524
2168,743,0.51
2174,744,0.497
2180,745,0.483
2186,746,0.469
2192,747,0.454
2198,748,0.44
2204,749,0.425
2210,750,0.411
2216,751,0.396
2222,752,0.381
2228,753,0.366
2234,754,0.35
2240,755,0.334
2246,756,0.318
2252,757,0.301
2258,758,0.284
2264,759,0.267
2270,760,0.249
2276,761,0.231
2282,762,0.212
2288,763,0.192
2293,764,0.174
2301,765,0.024
2307,766,0.025
2313,767,0.023
2318,768,0.022
2324,769,0.021
2330,770,0.021
2336,771,0.02
2342,772,0.02
2348,773,0.02
2354,774,0.019
2360,775,0.019
2366,776,0.019
2372,777,0.018
2378,778,0.018
2384,779,0.018
2390,780,0.018
2396,781,0.018
2402,782,0.018
2408,783,0.018
2414,784,0.017
2420,785,0.017
2426,786,0.017
2432,787,0.017
2438,788,0.017
2444,789,0.017
2450,790,0.017
2456,791,0.017
2462,792,0.017
2468,793,0.017
2474,794,0.017
2480,795,0.017
2486,796,0.017
2492,797,0.017
2498,798,0.017
2504,799,0.017
2510,800,0.017
2516,801,0.017
2522,802,0.017
2528,803,0.017
2534,804,0.017
2540,805,0.017
2546,806,0.017
2552,807,0.017
2558,808,0.017
2564,809,0.017
2570,810,0.017
2576,811,0.017
2582,812,0.017
2588,813,0.017
2594,814,0.017
2600,815,0.017
2606,816,0.017
2612,817,0.017
2618,818,0.017
2624,819,0.017
2630,820,0.017
2636,821,0.017
2642,822,0.017
2648,823,0.016
2654,824,0.016
2660,825,0.016
2666,826,0.016
2672,827,0.016
2678,828,0.016
2684,829,0.016
2690,830,0.016
2696,831,0.016
2702,832,0.016
2708,833,0.016
2714,834,0.016
2720,835,0.016
2726,836,0.016
2732,837,0.016
2738,838,0.016
2744,839,0.016
2750,840,0.016
2756,841,0.016
2762,842,0.016
2768,843,0.016
2774,844,0.016
2780,845,0.016
2786,846,0.016
2792,847,0.016
2798,848,0.016
2804,849,0.016
2810,850,0.016
2816,851,0.016
2822,852,0.016
2828,853,0.016
2834,854,0.016
2840,855,0.016
2846,856,0.016
2852,857,0.016
2858,858,0.016
2864,859,0.016
2870,860,0.016
2876,861,0.016
2882,862,0.016
2888,863,0.016
2894,864,0.016
2900,865,0.016
2906,866,0.016
2912,867,0.016
2918,868,0.016
2924,869,0.016
2930,870,0.016
2936,871,0.016
2942,872,0.016
2948,873,0.016
2954,874,0.016
2960,875,0.016
2966,876,0.016
2972,877,0.016
2978,878,0.016
2984,879,0.016
2990,880,0.016
2996,881,0.016
3002,882,0.016
3008,883,0.016
3014,884,0.016
3020,885,0.016
3026,886,0.016
3032,887,0.016
3038,888,0.016
3044,889,0.016
3050,890,0.016
3056,891,0.016
3062,892,0.016
3068,893,0.016
3074,894,0.016
3080,895,0.016
3086,896,0.015
3092,897,0.015
3098,898,0.015
3104,899,0.015
3110,900,0.015
3116,901,0.015
3122,902,0.015
3128,903,0.015
3134,904,0.015
3140,905,0.015
3146,906,0.015
3152,907,0.015
3158,908,0.015
3164,909,0.015
3170,910,0.015
3176,911,0.015
3182,912,0.015
3188,913,0.015
3194,914,0.015
3200,915,0.015
3206,916,0.015
3212,917,0.015
3218,918,0.015
3224,919,0.015
3230,920,0.015
3236,921,0.015
3242,922,0.015
3248,923,0.015
3254,924,0.015
3260,925,0.015
3266,926,0.015
3272,927,0.015
3278,928,0.015
3284,929,0.015
3290,930,0.015
3296,931,0.015
3302,932,0.015
3308,933,0.015
3314,934,0.015
3320,935,0.015
3326,936,0.015
3332,937,0.015
3338,938,0.015
3344,939,0.015
3350,940,0.015
3356,941,0.015
3362,942,0.015
3368,943,0.015
3374,944,0.015
3380,945,0.015
3386,946,0.015
3392,947,0.015
3398,948,0.015
3404,949,0.015
3410,950,0.015
3416,951,0.015
3422,952,0.015
3428,953,0.015
3434,954,0.015
3440,955,0.015
3446,956,0.015
3452,957,0.015
3458,958,0.015
3464,959,0.015
3470,960,0.015
3476,961,0.015
3482,962,0.015
3488,963,0.015
3494,964,0.015
3500,965,0.015
3506,966,0.015
3512,967,0.015
3518,968,0.015
3524,969,0.015
3530,970,0.015
3536,971,0.015
3542,972,0.015
3548,973,0.015
3554,974,0.015
3560,975,0.015
3566,976,0.015
3572,977,0.015
3578,978,0.015
3584,979,0.015
3590,980,0.015
3596,981,0.015
3602,982,0.015
3608,983,0.015
3614,984,0.015
3620,985,0.015
3626,986,0.015
3632,987,0.015
3638,988,0.015
3644,989,0.015
3650,990,0.015
3656,991,0.015
3662,992,0.015
3668,993,0.015
3674,994,0.015
3680,995,0.015
3686,996,0.015
3692,997,0.015
3698,998,0.015
3704,999,0.015
3710,1000,0.015
3716,1001,0.015
3722,1002,0.015
3728,1003,0.015
3734,1004,0.015
3740,1005,0.015
3746,1006,0.015
3752,1007,0.015
3758,1008,0.015
3764,1009,0.015
3770,1010,0.015
3776,1011,0.015
3782,1012,0.015
3788,1013,0.015
3794,1014,0.015
3800,1015,0.015
3806,1016,0.015
3812,1017,0.015
3818,1018,0.015
3824,1019,0.015
3830,1020,0.015
3836,1021,0.015
3842,1022,0.015
3848,1023,0.015
3854,1024,0.015
3860,1025,0.015
3866,1026,0.015
3872,1027,0.015
3878,1028,0.015
3884,1029,0.015
3890,1030,0.015
3896,1031,0.015
3902,1032,0.015
3908,1033,0.015
3914,1034,0.015
3920,1035,0.015
3926,1036,0.015
3932,1037,0.015
3938,1038,0.015
3944,1039,0.015
3950,1040,0.015
3956,1041,0.015
3962,1042,0.015
3968,1043,0.015
3974,1044,0.015
3980,1045,0.015
3986,1046,0.015
3992,1047,0.015
3998,1048,0.015
4004,1049,0.015
4010,1050,0.015
4016,1051,0.015
4022,1052,0.015
4028,1053,0.015
4034,1054,0.015
4040,1055,0.015
4046,1056,0.015
4052,1057,0.015
4058,1058,0.015
4064,1059,0.015
4070,1060,0.015
4076,1061,0.015
4082,1062,0.015
4088,1063,0.015
4094,1064,0.015
4100,1065,0.015
4106,1066,0.015
4112,1067,0.015
4118,1068,0.015
4124,1069,0.015
4130,1070,0.015
4136,1071,0.015
4142,1072,0.015
4148,1073,0.015
4154,1074,0.015
4160,1075,0.015
4166,1076,0.015
4172,1077,0.015
4178,1078,0.015
4184,1079,0.015
4190,1080,0.015
4196,1081,0.015
4202,1082,0.015
4208,1083,0.015
4214,1084,0.015
4220,1085,0.015
4226,1086,0.015
4232,1087,0.015
4238,1088,0.015
4244,1089,0.015
4250,1090,0.015
4256,1091,0.015
4262,1092,0.015
4268,1093,0.015
4274,1094,0.015
4280,1095,0.015
4286,1096,0.014
4292,1097,0.014
4298,1098,0.014
4304,1099,0.014
4310,1100,0.014
4316,1101,0.014
4322,1102,0.014
4328,1103,0.014
4334,1104,0.014
4340,1105,0.014
4346,1106,0.014
4352,1107,0.014
4358,1108,0.014
4364,1109,0.014
4370,1110,0.014
4376,1111,0.014
4382,1112,0.014
4388,1113,0.014
4394,1114,0.014
4400,1115,0.014
4406,1116,0.014
4412,1117,0.014
4418,1118,0.014
4424,1119,0.014
4430,1120,0.014
4436,1121,0.014
4442,1122,0.014
4448,1123,0.014
4454,1124,0.014
4460,1125,0.014
4466,1126,0.014
4472,1127,0.014
4478,1128,0.014
4484,1129,0.014
4490,1130,0.014
4496,1131,0.014
4502,1132,0.014
4508,1133,0.014
4514,1134,0.014
4520,1135,0.013
4526,1136,0.013
4532,1137,0.013
4538,1138,0.013
4544,1139,0.013
4550,1140,0.013
4556,1141,0.013
4562,1142,0.013
4568,1143,0.013
4574,1144,0.013
4580,1145,0.013
4586,1146,0.013
4592,1147,0.013
4598,1148,0.013
4604,1149,0.013
4610,1150,0.013
4616,1151,0.013
4622,1152,0.013
4628,1153,0.013
4634,1154,0.013
4640,1155,0.013
4646,1156,0.013
4652,1157,0.013
4658,1158,0.013
4664,1159,0.013
4670,1160,0.013
4676,1161,0.013
4682,1162,0.013
4688,1163,0.013
4694,1164,0.012
4700,1165,0.012
4706,1166,0.012
4712,1167,0.012
4718,1168,0.012
4724,1169,0.012
4730,1170,0.012
4736,1171,0.012
4739,1171.5,0.012