File: Wood/Calibration_Data/IMT/IMT_Wood_TGA_N2_2K_R1.csv
Time (s),Temperature (K),Mass (mg)
0,383,4.975
41,384,4.975
72,385,4.975
103,386,4.975
133,387,4.975
163,388,4.974
193,389,4.974
223,390,4.974
253,391,4.973
283,392,4.973
313,393,4.973
343,394,4.972
373,395,4.972
403,396,4.972
433,397,4.971
463,398,4.971
493,399,4.97
523,400,4.97
553,401,4.97
582,402,4.969
612,403,4.969
642,404,4.968
672,405,4.968
702,406,4.967
732,407,4.967
762,408,4.966
792,409,4.966
822,410,4.965
852,411,4.964
882,412,4.964
912,413,4.963
942,414,4.963
972,415,4.962
1002,416,4.961
1032,417,4.961
1062,418,4.96
1092,419,4.959
1122,420,4.958
1152,421,4.957
1182,422,4.957
1211,423,4.956
1242,424,4.955
1272,425,4.954
1302,426,4.953
1332,427,4.952
1361,428,4.951
1392,429,4.95
1421,430,4.948
1451,431,4.947
1481,432,4.946
1511,433,4.945
1541,434,4.943
1571,435,4.942
1601,436,4.94
1631,437,4.939
1661,438,4.937
1691,439,4.935
1721,440,4.934
1751,441,4.932
1781,442,4.93
1811,443,4.928
1841,444,4.926
1871,445,4.924
1901,446,4.922
1931,447,4.92
1961,448,4.918
1991,449,4.915
2021,450,4.913
2051,451,4.911
2081,452,4.908
2111,453,4.906
2141,454,4.903
2171,455,4.901
2201,456,4.898
2231,457,4.895
2261,458,4.893
2291,459,4.89
2321,460,4.887
2351,461,4.884
2381,462,4.881
2411,463,4.878
2441,464,4.875
2471,465,4.872
2501,466,4.869
2530,467,4.866
2561,468,4.862
2591,469,4.859
2620,470,4.856
2650,471,4.852
2680,472,4.849
2711,473,4.845
2740,474,4.842
2770,475,4.838
2800,476,4.835
2831,477,4.831
2860,478,4.827
2890,479,4.823
2920,480,4.82
2950,481,4.816
2980,482,4.812
3010,483,4.807
3040,484,4.803
3070,485,4.799
3100,486,4.795
3130,487,4.79
3160,488,4.785
3190,489,4.781
3220,490,4.776
3250,491,4.771
3280,492,4.766
3310,493,4.76
3340,494,4.755
3370,495,4.749
3400,496,4.744
3430,497,4.738
3460,498,4.732
3490,499,4.725
3520,500,4.719
3550,501,4.712
3580,502,4.705
3610,503,4.698
3640,504,4.691
3670,505,4.684
3699,506,4.676
3729,507,4.669
3760,508,4.66
3790,509,4.652
3820,510,4.644
3850,511,4.635
3879,512,4.627
3909,513,4.618
3939,514,4.608
3970,515,4.598
3999,516,4.59
4029,517,4.58
4059,518,4.57
4089,519,4.56
4119,520,4.55
4149,521,4.54
4179,522,4.53
4209,523,4.519
4239,524,4.509
4269,525,4.498
4299,526,4.487
4329,527,4.476
4359,528,4.465
4389,529,4.453
4419,530,4.441
4449,531,4.43
4479,532,4.419
4509,533,4.408
4539,534,4.396
4569,535,4.384
4599,536,4.372
4629,537,4.359
4659,538,4.346
4689,539,4.334
4719,540,4.321
4749,541,4.308
4779,542,4.295
4809,543,4.282
4839,544,4.267
4869,545,4.254
4899,546,4.24
4929,547,4.225
4959,548,4.212
4989,549,4.196
5019,550,4.182
5049,551,4.167
5079,552,4.151
5109,553,4.137
5139,554,4.122
5169,555,4.105
5198,556,4.089
5229,557,4.073
5259,558,4.058
5289,559,4.041
5318,560,4.024
5348,561,4.007
5378,562,3.988
5408,563,3.97
5438,564,3.952
5468,565,3.934
5498,566,3.915
5528,567,3.898
5558,568,3.879
5588,569,3.859
5618,570,3.839
5648,571,3.818
5678,572,3.796
5708,573,3.775
5738,574,3.753
5768,575,3.731
5798,576,3.708
5828,577,3.685
5858,578,3.662
5888,579,3.638
5918,580,3.614
5948,581,3.589
5978,582,3.565
6008,583,3.539
6038,584,3.512
6068,585,3.486
6098,586,3.46
6128,587,3.431
6158,588,3.403
6188,589,3.376
6218,590,3.347
6248,591,3.318
6278,592,3.287
6308,593,3.257
6338,594,3.226
6368,595,3.194
6398,596,3.162
6428,597,3.13
6458,598,3.098
6487,599,3.066
6517,600,3.033
6548,601,2.998
6577,602,2.966
6607,603,2.931
6637,604,2.897
6667,605,2.862
6697,606,2.827
6728,607,2.792
6757,608,2.758
6787,609,2.72
6817,610,2.684
6847,611,2.647
6877,612,2.609
6907,613,2.571
6937,614,2.535
6967,615,2.497
6997,616,2.458
7027,617,2.419
7057,618,2.38
7087,619,2.339
7117,620,2.299
7147,621,2.258
7177,622,2.217
7207,623,2.174
7237,624,2.132
7267,625,2.09
7297,626,2.048
7327,627,2.005
7357,628,1.962
7387,629,1.92
7417,630,1.878
7447,631,1.835
7477,632,1.792
7507,633,1.75
7537,634,1.709
7567,635,1.669
7597,636,1.63
7627,637,1.592
7657,638,1.556
7687,639,1.522
7717,640,1.489
7747,641,1.459
7777,642,1.43
7806,643,1.405
7836,644,1.381
7866,645,1.359
7896,646,1.34
7926,647,1.323
7956,648,1.308
7986,649,1.294
8016,650,1.282
8046,651,1.271
8076,652,1.262
8106,653,1.254
8136,654,1.247
8166,655,1.241
8196,656,1.235
8226,657,1.23
8256,658,1.226
8286,659,1.221
8316,660,1.217
8346,661,1.213
8376,662,1.21
8406,663,1.206
8436,664,1.202
8466,665,1.199
8496,666,1.195
8526,667,1.192
8556,668,1.189
8586,669,1.185
8616,670,1.182
8646,671,1.179
8676,672,1.176
8706,673,1.173
8736,674,1.17
8766,675,1.167
8796,676,1.164
8826,677,1.161
8856,678,1.158
8886,679,1.155
8916,680,1.152
8946,681,1.149
8976,682,1.146
9006,683,1.143
9035,684,1.14
9066,685,1.138
9095,686,1.135
9126,687,1.132
9156,688,1.129
9185,689,1.127
9215,690,1.124
9246,691,1.121
9276,692,1.118
9305,693,1.116
9335,694,1.113
9365,695,1.111
9395,696,1.108
9425,697,1.105
9455,698,1.103
9485,699,1.1
9515,700,1.098
9545,701,1.095
9575,702,1.092
9605,703,1.09
9635,704,1.087
9665,705,1.085
9695,706,1.083
9725,707,1.08
9755,708,1.078
9785,709,1.076
9815,710,1.073
9845,711,1.071
9875,712,1.069
9905,713,1.066
9935,714,1.064
9965,715,1.062
9995,716,1.06
10025,717,1.058
10055,718,1.055
10085,719,1.053
10115,720,1.051
10145,721,1.049
10175,722,1.047
10205,723,1.045
10235,724,1.043
10265,725,1.041
10295,726,1.039
10325,727,1.037
10355,728,1.035
10385,729,1.034
10415,730,1.032
10445,731,1.03
10475,732,1.028
10505,733,1.026
10535,734,1.025
10565,735,1.023
10595,736,1.021
10625,737,1.02
10655,738,1.018
10685,739,1.016
10715,740,1.015
10745,741,1.013
10775,742,1.012
10805,743,1.01
10835,744,1.009
10865,745,1.007
10895,746,1.005
10925,747,1.004
10955,748,1.002
10985,749,1.001
11015,750,1
11045,751,0.998
11075,752,0.997
11105,753,0.995
11135,754,0.994
11165,755,0.993
11195,756,0.991
11225,757,0.99
11255,758,0.988
11285,759,0.987
11315,760,0.986
11345,761,0.984
11375,762,0.983
11405,763,0.982
11435,764,0.981
11465,765,0.979
11495,766,0.978
11525,767,0.977
11555,768,0.975
11585,769,0.974
11615,770,0.973
11645,771,0.972
11675,772,0.97
11705,773,0.969
11735,774,0.968
11765,775,0.967
11795,776,0.965
11825,777,0.964
11855,778,0.963
11885,779,0.962
11915,780,0.961
11945,781,0.96
11975,782,0.958
12005,783,0.957
12035,784,0.956
12065,785,0.955
12095,786,0.953
12125,787,0.952
12155,788,0.951
12185,789,0.95
12215,790,0.949
12245,791,0.948
12275,792,0.947
12305,793,0.945
12335,794,0.944
12365,795,0.943
12395,796,0.942
12425,797,0.941
12455,798,0.94
12485,799,0.938
12515,800,0.937
12545,801,0.936
12575,802,0.935
12605,803,0.934
12635,804,0.933
12665,805,0.932
12695,806,0.931
12725,807,0.93
12755,808,0.928
12785,809,0.927
12815,810,0.926
12845,811,0.925
12875,812,0.924
12905,813,0.923
12935,814,0.922
12965,815,0.921
12995,816,0.92
13025,817,0.919
13055,818,0.918
13085,819,0.917
13115,820,0.915
13145,821,0.914
13175,822,0.913
13205,823,0.912
13235,824,0.911
13265,825,0.91
13295,826,0.909
13325,827,0.908
13355,828,0.907
13385,829,0.906
13415,830,0.905
13445,831,0.904
13475,832,0.903
13505,833,0.902
13535,834,0.901
13565,835,0.9
13595,836,0.899
13625,837,0.898
13655,838,0.897
13685,839,0.896
13715,840,0.895
13745,841,0.894
13775,842,0.893
13805,843,0.892
13835,844,0.891
13865,845,0.89
13895,846,0.889
13925,847,0.888
13955,848,0.887
13985,849,0.886
14015,850,0.885
14045,851,0.884
14075,852,0.883
14105,853,0.882
14135,854,0.881
14165,855,0.88
14195,856,0.879
14225,857,0.879
14255,858,0.877
14285,859,0.876
14315,860,0.876
14345,861,0.875
14375,862,0.874
14405,863,0.873
14435,864,0.872
14465,865,0.871
14495,866,0.87
14525,867,0.869
14555,868,0.868
14585,869,0.867
14615,870,0.866
14645,871,0.866
14675,872,0.865
14705,873,0.864
14735,874,0.863
14765,875,0.862
14795,876,0.861
14825,877,0.86
14855,878,0.859
14885,879,0.858
14915,880,0.858
14945,881,0.857
14975,882,0.856
15005,883,0.855
15035,884,0.854
15065,885,0.853
15095,886,0.852
15125,887,0.851
15155,888,0.851
15185,889,0.85
15215,890,0.849
15245,891,0.848
15275,892,0.847
15305,893,0.847
15335,894,0.846
15365,895,0.845
15395,896,0.844
15425,897,0.843
15455,898,0.843
15485,899,0.842
15515,900,0.841
15545,901,0.84
15575,902,0.839
15605,903,0.839
15635,904,0.838
15665,905,0.837
15695,906,0.836
15725,907,0.835
15755,908,0.835
15785,909,0.834
15815,910,0.833
15845,911,0.832
15875,912,0.831
15905,913,0.831
15935,914,0.83
15965,915,0.829
15995,916,0.829
16025,917,0.828
16055,918,0.827
16085,919,0.826
16115,920,0.826
16145,921,0.825
16175,922,0.824
16205,923,0.823
16235,924,0.823
16265,925,0.822
16295,926,0.821
16325,927,0.821
16355,928,0.82
16385,929,0.819
16415,930,0.819
16445,931,0.818
16475,932,0.817
16505,933,0.817
16535,934,0.816
16565,935,0.816
16595,936,0.815
16625,937,0.814
16655,938,0.813
16685,939,0.813
16715,940,0.812
16745,941,0.811
16775,942,0.811
16805,943,0.81
16835,944,0.81
16865,945,0.809
16895,946,0.808
16925,947,0.808
16955,948,0.807
16985,949,0.807
17015,950,0.806
17045,951,0.806
17075,952,0.805
17105,953,0.804
17135,954,0.804
17165,955,0.803
17195,956,0.803
17225,957,0.802
17255,958,0.802
17285,959,0.801
17315,960,0.8
17345,961,0.8
17375,962,0.8
17405,963,0.799
17435,964,0.798
17465,965,0.798
17495,966,0.797
17525,967,0.797
17555,968,0.796
17585,969,0.796
17615,970,0.795
17645,971,0.795
17675,972,0.794
17705,973,0.793
17735,974,0.793
17765,975,0.792
17795,976,0.792
17825,977,0.792
17855,978,0.791
17885,979,0.791
17915,980,0.79
17945,981,0.789
17975,982,0.789
18005,983,0.788
18035,984,0.788
18065,985,0.788
18095,986,0.787
18125,987,0.786
18155,988,0.786
18185,989,0.785
18215,990,0.785
18245,991,0.785
18275,992,0.784
18305,993,0.783
18335,994,0.783
18365,995,0.782
18395,996,0.782
18425,997,0.781
18455,998,0.781
18485,999,0.781
18515,1000,0.78
18545,1001,0.78
18575,1002,0.779
18605,1003,0.779
18635,1004,0.778
18665,1005,0.778
18695,1006,0.777
18725,1007,0.777
18755,1008,0.776
18785,1009,0.776
18815,1010,0.775
18845,1011,0.775
18875,1012,0.774
18905,1013,0.774
18935,1014,0.773
18965,1015,0.773
18995,1016,0.772
19025,1017,0.772
19055,1018,0.772
19085,1019,0.771
19115,1020,0.771
19145,1021,0.77
19175,1022,0.769
19205,1023,0.77
19235,1024,0.768
19265,1025,0.768
19295,1026,0.768
19325,1027,0.767
19355,1028,0.767
19385,1029,0.766
19415,1030,0.766
19445,1031,0.765
19475,1032,0.765
19505,1033,0.765
19535,1034,0.764
19565,1035,0.764
19595,1036,0.763
19625,1037,0.763
19655,1038,0.763
19685,1039,0.762
19715,1040,0.762
19745,1041,0.761
19775,1042,0.761
19805,1043,0.76
19835,1044,0.76
19865,1045,0.759
19895,1046,0.759
19925,1047,0.759
19955,1048,0.758
19985,1049,0.758
20015,1050,0.757
20045,1051,0.757
20075,1052,0.756
20105,1053,0.756
20135,1054,0.755
20165,1055,0.755
20195,1056,0.755
20225,1057,0.754
20255,1058,0.754
20285,1059,0.753
20315,1060,0.753
20345,1061,0.752
20375,1062,0.752
20405,1063,0.751
20435,1064,0.751
20465,1065,0.751
20495,1066,0.75
20525,1067,0.75
20555,1068,0.749
20585,1069,0.749
20615,1070,0.748
20645,1071,0.748
20675,1072,0.748
20705,1073,0.747
20735,1074,0.747
20765,1075,0.746
20795,1076,0.745
20825,1077,0.745
20855,1078,0.744
20885,1079,0.744
20915,1080,0.743
20945,1081,0.743
20975,1082,0.743
21005,1083,0.742
21035,1084,0.741
21065,1085,0.741
21095,1086,0.74
21125,1087,0.74
21155,1088,0.74
21185,1089,0.739
21215,1090,0.738
21245,1091,0.738
21275,1092,0.737
21305,1093,0.737
21335,1094,0.737
21365,1095,0.736
21395,1096,0.735
21425,1097,0.735
21455,1098,0.734
21485,1099,0.734
21515,1100,0.733
21545,1101,0.732
21575,1102,0.732
21605,1103,0.731
21635,1104,0.731
21665,1105,0.73
21695,1106,0.73
21725,1107,0.729
21755,1108,0.728
21785,1109,0.728
21815,1110,0.727
21845,1111,0.726
21875,1112,0.726
21905,1113,0.725
21935,1114,0.725
21965,1115,0.724
21995,1116,0.723
22025,1117,0.723
22055,1118,0.722
22085,1119,0.721
22115,1120,0.721
22145,1121,0.72
22175,1122,0.719
22205,1123,0.719
22235,1124,0.718
22265,1125,0.717
22295,1126,0.716
22325,1127,0.716
22355,1128,0.715
22385,1129,0.715
22415,1130,0.714
22445,1131,0.713
22475,1132,0.712
22505,1133,0.711
22535,1134,0.71
22565,1135,0.71
22595,1136,0.709
22625,1137,0.708
22655,1138,0.707
22685,1139,0.707
22715,1140,0.706
22745,1141,0.705
22775,1142,0.704
22805,1143,0.703
22835,1144,0.703
22865,1145,0.702
22895,1146,0.701
22925,1147,0.7
22955,1148,0.699
22985,1149,0.698
23015,1150,0.697
23045,1151,0.696
23075,1152,0.695
23105,1153,0.694
23135,1154,0.693
23165,1155,0.692
23195,1156,0.691
23225,1157,0.691
23255,1158,0.689
23285,1159,0.688
23315,1160,0.687
23345,1161,0.686
23375,1162,0.685
23405,1163,0.684
23435,1164,0.683
23465,1165,0.682
23495,1166,0.681
23525,1167,0.68
23555,1168,0.678
23585,1169,0.677
23615,1170,0.676
23645,1171,0.675
23675,1172,0.674
23699,1173,0.673