File: Wood/Calibration_Data/IMT/IMT_Wood_TGA_N2_5K_R1.csv
Time (s),Temperature (K),Mass (mg)
0,383,4.877
23,384,4.877
37,385,4.878
50,386,4.878
62,387,4.878
75,388,4.878
87,389,4.877
99,390,4.877
111,391,4.877
123,392,4.877
135,393,4.877
147,394,4.877
159,395,4.877
171,396,4.877
183,397,4.877
195,398,4.876
207,399,4.876
219,400,4.876
231,401,4.876
243,402,4.876
255,403,4.875
267,404,4.875
279,405,4.875
291,406,4.875
303,407,4.875
315,408,4.874
327,409,4.874
339,410,4.874
351,411,4.874
363,412,4.873
375,413,4.873
387,414,4.873
399,415,4.872
410,416,4.872
422,417,4.872
434,418,4.871
446,419,4.871
458,420,4.871
470,421,4.87
482,422,4.87
494,423,4.869
506,424,4.869
518,425,4.868
530,426,4.868
542,427,4.867
554,428,4.867
566,429,4.866
578,430,4.866
590,431,4.865
602,432,4.864
614,433,4.864
626,434,4.863
638,435,4.862
650,436,4.861
662,437,4.86
674,438,4.859
686,439,4.859
698,440,4.858
710,441,4.857
722,442,4.856
734,443,4.855
746,444,4.853
758,445,4.852
770,446,4.851
782,447,4.85
794,448,4.848
806,449,4.847
818,450,4.845
829,451,4.844
841,452,4.843
853,453,4.841
865,454,4.84
877,455,4.838
889,456,4.836
901,457,4.834
913,458,4.832
925,459,4.83
937,460,4.828
949,461,4.826
961,462,4.824
973,463,4.822
985,464,4.82
997,465,4.817
1009,466,4.815
1021,467,4.813
1033,468,4.81
1045,469,4.808
1057,470,4.805
1069,471,4.802
1081,472,4.799
1093,473,4.797
1105,474,4.794
1117,475,4.791
1129,476,4.788
1141,477,4.785
1153,478,4.782
1165,479,4.779
1177,480,4.776
1189,481,4.772
1201,482,4.769
1213,483,4.766
1225,484,4.763
1237,485,4.759
1249,486,4.756
1261,487,4.752
1273,488,4.749
1285,489,4.745
1297,490,4.742
1309,491,4.738
1321,492,4.734
1332,493,4.73
1344,494,4.726
1356,495,4.723
1368,496,4.718
1380,497,4.714
1392,498,4.71
1404,499,4.706
1416,500,4.702
1428,501,4.697
1440,502,4.692
1452,503,4.688
1464,504,4.683
1476,505,4.678
1488,506,4.673
1500,507,4.667
1512,508,4.662
1524,509,4.656
1536,510,4.651
1548,511,4.645
1560,512,4.639
1572,513,4.633
1584,514,4.626
1596,515,4.62
1608,516,4.613
1620,517,4.606
1632,518,4.599
1644,519,4.591
1656,520,4.584
1668,521,4.576
1680,522,4.568
1692,523,4.56
1704,524,4.551
1716,525,4.543
1728,526,4.534
1740,527,4.525
1752,528,4.516
1764,529,4.505
1776,530,4.495
1788,531,4.485
1800,532,4.477
1812,533,4.467
1824,534,4.457
1836,535,4.447
1848,536,4.437
1860,537,4.426
1871,538,4.416
1883,539,4.405
1895,540,4.394
1907,541,4.383
1919,542,4.372
1931,543,4.361
1943,544,4.349
1955,545,4.338
1967,546,4.326
1979,547,4.314
1991,548,4.302
2003,549,4.29
2015,550,4.278
2027,551,4.266
2039,552,4.253
2051,553,4.241
2063,554,4.229
2075,555,4.215
2087,556,4.203
2099,557,4.19
2111,558,4.177
2123,559,4.164
2135,560,4.15
2147,561,4.136
2159,562,4.122
2171,563,4.108
2183,564,4.095
2195,565,4.081
2207,566,4.067
2219,567,4.052
2231,568,4.037
2243,569,4.022
2255,570,4.007
2267,571,3.992
2279,572,3.977
2291,573,3.961
2303,574,3.945
2315,575,3.929
2327,576,3.912
2339,577,3.895
2351,578,3.878
2363,579,3.861
2374,580,3.845
2386,581,3.826
2398,582,3.809
2410,583,3.791
2422,584,3.772
2434,585,3.752
2446,586,3.732
2458,587,3.714
2470,588,3.693
2482,589,3.673
2494,590,3.652
2506,591,3.631
2518,592,3.609
2530,593,3.588
2542,594,3.564
2554,595,3.541
2566,596,3.519
2578,597,3.495
2590,598,3.471
2602,599,3.446
2614,600,3.421
2626,601,3.397
2638,602,3.371
2650,603,3.345
2662,604,3.319
2674,605,3.292
2686,606,3.264
2698,607,3.237
2710,608,3.209
2722,609,3.18
2734,610,3.151
2746,611,3.122
2758,612,3.093
2770,613,3.064
2782,614,3.033
2794,615,3.003
2806,616,2.972
2818,617,2.941
2830,618,2.91
2842,619,2.878
2854,620,2.846
2866,621,2.814
2878,622,2.781
2890,623,2.748
2902,624,2.715
2914,625,2.681
2925,626,2.651
2937,627,2.617
2949,628,2.582
2961,629,2.547
2973,630,2.511
2985,631,2.476
2997,632,2.44
3009,633,2.403
3021,634,2.366
3033,635,2.329
3045,636,2.292
3057,637,2.255
3069,638,2.216
3081,639,2.178
3093,640,2.14
3105,641,2.101
3117,642,2.062
3129,643,2.023
3141,644,1.984
3153,645,1.945
3165,646,1.905
3177,647,1.866
3189,648,1.827
3201,649,1.789
3213,650,1.751
3225,651,1.713
3237,652,1.677
3249,653,1.641
3261,654,1.606
3273,655,1.572
3285,656,1.54
3297,657,1.509
3309,658,1.479
3321,659,1.45
3333,660,1.423
3345,661,1.398
3357,662,1.374
3369,663,1.351
3381,664,1.331
3393,665,1.311
3405,666,1.294
3417,667,1.277
3428,668,1.263
3440,669,1.25
3453,670,1.237
3464,671,1.227
3476,672,1.217
3488,673,1.208
3500,674,1.2
3512,675,1.193
3524,676,1.187
3536,677,1.181
3548,678,1.175
3560,679,1.171
3572,680,1.166
3584,681,1.162
3596,682,1.158
3608,683,1.154
3620,684,1.151
3632,685,1.147
3644,686,1.144
3656,687,1.141
3668,688,1.138
3680,689,1.134
3692,690,1.131
3704,691,1.128
3716,692,1.125
3728,693,1.122
3740,694,1.119
3752,695,1.117
3764,696,1.114
3776,697,1.11
3788,698,1.108
3800,699,1.105
3812,700,1.102
3824,701,1.099
3836,702,1.096
3848,703,1.094
3860,704,1.091
3872,705,1.088
3884,706,1.085
3896,707,1.083
3908,708,1.08
3920,709,1.078
3932,710,1.075
3944,711,1.072
3956,712,1.07
3968,713,1.067
3980,714,1.065
3992,715,1.062
4004,716,1.059
4016,717,1.057
4028,718,1.055
4040,719,1.052
4052,720,1.05
4064,721,1.047
4076,722,1.045
4088,723,1.042
4100,724,1.04
4112,725,1.037
4124,726,1.035
4136,727,1.033
4148,728,1.03
4160,729,1.028
4172,730,1.026
4184,731,1.023
4196,732,1.021
4208,733,1.019
4220,734,1.017
4232,735,1.014
4244,736,1.012
4256,737,1.01
4268,738,1.008
4280,739,1.006
4292,740,1.004
4304,741,1.002
4316,742,1
4328,743,0.998
4340,744,0.996
4352,745,0.994
4364,746,0.992
4376,747,0.99
4388,748,0.988
4400,749,0.986
4412,750,0.984
4424,751,0.983
4436,752,0.981
4448,753,0.979
4460,754,0.977
4472,755,0.976
4484,756,0.974
4496,757,0.972
4508,758,0.971
4520,759,0.969
4532,760,0.968
4544,761,0.966
4556,762,0.964
4568,763,0.963
4580,764,0.961
4592,765,0.96
4604,766,0.958
4616,767,0.957
4628,768,0.955
4640,769,0.954
4652,770,0.952
4664,771,0.951
4676,772,0.95
4688,773,0.948
4700,774,0.947
4712,775,0.946
4724,776,0.944
4736,777,0.943
4748,778,0.941
4760,779,0.94
4772,780,0.939
4784,781,0.938
4796,782,0.936
4808,783,0.935
4820,784,0.934
4832,785,0.933
4844,786,0.932
4856,787,0.93
4868,788,0.929
4880,789,0.928
4892,790,0.927
4904,791,0.925
4916,792,0.924
4928,793,0.923
4940,794,0.922
4952,795,0.921
4964,796,0.92
4976,797,0.918
4988,798,0.917
5000,799,0.916
5012,800,0.915
5024,801,0.914
5036,802,0.913
5048,803,0.912
5060,804,0.911
5072,805,0.91
5084,806,0.909
5096,807,0.907
5108,808,0.906
5120,809,0.905
5132,810,0.904
5144,811,0.903
5156,812,0.902
5168,813,0.901
5180,814,0.9
5192,815,0.899
5204,816,0.898
5216,817,0.897
5228,818,0.896
5240,819,0.895
5252,820,0.894
5264,821,0.893
5276,822,0.892
5288,823,0.891
5300,824,0.89
5312,825,0.889
5324,826,0.888
5336,827,0.887
5348,828,0.886
5360,829,0.885
5372,830,0.884
5384,831,0.883
5396,832,0.882
5408,833,0.881
5420,834,0.88
5432,835,0.879
5444,836,0.878
5456,837,0.877
5468,838,0.876
5480,839,0.875
5492,840,0.874
5504,841,0.873
5516,842,0.872
5528,843,0.871
5540,844,0.87
5552,845,0.869
5564,846,0.869
5576,847,0.868
5588,848,0.867
5600,849,0.866
5612,850,0.865
5624,851,0.864
5636,852,0.863
5648,853,0.862
5660,854,0.861
5672,855,0.86
5684,856,0.859
5696,857,0.858
5708,858,0.858
5720,859,0.857
5732,860,0.856
5744,861,0.855
5756,862,0.854
5768,863,0.853
5780,864,0.852
5792,865,0.852
5804,866,0.851
5816,867,0.85
5828,868,0.849
5840,869,0.848
5852,870,0.847
5864,871,0.846
5876,872,0.845
5888,873,0.845
5900,874,0.844
5912,875,0.843
5924,876,0.842
5936,877,0.841
5948,878,0.841
5960,879,0.84
5972,880,0.839
5984,881,0.838
5996,882,0.837
6008,883,0.836
6020,884,0.835
6032,885,0.835
6044,886,0.834
6056,887,0.833
6068,888,0.832
6080,889,0.831
6092,890,0.831
6104,891,0.83
6116,892,0.829
6128,893,0.828
6140,894,0.828
6152,895,0.827
6164,896,0.826
6176,897,0.825
6188,898,0.825
6200,899,0.824
6212,900,0.823
6224,901,0.822
6236,902,0.821
6248,903,0.821
6260,904,0.82
6272,905,0.819
6284,906,0.818
6296,907,0.818
6308,908,0.817
6320,909,0.816
6332,910,0.816
6344,911,0.815
6356,912,0.814
6368,913,0.813
6380,914,0.813
6392,915,0.812
6404,916,0.811
6416,917,0.811
6428,918,0.81
6440,919,0.809
6452,920,0.809
6464,921,0.808
6476,922,0.807
6488,923,0.807
6500,924,0.806
6512,925,0.805
6524,926,0.805
6536,927,0.804
6548,928,0.803
6560,929,0.803
6572,930,0.802
6584,931,0.801
6596,932,0.801
6608,933,0.8
6620,934,0.8
6632,935,0.799
6644,936,0.798
6656,937,0.798
6668,938,0.797
6680,939,0.797
6692,940,0.796
6704,941,0.795
6716,942,0.795
6728,943,0.794
6740,944,0.793
6752,945,0.793
6764,946,0.792
6776,947,0.792
6788,948,0.791
6800,949,0.791
6812,950,0.79
6824,951,0.789
6836,952,0.789
6848,953,0.788
6860,954,0.788
6872,955,0.787
6884,956,0.786
6896,957,0.786
6908,958,0.785
6920,959,0.785
6932,960,0.784
6944,961,0.784
6956,962,0.783
6968,963,0.783
6980,964,0.782
6992,965,0.782
7004,966,0.781
7016,967,0.781
7028,968,0.78
7040,969,0.78
7052,970,0.779
7064,971,0.779
7076,972,0.778
7088,973,0.778
7100,974,0.777
7112,975,0.777
7124,976,0.776
7136,977,0.776
7148,978,0.775
7160,979,0.775
7172,980,0.774
7184,981,0.774
7196,982,0.773
7208,983,0.773
7220,984,0.773
7232,985,0.772
7244,986,0.772
7256,987,0.771
7268,988,0.771
7280,989,0.77
7292,990,0.77
7304,991,0.769
7316,992,0.769
7328,993,0.768
7340,994,0.768
7352,995,0.767
7364,996,0.767
7376,997,0.766
7388,998,0.766
7400,999,0.765
7412,1000,0.765
7424,1001,0.764
7436,1002,0.764
7448,1003,0.764
7460,1004,0.763
7472,1005,0.763
7484,1006,0.762
7496,1007,0.762
7508,1008,0.762
7520,1009,0.761
7532,1010,0.761
7544,1011,0.76
7556,1012,0.76
7568,1013,0.76
7580,1014,0.759
7592,1015,0.759
7604,1016,0.758
7616,1017,0.758
7628,1018,0.758
7640,1019,0.757
7652,1020,0.757
7664,1021,0.756
7676,1022,0.756
7688,1023,0.756
7700,1024,0.755
7712,1025,0.755
7724,1026,0.754
7736,1027,0.754
7748,1028,0.753
7760,1029,0.753
7772,1030,0.753
7784,1031,0.752
7796,1032,0.752
7808,1033,0.751
7820,1034,0.751
7832,1035,0.751
7844,1036,0.75
7856,1037,0.75
7868,1038,0.749
7880,1039,0.749
7892,1040,0.748
7904,1041,0.748
7916,1042,0.748
7928,1043,0.747
7940,1044,0.747
7952,1045,0.746
7964,1046,0.746
7976,1047,0.746
7988,1048,0.745
8000,1049,0.745
8012,1050,0.744
8024,1051,0.744
8036,1052,0.744
8048,1053,0.743
8060,1054,0.743
8072,1055,0.742
8084,1056,0.742
8096,1057,0.741
8108,1058,0.741
8120,1059,0.741
8132,1060,0.74
8144,1061,0.74
8156,1062,0.74
8168,1063,0.739
8180,1064,0.739
8192,1065,0.738
8204,1066,0.738
8216,1067,0.738
8228,1068,0.737
8240,1069,0.737
8252,1070,0.736
8264,1071,0.736
8276,1072,0.735
8288,1073,0.735
8300,1074,0.735
8312,1075,0.734
8324,1076,0.734
8336,1077,0.733
8348,1078,0.733
8360,1079,0.733
8372,1080,0.732
8384,1081,0.732
8396,1082,0.732
8408,1083,0.731
8420,1084,0.731
8432,1085,0.73
8444,1086,0.73
8456,1087,0.729
8468,1088,0.729
8480,1089,0.729
8492,1090,0.728
8504,1091,0.728
8516,1092,0.727
8528,1093,0.727
8540,1094,0.727
8552,1095,0.726
8564,1096,0.726
8576,1097,0.725
8588,1098,0.725
8600,1099,0.724
8612,1100,0.724
8624,1101,0.724
8636,1102,0.723
8648,1103,0.723
8660,1104,0.722
8672,1105,0.722
8684,1106,0.722
8696,1107,0.721
8708,1108,0.721
8720,1109,0.72
8732,1110,0.72
8744,1111,0.72
8756,1112,0.719
8768,1113,0.719
8780,1114,0.718
8792,1115,0.718
8804,1116,0.717
8816,1117,0.717
8828,1118,0.716
8840,1119,0.716
8852,1120,0.715
8864,1121,0.715
8876,1122,0.715
8888,1123,0.714
8900,1124,0.713
8912,1125,0.713
8924,1126,0.712
8936,1127,0.712
8948,1128,0.712
8960,1129,0.711
8972,1130,0.711
8984,1131,0.71
8996,1132,0.709
9008,1133,0.709
9020,1134,0.708
9032,1135,0.708
9044,1136,0.707
9056,1137,0.707
9068,1138,0.706
9080,1139,0.706
9092,1140,0.705
9104,1141,0.705
9116,1142,0.704
9128,1143,0.704
9140,1144,0.703
9152,1145,0.703
9164,1146,0.702
9176,1147,0.701
9188,1148,0.701
9200,1149,0.7
9212,1150,0.7
9224,1151,0.699
9236,1152,0.699
9248,1153,0.698
9260,1154,0.697
9272,1155,0.697
9284,1156,0.696
9296,1157,0.696
9308,1158,0.695
9320,1159,0.694
9332,1160,0.694
9344,1161,0.693
9356,1162,0.693
9368,1163,0.692
9380,1164,0.691
9392,1165,0.691
9404,1166,0.69
9416,1167,0.689
9428,1168,0.689
9440,1169,0.688
9452,1170,0.687
9464,1171,0.687
9476,1172,0.686
9479,1173,0.686