File: Wood/Calibration_Data/IMT/IMT_Wood_TGA_N2_20K_R1.csv
Time (s),Temperature (K),Mass (mg)
0,383,5.11
14,384,5.112
18,385,5.113
21,386,5.113
25,387,5.114
28,388,5.114
32,389,5.114
35,390,5.114
39,391,5.114
42,392,5.114
45,393,5.114
48,394,5.113
52,395,5.113
55,396,5.113
58,397,5.113
61,398,5.113
64,399,5.113
67,400,5.113
70,401,5.113
73,402,5.113
76,403,5.113
79,404,5.113
82,405,5.113
85,406,5.113
88,407,5.112
91,408,5.112
94,409,5.112
97,410,5.112
100,411,5.112
103,412,5.112
106,413,5.112
109,414,5.111
112,415,5.111
115,416,5.111
118,417,5.111
121,418,5.111
124,419,5.111
127,420,5.11
130,421,5.11
133,422,5.11
136,423,5.11
139,424,5.11
142,425,5.109
145,426,5.109
148,427,5.109
151,428,5.109
154,429,5.109
157,430,5.108
160,431,5.108
163,432,5.108
166,433,5.107
169,434,5.107
172,435,5.107
175,436,5.106
178,437,5.106
181,438,5.105
184,439,5.105
186,440,5.105
189,441,5.104
192,442,5.104
195,443,5.103
198,444,5.103
201,445,5.102
204,446,5.102
207,447,5.101
210,448,5.1
213,449,5.1
216,450,5.099
219,451,5.098
222,452,5.098
225,453,5.097
228,454,5.097
231,455,5.096
234,456,5.095
237,457,5.094
240,458,5.093
243,459,5.092
246,460,5.091
249,461,5.09
252,462,5.089
255,463,5.088
258,464,5.087
261,465,5.086
264,466,5.084
267,467,5.083
270,468,5.082
273,469,5.08
276,470,5.079
279,471,5.077
282,472,5.076
285,473,5.074
288,474,5.073
291,475,5.071
294,476,5.069
297,477,5.067
300,478,5.065
303,479,5.064
306,480,5.061
309,481,5.059
311,482,5.058
314,483,5.056
317,484,5.053
320,485,5.051
323,486,5.049
326,487,5.046
329,488,5.044
332,489,5.041
335,490,5.039
338,491,5.036
341,492,5.033
344,493,5.03
347,494,5.027
350,495,5.024
353,496,5.021
356,497,5.018
359,498,5.015
362,499,5.012
365,500,5.008
368,501,5.005
371,502,5.002
374,503,4.998
377,504,4.995
380,505,4.991
383,506,4.987
386,507,4.984
389,508,4.98
392,509,4.976
395,510,4.972
398,511,4.968
401,512,4.964
404,513,4.96
407,514,4.956
410,515,4.951
413,516,4.947
416,517,4.943
419,518,4.938
422,519,4.934
425,520,4.929
428,521,4.924
431,522,4.92
434,523,4.915
436,524,4.911
439,525,4.906
442,526,4.901
445,527,4.896
448,528,4.89
451,529,4.884
454,530,4.879
457,531,4.873
460,532,4.867
463,533,4.86
466,534,4.854
469,535,4.847
472,536,4.84
475,537,4.833
478,538,4.826
481,539,4.819
484,540,4.811
487,541,4.803
490,542,4.795
493,543,4.787
496,544,4.778
499,545,4.77
502,546,4.76
505,547,4.751
508,548,4.742
511,549,4.732
514,550,4.723
517,551,4.713
520,552,4.703
523,553,4.693
526,554,4.683
529,555,4.673
532,556,4.662
535,557,4.651
538,558,4.64
541,559,4.629
544,560,4.617
547,561,4.606
550,562,4.594
553,563,4.582
556,564,4.57
559,565,4.558
561,566,4.55
565,567,4.533
567,568,4.525
570,569,4.512
573,570,4.5
576,571,4.487
579,572,4.474
582,573,4.46
585,574,4.447
588,575,4.434
591,576,4.42
594,577,4.407
597,578,4.393
600,579,4.379
603,580,4.365
606,581,4.35
609,582,4.336
612,583,4.322
615,584,4.307
618,585,4.293
621,586,4.278
624,587,4.264
627,588,4.249
630,589,4.234
633,590,4.219
636,591,4.204
639,592,4.189
642,593,4.174
645,594,4.158
648,595,4.143
651,596,4.127
654,597,4.111
657,598,4.095
660,599,4.079
663,600,4.062
666,601,4.045
669,602,4.028
672,603,4.011
675,604,3.993
678,605,3.976
681,606,3.958
684,607,3.939
687,608,3.921
690,609,3.902
693,610,3.883
695,611,3.87
698,612,3.85
701,613,3.83
704,614,3.81
707,615,3.79
710,616,3.769
713,617,3.747
716,618,3.725
719,619,3.703
722,620,3.681
725,621,3.658
728,622,3.634
731,623,3.611
734,624,3.587
737,625,3.563
740,626,3.538
743,627,3.513
746,628,3.488
749,629,3.462
752,630,3.436
755,631,3.41
758,632,3.383
761,633,3.356
764,634,3.328
767,635,3.3
770,636,3.272
773,637,3.244
776,638,3.215
779,639,3.186
782,640,3.157
785,641,3.128
788,642,3.098
791,643,3.067
794,644,3.037
797,645,3.005
800,646,2.974
803,647,2.942
806,648,2.91
809,649,2.878
812,650,2.845
815,651,2.812
818,652,2.779
821,653,2.745
823,654,2.722
826,655,2.687
829,656,2.652
832,657,2.617
835,658,2.581
838,659,2.545
841,660,2.509
844,661,2.472
847,662,2.435
850,663,2.397
853,664,2.36
856,665,2.322
859,666,2.284
862,667,2.245
865,668,2.207
868,669,2.169
871,670,2.13
874,671,2.092
877,672,2.054
880,673,2.016
883,674,1.978
886,675,1.941
889,676,1.904
892,677,1.868
895,678,1.832
898,679,1.797
901,680,1.762
904,681,1.729
907,682,1.696
910,683,1.663
913,684,1.632
916,685,1.601
919,686,1.571
922,687,1.542
925,688,1.515
928,689,1.488
931,690,1.463
934,691,1.438
937,692,1.415
940,693,1.393
943,694,1.372
946,695,1.352
949,696,1.334
951,697,1.322
954,698,1.305
957,699,1.29
960,700,1.275
963,701,1.262
966,702,1.25
969,703,1.238
972,704,1.228
975,705,1.219
978,706,1.21
981,707,1.203
984,708,1.197
987,709,1.191
990,710,1.186
993,711,1.18
996,712,1.176
999,713,1.171
1002,714,1.167
1005,715,1.163
1008,716,1.159
1011,717,1.156
1014,718,1.152
1017,719,1.149
1020,720,1.146
1023,721,1.142
1026,722,1.139
1029,723,1.136
1032,724,1.133
1035,725,1.13
1038,726,1.127
1041,727,1.124
1044,728,1.121
1047,729,1.118
1050,730,1.115
1053,731,1.112
1056,732,1.109
1059,733,1.107
1062,734,1.104
1065,735,1.101
1068,736,1.098
1071,737,1.096
1074,738,1.093
1077,739,1.09
1080,740,1.087
1083,741,1.085
1086,742,1.082
1089,743,1.079
1092,744,1.077
1095,745,1.074
1098,746,1.072
1101,747,1.069
1104,748,1.066
1107,749,1.064
1110,750,1.061
1113,751,1.059
1116,752,1.056
1119,753,1.053
1122,754,1.051
1125,755,1.048
1128,756,1.046
1131,757,1.043
1134,758,1.041
1137,759,1.039
1140,760,1.037
1143,761,1.034
1146,762,1.032
1149,763,1.03
1152,764,1.027
1155,765,1.025
1158,766,1.023
1161,767,1.021
1164,768,1.018
1167,769,1.016
1170,770,1.014
1173,771,1.012
1176,772,1.01
1179,773,1.008
1182,774,1.006
1185,775,1.004
1188,776,1.002
1191,777,1
1194,778,0.998
1197,779,0.996
1200,780,0.994
1203,781,0.992
1206,782,0.99
1209,783,0.989
1212,784,0.987
1215,785,0.985
1218,786,0.983
1221,787,0.982
1224,788,0.98
1227,789,0.978
1230,790,0.977
1233,791,0.975
1236,792,0.973
1239,793,0.972
1242,794,0.97
1245,795,0.969
1248,796,0.967
1251,797,0.966
1254,798,0.964
1257,799,0.963
1260,800,0.961
1263,801,0.96
1266,802,0.958
1269,803,0.957
1272,804,0.955
1275,805,0.954
1278,806,0.952
1281,807,0.951
1284,808,0.95
1287,809,0.948
1290,810,0.947
1293,811,0.946
1296,812,0.945
1299,813,0.943
1302,814,0.942
1305,815,0.941
1308,816,0.94
1311,817,0.939
1314,818,0.938
1317,819,0.936
1320,820,0.935
1323,821,0.934
1326,822,0.933
1329,823,0.931
1332,824,0.93
1335,825,0.929
1338,826,0.928
1341,827,0.927
1344,828,0.926
1347,829,0.925
1350,830,0.923
1353,831,0.922
1356,832,0.921
1359,833,0.92
1362,834,0.919
1365,835,0.918
1368,836,0.917
1371,837,0.916
1374,838,0.915
1377,839,0.914
1380,840,0.912
1383,841,0.911
1386,842,0.91
1389,843,0.909
1392,844,0.908
1395,845,0.907
1398,846,0.906
1401,847,0.905
1404,848,0.904
1407,849,0.903
1410,850,0.902
1413,851,0.901
1416,852,0.9
1419,853,0.899
1422,854,0.898
1425,855,0.897
1428,856,0.896
1431,857,0.895
1434,858,0.894
1437,859,0.893
1440,860,0.892
1443,861,0.891
1446,862,0.89
1449,863,0.889
1452,864,0.888
1455,865,0.887
1458,866,0.887
1461,867,0.886
1464,868,0.885
1467,869,0.884
1470,870,0.883
1473,871,0.882
1476,872,0.881
1479,873,0.88
1482,874,0.879
1485,875,0.878
2967,876,0.85
2973,877,0.84
2979,878,0.84
2985,879,0.84
2991,880,0.84
2997,881,0.84
3003,882,0.84
3009,883,0.84
3015,884,0.84
3021,885,0.84
3027,886,0.84
3033,887,0.84
3039,888,0.84
3045,889,0.83
3051,890,0.83
3057,891,0.83
3063,892,0.83
3069,893,0.83
3075,894,0.83
3081,895,0.83
3087,896,0.83
3093,897,0.83
3099,898,0.83
3105,899,0.83
3111,900,0.83
3117,901,0.82
3123,902,0.82
3129,903,0.82
3135,904,0.82
3141,905,0.82
3147,906,0.82
3153,907,0.82
3159,908,0.82
3165,909,0.82
3171,910,0.82
3177,911,0.82
3183,912,0.82
3189,913,0.81
3195,914,0.81
3201,915,0.81
3207,916,0.81
3213,917,0.81
3219,918,0.81
3225,919,0.81
3231,920,0.81
3236,921,0.81
3243,922,0.81
3249,923,0.81
3255,924,0.81
3261,925,0.81
3267,926,0.81
3273,927,0.8
3279,928,0.8
3285,929,0.8
3290,930,0.8
3297,931,0.8
3303,932,0.8
3309,933,0.8
3315,934,0.8
3321,935,0.8
3326,936,0.8
3333,937,0.8
3338,938,0.8
3345,939,0.8
3351,940,0.8
3357,941,0.79
3363,942,0.79
3369,943,0.79
3375,944,0.79
3381,945,0.79
3387,946,0.79
3393,947,0.79
3398,948,0.79
3405,949,0.79
3411,950,0.79
3416,951,0.79
3423,952,0.79
3429,953,0.79
3434,954,0.79
3440,955,0.79
3447,956,0.79
3452,957,0.78
3459,958,0.78
3465,959,0.78
3471,960,0.78
3476,961,0.78
3483,962,0.78
3489,963,0.78
3494,964,0.78
3500,965,0.78
3507,966,0.78
3512,967,0.78
3519,968,0.78
3525,969,0.78
3531,970,0.78
3537,971,0.78
3543,972,0.78
3548,973,0.78
3554,974,0.78
3561,975,0.77
3567,976,0.77
3573,977,0.77
3579,978,0.77
3585,979,0.77
3591,980,0.77
3597,981,0.77
3602,982,0.77
3608,983,0.77
3615,984,0.77
3621,985,0.77
3627,986,0.77
3633,987,0.77
3639,988,0.77
3645,989,0.77
3650,990,0.77
3657,991,0.77
3663,992,0.77
3669,993,0.77
3675,994,0.77
3680,995,0.76
3687,996,0.76
3692,997,0.76
3698,998,0.76
3705,999,0.76
3711,1000,0.76
3717,1001,0.76
3722,1002,0.76
3729,1003,0.76
3734,1004,0.76
3740,1005,0.76
3746,1006,0.76
3752,1007,0.76
3759,1008,0.76
3764,1009,0.76
3771,1010,0.76
3777,1011,0.76
3783,1012,0.76
3789,1013,0.76
3795,1014,0.76
3801,1015,0.76
3807,1016,0.76
3813,1017,0.75
3819,1018,0.75
3825,1019,0.75
3830,1020,0.75
3837,1021,0.75
3843,1022,0.75
3849,1023,0.75
3855,1024,0.75
3860,1025,0.75
3867,1026,0.75
3873,1027,0.75
3879,1028,0.75
3884,1029,0.75
3890,1030,0.75
3897,1031,0.75
3903,1032,0.75
3909,1033,0.75
3914,1034,0.75
3921,1035,0.75
3927,1036,0.75
3933,1037,0.75
3939,1038,0.75
3945,1039,0.75
3950,1040,0.74
3957,1041,0.74
3963,1042,0.74
3969,1043,0.74
3974,1044,0.74
3980,1045,0.74
3987,1046,0.74
3993,1047,0.74
3999,1048,0.74
4005,1049,0.74
4011,1050,0.74
4017,1051,0.74
4023,1052,0.74
4029,1053,0.74
4035,1054,0.74
4041,1055,0.74
4046,1056,0.74
4053,1057,0.74
4058,1058,0.74
4065,1059,0.74
4071,1060,0.74
4077,1061,0.74
4083,1062,0.74
4089,1063,0.74
4095,1064,0.74
4101,1065,0.73
4107,1066,0.73
4112,1067,0.73
4119,1068,0.73
4124,1069,0.73
4131,1070,0.73
4137,1071,0.73
4143,1072,0.73
4149,1073,0.73
4155,1074,0.73
4161,1075,0.73
4166,1076,0.73
4173,1077,0.73
4179,1078,0.73
4185,1079,0.73
4191,1080,0.73
4197,1081,0.73
4202,1082,0.73
4208,1083,0.73
4215,1084,0.73
4221,1085,0.73
4227,1086,0.73
4233,1087,0.73
4239,1088,0.73
4245,1089,0.73
4250,1090,0.73
4257,1091,0.72
4263,1092,0.72
4269,1093,0.72
4275,1094,0.72
4281,1095,0.72
4286,1096,0.72
4292,1097,0.72
4299,1098,0.72
4305,1099,0.72
4311,1100,0.72
4317,1101,0.72
4323,1102,0.72
4329,1103,0.72
4335,1104,0.72
4341,1105,0.72
4347,1106,0.72
4353,1107,0.72
4359,1108,0.72
4365,1109,0.72
4371,1110,0.72
4377,1111,0.72
4383,1112,0.72
4389,1113,0.72
4395,1114,0.72
4401,1115,0.72
4407,1116,0.72
4413,1117,0.71
4419,1118,0.71
4425,1119,0.71
4431,1120,0.71
4437,1121,0.71
4443,1122,0.71
4449,1123,0.71
4455,1124,0.71
4461,1125,0.71
4467,1126,0.71
4473,1127,0.71
4479,1128,0.71
4485,1129,0.71
4491,1130,0.71
4497,1131,0.71
4503,1132,0.71
4509,1133,0.71
4515,1134,0.71
4521,1135,0.71
4527,1136,0.71
4533,1137,0.71
4539,1138,0.71
4545,1139,0.71
4551,1140,0.71
4557,1141,0.71
4563,1142,0.7
4569,1143,0.7
4575,1144,0.7
4581,1145,0.7
4587,1146,0.7
4593,1147,0.7
4599,1148,0.7
4605,1149,0.7
4611,1150,0.7
4617,1151,0.7
4623,1152,0.7
4629,1153,0.7
4635,1154,0.7
4641,1155,0.7
4647,1156,0.7
4653,1157,0.7
4659,1158,0.7
4665,1159,0.7
4671,1160,0.7
4677,1161,0.7
4683,1162,0.7
4689,1163,0.7
4695,1164,0.69
4701,1165,0.69
4707,1166,0.69
4713,1167,0.69
4719,1168,0.69
4725,1169,0.69
4731,1170,0.69
4737,1171,0.69
4739,1171.5,0.69