File: Wood/Calibration_Data/IMT/IMT_Wood_TGA_O2-20_5K_R1.csv
Time (s),Temperature (K),Mass (mg)
0,383,4.615
23,384,4.616
37,385,4.616
50,386,4.616
62,387,4.616
75,388,4.616
87,389,4.616
99,390,4.616
111,391,4.616
123,392,4.616
135,393,4.616
147,394,4.615
159,395,4.615
171,396,4.615
183,397,4.615
195,398,4.615
207,399,4.615
219,400,4.615
231,401,4.615
243,402,4.614
255,403,4.614
267,404,4.614
279,405,4.614
290,406,4.614
303,407,4.613
314,408,4.613
326,409,4.613
338,410,4.613
350,411,4.612
362,412,4.612
374,413,4.612
386,414,4.612
398,415,4.611
410,416,4.611
422,417,4.611
434,418,4.61
446,419,4.61
458,420,4.609
470,421,4.609
482,422,4.609
494,423,4.608
506,424,4.607
518,425,4.607
530,426,4.606
542,427,4.606
554,428,4.605
566,429,4.605
578,430,4.604
590,431,4.603
602,432,4.603
614,433,4.602
626,434,4.601
637,435,4.6
650,436,4.599
661,437,4.599
673,438,4.598
685,439,4.597
697,440,4.596
709,441,4.595
721,442,4.594
733,443,4.593
745,444,4.592
757,445,4.59
769,446,4.589
781,447,4.588
793,448,4.587
805,449,4.586
817,450,4.584
829,451,4.583
841,452,4.582
853,453,4.58
865,454,4.579
877,455,4.577
889,456,4.576
901,457,4.574
913,458,4.573
925,459,4.571
937,460,4.57
949,461,4.568
961,462,4.566
973,463,4.564
985,464,4.563
997,465,4.561
1009,466,4.559
1021,467,4.557
1033,468,4.555
1045,469,4.553
1057,470,4.551
1069,471,4.548
1081,472,4.546
1093,473,4.544
1105,474,4.542
1117,475,4.539
1128,476,4.537
1141,477,4.534
1152,478,4.532
1164,479,4.529
1176,480,4.527
1188,481,4.524
1200,482,4.521
1212,483,4.518
1224,484,4.515
1236,485,4.512
1248,486,4.509
1260,487,4.506
1272,488,4.503
1284,489,4.499
1296,490,4.496
1308,491,4.492
1320,492,4.489
1332,493,4.485
1344,494,4.481
1356,495,4.477
1368,496,4.473
1380,497,4.469
1392,498,4.465
1404,499,4.461
1416,500,4.456
1428,501,4.452
1440,502,4.447
1452,503,4.442
1464,504,4.437
1476,505,4.432
1488,506,4.427
1500,507,4.421
1512,508,4.416
1524,509,4.41
1536,510,4.404
1548,511,4.397
1560,512,4.391
1572,513,4.385
1584,514,4.378
1596,515,4.371
1608,516,4.364
1619,517,4.357
1632,518,4.349
1643,519,4.342
1655,520,4.334
1667,521,4.326
1679,522,4.318
1691,523,4.309
1703,524,4.3
1715,525,4.291
1727,526,4.282
1739,527,4.273
1751,528,4.263
1763,529,4.253
1775,530,4.243
1787,531,4.233
1799,532,4.223
1811,533,4.212
1823,534,4.202
1835,535,4.191
1847,536,4.18
1859,537,4.169
1871,538,4.157
1883,539,4.146
1895,540,4.134
1907,541,4.122
1919,542,4.11
1931,543,4.097
1943,544,4.084
1955,545,4.072
1967,546,4.059
1979,547,4.045
1991,548,4.032
2003,549,4.018
2015,550,4.004
2027,551,3.99
2039,552,3.975
2051,553,3.96
2063,554,3.945
2075,555,3.93
2087,556,3.914
2099,557,3.898
2111,558,3.882
2123,559,3.865
2135,560,3.848
2147,561,3.831
2159,562,3.813
2171,563,3.795
2182,564,3.778
2194,565,3.759
2206,566,3.74
2218,567,3.72
2230,568,3.699
2242,569,3.678
2254,570,3.657
2266,571,3.635
2278,572,3.612
2290,573,3.589
2302,574,3.565
2314,575,3.541
2326,576,3.516
2338,577,3.49
2350,578,3.463
2362,579,3.436
2374,580,3.408
2386,581,3.379
2398,582,3.349
2410,583,3.318
2422,584,3.287
2434,585,3.254
2446,586,3.221
2458,587,3.186
2470,588,3.15
2482,589,3.114
2494,590,3.076
2506,591,3.037
2518,592,2.996
2530,593,2.954
2542,594,2.909
2554,595,2.863
2566,596,2.815
2578,597,2.764
2590,598,2.71
2602,599,2.653
2614,600,2.593
2626,601,2.53
2638,602,2.464
2650,603,2.395
2662,604,2.323
2674,605,2.251
2686,606,2.179
2698,607,2.109
2709,608,2.046
2721,609,1.982
2733,610,1.923
2745,611,1.87
2757,612,1.822
2769,613,1.779
2781,614,1.742
2793,615,1.709
2805,616,1.681
2817,617,1.655
2829,618,1.631
2841,619,1.61
2853,620,1.59
2865,621,1.571
2877,622,1.554
2889,623,1.537
2901,624,1.521
2913,625,1.506
2925,626,1.491
2937,627,1.477
2949,628,1.464
2961,629,1.451
2973,630,1.438
2985,631,1.426
2997,632,1.414
3009,633,1.403
3021,634,1.391
3033,635,1.38
3045,636,1.369
3057,637,1.359
3069,638,1.349
3081,639,1.339
3093,640,1.329
3105,641,1.319
3117,642,1.309
3129,643,1.3
3141,644,1.29
3153,645,1.281
3165,646,1.272
3177,647,1.263
3189,648,1.254
3201,649,1.245
3212,650,1.237
3225,651,1.227
3237,652,1.219
3249,653,1.21
3260,654,1.202
3272,655,1.194
3284,656,1.185
3296,657,1.177
3308,658,1.168
3320,659,1.16
3332,660,1.152
3344,661,1.144
3356,662,1.135
3368,663,1.127
3380,664,1.119
3392,665,1.111
3404,666,1.103
3416,667,1.095
3428,668,1.086
3440,669,1.078
3452,670,1.07
3464,671,1.062
3476,672,1.054
3488,673,1.046
3500,674,1.038
3512,675,1.029
3524,676,1.021
3536,677,1.013
3548,678,1.005
3560,679,0.997
3572,680,0.988
3584,681,0.98
3596,682,0.972
3608,683,0.963
3620,684,0.955
3632,685,0.946
3644,686,0.937
3656,687,0.929
3668,688,0.92
3680,689,0.911
3692,690,0.902
3704,691,0.893
3716,692,0.884
3727,693,0.876
3740,694,0.866
3751,695,0.857
3763,696,0.848
3775,697,0.838
3787,698,0.828
3799,699,0.818
3811,700,0.808
3823,701,0.798
3835,702,0.788
3847,703,0.778
3859,704,0.768
3871,705,0.757
3883,706,0.746
3895,707,0.735
3907,708,0.724
3919,709,0.713
3931,710,0.702
3943,711,0.69
3955,712,0.679
3967,713,0.667
3979,714,0.656
3991,715,0.644
4003,716,0.632
4015,717,0.62
4027,718,0.608
4039,719,0.596
4051,720,0.584
4063,721,0.572
4075,722,0.559
4087,723,0.547
4099,724,0.535
4111,725,0.522
4123,726,0.51
4135,727,0.497
4147,728,0.484
4159,729,0.471
4171,730,0.458
4183,731,0.445
4195,732,0.432
4207,733,0.419
4219,734,0.406
4231,735,0.393
4243,736,0.379
4255,737,0.365
4267,738,0.352
4279,739,0.338
4291,740,0.324
4303,741,0.31
4315,742,0.296
4327,743,0.281
4339,744,0.267
4351,745,0.252
4363,746,0.237
4375,747,0.222
4387,748,0.207
4399,749,0.191
4411,750,0.175
4423,751,0.16
4435,752,0.145
4447,753,0.129
4459,754,0.115
4471,755,0.101
4483,756,0.088
4495,757,0.076
4507,758,0.066
4519,759,0.058
4531,760,0.05
4543,761,0.045
4555,762,0.041
4567,763,0.038
4579,764,0.035
4591,765,0.033
4603,766,0.031
4615,767,0.03
4627,768,0.029
4639,769,0.029
4651,770,0.028
4663,771,0.028
4675,772,0.028
4687,773,0.028
4699,774,0.028
4711,775,0.028
4723,776,0.028
4735,777,0.027
4747,778,0.027
4759,779,0.027
4771,780,0.027
4783,781,0.027
4795,782,0.027
4807,783,0.027
4819,784,0.027
4831,785,0.027
4843,786,0.026
4855,787,0.026
4867,788,0.026
4879,789,0.026
4891,790,0.026
4903,791,0.026
4915,792,0.026
4927,793,0.026
4939,794,0.026
4951,795,0.026
4963,796,0.026
4975,797,0.025
4987,798,0.025
4999,799,0.025
5011,800,0.025
5023,801,0.025
5035,802,0.025
5047,803,0.025
5059,804,0.025
5071,805,0.025
5083,806,0.025
5095,807,0.025
5107,808,0.025
5119,809,0.025
5131,810,0.025
5143,811,0.025
5155,812,0.025
5167,813,0.025
5179,814,0.025
5191,815,0.025
5203,816,0.025
5215,817,0.025
5227,818,0.025
5239,819,0.025
5251,820,0.025
5263,821,0.025
5275,822,0.025
5287,823,0.025
5299,824,0.025
5311,825,0.025
5323,826,0.025
5335,827,0.025
5347,828,0.025
5359,829,0.025
5371,830,0.025
5383,831,0.025
5395,832,0.025
5407,833,0.025
5419,834,0.025
5431,835,0.025
5443,836,0.025
5455,837,0.025
5467,838,0.025
5479,839,0.025
5491,840,0.025
5503,841,0.025
5515,842,0.025
5527,843,0.025
5539,844,0.025
5551,845,0.025
5563,846,0.025
5575,847,0.025
5587,848,0.025
5599,849,0.025
5611,850,0.025
5623,851,0.025
5635,852,0.025
5647,853,0.025
5659,854,0.025
5671,855,0.025
5683,856,0.024
5695,857,0.024
5707,858,0.024
5719,859,0.024
5731,860,0.024
5743,861,0.024
5755,862,0.024
5767,863,0.024
5779,864,0.024
5791,865,0.024
5803,866,0.024
5815,867,0.024
5827,868,0.024
5839,869,0.024
5851,870,0.024
5863,871,0.024
5875,872,0.024
5887,873,0.024
5899,874,0.024
5911,875,0.024
5923,876,0.024
5935,877,0.024
5947,878,0.024
5959,879,0.024
5971,880,0.024
5983,881,0.024
5995,882,0.024
6007,883,0.024
6019,884,0.024
6031,885,0.024
6043,886,0.024
6055,887,0.024
6067,888,0.024
6079,889,0.024
6091,890,0.024
6103,891,0.024
6115,892,0.024
6127,893,0.024
6139,894,0.024
6151,895,0.024
6163,896,0.024
6175,897,0.024
6187,898,0.024
6199,899,0.024
6211,900,0.024
6223,901,0.024
6235,902,0.024
6247,903,0.024
6259,904,0.024
6271,905,0.023
6283,906,0.023
6295,907,0.023
6307,908,0.023
6319,909,0.024
6331,910,0.024
6343,911,0.024
6355,912,0.024
6367,913,0.024
6379,914,0.024
6391,915,0.024
6403,916,0.024
6415,917,0.024
6427,918,0.024
6439,919,0.024
6451,920,0.024
6463,921,0.024
6475,922,0.024
6487,923,0.024
6499,924,0.024
6511,925,0.024
6523,926,0.024
6535,927,0.024
6547,928,0.024
6559,929,0.024
6571,930,0.024
6583,931,0.024
6595,932,0.024
6607,933,0.024
6619,934,0.024
6631,935,0.024
6643,936,0.024
6655,937,0.024
6667,938,0.024
6679,939,0.024
6691,940,0.024
6703,941,0.024
6715,942,0.024
6727,943,0.024
6739,944,0.024
6751,945,0.024
6763,946,0.024
6775,947,0.024
6787,948,0.024
6799,949,0.024
6811,950,0.024
6823,951,0.024
6835,952,0.024
6847,953,0.024
6859,954,0.024
6871,955,0.024
6883,956,0.024
6895,957,0.024
6907,958,0.024
6919,959,0.024
6931,960,0.024
6943,961,0.024
6955,962,0.024
6967,963,0.024
6979,964,0.024
6991,965,0.024
7003,966,0.024
7015,967,0.024
7027,968,0.024
7039,969,0.024
7051,970,0.024
7063,971,0.024
7075,972,0.024
7087,973,0.024
7099,974,0.024
7111,975,0.024
7123,976,0.024
7135,977,0.024
7147,978,0.024
7159,979,0.024
7171,980,0.024
7183,981,0.024
7195,982,0.024
7207,983,0.024
7219,984,0.024
7231,985,0.024
7243,986,0.024
7255,987,0.024
7267,988,0.024
7279,989,0.024
7291,990,0.024
7303,991,0.024
7315,992,0.024
7327,993,0.024
7339,994,0.024
7351,995,0.024
7363,996,0.024
7375,997,0.024
7387,998,0.024
7399,999,0.024
7411,1000,0.024
7423,1001,0.024
7435,1002,0.024
7447,1003,0.024
7459,1004,0.025
7471,1005,0.025
7483,1006,0.024
7495,1007,0.024
7507,1008,0.024
7519,1009,0.025
7531,1010,0.024
7543,1011,0.025
7555,1012,0.025
7567,1013,0.025
7579,1014,0.025
7591,1015,0.025
7603,1016,0.025
7615,1017,0.025
7627,1018,0.025
7639,1019,0.025
7651,1020,0.025
7663,1021,0.025
7675,1022,0.025
7687,1023,0.025
7699,1024,0.025
7711,1025,0.025
7723,1026,0.025
7735,1027,0.025
7747,1028,0.025
7759,1029,0.025
7771,1030,0.025
7783,1031,0.025
7795,1032,0.025
7807,1033,0.025
7819,1034,0.025
7831,1035,0.025
7843,1036,0.025
7855,1037,0.025
7867,1038,0.025
7879,1039,0.025
7891,1040,0.025
7903,1041,0.025
7915,1042,0.025
7927,1043,0.025
7939,1044,0.025
7951,1045,0.025
7963,1046,0.025
7975,1047,0.025
7987,1048,0.025
7999,1049,0.025
8011,1050,0.025
8023,1051,0.025
8035,1052,0.025
8047,1053,0.024
8059,1054,0.025
8071,1055,0.025
8083,1056,0.025
8095,1057,0.025
8107,1058,0.025
8119,1059,0.025
8131,1060,0.025
8143,1061,0.025
8155,1062,0.025
8167,1063,0.025
8179,1064,0.025
8191,1065,0.025
8203,1066,0.025
8215,1067,0.025
8227,1068,0.025
8239,1069,0.025
8251,1070,0.025
8263,1071,0.024
8275,1072,0.024
8287,1073,0.024
8299,1074,0.024
8311,1075,0.024
8323,1076,0.025
8335,1077,0.025
8347,1078,0.025
8359,1079,0.025
8371,1080,0.025
8383,1081,0.025
8395,1082,0.025
8407,1083,0.025
8419,1084,0.025
8431,1085,0.025
8443,1086,0.025
8455,1087,0.025
8467,1088,0.025
8479,1089,0.025
8491,1090,0.025
8503,1091,0.025
8515,1092,0.025
8527,1093,0.025
8539,1094,0.025
8551,1095,0.025
8563,1096,0.025
8575,1097,0.025
8587,1098,0.025
8599,1099,0.025
8611,1100,0.025
8623,1101,0.024
8635,1102,0.024
8647,1103,0.024
8659,1104,0.024
8671,1105,0.025
8683,1106,0.025
8695,1107,0.025
8707,1108,0.025
8719,1109,0.025
8731,1110,0.025
8743,1111,0.025
8755,1112,0.025
8767,1113,0.025
8779,1114,0.025
8791,1115,0.025
8803,1116,0.025
8815,1117,0.025
8827,1118,0.025
8839,1119,0.025
8851,1120,0.025
8863,1121,0.025
8875,1122,0.025
8887,1123,0.025
8899,1124,0.025
8911,1125,0.025
8923,1126,0.025
8935,1127,0.025
8947,1128,0.025
8959,1129,0.025
8971,1130,0.025
8983,1131,0.025
8995,1132,0.025
9007,1133,0.025
9019,1134,0.025
9031,1135,0.024
9043,1136,0.024
9055,1137,0.024
9067,1138,0.024
9079,1139,0.024
9091,1140,0.024
9103,1141,0.024
9115,1142,0.024
9127,1143,0.024
9139,1144,0.024
9151,1145,0.024
9163,1146,0.024
9175,1147,0.024
9187,1148,0.024
9199,1149,0.024
9211,1150,0.024
9223,1151,0.024
9235,1152,0.024
9247,1153,0.024
9259,1154,0.024
9271,1155,0.024
9283,1156,0.024
9295,1157,0.023
9307,1158,0.023
9319,1159,0.023
9331,1160,0.023
9343,1161,0.023
9355,1162,0.023
9367,1163,0.023
9379,1164,0.023
9391,1165,0.023
9403,1166,0.023
9415,1167,0.023
9427,1168,0.023
9439,1169,0.023
9451,1170,0.023
9463,1171,0.023
9475,1172,0.023
9479,1173,0.023