File: Wood/Calibration_Data/IMT/IMT_Wood_TGA_N2_10K_R1.csv
Time (s),Temperature (K),Mass (mg)
0,383,4.921
17,384,4.922
24,385,4.923
31,386,4.923
38,387,4.923
44,388,4.923
51,389,4.923
57,390,4.923
63,391,4.923
70,392,4.923
76,393,4.923
82,394,4.923
88,395,4.923
94,396,4.923
100,397,4.922
106,398,4.922
112,399,4.922
118,400,4.922
124,401,4.922
130,402,4.922
136,403,4.922
142,404,4.922
148,405,4.922
154,406,4.921
160,407,4.921
166,408,4.921
172,409,4.921
178,410,4.921
184,411,4.921
190,412,4.921
196,413,4.92
201,414,4.92
207,415,4.92
213,416,4.92
219,417,4.919
225,418,4.919
231,419,4.919
237,420,4.919
243,421,4.918
249,422,4.918
255,423,4.918
261,424,4.917
267,425,4.917
273,426,4.917
279,427,4.916
285,428,4.916
291,429,4.916
297,430,4.915
303,431,4.915
309,432,4.914
315,433,4.914
321,434,4.913
327,435,4.913
333,436,4.912
339,437,4.912
345,438,4.911
351,439,4.91
357,440,4.91
363,441,4.909
369,442,4.908
375,443,4.908
381,444,4.907
387,445,4.906
392,446,4.905
398,447,4.904
404,448,4.904
410,449,4.903
416,450,4.902
422,451,4.901
428,452,4.899
434,453,4.898
440,454,4.897
446,455,4.896
452,456,4.895
458,457,4.893
464,458,4.892
470,459,4.89
476,460,4.889
482,461,4.887
488,462,4.886
494,463,4.884
500,464,4.882
506,465,4.881
512,466,4.879
518,467,4.877
524,468,4.875
530,469,4.873
536,470,4.871
542,471,4.868
548,472,4.866
554,473,4.864
560,474,4.861
566,475,4.859
572,476,4.856
578,477,4.854
584,478,4.851
590,479,4.848
596,480,4.845
602,481,4.842
608,482,4.839
614,483,4.836
620,484,4.833
626,485,4.83
632,486,4.827
638,487,4.824
643,488,4.821
649,489,4.818
655,490,4.814
661,491,4.811
667,492,4.807
673,493,4.804
679,494,4.8
685,495,4.797
691,496,4.793
697,497,4.789
703,498,4.785
709,499,4.781
715,500,4.777
721,501,4.773
727,502,4.769
733,503,4.765
739,504,4.761
745,505,4.757
751,506,4.752
757,507,4.748
763,508,4.744
769,509,4.739
775,510,4.735
781,511,4.73
787,512,4.725
793,513,4.72
799,514,4.715
805,515,4.71
811,516,4.704
817,517,4.699
823,518,4.694
829,519,4.688
835,520,4.682
841,521,4.676
847,522,4.67
853,523,4.664
859,524,4.657
865,525,4.65
871,526,4.644
877,527,4.636
883,528,4.629
889,529,4.622
894,530,4.615
900,531,4.607
906,532,4.599
912,533,4.591
918,534,4.583
924,535,4.574
930,536,4.565
936,537,4.556
942,538,4.546
948,539,4.537
954,540,4.528
960,541,4.518
966,542,4.508
972,543,4.497
978,544,4.487
984,545,4.477
990,546,4.466
996,547,4.455
1002,548,4.444
1008,549,4.433
1014,550,4.422
1020,551,4.41
1026,552,4.399
1032,553,4.387
1038,554,4.375
1044,555,4.363
1050,556,4.351
1056,557,4.338
1062,558,4.326
1068,559,4.314
1074,560,4.301
1080,561,4.288
1086,562,4.275
1092,563,4.263
1098,564,4.25
1104,565,4.236
1110,566,4.223
1116,567,4.21
1122,568,4.196
1128,569,4.183
1134,570,4.169
1140,571,4.155
1146,572,4.142
1151,573,4.13
1157,574,4.116
1163,575,4.102
1169,576,4.088
1175,577,4.073
1181,578,4.059
1187,579,4.044
1193,580,4.03
1199,581,4.014
1205,582,3.999
1211,583,3.984
1217,584,3.968
1223,585,3.952
1229,586,3.936
1235,587,3.92
1241,588,3.903
1247,589,3.887
1253,590,3.87
1259,591,3.852
1265,592,3.835
1271,593,3.817
1277,594,3.799
1283,595,3.78
1289,596,3.762
1295,597,3.743
1301,598,3.723
1307,599,3.704
1313,600,3.684
1319,601,3.663
1325,602,3.643
1331,603,3.622
1337,604,3.6
1343,605,3.578
1349,606,3.556
1355,607,3.533
1361,608,3.511
1367,609,3.487
1373,610,3.464
1379,611,3.439
1385,612,3.415
1391,613,3.39
1397,614,3.365
1403,615,3.339
1409,616,3.313
1414,617,3.291
1420,618,3.265
1426,619,3.238
1432,620,3.21
1438,621,3.183
1444,622,3.155
1450,623,3.126
1456,624,3.098
1462,625,3.069
1468,626,3.04
1474,627,3.01
1480,628,2.98
1486,629,2.95
1492,630,2.92
1498,631,2.889
1504,632,2.858
1510,633,2.827
1516,634,2.795
1522,635,2.763
1528,636,2.73
1534,637,2.698
1540,638,2.665
1546,639,2.631
1552,640,2.597
1558,641,2.563
1564,642,2.529
1570,643,2.494
1576,644,2.459
1582,645,2.423
1588,646,2.387
1594,647,2.351
1600,648,2.314
1606,649,2.277
1612,650,2.24
1618,651,2.202
1624,652,2.165
1630,653,2.127
1636,654,2.089
1642,655,2.051
1648,656,2.013
1654,657,1.975
1660,658,1.937
1666,659,1.899
1672,660,1.862
1678,661,1.825
1684,662,1.788
1689,663,1.758
1695,664,1.722
1701,665,1.687
1707,666,1.652
1713,667,1.619
1719,668,1.586
1725,669,1.555
1731,670,1.524
1737,671,1.495
1743,672,1.466
1749,673,1.439
1755,674,1.413
1761,675,1.389
1767,676,1.366
1773,677,1.344
1779,678,1.323
1785,679,1.304
1791,680,1.287
1797,681,1.271
1803,682,1.256
1809,683,1.243
1815,684,1.23
1821,685,1.219
1827,686,1.208
1833,687,1.199
1839,688,1.191
1845,689,1.184
1851,690,1.178
1857,691,1.172
1863,692,1.166
1869,693,1.161
1875,694,1.157
1881,695,1.152
1887,696,1.149
1893,697,1.145
1899,698,1.141
1905,699,1.138
1911,700,1.134
1917,701,1.131
1923,702,1.128
1929,703,1.125
1935,704,1.122
1941,705,1.119
1947,706,1.116
1953,707,1.113
1959,708,1.11
1965,709,1.107
1971,710,1.104
1977,711,1.101
1983,712,1.099
1989,713,1.096
1995,714,1.093
2001,715,1.09
2007,716,1.088
2013,717,1.085
2019,718,1.082
2025,719,1.079
2031,720,1.077
2037,721,1.074
2043,722,1.071
2049,723,1.069
2055,724,1.066
2061,725,1.063
2067,726,1.061
2073,727,1.058
2079,728,1.056
2085,729,1.053
2091,730,1.051
2097,731,1.048
2103,732,1.046
2109,733,1.043
2115,734,1.041
2121,735,1.038
2127,736,1.036
2133,737,1.033
2139,738,1.031
2145,739,1.029
2151,740,1.026
2157,741,1.024
2163,742,1.022
2169,743,1.019
2175,744,1.017
2181,745,1.015
2187,746,1.012
2193,747,1.01
2199,748,1.008
2205,749,1.006
2211,750,1.004
2217,751,1.002
2223,752,1
2229,753,0.998
2235,754,0.995
2241,755,0.993
2247,756,0.991
2253,757,0.989
2259,758,0.987
2265,759,0.985
2271,760,0.983
2277,761,0.982
2283,762,0.98
2289,763,0.978
2295,764,0.976
2301,765,0.974
2307,766,0.972
2313,767,0.971
2319,768,0.969
2325,769,0.967
2331,770,0.966
2337,771,0.964
2343,772,0.962
2349,773,0.961
2355,774,0.959
2361,775,0.957
2367,776,0.956
2373,777,0.954
2379,778,0.953
2385,779,0.951
2391,780,0.95
2397,781,0.948
2403,782,0.947
2409,783,0.945
2415,784,0.944
2421,785,0.942
2427,786,0.941
2433,787,0.94
2439,788,0.938
2445,789,0.937
2451,790,0.936
2457,791,0.934
2463,792,0.933
2469,793,0.932
2475,794,0.93
2481,795,0.929
2487,796,0.928
2493,797,0.927
2499,798,0.925
2505,799,0.924
2511,800,0.923
2517,801,0.922
2523,802,0.92
2529,803,0.919
2535,804,0.918
2541,805,0.917
2547,806,0.916
2553,807,0.914
2559,808,0.913
2565,809,0.912
2571,810,0.911
2577,811,0.91
2583,812,0.909
2589,813,0.908
2595,814,0.907
2601,815,0.905
2607,816,0.904
2613,817,0.903
2619,818,0.902
2625,819,0.901
2631,820,0.9
2637,821,0.899
2643,822,0.898
2649,823,0.897
2655,824,0.896
2661,825,0.895
2667,826,0.893
2673,827,0.892
2679,828,0.891
2685,829,0.89
2691,830,0.889
2697,831,0.888
2703,832,0.887
2709,833,0.886
2715,834,0.885
2721,835,0.884
2727,836,0.883
2733,837,0.882
2739,838,0.881
2745,839,0.88
2751,840,0.879
2757,841,0.878
2763,842,0.877
2769,843,0.876
2775,844,0.875
2781,845,0.874
2787,846,0.873
2793,847,0.872
2799,848,0.871
2805,849,0.87
2811,850,0.869
2817,851,0.868
2823,852,0.867
2829,853,0.867
2835,854,0.866
2841,855,0.865
2847,856,0.864
2853,857,0.863
2859,858,0.862
2865,859,0.861
2871,860,0.86
2877,861,0.859
2883,862,0.858
2889,863,0.857
2895,864,0.856
2901,865,0.856
2907,866,0.855
2913,867,0.854
2919,868,0.853
2925,869,0.852
2931,870,0.851
2937,871,0.85
2943,872,0.849
2949,873,0.848
2955,874,0.847
2961,875,0.847
2967,876,0.846
2973,877,0.845
2979,878,0.844
2985,879,0.843
2991,880,0.842
2997,881,0.841
3003,882,0.84
3009,883,0.839
3015,884,0.839
3021,885,0.838
3027,886,0.837
3033,887,0.836
3039,888,0.835
3045,889,0.834
3051,890,0.834
3057,891,0.833
3063,892,0.832
3069,893,0.831
3075,894,0.83
3081,895,0.829
3087,896,0.828
3093,897,0.828
3099,898,0.827
3105,899,0.826
3111,900,0.825
3117,901,0.824
3123,902,0.824
3129,903,0.823
3135,904,0.822
3141,905,0.821
3147,906,0.82
3153,907,0.82
3159,908,0.819
3165,909,0.818
3171,910,0.817
3177,911,0.816
3183,912,0.816
3189,913,0.815
3195,914,0.814
3201,915,0.813
3207,916,0.812
3213,917,0.812
3219,918,0.811
3225,919,0.81
3231,920,0.81
3236,921,0.809
3243,922,0.808
3249,923,0.807
3255,924,0.807
3261,925,0.806
3267,926,0.805
3273,927,0.804
3279,928,0.804
3285,929,0.803
3290,930,0.802
3297,931,0.802
3303,932,0.801
3309,933,0.8
3315,934,0.799
3321,935,0.799
3326,936,0.798
3333,937,0.797
3338,938,0.797
3345,939,0.796
3351,940,0.795
3357,941,0.795
3363,942,0.794
3369,943,0.793
3375,944,0.793
3381,945,0.792
3387,946,0.792
3393,947,0.791
3398,948,0.79
3405,949,0.79
3411,950,0.789
3416,951,0.788
3423,952,0.788
3429,953,0.787
3434,954,0.787
3440,955,0.786
3447,956,0.785
3452,957,0.785
3459,958,0.784
3465,959,0.784
3471,960,0.783
3476,961,0.783
3483,962,0.782
3489,963,0.781
3494,964,0.781
3500,965,0.78
3507,966,0.78
3512,967,0.779
3519,968,0.778
3525,969,0.778
3531,970,0.777
3537,971,0.777
3543,972,0.776
3548,973,0.776
3554,974,0.775
3561,975,0.775
3567,976,0.774
3573,977,0.774
3579,978,0.773
3585,979,0.773
3591,980,0.772
3597,981,0.771
3602,982,0.771
3608,983,0.771
3615,984,0.77
3621,985,0.769
3627,986,0.769
3633,987,0.768
3639,988,0.768
3645,989,0.768
3650,990,0.767
3657,991,0.767
3663,992,0.766
3669,993,0.766
3675,994,0.765
3680,995,0.765
3687,996,0.764
3692,997,0.764
3698,998,0.763
3705,999,0.763
3711,1000,0.762
3717,1001,0.762
3722,1002,0.761
3729,1003,0.761
3734,1004,0.761
3740,1005,0.76
3746,1006,0.76
3752,1007,0.759
3759,1008,0.759
3764,1009,0.758
3771,1010,0.758
3777,1011,0.757
3783,1012,0.757
3789,1013,0.756
3795,1014,0.756
3801,1015,0.755
3807,1016,0.755
3813,1017,0.755
3819,1018,0.754
3825,1019,0.754
3830,1020,0.753
3837,1021,0.753
3843,1022,0.752
3849,1023,0.752
3855,1024,0.752
3860,1025,0.751
3867,1026,0.751
3873,1027,0.75
3879,1028,0.75
3884,1029,0.75
3890,1030,0.749
3897,1031,0.749
3903,1032,0.748
3909,1033,0.748
3914,1034,0.748
3921,1035,0.747
3927,1036,0.747
3933,1037,0.746
3939,1038,0.746
3945,1039,0.745
3950,1040,0.745
3957,1041,0.745
3963,1042,0.744
3969,1043,0.744
3974,1044,0.743
3980,1045,0.743
3987,1046,0.743
3993,1047,0.742
3999,1048,0.742
4005,1049,0.741
4011,1050,0.741
4017,1051,0.741
4023,1052,0.74
4029,1053,0.74
4035,1054,0.739
4041,1055,0.739
4046,1056,0.739
4053,1057,0.738
4058,1058,0.738
4065,1059,0.737
4071,1060,0.737
4077,1061,0.736
4083,1062,0.736
4089,1063,0.735
4095,1064,0.735
4101,1065,0.735
4107,1066,0.735
4112,1067,0.734
4119,1068,0.734
4124,1069,0.734
4131,1070,0.733
4137,1071,0.733
4143,1072,0.732
4149,1073,0.732
4155,1074,0.731
4161,1075,0.731
4166,1076,0.731
4173,1077,0.73
4179,1078,0.73
4185,1079,0.729
4191,1080,0.729
4197,1081,0.729
4202,1082,0.728
4208,1083,0.728
4215,1084,0.727
4221,1085,0.727
4227,1086,0.726
4233,1087,0.726
4239,1088,0.726
4245,1089,0.725
4250,1090,0.725
4257,1091,0.725
4263,1092,0.724
4269,1093,0.724
4275,1094,0.724
4281,1095,0.723
4286,1096,0.723
4292,1097,0.722
4299,1098,0.722
4305,1099,0.722
4311,1100,0.721
4317,1101,0.721
4323,1102,0.721
4329,1103,0.72
4335,1104,0.72
4341,1105,0.719
4347,1106,0.719
4353,1107,0.719
4359,1108,0.718
4365,1109,0.718
4371,1110,0.717
4377,1111,0.717
4383,1112,0.717
4389,1113,0.716
4395,1114,0.716
4401,1115,0.716
4407,1116,0.715
4413,1117,0.715
4419,1118,0.714
4425,1119,0.714
4431,1120,0.713
4437,1121,0.713
4443,1122,0.713
4449,1123,0.713
4455,1124,0.712
4461,1125,0.712
4467,1126,0.711
4473,1127,0.711
4479,1128,0.71
4485,1129,0.71
4491,1130,0.71
4497,1131,0.709
4503,1132,0.709
4509,1133,0.708
4515,1134,0.708
4521,1135,0.707
4527,1136,0.707
4533,1137,0.707
4539,1138,0.706
4545,1139,0.706
4551,1140,0.705
4557,1141,0.705
4563,1142,0.705
4569,1143,0.704
4575,1144,0.704
4581,1145,0.703
4587,1146,0.703
4593,1147,0.702
4599,1148,0.702
4605,1149,0.701
4611,1150,0.701
4617,1151,0.701
4623,1152,0.7
4629,1153,0.7
4635,1154,0.699
4641,1155,0.699
4647,1156,0.699
4653,1157,0.698
4659,1158,0.698
4665,1159,0.697
4671,1160,0.697
4677,1161,0.696
4683,1162,0.696
4689,1163,0.695
4695,1164,0.695
4701,1165,0.694
4707,1166,0.694
4713,1167,0.693
4719,1168,0.693
4725,1169,0.692
4731,1170,0.692
4737,1171,0.691
4739,1171.5,0.691