File: Non-charring/PMMA/Sandia/SANDIA_TGA_Ar_1.csv
Time,Temperature,Mass
[s],[K],[mg]
1202.3,307.031,0.026
1434.88,307.531,0.027
1513.28,308.031,0.0281
1573.47,308.531,0.0251
1624.67,309.031,0.027
1670.68,309.531,0.0291
1713.906,310.031,0.028
1755.36,310.531,0.0296
1795.12,311.031,0.03
1833.26,311.531,0.028
1870.137,312.031,0.028
1906.19,312.531,0.0265
1941.42,313.031,0.028
1976.28,313.531,0.029
2010.426,314.031,0.0278
2044.3,314.531,0.0279
2077.69,315.031,0.0259
2110.66,315.531,0.026
2143.473,316.031,0.0278
2175.96,316.531,0.027
2208.444,317.031,0.029
2240.77,317.531,0.0253
2272.803,318.031,0.027
2304.78,318.531,0.028
2336.56,319.031,0.029
2368.23,319.531,0.03
2399.796,320.031,0.03
2431.12,320.531,0.029
2462.42,321.031,0.028
2493.57,321.531,0.028
2524.74,322.031,0.028
2555.9,322.531,0.028
2586.9,323.031,0.028
2617.842,323.531,0.028
2648.67,324.031,0.028
2679.53,324.531,0.029
2710.36,325.031,0.0302
2741.12,325.531,0.0282
2771.793,326.031,0.028
2802.29,326.531,0.028
2832.762,327.031,0.0283
2863.1,327.531,0.028
2893.46,328.031,0.0267
2923.8,328.531,0.0269
2954.07,329.031,0.026
2984.33,329.531,0.0251
3014.63,330.031,0.0259
3044.81,330.531,0.026
3074.97,331.031,0.0265
3105.14,331.531,0.028
3135.29,332.031,0.028
3165.42,332.531,0.029
3195.462,333.031,0.0285
3225.43,333.531,0.027
3255.27,334.031,0.0279
3285.08,334.531,0.0271
3314.99,335.031,0.027
3344.78,335.531,0.027
3374.676,336.031,0.0257
3404.49,336.531,0.025
3434.24,337.031,0.024
3464.08,337.531,0.0251
3493.84,338.031,0.0248
3523.6,338.531,0.025
3553.38,339.031,0.0259
3583.11,339.531,0.025
3612.69,340.031,0.025
3642.18,340.531,0.023
3671.52,341.031,0.023
3700.86,341.531,0.021
3730.188,342.031,0.0211
3759.56,342.531,0.022
3789.06,343.031,0.022
3818.415,343.531,0.02
3847.62,344.031,0.022
3876.702,344.531,0.021
3905.72,345.031,0.0222
3934.68,345.531,0.0239
3963.7,346.031,0.022
3992.82,346.531,0.023
4021.98,347.031,0.0241
4051.092,347.531,0.023
4080.12,348.031,0.023
4109.067,348.531,0.022
4137.885,349.031,0.022
4166.7,349.531,0.022
4195.65,350.031,0.023
4224.64,350.531,0.023
4253.73,351.031,0.021
4282.79,351.531,0.019
4311.789,352.031,0.019
4340.76,352.531,0.019
4369.66,353.031,0.019
4398.43,353.531,0.019
4427.22,354.031,0.0184
4455.92,354.531,0.019
4484.69,355.031,0.018
4513.54,355.531,0.019
4542.36,356.031,0.019
4571.16,356.531,0.019
4600.04,357.031,0.0195
4628.78,357.531,0.019
4657.563,358.031,0.021
4686.327,358.531,0.019
4714.95,359.031,0.019
4743.56,359.531,0.0171
4772.04,360.031,0.017
4800.42,360.531,0.015
4828.7,361.031,0.015
4857.03,361.531,0.017
4885.452,362.031,0.0177
4913.799,362.531,0.016
4942.32,363.031,0.016
4970.901,363.531,0.016
4999.185,364.031,0.016
5027.59,364.531,0.015
5055.82,365.031,0.015
5084.02,365.531,0.015
5112.31,366.031,0.015
5140.64,366.531,0.014
5169.02,367.031,0.014
5197.32,367.531,0.0129
5225.52,368.031,0.0143
5253.768,368.531,0.014
5281.962,369.031,0.013
5310.198,369.531,0.012
5338.44,370.031,0.012
5366.68,370.531,0.011
5394.98,371.031,0.011
5423.36,371.531,0.011
5451.65,372.031,0.00899
5480,372.531,0.00997
5508.32,373.031,0.01
5536.56,373.531,0.00998
5564.781,374.031,0.01
5593.08,374.531,0.01
5621.292,375.031,0.012
5649.53,375.531,0.012
5677.77,376.031,0.012
5705.946,376.531,0.00999
5734.08,377.031,0.01
5762.13,377.531,0.01
5790.16,378.031,0.012
5818.227,378.531,0.01
5846.331,379.031,0.009
5874.52,379.531,0.008
5902.71,380.031,0.00805
5930.81,380.531,0.00882
5958.87,381.031,0.00803
5986.92,381.531,0.01
6015.05,382.031,0.00792
6043.29,382.531,0.008
6071.52,383.031,0.00701
6099.741,383.531,0.007
6127.91,384.031,0.00499
6155.97,384.531,0.005
6184.035,385.031,0.004
6212.14,385.531,0.004
6240.23,386.031,0.004
6268.35,386.531,0.004
6296.41,387.031,0.00511
6324.47,387.531,0.006
6352.39,388.031,0.006
6380.25,388.531,0.00499
6408.08,389.031,0.004
6435.94,389.531,0.005
6463.96,390.031,0.005
6492.02,390.531,0.005
6520.047,391.031,0.005
6547.97,391.531,0.00502
6575.82,392.031,0.006
6603.63,392.531,0.004
6631.446,393.031,0.004
6659.24,393.531,0.004
6687,394.031,0.00194
6714.7,394.531,0.003
6742.32,395.031,0.00237
6769.983,395.531,0.001
6797.61,396.031,0.002
6825.35,396.531,0.002
6852.99,397.031,0.002
6880.671,397.531,0.002
6908.35,398.031,0.0011
6936.07,398.531,0.001
6963.79,399.031,0.0000218
6991.479,399.531,-0.00000062
7019.2,400.031,-0.001
7046.92,400.531,-0.002
7074.696,401.031,-0.002
7102.48,401.531,-0.002
7130.27,402.031,-0.003
7158.04,402.531,-0.003
7185.71,403.031,-0.003
7213.32,403.531,-0.003
7240.986,404.031,-0.003
7268.67,404.531,-0.00289
7296.4,405.031,-0.004
7324.15,405.531,-0.005
7351.82,406.031,-0.005
7379.51,406.531,-0.00698
7407.11,407.031,-0.007
7434.798,407.531,-0.00702
7462.53,408.031,-0.00791
7490.3,408.531,-0.01
7518,409.031,-0.014
7545.67,409.531,-0.013
7573.17,410.031,-0.012
7600.73,410.531,-0.012
7628.331,411.031,-0.0139
7655.8,411.531,-0.014
7683.31,412.031,-0.014
7710.72,412.531,-0.014
7738.098,413.031,-0.016
7765.51,413.531,-0.0181
7792.97,414.031,-0.0191
7820.51,414.531,-0.02
7848.11,415.031,-0.02
7875.65,415.531,-0.02
7903.22,416.031,-0.02
7930.79,416.531,-0.0199
7958.286,417.031,-0.021
7985.844,417.531,-0.023
8013.34,418.031,-0.024
8040.76,418.531,-0.0259
8068.14,419.031,-0.027
8095.55,419.531,-0.028
8122.94,420.031,-0.029
8150.32,420.531,-0.03
8177.71,421.031,-0.03
8205.135,421.531,-0.0309
8232.52,422.031,-0.0332
8259.85,422.531,-0.036
8287.24,423.031,-0.036
8314.605,423.531,-0.0389
8341.83,424.031,-0.0399
8369.1,424.531,-0.043
8396.44,425.031,-0.043
8423.802,425.531,-0.045
8451.29,426.031,-0.045
8478.84,426.531,-0.047
8506.41,427.031,-0.0491
8533.86,427.531,-0.05
8561.331,428.031,-0.0519
8588.802,428.531,-0.0547
8616.25,429.031,-0.056
8643.726,429.531,-0.057
8671.33,430.031,-0.06
8698.938,430.531,-0.0622
8726.63,431.031,-0.0629
8754.3,431.531,-0.067
8781.99,432.031,-0.0701
8809.71,432.531,-0.0709
8837.37,433.031,-0.072
8865.1,433.531,-0.074
8892.825,434.031,-0.076
8920.53,434.531,-0.08
8948.25,435.031,-0.083
8975.937,435.531,-0.085
9003.6,436.031,-0.087
9031.26,436.531,-0.091
9058.93,437.031,-0.0941
9086.59,437.531,-0.0961
9114.33,438.031,-0.0969
9142.122,438.531,-0.0991
9169.83,439.031,-0.1
9197.6,439.531,-0.10412
9225.35,440.031,-0.106
9253.116,440.531,-0.108
9280.82,441.031,-0.11
9308.55,441.531,-0.112
9336.22,442.031,-0.11498
9363.906,442.531,-0.116
9391.59,443.031,-0.11696
9419.31,443.531,-0.11879
9447.06,444.031,-0.12002
9474.79,444.531,-0.12102
9502.53,445.031,-0.12299
9530.23,445.531,-0.125
9557.94,446.031,-0.12699
9585.67,446.531,-0.129
9613.42,447.031,-0.13101
9641.24,447.531,-0.13395
9669,448.031,-0.13604
9696.81,448.531,-0.137
9724.56,449.031,-0.138
9752.22,449.531,-0.138
9779.86,450.031,-0.139
9807.42,450.531,-0.14
9835,451.031,-0.141
9862.54,451.531,-0.142
9890.21,452.031,-0.143
9917.865,452.531,-0.144
9945.53,453.031,-0.146
9973.31,453.531,-0.146
10001.1,454.031,-0.146
10028.9,454.531,-0.14911
10056.7,455.031,-0.149
10084.3,455.531,-0.15
10111.9,456.031,-0.152
10139.5,456.531,-0.15202
10167.3,457.031,-0.15522
10194.9,457.531,-0.15601
10222.689,458.031,-0.156
10250.4,458.531,-0.156
10278,459.031,-0.15701
10305.6,459.531,-0.157
10333.2,460.031,-0.157
10360.9,460.531,-0.157
10388.5,461.031,-0.15762
10416.1,461.531,-0.158
10443.726,462.031,-0.159
10471.3,462.531,-0.159
10498.812,463.031,-0.16102
10526.3,463.531,-0.162
10553.772,464.031,-0.163
10581.3,464.531,-0.163
10608.6,465.031,-0.165
10635.9,465.531,-0.16286
10663.2,466.031,-0.163
10690.497,466.531,-0.163
10717.797,467.031,-0.164
10745.1,467.531,-0.164
10772.5,468.031,-0.164
10799.8,468.531,-0.166
10827.1,469.031,-0.166
10854.4,469.531,-0.166
10881.8,470.031,-0.166
10909.2,470.531,-0.166
10936.527,471.031,-0.166
10964,471.531,-0.166
10991.451,472.031,-0.166
11018.7,472.531,-0.167
11046,473.031,-0.167
11073.333,473.531,-0.167
11100.6,474.031,-0.167
11127.9,474.531,-0.167
11155.2,475.031,-0.167
11182.3,475.531,-0.167
11209.3,476.031,-0.167
11236.3,476.531,-0.169
11263.3,477.031,-0.169
11290.3,477.531,-0.169
11317.3,478.031,-0.16889
11344.4,478.531,-0.16994
11371.5,479.031,-0.173
11398.6,479.531,-0.173
11425.8,480.031,-0.173
11453.1,480.531,-0.173
11480.5,481.031,-0.173
11507.8,481.531,-0.173
11535.2,482.031,-0.173
11562.5,482.531,-0.173
11589.8,483.031,-0.17077
11617.071,483.531,-0.16903
11644.4,484.031,-0.169
11671.7,484.531,-0.169
11699,485.031,-0.169
11726.4,485.531,-0.169
11753.8,486.031,-0.169
11781.1,486.531,-0.172
11808.576,487.031,-0.173
11836,487.531,-0.173
11863.5,488.031,-0.173
11890.989,488.531,-0.173
11918.511,489.031,-0.173
11946.1,489.531,-0.173
11973.6,490.031,-0.173
12001.3,490.531,-0.173
12028.851,491.031,-0.173
12056.5,491.531,-0.17419
12084.2,492.031,-0.176
12111.9,492.531,-0.176
12139.6,493.031,-0.176
12167.3,493.531,-0.176
12195,494.031,-0.17701
12222.6,494.531,-0.178
12250.1,495.031,-0.178
12277.491,495.531,-0.17906
12304.815,496.031,-0.181
12332.2,496.531,-0.181
12359.5,497.031,-0.181
12386.9,497.531,-0.183
12414.2,498.031,-0.183
12441.6,498.531,-0.183
12468.8,499.031,-0.18284
12496,499.531,-0.185
12523.2,500.031,-0.185
12550.5,500.531,-0.185
12577.8,501.031,-0.1871
12605.082,501.531,-0.187
12632.5,502.031,-0.18918
12659.9,502.531,-0.19001
12687.4,503.031,-0.19101
12715,503.531,-0.191
12742.8,504.031,-0.192
12770.6,504.531,-0.192
12798.3,505.031,-0.193
12826.152,505.531,-0.194
12853.9,506.031,-0.194
12881.5,506.531,-0.19393
12909,507.031,-0.19698
12936.6,507.531,-0.198
12964.029,508.031,-0.19905
12991.6,508.531,-0.201
13019.2,509.031,-0.202
13046.7,509.531,-0.20396
13074.2,510.031,-0.20567
13101.7,510.531,-0.20898
13129.3,511.031,-0.211
13156.8,511.531,-0.213
13184.3,512.031,-0.21351
13211.8,512.531,-0.215
13239.3,513.031,-0.21591
13266.9,513.531,-0.218
13294.7,514.031,-0.2179
13322.5,514.531,-0.22005
13350.3,515.031,-0.22103
13378.1,515.531,-0.22419
13405.7,516.031,-0.22558
13433.2,516.531,-0.226
13460.6,517.031,-0.228
13487.8,517.531,-0.228
13515.165,518.031,-0.23
13542.7,518.531,-0.23202
13570.4,519.031,-0.234
13598.1,519.531,-0.23595
13626.1,520.031,-0.23797
13653.93,520.531,-0.23901
13681.8,521.031,-0.241
13710,521.531,-0.24306
13738.1,522.031,-0.244
13766.406,522.531,-0.246
13794.8,523.031,-0.248
13823.1,523.531,-0.25003
13851.669,524.031,-0.252
13880.2,524.531,-0.25511
13908.6,525.031,-0.25811
13937.1,525.531,-0.26
13965.5,526.031,-0.26402
13994,526.531,-0.26701
14022.438,527.031,-0.2668
14050.9,527.531,-0.27204
14079.36,528.031,-0.27391
14107.8,528.531,-0.277
14136.2,529.031,-0.27798
14164.6,529.531,-0.28199
14193,530.031,-0.28397
14221.4,530.531,-0.28606
14249.9,531.031,-0.2878
14278.5,531.531,-0.29239
14307,532.031,-0.29494
14335.5,532.531,-0.298
14364,533.031,-0.30101
14392.467,533.531,-0.30299
14420.8,534.031,-0.30652
14449.3,534.531,-0.30816
14477.7,535.031,-0.31313
14506.1,535.531,-0.3162
14534.4,536.031,-0.31898
14562.7,536.531,-0.32306
14591.1,537.031,-0.32499
14619.4,537.531,-0.32913
14647.8,538.031,-0.33227
14676.2,538.531,-0.33495
14704.707,539.031,-0.341
14733.2,539.531,-0.34484
14761.8,540.031,-0.349
14790.366,540.531,-0.35306
14819,541.031,-0.35445
14847.6,541.531,-0.35895
14876.3,542.031,-0.36301
14904.9,542.531,-0.36592
14933.6,543.031,-0.36893
14962.2,543.531,-0.3711
14990.9,544.031,-0.37441
15019.6,544.531,-0.37792
15048.2,545.031,-0.38305
15076.908,545.531,-0.38699
15105.6,546.031,-0.39101
15134.292,546.531,-0.396
15163,547.031,-0.39996
15191.8,547.531,-0.40302
15220.56,548.031,-0.40697
15249.3,548.531,-0.41291
15278.1,549.031,-0.41699
15306.906,549.531,-0.42203
15335.7,550.031,-0.42596
15364.5,550.531,-0.43005
15393.1,551.031,-0.43399
15421.8,551.531,-0.43798
15450.414,552.031,-0.44306
15479.007,552.531,-0.44697
15507.7,553.031,-0.45201
15536.3,553.531,-0.4562
15564.963,554.031,-0.46013
15593.6,554.531,-0.46389
15622.3,555.031,-0.4686
15651,555.531,-0.47251
15679.7,556.031,-0.47811
15708.5,556.531,-0.48124
15737.4,557.031,-0.48821
15766.2,557.531,-0.49198
15795.1,558.031,-0.49726
15823.9,558.531,-0.50521
15852.6,559.031,-0.50757
15881.4,559.531,-0.5133
15910.2,560.031,-0.51811
15939,560.531,-0.52203
15967.8,561.031,-0.52653
15996.7,561.531,-0.53213
16025.751,562.031,-0.53646
16054.8,562.531,-0.54181
16083.8,563.031,-0.54734
16112.9,563.531,-0.55378
16141.9,564.031,-0.55897
16170.9,564.531,-0.56488
16199.8,565.031,-0.56898
16228.7,565.531,-0.575
16257.6,566.031,-0.57903
16286.3,566.531,-0.585
16315.1,567.031,-0.591
16343.8,567.531,-0.59699
16372.5,568.031,-0.60304
16401.1,568.531,-0.60902
16429.7,569.031,-0.61511
16458.4,569.531,-0.62073
16487.1,570.031,-0.62821
16515.9,570.531,-0.63496
16544.769,571.031,-0.64212
16573.7,571.531,-0.64755
16602.7,572.031,-0.65387
16631.598,572.531,-0.65988
16660.5,573.031,-0.66798
16689.5,573.531,-0.67598
16718.307,574.031,-0.683
16747.3,574.531,-0.69109
16776.222,575.031,-0.6972
16805.268,575.531,-0.70596
16834.4,576.031,-0.71426
16863.5,576.531,-0.72153
16892.7,577.031,-0.73006
16921.8,577.531,-0.73963
16950.9,578.031,-0.74696
16979.9,578.531,-0.755
17008.9,579.031,-0.76408
17038,579.531,-0.77401
17067,580.031,-0.78282
17096.1,580.531,-0.79202
17125.2,581.031,-0.80192
17154.3,581.531,-0.81321
17183.5,582.031,-0.82281
17212.7,582.531,-0.83398
17241.8,583.031,-0.84614
17270.9,583.531,-0.85845
17300.1,584.031,-0.86907
17329.3,584.531,-0.88256
17358.5,585.031,-0.89473
17387.7,585.531,-0.90692
17416.806,586.031,-0.92003
17446,586.531,-0.93415
17475.1,587.031,-0.94834
17504.2,587.531,-0.96256
17533.4,588.031,-0.97699
17562.4,588.531,-0.99374
17591.4,589.031,-1.0075
17620.419,589.531,-1.02468
17649.411,590.031,-1.04097
17678.4,590.531,-1.05811
17707.4,591.031,-1.07603
17736.5,591.531,-1.09553
17765.5,592.031,-1.11514
17794.38,592.531,-1.1335
17823.3,593.031,-1.15307
17852.1,593.531,-1.17373
17881,594.031,-1.19492
17909.9,594.531,-1.21705
17938.9,595.031,-1.23847
17968,595.531,-1.26141
17997,596.031,-1.28554
18026.1,596.531,-1.31082
18055.1,597.031,-1.33495
18084,597.531,-1.36108
18112.8,598.031,-1.38716
18141.7,598.531,-1.41412
18170.5,599.031,-1.44225
18199.4,599.531,-1.46806
18228.213,600.031,-1.49752
18257.058,600.531,-1.53034
18285.9,601.031,-1.56124
18314.7,601.531,-1.5933
18343.5,602.031,-1.62748
18372.3,602.531,-1.65949
18401.259,603.031,-1.69383
18430.2,603.531,-1.72515
18459.1,604.031,-1.76208
18488.1,604.531,-1.79796
18517,605.031,-1.83603
18546.045,605.531,-1.87216
18575.2,606.031,-1.91025
18604.4,606.531,-1.94856
18633.663,607.031,-1.98824
18662.8,607.531,-2.02761
18691.9,608.031,-2.06692
18720.9,608.531,-2.10699
18749.9,609.031,-2.14821
18778.9,609.531,-2.18712
18808,610.031,-2.22693
18836.898,610.531,-2.26747
18865.6,611.031,-2.30799
18894.2,611.531,-2.34741
18922.7,612.031,-2.38746
18951.3,612.531,-2.42815
18980.1,613.031,-2.46975
19009.1,613.531,-2.51314
19038.4,614.031,-2.56011
19067.7,614.531,-2.60382
19096.9,615.031,-2.64443
19125.993,615.531,-2.68863
19154.9,616.031,-2.73186
19183.8,616.531,-2.7761
19212.8,617.031,-2.82113
19241.8,617.531,-2.86382
19270.7,618.031,-2.90248
19299.7,618.531,-2.94728
19328.7,619.031,-2.99243
19357.7,619.531,-3.03211
19386.6,620.031,-3.07713
19415.7,620.531,-3.12066
19445,621.031,-3.16338
19474.275,621.531,-3.2093
19503.7,622.031,-3.25214
19532.9,622.531,-3.296
19562,623.031,-3.34162
19591.1,623.531,-3.38205
19620.315,624.031,-3.42259
19649.6,624.531,-3.46421
19678.8,625.031,-3.50614
19707.951,625.531,-3.54599
19737.1,626.031,-3.58728
19766.2,626.531,-3.62688
19795.4,627.031,-3.66661
19824.6,627.531,-3.70721
19853.9,628.031,-3.74698
19883.1,628.531,-3.78434
19912.4,629.031,-3.82171
19941.8,629.531,-3.85842
19971.2,630.031,-3.89452
20000.4,630.531,-3.92808
20029.6,631.031,-3.96047
20058.8,631.531,-3.99366
20087.9,632.031,-4.02697
20117,632.531,-4.05732
20146.3,633.031,-4.08703
20175.7,633.531,-4.11826
20205,634.031,-4.14757
20234.508,634.531,-4.17614
20264.1,635.031,-4.20222
20293.7,635.531,-4.23053
20323.4,636.031,-4.25616
20353.056,636.531,-4.28287
20382.6,637.031,-4.30682
20411.9,637.531,-4.33301
20441.184,638.031,-4.35723
20470.386,638.531,-4.37936
20499.6,639.031,-4.40108
20528.8,639.531,-4.42136
20558,640.031,-4.44253
20587.1,640.531,-4.46203
20616.4,641.031,-4.47849
20645.67,641.531,-4.49704
20675.2,642.031,-4.51448
20704.845,642.531,-4.53203
20734.7,643.031,-4.54858
20764.8,643.531,-4.56203
20794.992,644.031,-4.57692
20825.3,644.531,-4.59125
20855.5,645.031,-4.60467
20885.6,645.531,-4.6196
20915.5,646.031,-4.63193
20945.3,646.531,-4.6433
20975,647.031,-4.65545
21004.608,647.531,-4.66495
21034.3,648.031,-4.67524
21063.8,648.531,-4.68518
21093.2,649.031,-4.69385
21122.6,649.531,-4.70402
21151.9,650.031,-4.71188
21181.404,650.531,-4.72229
21211,651.031,-4.72899
21240.555,651.531,-4.73644
21270.2,652.031,-4.74373
21299.8,652.531,-4.74999
21329.5,653.031,-4.75662
21359.208,653.531,-4.76397
21388.9,654.031,-4.76811
21418.4,654.531,-4.77399
21447.9,655.031,-4.77967
21477.3,655.531,-4.78393
21506.7,656.031,-4.79014
21536.184,656.531,-4.79509
21565.8,657.031,-4.79789
21595.4,657.531,-4.80295
21625.1,658.031,-4.80796
21654.687,658.531,-4.81303
21684.2,659.031,-4.81598
21713.8,659.531,-4.82096
21743.2,660.031,-4.82713
21772.7,660.531,-4.829
21802.2,661.031,-4.83294
21831.7,661.531,-4.83603
21861.3,662.031,-4.84
21890.9,662.531,-4.84224
21920.724,663.031,-4.84641
21950.6,663.531,-4.84912
21980.6,664.031,-4.85164
22010.6,664.531,-4.85409
22040.6,665.031,-4.857
22070.7,665.531,-4.85904
22100.8,666.031,-4.859
22130.8,666.531,-4.86
22160.6,667.031,-4.86204
22190.445,667.531,-4.864
22220.2,668.031,-4.865
22250,668.531,-4.865
22279.8,669.031,-4.8661
22309.6,669.531,-4.866
22339.4,670.031,-4.86795
22369.134,670.531,-4.869
22398.8,671.031,-4.87
22428.471,671.531,-4.8708
22458.192,672.031,-4.87
22487.8,672.531,-4.87099
22517.6,673.031,-4.871
22547.5,673.531,-4.871
22577.5,674.031,-4.871
22607.9,674.531,-4.871
22638.6,675.031,-4.871
22669.6,675.531,-4.873
22700.94,676.031,-4.873
22732.2,676.531,-4.873
22763.3,677.031,-4.87497
22794.2,677.531,-4.875
22825,678.031,-4.874
22855.695,678.531,-4.87399
22886.6,679.031,-4.876
22917.5,679.531,-4.875
22948.7,680.031,-4.875
22979.8,680.531,-4.874
23010.9,681.031,-4.8739
23041.8,681.531,-4.876
23072.4,682.031,-4.876
23103,682.531,-4.876
23133.6,683.031,-4.876
23164.3,683.531,-4.876
23195.1,684.031,-4.876
23225.7,684.531,-4.87601
23256.3,685.031,-4.875
23286.7,685.531,-4.875
23317,686.031,-4.875
23347.1,686.531,-4.875
23377.2,687.031,-4.875
23407.3,687.531,-4.875
23437.458,688.031,-4.874
23467.7,688.531,-4.874
23497.9,689.031,-4.874
23528.1,689.531,-4.874
23558.3,690.031,-4.87399
23588.55,690.531,-4.876
23618.8,691.031,-4.876
23649,691.531,-4.876
23679.5,692.031,-4.876
23710.065,692.531,-4.876
23740.8,693.031,-4.87804
23771.7,693.531,-4.87906
23802.417,694.031,-4.878
23833.2,694.531,-4.878
23863.8,695.031,-4.878
23894.286,695.531,-4.878
23924.8,696.031,-4.878
23955.243,696.531,-4.878
23985.8,697.031,-4.878
24016.4,697.531,-4.878
24047,698.031,-4.878
24077.5,698.531,-4.878
24108.012,699.031,-4.878
24138.4,699.531,-4.87802
24168.7,700.031,-4.877
24199,700.531,-4.877
24229.098,701.031,-4.875
24259.2,701.531,-4.876
24289.311,702.031,-4.876
24319.503,702.531,-4.876
24349.7,703.031,-4.876
24380.1,703.531,-4.876
24410.6,704.031,-4.876
24441.2,704.531,-4.876
24472.1,705.031,-4.876
24503.3,705.531,-4.87705
24535.1,706.031,-4.877
24567.1,706.531,-4.877
24599.166,707.031,-4.87655
24631.1,707.531,-4.876
24662.8,708.031,-4.876
24694.3,708.531,-4.876
24725.8,709.031,-4.876
24757.5,709.531,-4.877
24789.3,710.031,-4.877
24821.3,710.531,-4.877
24853.3,711.031,-4.877
24884.952,711.531,-4.877
24916.548,712.031,-4.877
24947.991,712.531,-4.877
24979.5,713.031,-4.877
25011.195,713.531,-4.877
25043.2,714.031,-4.87699
25075.4,714.531,-4.878
25107.9,715.031,-4.878
25140.3,715.531,-4.878
25172.6,716.031,-4.878
25204.6,716.531,-4.878
25236.4,717.031,-4.878
25268.2,717.531,-4.878
25299.8,718.031,-4.878
25331.2,718.531,-4.878
25362.543,719.031,-4.8788
25393.7,719.531,-4.881
25424.7,720.031,-4.879
25455.624,720.531,-4.879
25486.5,721.031,-4.879
25517.295,721.531,-4.879
25548.1,722.031,-4.879
25578.9,722.531,-4.879
25609.8,723.031,-4.877
25640.6,723.531,-4.877
25671.6,724.031,-4.877
25702.6,724.531,-4.877
25733.5,725.031,-4.877
25764.7,725.531,-4.877
25795.959,726.031,-4.877
25827.261,726.531,-4.87801
25858.8,727.031,-4.878
25890.4,727.531,-4.878
25922,728.031,-4.877
25953.756,728.531,-4.877
25985.5,729.031,-4.877
26017.5,729.531,-4.877
26049.486,730.031,-4.877
26081.8,730.531,-4.877
26114.505,731.031,-4.876
26147.4,731.531,-4.876
26180.3,732.031,-4.877
26213.037,732.531,-4.877
26245.4,733.031,-4.877
26277.4,733.531,-4.877
26309,734.031,-4.877
26340.6,734.531,-4.87901
26372.1,735.031,-4.879
26403.7,735.531,-4.878
26435.5,736.031,-4.878
26467.4,736.531,-4.87803
26499.3,737.031,-4.87662
26531.1,737.531,-4.876
26562.9,738.031,-4.876
26594.595,738.531,-4.876
26626.3,739.031,-4.876
26658,739.531,-4.876
26689.68,740.031,-4.876
26721.5,740.531,-4.876
26753.4,741.031,-4.875
26785.245,741.531,-4.875
26817.159,742.031,-4.874
26849.163,742.531,-4.874
26881.2,743.031,-4.87303
26913.5,743.531,-4.873
26946,744.031,-4.875
26978.9,744.531,-4.875
27012.1,745.031,-4.875
27045.2,745.531,-4.874
27078,746.031,-4.874
27110.3,746.531,-4.874
27142,747.031,-4.874
27173.1,747.531,-4.874
27203.9,748.031,-4.874
27234.5,748.531,-4.874
27265,749.031,-4.874
27295.8,749.531,-4.874
27326.8,750.031,-4.874
27358,750.531,-4.872
27389.3,751.031,-4.873
27420.8,751.531,-4.87397
27452.3,752.031,-4.874
27483.9,752.531,-4.87503
27515.718,753.031,-4.876
27547.6,753.531,-4.876
27579.327,754.031,-4.876
27611,754.531,-4.876
27642.6,755.031,-4.874
27674.1,755.531,-4.874
27705.4,756.031,-4.874
27736.644,756.531,-4.875
27767.9,757.031,-4.875
27799,757.531,-4.875
27830.3,758.031,-4.875
27861.8,758.531,-4.874
27893.4,759.031,-4.874
27925.1,759.531,-4.874
27956.9,760.031,-4.874
27988.665,760.531,-4.874
28020.5,761.031,-4.874
28052.352,761.531,-4.874
28084.1,762.031,-4.874
28115.9,762.531,-4.87501
28147.5,763.031,-4.874
28179,763.531,-4.874
28210.5,764.031,-4.874
28242,764.531,-4.874
28273.4,765.031,-4.87467
28304.9,765.531,-4.875
28336.3,766.031,-4.875
28367.9,766.531,-4.875
28399.5,767.031,-4.875
28431.4,767.531,-4.87279
28463.3,768.031,-4.873
28495.1,768.531,-4.873
28526.9,769.031,-4.874
28558.6,769.531,-4.87497
28590.2,770.031,-4.875
28622.1,770.531,-4.874
28654.1,771.031,-4.874
28686.4,771.531,-4.874
28719.018,772.031,-4.874
28752.1,772.531,-4.875
28785.4,773.031,-4.875
28819.1,773.531,-4.875
28852.9,774.031,-4.875
28886.8,774.531,-4.875
28920.5,775.031,-4.877
28953.9,775.531,-4.876
28986.8,776.031,-4.876
29019,776.531,-4.876
29050.6,777.031,-4.876
29081.8,777.531,-4.875
29112.7,778.031,-4.875
29143.5,778.531,-4.875
29174.4,779.031,-4.87498
29205.5,779.531,-4.877
29236.6,780.031,-4.877
29267.7,780.531,-4.877
29298.7,781.031,-4.877
29329.6,781.531,-4.877
29360.4,782.031,-4.87591
29391.2,782.531,-4.876
29422.2,783.031,-4.876
29453.5,783.531,-4.876
29485.2,784.031,-4.876
29517.3,784.531,-4.878
29549.6,785.031,-4.878
29582.1,785.531,-4.878
29614.956,786.031,-4.878
29648.3,786.531,-4.878
29682.4,787.031,-4.878
29716.953,787.531,-4.878
29751.4,788.031,-4.87753
29785.3,788.531,-4.87701
29818.2,789.031,-4.876
29850.2,789.531,-4.87606
29881.5,790.031,-4.878
29912.433,790.531,-4.878
29943.2,791.031,-4.87792
29974,791.531,-4.879
30005.2,792.031,-4.879
30036.876,792.531,-4.879
30069.1,793.031,-4.87908
30101.637,793.531,-4.87798
30134.3,794.031,-4.877
30166.7,794.531,-4.87649
30199,795.031,-4.875
30231.1,795.531,-4.875
30263.2,796.031,-4.875
30295.4,796.531,-4.875
30327.336,797.031,-4.875
30359.2,797.531,-4.875
30390.9,798.031,-4.875
30422.508,798.531,-4.875
30454.4,799.031,-4.87496
30486.7,799.531,-4.873
30519.5,800.031,-4.873
30552.6,800.531,-4.87501
30586.1,801.031,-4.875
30619.5,801.531,-4.876
30652.8,802.031,-4.876
30685.8,802.531,-4.876
30718.6,803.031,-4.876
30751.215,803.531,-4.876
30784,804.031,-4.8762
30816.9,804.531,-4.874
30849.8,805.031,-4.874
30883.1,805.531,-4.875
30916.263,806.031,-4.876
30949.4,806.531,-4.876
30982.2,807.031,-4.876
31014.834,807.531,-4.877
31047.303,808.031,-4.875
31080,808.531,-4.875
31112.6,809.031,-4.875
31145.3,809.531,-4.875
31178.1,810.031,-4.873
31210.8,810.531,-4.874
31243.425,811.031,-4.874
31275.8,811.531,-4.87508
31307.874,812.031,-4.875
31339.7,812.531,-4.875
31371.5,813.031,-4.875
31403.184,813.531,-4.875
31434.7,814.031,-4.877
31466.31,814.531,-4.877
31498.02,815.031,-4.879
31529.8,815.531,-4.878
31561.8,816.031,-4.878
31593.7,816.531,-4.87798
31625.6,817.031,-4.879
31657.2,817.531,-4.87803
31688.586,818.031,-4.87901
31719.7,818.531,-4.87986
31750.569,819.031,-4.88009
31781.3,819.531,-4.879
31811.9,820.031,-4.879
31842.7,820.531,-4.878
31873.6,821.031,-4.877
31904.9,821.531,-4.877
31936.6,822.031,-4.877
31968.735,822.531,-4.876
32001.5,823.031,-4.876
32034.5,823.531,-4.876
32067.7,824.031,-4.87506
32100.6,824.531,-4.877
32133.3,825.031,-4.877
32165.9,825.531,-4.877
32198.526,826.031,-4.87595
32231.2,826.531,-4.87797
32264,827.031,-4.878
32296.7,827.531,-4.877
32329.3,828.031,-4.876
32361.7,828.531,-4.876
32393.7,829.031,-4.878
32425.6,829.531,-4.878
32457.3,830.031,-4.878
32489,830.531,-4.877
32520.699,831.031,-4.877
32552.7,831.531,-4.876
32585,832.031,-4.87611
32617.6,832.531,-4.875
32650.5,833.031,-4.875
32683.4,833.531,-4.875
32716.2,834.031,-4.875
32748.7,834.531,-4.875
32781.2,835.031,-4.87603
32813.7,835.531,-4.87701
32846.6,836.031,-4.87588
32880,836.531,-4.876
32913.954,837.031,-4.876
32948.2,837.531,-4.876
32982.48,838.031,-4.876
33016.6,838.531,-4.876
33050.6,839.031,-4.876
33084.3,839.531,-4.876
33117.78,840.031,-4.876
33151,840.531,-4.87701
33184,841.031,-4.87907
33216.7,841.531,-4.877
33249.5,842.031,-4.878
33282.2,842.531,-4.878
33315,843.031,-4.878
33348.009,843.531,-4.878
33381.2,844.031,-4.878
33414.7,844.531,-4.878
33448.6,845.031,-4.878
33482.565,845.531,-4.878
33516.4,846.031,-4.878
33549.81,846.531,-4.878
33582.666,847.031,-4.878
33615,847.531,-4.878
33647.1,848.031,-4.87794
33679.3,848.531,-4.878
33711.5,849.031,-4.878
33744.036,849.531,-4.879
33776.5,850.031,-4.881
33808.932,850.531,-4.88093
33841.2,851.031,-4.88
33873.3,851.531,-4.879
33905.409,852.031,-4.879
33937.4,852.531,-4.879
33969.4,853.031,-4.878
34001.2,853.531,-4.878
34032.8,854.031,-4.878
34064.1,854.531,-4.878
34095.2,855.031,-4.877
34126.146,855.531,-4.877
34156.983,856.031,-4.87594
34187.7,856.531,-4.8759
34218.33,857.031,-4.878
34248.906,857.531,-4.878
34279.5,858.031,-4.878
34310.2,858.531,-4.878
34341.2,859.031,-4.878
34372.3,859.531,-4.878
34403.481,860.031,-4.87714
34434.7,860.531,-4.87874
34466,861.031,-4.87907
34497.1,861.531,-4.879
34527.9,862.031,-4.879
34558.5,862.531,-4.879
34588.866,863.031,-4.879
34619.3,863.531,-4.879
34649.9,864.031,-4.879
34680.8,864.531,-4.87997
34711.9,865.031,-4.88007
34743.4,865.531,-4.878
34775.22,866.031,-4.87875
34806.9,866.531,-4.879
34838.3,867.031,-4.879
34869.3,867.531,-4.87899
34899.6,868.031,-4.878
34929.3,868.531,-4.879
34958.1,869.031,-4.87899
34986.2,869.531,-4.87692
35013.4,870.031,-4.877
35040,870.531,-4.876
35066.238,871.031,-4.874
35092.3,871.531,-4.874
35118.8,872.031,-4.874
35146.3,872.531,-4.875
35175.1,873.031,-4.875
35205.9,873.531,-4.87601
35238.663,874.031,-4.87685
35273.046,874.531,-4.877
35308.1,875.031,-4.875
35342.8,875.531,-4.875
35377.23,876.031,-4.875