File: Wood/Calibration_Data/FPL/FPL_Wood_Cone_50kW_hor_R3.csv
Time (s),Mass (g),HRR (kW/m2)
0,99.18926,2.17897
2,99.18438,2.252
4,99.18031,2.16135
6,99.1465,1.51962
8,99.1411,-0.170186
10,99.1389,2.2908
12,99.12956,1.81635
14,99.05658,1.05766
16,98.9731,83.0911
18,98.7418,131.792
20,98.4871,199.696
22,98.1921,209.577
24,97.9816,198.503
26,97.7426,182.945
28,97.5475,168.642
30,97.3767,157.601
32,97.1938,145.352
34,97.0689,135.072
36,96.8606,129.471
38,96.739,120.251
40,96.5748,121.206
42,96.4126,118.138
44,96.2754,116.136
46,96.1186,117.497
48,95.9986,111.584
50,95.8726,111.415
52,95.73656,105.398
54,95.6131,109.094
56,95.4557,101.196
58,95.3517,101.884
60,95.22021,99.2433
62,95.1372,100.735
64,94.9979,95.8111
66,94.8725,95.012
68,94.7902,93.5876
70,94.6289,93.6502
72,94.5359,90.5273
74,94.4254,90.6433
76,94.3116,89.0119
78,94.18207,88.4797
80,94.0878,86.3174
82,93.9933,83.4598
84,93.8375,82.9306
86,93.7616,82.673
88,93.6904,79.324
90,93.5699,80.2418
92,93.5073,77.824
94,93.3713,80.7926
96,93.2738,81.1013
98,93.1811,80.3671
100,93.054,79.008
102,92.9808,78.5698
104,92.8648,80.2246
106,92.7993,77.1919
108,92.6952,78.3549
110,92.57179,76.7864
112,92.4822,74.4274
114,92.4118,74.1318
116,92.318,78.2908
118,92.18111,74.1032
120,92.122,71.8244
122,92.0486,73.8677
124,91.9323,75.2749
126,91.8201,73.2921
128,91.6888,72.6311
130,91.6213,74.8855
132,91.5508,72.6358
134,91.4742,75.0403
136,91.36334,72.4812
138,91.2093,74.3139
140,91.1758,72.529
142,91.10174,73.2415
144,90.97,72.7976
146,90.8478,72.0826
148,90.7921,70.5748
150,90.7051,69.5586
152,90.6117,68.7013
154,90.4685,68.8596
156,90.4075,69.6974
158,90.2935,69.2506
160,90.2082,70.4271
162,90.0986,68.0519
164,90.02322,67.8863
166,89.99132,68.0569
168,89.8407,66.1334
170,89.7366,66.4637
172,89.6998,68.5292
174,89.5865,67.0429
176,89.5088,65.5128
178,89.3812,68.7685
180,89.3231,65.8417
182,89.24,66.3051
184,89.1441,67.4309
186,89.0672,66.3114
188,88.94786,64.8785
190,88.87,65.1812
192,88.7909,66.7917
194,88.6824,65.111
196,88.5914,66.1818
198,88.5239,65.4718
200,88.4327,63.3511
202,88.31873,64.361
204,88.2202,67.4416
206,88.1439,68.0658
208,88.0435,67.171
210,87.9475,66.0458
212,87.8593,67.2438
214,87.7629,63.1214
216,87.6495,67.1447
218,87.5588,68.162
220,87.5278,67.6883
222,87.4331,66.5159
224,87.3055,68.4915
226,87.20578,66.2289
228,87.1343,65.3269
230,87.01704,66.0141
232,86.9333,65.4999
234,86.8333,65.0063
236,86.7319,63.4783
238,86.6536,62.9406
240,86.5532,67.2346
242,86.4827,64.2379
244,86.3846,65.5055
246,86.2787,66.8004
248,86.181,64.6784
250,86.07303,62.6189
252,85.9822,65.5209
254,85.8903,64.8774
256,85.7691,64.4817
258,85.7285,63.4625
260,85.5906,65.4846
262,85.50853,64.8021
264,85.4002,66.2479
266,85.3546,66.2738
268,85.24,65.9279
270,85.1724,65.5693
272,85.054,65.676
274,84.9517,65.5904
276,84.8673,63.394
278,84.7643,63.1081
280,84.6528,63.977
282,84.5808,63.9495
284,84.4381,65.025
286,84.38707,69.3876
288,84.27,66.4917
290,84.1702,66.3574
292,84.0804,65.9312
294,83.9901,63.9506
296,83.8922,66.5703
298,83.74551,65.6531
300,83.67159,67.2549
302,83.6262,68.0962
304,83.4833,68.8299
306,83.4165,69.1859
308,83.2733,69.9362
310,83.1603,68.2251
312,83.0929,68.8805
314,82.9831,70.2236
316,82.883,72.2688
318,82.7996,68.4134
320,82.6977,66.8719
322,82.576,67.3077
324,82.4758,67.9435
326,82.3059,67.3306
328,82.2901,71.9361
330,82.1239,66.9082
332,82.0816,68.2203
334,81.91998,67.2557
336,81.8698,68.6956
338,81.73939,66.9094
340,81.6555,68.1729
342,81.53329,68.185
344,81.4682,67.8006
346,81.335,68.9921
348,81.2322,70.0489
350,81.1104,71.8798
352,81.0108,71.7796
354,80.9223,71.3109
356,80.8116,69.4547
358,80.70921,69.5428
360,80.58234,68.0089
362,80.4866,69.6818
364,80.3769,72.3005
366,80.28802,73.874
368,80.1955,72.2327
370,80.06561,72.9992
372,79.9507,72.0163
374,79.84897,70.6949
376,79.7489,70.9556
378,79.6545,72.0428
380,79.5418,73.9339
382,79.4279,75.8286
384,79.33666,75.7874
386,79.2309,74.9408
388,79.12229,72.289
390,79.0308,71.8169
392,78.9383,71.3764
394,78.76708,70.6466
396,78.7177,74.2875
398,78.5527,73.8578
400,78.4726,72.579
402,78.3692,72.7981
404,78.251,74.3491
406,78.1831,76.2129
408,78.0202,75.018
410,77.9524,72.6784
412,77.8418,73.2363
414,77.7228,73.8135
416,77.6313,72.3303
418,77.5014,76.9942
420,77.4118,74.052
422,77.3013,73.1324
424,77.2088,74.541
426,77.0508,75.1819
428,76.9393,70.8099
430,76.8297,73.7533
432,76.7727,73.6938
434,76.6761,73.372
436,76.5335,74.731
438,76.4119,74.4808
440,76.3685,73.4633
442,76.2914,74.0302
444,76.1719,73.2517
446,76.01543,73.5744
448,75.8838,75.9568
450,75.7851,76.1402
452,75.6958,73.3584
454,75.5686,75.3551
456,75.4492,76.3747
458,75.3629,75.1251
460,75.2497,76.5062
462,75.1902,78.4174
464,75.0156,76.3861
466,74.9312,76.8135
468,74.8286,76.9688
470,74.7451,75.0921
472,74.5569,76.1897
474,74.525,76.2113
476,74.4138,77.4936
478,74.3055,78.5231
480,74.1618,76.9015
482,74.0774,73.6011
484,73.9877,78.029
486,73.8431,76.5509
488,73.782,76.7933
490,73.6305,76.518
492,73.54229,77.5576
494,73.4676,76.772
496,73.331,77.0298
498,73.2187,75.5112
500,73.111,75.282
502,73.0069,76.2758
504,72.919,78.3644
506,72.7987,75.8964
508,72.6925,74.861
510,72.6205,77.6206
512,72.5097,75.9168
514,72.3713,74.498
516,72.2567,76.7435
518,72.1704,76.5154
520,72.0644,75.275
522,71.9171,75.4005
524,71.8465,77.4824
526,71.7125,77.088
528,71.5998,77.6118
530,71.5163,78.0082
532,71.4178,77.0277
534,71.2868,77.65
536,71.2037,78.2479
538,71.0822,77.4889
540,70.97531,76.772
542,70.8623,78.7368
544,70.7631,77.405
546,70.6705,77.2087
548,70.5533,77.5644
550,70.4413,76.904
552,70.3308,78.3386
554,70.2405,77.8459
556,70.1307,77.8054
558,70.0325,76.8506
560,69.91428,75.9621
562,69.7914,77.1573
564,69.7358,77.4564
566,69.6149,77.6081
568,69.4918,76.7739
570,69.3599,77.6881
572,69.2341,78.4415
574,69.1325,76.061
576,69.0168,76.5111
578,68.92292,78.6575
580,68.8507,76.1873
582,68.7231,76.8569
584,68.65025,77.2054
586,68.53021,74.4758
588,68.4077,75.9676
590,68.2894,75.1658
592,68.2462,76.9264
594,68.0983,76.4328
596,68.0032,77.2409
598,67.8885,75.6918
600,67.7544,77.2099
602,67.6732,75.5323
604,67.5467,74.0561
606,67.4721,75.4757
608,67.3407,79.4763
610,67.2407,77.8865
612,67.15478,77.2985
614,66.9649,77.3045
616,66.8864,76.4476
618,66.8003,78.5804
620,66.7162,77.5469
622,66.57573,76.4859
624,66.4991,78.2151
626,66.368,78.4911
628,66.3569,77.6198
630,66.2007,75.0106
632,66.0922,75.4623
634,65.961,74.593
636,65.866,73.954
638,65.7605,74.1261
640,65.6763,76.471
642,65.5466,72.0286
644,65.4381,75.0667
646,65.331,74.8424
648,65.19,74.4661
650,65.138,76.4074
652,65.0356,75.683
654,64.9092,75.7773
656,64.8234,76.0226
658,64.7004,76.4935
660,64.587,75.9536
662,64.4807,77.5385
664,64.3839,78.7466
666,64.2931,76.4707
668,64.1953,76.128
670,64.0659,76.1719
672,63.9681,74.1383
674,63.858,76.8284
676,63.7565,76.9705
678,63.65123,74.958
680,63.5909,77.3273
682,63.4586,77.3886
684,63.3517,76.5732
686,63.2453,74.0719
688,63.15,78.2474
690,63.0237,76.6882
692,62.9486,76.4691
694,62.8707,80.8136
696,62.7239,77.7348
698,62.6303,75.9599
700,62.5407,75.6506
702,62.4585,80.3442
704,62.3357,76.8899
706,62.2324,77.204
708,62.1057,75.2845
710,61.9856,75.1236
712,61.888,74.6987
714,61.8167,73.4326
716,61.6791,77.742
718,61.5789,79.1631
720,61.4801,77.79
722,61.36648,76.8313
724,61.2872,77.5344
726,61.1564,76.7819
728,61.061,77.7255
730,61.0038,77.7755
732,60.8757,75.8974
734,60.7221,76.7422
736,60.6532,78.3168
738,60.5645,78.4704
740,60.4474,74.7454
742,60.3002,77.2577
744,60.2348,76.9604
746,60.1391,77.1854
748,60.0126,75.983
750,59.9379,76.0604
752,59.8344,75.9567
754,59.7461,77.3663
756,59.6568,77.1695
758,59.5638,73.6493
760,59.41552,74.5434
762,59.33533,75.6471
764,59.2184,79.522
766,59.1077,76.9855
768,59.0035,77.5034
770,58.9202,77.9205
772,58.7847,75.2511
774,58.714,71.457
776,58.5894,79.3607
778,58.4938,75.8573
780,58.4079,77.147
782,58.3182,77.3232
784,58.1931,80.0163
786,58.067,77.7523
788,57.9746,78.1687
790,57.9055,79.5046
792,57.7516,77.5699
794,57.6025,81.5331
796,57.5493,81.2519
798,57.4398,77.5036
800,57.3546,77.2903
802,57.276,83.064
804,57.1425,80.5584
806,57.02233,79.5526
808,56.8834,80.1077
810,56.8076,81.6675
812,56.6678,78.7497
814,56.6452,82.5131
816,56.5119,81.3265
818,56.3994,77.9995
820,56.3229,78.9644
822,56.1997,79.4924
824,56.1138,81.3274
826,55.9855,82.9683
828,55.8742,82.6024
830,55.7615,79.1331
832,55.689,80.8685
834,55.5842,82.0458
836,55.4616,76.9287
838,55.3589,81.8954
840,55.2456,80.5831
842,55.1403,81.3539
844,55.0421,82.2939
846,54.9461,80.9575
848,54.8424,79.1566
850,54.7276,83.1532
852,54.5966,84.3453
854,54.4835,82.8474
856,54.4297,83.9112
858,54.29319,83.0371
860,54.15338,84.2815
862,54.1066,82.5826
864,53.9688,82.5809
866,53.8738,85.4887
868,53.7771,84.7713
870,53.6443,85.7629
872,53.5051,85.7762
874,53.3964,88.8566
876,53.2957,84.6495
878,53.1774,82.9105
880,53.0346,85.2888
882,52.9715,85.8583
884,52.84005,85.2305
886,52.7736,85.8389
888,52.6402,85.3176
890,52.5153,84.2562
892,52.3816,90.9861
894,52.3337,88.4844
896,52.219,84.4012
898,52.132,88.1362
900,51.9849,88.9331
902,51.8762,88.3937
904,51.7689,85.5495
906,51.6267,89.4073
908,51.5306,89.0261
910,51.4336,86.8076
912,51.294,91.2178
914,51.1948,89.0184
916,51.0877,85.889
918,50.9507,89.9965
920,50.8715,89.6894
922,50.7298,91.075
924,50.62848,91.9555
926,50.5357,93.1148
928,50.40467,89.8634
930,50.3065,89.9319
932,50.141,90.812
934,50.0333,87.1235
936,49.942,85.9635
938,49.8342,90.9396
940,49.729,92.3157
942,49.5786,90.9803
944,49.4674,92.6846
946,49.3357,91.0128
948,49.2198,96.7583
950,49.1241,92.6207
952,48.9853,91.3063
954,48.9027,96.3988
956,48.784,94.2353
958,48.6487,93.2416
960,48.4937,92.8682
962,48.3907,96.7971
964,48.2933,97.4641
966,48.1527,93.9109
968,48.0361,95.1667
970,47.9603,95.6785
972,47.8181,92.4765
974,47.6677,96.6413
976,47.5555,97.6571
978,47.5139,96.3329
980,47.3254,93.4132
982,47.2401,96.1773
984,47.1313,94.2658
986,47.0203,96.9657
988,46.8547,95.3844
990,46.7457,101.068
992,46.6407,101.236
994,46.48647,97.2608
996,46.3977,95.4779
998,46.26,98.5038
1000,46.1469,102.091
1002,46.0029,102.051
1004,45.8957,97.8064
1006,45.7741,98.8907
1008,45.59977,102.312
1010,45.513,101.593
1012,45.3923,104.442
1014,45.2614,101.72
1016,45.1539,100.291
1018,45.0214,100.887
1020,44.9124,104.493
1022,44.7724,102.658
1024,44.6473,102.919
1026,44.5233,103.618
1028,44.381,102.099
1030,44.1239,104.338
1032,44.1344,101.236
1034,44.0152,100.944
1036,43.8419,101.019
1038,43.7168,102.298
1040,43.6346,103.034
1042,43.5186,101.135
1044,43.3507,107.233
1046,43.2465,106.791
1048,43.1034,106.507
1050,43.0014,106.448
1052,42.8351,107.321
1054,42.6813,102.451
1056,42.5719,104.705
1058,42.466,104.886
1060,42.3068,106.692
1062,42.2588,109.039
1064,42.1005,108.954
1066,41.9491,106.335
1068,41.81107,108.772
1070,41.6548,108.277
1072,41.5513,109.491
1074,41.4391,107.882
1076,41.2792,109.519
1078,41.1375,106.259
1080,41.0115,107.937
1082,40.86156,108.358
1084,40.7207,108.937
1086,40.6359,108.598
1088,40.4659,109.538
1090,40.3358,114.702
1092,40.21199,112.101
1094,40.07477,111.991
1096,39.9432,113.639
1098,39.81,113.51
1100,39.6809,110.268
1102,39.5229,110.965
1104,39.3703,111.91
1106,39.2208,114.827
1108,39.1164,111.004
1110,39.0464,110.168
1112,38.8603,111.359
1114,38.7427,111.77
1116,38.5899,110.576
1118,38.4111,114.627
1120,38.2798,113.558
1122,38.1458,111.048
1124,38.0157,113.712
1126,37.8927,114.57
1128,37.7512,112.303
1130,37.6201,111.224
1132,37.4606,117.803
1134,37.3269,111.603
1136,37.1688,113.856
1138,37.0117,114.577
1140,36.8949,114.387
1142,36.7619,113.478
1144,36.6087,114.194
1146,36.5142,115.191
1148,36.3489,114.914
1150,36.1782,117.428
1152,36.0234,115.752
1154,35.8813,115.177
1156,35.7597,114.532
1158,35.6202,120.052
1160,35.4703,117.528
1162,35.3486,117.411
1164,35.215,120.064
1166,35.0656,119.77
1168,34.9171,118.911
1170,34.7532,119.305
1172,34.6355,122.479
1174,34.4708,120.642
1176,34.35342,115.183
1178,34.2089,114.379
1180,34.0614,116.702
1182,33.8915,116.243
1184,33.7552,116.955
1186,33.6241,117.08
1188,33.4618,115.505
1190,33.3003,116.937
1192,33.1887,115.794
1194,32.9916,115.729
1196,32.8816,115.524
1198,32.7376,117.129
1200,32.6467,118.518
1202,32.4753,117.009
1204,32.3127,115.336
1206,32.2138,119.031
1208,32.0437,116.644
1210,31.9142,114.056
1212,31.773,117.086
1214,31.6063,113.637
1216,31.5191,119.026
1218,31.3569,115.813
1220,31.2141,113.997
1222,31.0696,112.686
1224,30.8957,115.344
1226,30.8104,113.845
1228,30.6224,112.152
1230,30.4913,118.215
1232,30.355,113.038
1234,30.2041,112.283
1236,30.0844,114.95
1238,29.9315,110.862
1240,29.8071,111.956
1242,29.6857,112.743
1244,29.57188,113.034
1246,29.3751,109.479
1248,29.2762,109.373
1250,29.11099,108.492
1252,29.0278,106.541
1254,28.9248,105.834
1256,28.7342,105.856
1258,28.6463,107.907
1260,28.5397,108.13
1262,28.404,104.939
1264,28.28,104.136
1266,28.1629,101.577
1268,28.0152,103.116
1270,27.9217,106.312
1272,27.761,102.153
1274,27.6692,102.269
1276,27.539,103.593
1278,27.4387,100.958
1280,27.3092,101.484
1282,27.2065,102.16
1284,27.0716,100.475
1286,26.9966,99.8116
1288,26.8093,102.917
1290,26.74172,99.1517
1292,26.6289,97.5457
1294,26.5175,99.2527
1296,26.4062,100.564
1298,26.3268,95.6682
1300,26.2461,92.7815
1302,26.0767,94.4608
1304,25.99643,91.7686
1306,25.8458,93.5935
1308,25.7971,95.743
1310,25.6629,92.3963
1312,25.56814,90.139
1314,25.4666,93.2773
1316,25.3821,89.8591
1318,25.26228,86.8275
1320,25.1797,91.3531
1322,25.0604,86.9495
1324,25.0166,83.5451
1326,24.9009,83.102
1328,24.8282,87.2519
1330,24.7653,84.2245
1332,24.6332,82.258
1334,24.5511,85.412
1336,24.4347,82.1783
1338,24.3817,79.4654
1340,24.299,80.7069
1342,24.2093,81.2022
1344,24.1372,82.6554
1346,24.073,81.1682
1348,23.9732,78.6093
1350,23.8641,75.7585
1352,23.8398,76.0811
1354,23.7168,74.073
1356,23.6662,73.9306
1358,23.5592,76.8014
1360,23.4651,78.9481
1362,23.38735,74.1265
1364,23.323,70.9372
1366,23.2758,73.9303
1368,23.2081,72.6711
1370,23.1617,73.6922
1372,23.0592,74.1393
1374,22.954,72.0919
1376,22.9268,70.1675
1378,22.8503,70.2565
1380,22.7937,69.5925
1382,22.7124,66.5891
1384,22.6942,63.7672
1386,22.5736,65.0693
1388,22.5564,62.2934
1390,22.4643,62.0076
1392,22.4168,61.7448
1394,22.3835,61.4824
1396,22.3387,63.7836
1398,22.1772,62.4147
1400,22.2278,59.6434
1402,22.1215,62.1289
1404,22.0579,58.9496
1406,22.0586,59.946
1408,21.9655,60.5239
1410,21.9289,57.8458
1412,21.8451,56.5446
1414,21.84117,56.301
1416,21.7666,59.3902
1418,21.7066,54.9078
1420,21.6403,54.4543
1422,21.5893,54.723
1424,21.5363,54.1202
1426,21.5311,53.8461
1428,21.4795,53.802
1430,21.4298,54.0109
1432,21.3455,53.8325
1434,21.3132,55.9493
1436,21.27868,53.0626
1438,21.2674,53.2744
1440,21.162,51.7653
1442,21.0812,54.1359
1444,21.0729,51.7733
1446,21.034,49.4508
1448,21.0116,52.0683
1450,20.9875,48.9674
1452,20.9527,49.5564
1454,20.8738,52.3356
1456,20.8713,48.9525
1458,20.8235,48.7858
1460,20.7343,50.3591
1462,20.7318,50.8804
1464,20.7007,48.4351
1466,20.6652,47.7948
1468,20.5984,45.4305
1470,20.5578,45.814
1472,20.5454,45.0164
1474,20.4848,45.5335
1476,20.4331,44.6782
1478,20.3972,43.9906
1480,20.355,46.0307
1482,20.3551,47.251
1484,20.324,44.0394
1486,20.2731,43.2577
1488,20.2358,43.4748
1490,20.1778,40.8995
1492,20.167,40.6638
1494,20.1432,43.3106
1496,20.1056,41.7723
1498,20.0812,41.4142
1500,19.9905,42.9936
1502,20.0092,42.3211
1504,19.9433,41.2678
1506,19.9136,40.8997
1508,19.8766,42.5812
1510,19.8866,40.1919
1512,19.84244,41.0981
1514,19.7861,41.2051
1516,19.7111,42.1088
1518,19.6837,40.7388
1520,19.7092,43.1776
1522,19.63202,42.4449
1524,19.6227,40.1893
1526,19.5589,43.9048
1528,19.5457,39.8683
1530,19.5089,41.8219
1532,19.51425,41.9902
1534,19.48533,38.0747
1536,19.4381,40.9748
1538,19.4017,42.5902
1540,19.36083,39.8763
1542,19.333,38.924
1544,19.3415,39.3602
1546,19.28197,39.8434
1548,19.2482,38.0856
1550,19.2408,36.4811
1552,19.2292,39.3996
1554,19.1922,40.08
1556,19.1373,37.2792
1558,19.1403,38.8757
1560,19.0711,40.7375
1562,19.0888,37.6742
1564,19.0785,38.3714
1566,18.9805,38.2609
1568,18.9859,36.5751
1570,19.0312,36.0259
1572,18.9452,37.5364
1574,18.9351,37.0218
1576,18.8604,34.067
1578,18.8474,36.7924
1580,18.7901,36.4912
1582,18.79251,35.6273
1584,18.705,35.8884
1586,18.7209,37.3372
1588,18.7332,35.1073
1590,18.6837,36.0861
1592,18.6855,37.2041
1594,18.6297,35.7022
1596,18.58071,35.2197
1598,18.5415,36.9156
1600,18.5468,38.0641
1602,18.4932,35.1565
1604,18.51816,34.8135
1606,18.4729,35.0403
1608,18.4778,35.1897
1610,18.4507,35.9781
1612,18.3625,35.2362
1614,18.3602,35.0809
1616,18.3017,34.9091
1618,18.35053,36.5843
1620,18.2485,37.4034
1622,18.3383,36.2285
1624,18.2881,36.6069
1626,18.2011,38.2925
1628,18.2169,34.4346
1630,18.1729,34.6706
1632,18.1706,35.8102
1634,18.1124,34.6614
1636,18.0845,34.4564
1638,18.0759,35.8389
1640,18.0698,34.3202
1642,18.0389,31.7356
1644,17.9846,34.7018
1646,17.9855,35.1266
1648,17.978,31.2689
1650,17.9612,33.5962
1652,17.9631,32.7661
1654,17.89256,32.9717
1656,17.929,33.7485
1658,17.905,33.7035
1660,17.8916,31.8815
1662,17.77632,31.8379
1664,17.7418,31.2266
1666,17.75557,32.0587
1668,17.73726,32.0781
1670,17.6896,34.4769
1672,17.7202,33.4448
1674,17.67618,32.65
1676,17.636,36.3747
1678,17.63581,33.1681
1680,17.6432,33.6815
1682,17.5854,34.4596
1684,17.5364,35.4912
1686,17.533,32.8245
1688,17.51308,33.2386
1690,17.491,30.4658
1692,17.4182,31.047
1694,17.4558,29.9151
1696,17.4185,30.8351
1698,17.369,30.195
1700,17.4392,31.5505
1702,17.3984,31.9531
1704,17.375,30.6772
1706,17.3311,29.1457
1708,17.30803,33.1984
1710,17.2501,33.8975
1712,17.2611,33.196
1714,17.2315,32.8269
1716,17.2442,32.1325
1718,17.2033,32.9472
1720,17.1628,33.2865
1722,17.2009,32.7322
1724,17.1174,32.5788
1726,17.1239,33.783
1728,17.1164,33.6637
1730,17.1164,29.0298
1732,17.0871,30.6442
1734,17.0506,30.6141
1736,17.0713,30.1321
1738,17.0166,32.6475
1740,17.0196,33.5572
1742,16.9906,31.7963
1744,17.004,30.4059
1746,16.87448,31.3771
1748,16.9193,30.755
1750,16.89274,29.567
1752,16.8803,32.8014
1754,16.8316,32.7714
1756,16.827,30.4736
1758,16.8443,32.4826
1760,16.7946,31.3622
1762,16.7627,30.0735
1764,16.7346,30.0017
1765,16.7661,29.164