File: Wood/Calibration_Data/FPL/FPL_Wood_Cone_50kW_hor_R2.csv
Time (s),Mass (g),HRR (kW/m2)
0,105.22,2.49887
1,115.141,3.11252
2,121.754,3.21523
3,121.602,2.13016
4,121.551,1.41618
5,121.512,3.31999
6,121.482,2.77251
7,121.47,2.7755
8,121.485,3.09118
9,121.503,2.99742
10,121.484,2.22988
11,121.469,9.68863
12,121.432,35.0648
13,121.359,79.181
14,121.274,94.1338
15,121.204,102.052
16,121.113,134.093
17,120.985,163.063
18,120.839,180.603
19,120.706,183.651
20,120.614,184.842
21,120.537,190.963
22,120.41,197.78
23,120.28,199.473
24,120.16,201.935
25,120.011,204.058
26,119.863,199.78
27,119.763,196.121
28,119.672,192.601
29,119.55,186.022
30,119.414,177.914
31,119.28,176.829
32,119.176,172.832
33,119.135,169.146
34,119.103,166.298
35,118.989,161.826
36,118.883,164.035
37,118.798,159.705
38,118.703,154.114
39,118.597,147.459
40,118.5,143.495
41,118.424,147.167
42,118.335,145.352
43,118.271,144.224
44,118.19,137.942
45,118.04,134.331
46,117.923,136.14
47,117.884,135.849
48,117.838,134.047
49,117.748,130.384
50,117.64,129.602
51,117.594,125.8
52,117.524,125.717
53,117.449,124.992
54,117.408,122.957
55,117.339,114.995
56,117.26,114.972
57,117.185,113.549
58,117.097,110.581
59,117.009,113.089
60,116.953,116.095
61,116.913,117.501
62,116.867,117.826
63,116.767,120.016
64,116.658,118.201
65,116.586,115.361
66,116.537,112.049
67,116.454,111.743
68,116.37,113.706
69,116.331,115.035
70,116.277,111.118
71,116.195,110.166
72,116.115,109.191
73,116.038,107.494
74,115.949,107.374
75,115.882,107.795
76,115.845,107.039
77,115.789,102.818
78,115.714,103.001
79,115.66,102.669
80,115.601,103.051
81,115.544,103.578
82,115.495,104.404
83,115.432,103.649
84,115.371,103.819
85,115.273,102.017
86,115.211,100.414
87,115.175,104.081
88,115.113,103.196
89,115.037,102.157
90,114.963,101.487
91,114.911,100.491
92,114.879,98.9026
93,114.836,98.7351
94,114.784,98.0272
95,114.744,97.9332
96,114.653,95.9767
97,114.568,95.2956
98,114.508,97.126
99,114.475,95.4861
100,114.416,94.9713
101,114.349,95.1913
102,114.298,95.9162
103,114.236,95.1732
104,114.183,95.6767
105,114.137,95.2696
106,114.06,95.4187
107,113.988,95.7289
108,113.9366,97.4193
109,113.885,99.498
110,113.824,98.3397
111,113.762,94.4153
112,113.717,93.2653
113,113.679,92.5487
114,113.646,90.5661
115,113.586,91.3593
116,113.527,89.9734
117,113.467,88.1692
118,113.39,89.3563
119,113.327,88.8297
120,113.278,87.9477
121,113.214,87.5256
122,113.17,84.8297
123,113.136,83.3959
124,113.075,87.7402
125,113.023,88.9485
126,112.973,87.6324
127,112.907,87.7327
128,112.845,87.5997
129,112.805,87.4171
130,112.745,85.4428
131,112.665,85.2046
132,112.614,86.5434
133,112.581,87.4919
134,112.547,85.2286
135,112.501,86.0127
136,112.461,85.5315
137,112.43,86.0531
138,112.369,87.4732
139,112.291,85.9743
140,112.241,84.7268
141,112.189,84.2974
142,112.1069,83.15
143,112.071,82.6837
144,112.057,85.5846
145,111.985,85.6288
146,111.931,86.2596
147,111.89,83.9965
148,111.825,81.542
149,111.777,85.2697
150,111.736,83.1928
151,111.668,81.0817
152,111.623,82.3887
153,111.598,83.481
154,111.532,83.3652
155,111.465,83.5795
156,111.42,82.7946
157,111.368,83.2325
158,111.323,83.4314
159,111.267,82.5784
160,111.221,82.9186
161,111.196,81.3115
162,111.126,81.1424
163,111.06,82.0439
164,111.023,80.6401
165,110.99,80.4862
166,110.916,83.1829
167,110.83,82.3085
168,110.778,79.9076
169,110.74,80.6294
170,110.709,79.5938
171,110.65,78.9271
172,110.595,79.3902
173,110.565,78.6624
174,110.527,78.248
175,110.476,80.4488
176,110.423,79.4726
177,110.387,79.5948
178,110.327,77.5869
179,110.269,75.684
180,110.236,80.0332
181,110.179,80.2294
182,110.133,78.7992
183,110.072,78.2445
184,109.995,77.9681
185,109.959,76.2701
186,109.92,77.9676
187,109.883,78.2638
188,109.809,79.0651
189,109.714,78.977
190,109.651,77.0778
191,109.622,78.805
192,109.592,78.4082
193,109.569,76.2162
194,109.515,75.7266
195,109.435,77.6697
196,109.383,77.8485
197,109.344,78.2159
198,109.294,77.353
199,109.257,77.6003
200,109.216,78.0172
201,109.157,76.5994
202,109.094,75.7025
203,109.016,74.7891
204,108.951,75.8897
205,108.895,76.746
206,108.866,77.5367
207,108.843,76.2422
208,108.785,76.3734
209,108.726,77.0481
210,108.705,76.1446
211,108.67,77.4691
212,108.591,77.4102
213,108.526,76.5268
214,108.489,75.1801
215,108.444,75.5451
216,108.403,75.7829
217,108.363,76.14
218,108.299,75.0954
219,108.236,75.111
220,108.19,75.7566
221,108.147,73.9466
222,108.125,74.9276
223,108.066,74.8088
224,107.977,73.8675
225,107.932,76.3671
226,107.893,78.4772
227,107.828,75.3274
228,107.766,74.8705
229,107.712,74.9252
230,107.673,73.8332
231,107.642,74.5216
232,107.567,75.2033
233,107.504,75.6574
234,107.458,77.2352
235,107.399,77.0227
236,107.348,76.2006
237,107.2846,77.6549
238,107.218,76.4487
239,107.19,75.8845
240,107.166,75.577
241,107.101,74.9468
242,107.035,74.5326
243,106.986,74.7529
244,106.927,74.1644
245,106.887,76.3459
246,106.859,77.6214
247,106.795,75.623
248,106.725,72.8661
249,106.681,73.3178
250,106.647,74.4027
251,106.6,74.8586
252,106.543,73.5407
253,106.502,72.4817
254,106.464,72.3849
255,106.424,74.7318
256,106.335,77.2321
257,106.262,77.7851
258,106.237,74.7093
259,106.187,74.6433
260,106.141,74.025
261,106.12,72.9438
262,105.997,74.0508
263,105.949,75.1239
264,105.91,75.5534
265,105.874,76.2505
266,105.839,73.8368
267,105.771,71.149
268,105.691,72.7492
269,105.633,72.6417
270,105.6,74.3096
271,105.554,72.9645
272,105.493,72.2806
273,105.45,74.9367
274,105.405,73.976
275,105.349,73.3624
276,105.301,74.3675
277,105.243,76.6119
278,105.161,74.1498
279,105.104,75.0244
280,105.079,75.7597
281,105.035,74.3295
282,104.984,73.165
283,104.946,72.0789
284,104.931,73.0266
285,104.867,72.9791
286,104.774,73.3012
287,104.709,75.8252
288,104.652,75.7418
289,104.603,73.7789
290,104.565,75.0337
291,104.5,75.4054
292,104.439,76.3521
293,104.383,79.2784
294,104.327,79.1528
295,104.271,77.3793
296,104.235,76.3574
297,104.2,76.0036
298,104.135,76.1701
299,104.064,77.838
300,103.992,77.8619
301,103.95,78.4025
302,103.927,76.7964
303,103.845,75.3437
304,103.767,76.7069
305,103.732,75.4394
306,103.701,75.4998
307,103.661,76.2203
308,103.594,76.1224
309,103.519,76.613
310,103.45,76.9938
311,103.396,76.4611
312,103.384,77.835
313,103.334,76.8893
314,103.226,75.0524
315,103.162,77.6345
316,103.1226,77.3269
317,103.057,75.9747
318,102.978,76.723
319,102.932,77.2758
320,102.925,76.8136
321,102.899,76.1606
322,102.813,76.855
323,102.734,78.4933
324,102.699,80.2047
325,102.685,77.7432
326,102.642,78.2165
327,102.552,79.3676
328,102.475,77.3488
329,102.426,76.5878
330,102.377,77.3157
331,102.335,76.7152
332,102.309,76.7559
333,102.246,76.0143
334,102.16,74.7488
335,102.095,76.5096
336,102.023,75.5207
337,101.954,74.468
338,101.928,78.0183
339,101.9,81.7108
340,101.83,79.29645
341,101.766,77.1178
342,101.728,76.6791
343,101.677,76.633
344,101.607,77.9666
345,101.54,77.2688
346,101.493,76.3202
347,101.448,77.8986
348,101.384,77.0526
349,101.331,77.5537
350,101.276,79.5606
351,101.214,77.4062
352,101.163,77.2488
353,101.128,76.2167
354,101.076,75.5098
355,101.018,76.5497
356,100.942,77.471
357,100.858,76.7066
358,100.815,76.3765
359,100.762,77.1398
360,100.705,75.7744
361,100.66,75.1217
362,100.625,74.2185
363,100.58,73.5953
364,100.511,75.6949
365,100.456,77.3489
366,100.392,76.1497
367,100.321,73.9021
368,100.266,72.3724
369,100.203,74.5617
370,100.152,77.7564
371,100.154,76.1654
372,100.115,76.7377
373,100.042,77.6881
374,99.9837,77.6506
375,99.8623,77.9665
376,99.7441,75.0438
377,99.6952,75.0091
378,99.6874,75.6683
379,99.6786,74.5872
380,99.6415,76.8245
381,99.5893,78.672
382,99.5361,76.4796
383,99.4727,75.4488
384,99.3916,76.4154
385,99.3315,76.7958
386,99.305,77.4697
387,99.2613,76.89
388,99.2017,76.6795
389,99.1432,78.9444
390,99.0646,77.4127
391,99.003,75.7135
392,98.9465,78.7231
393,98.8885,78.1336
394,98.8393,76.1446
395,98.788,76.5357
396,98.74,78.4096
397,98.6869,79.3285
398,98.6303,79.9221
399,98.56684,79.3162
400,98.5014,77.4361
401,98.4456,78.5812
402,98.3766,77.7867
403,98.3325,76.5819
404,98.2987,77.3505
405,98.2445,75.9825
406,98.2085,74.3424
407,98.1478,76.4183
408,98.05366,78.2325
409,97.9897,79.8872
410,97.95074,79.0805
411,97.8945,76.3166
412,97.82383,76.3749
413,97.7675,76.6991
414,97.7097,76.4376
415,97.6527,77.4727
416,97.6358,77.5934
417,97.593,74.7351
418,97.5108,76.9593
419,97.45708,79.0401
420,97.3937,78.2527
421,97.315,77.3928
422,97.2671,77.1799
423,97.2202,76.5186
424,97.1442,76.3673
425,97.09861,77.0294
426,97.0819,77.8311
427,97.0221,80.5596
428,96.9495,78.4884
429,96.8906,76.5309
430,96.8324,75.1008
431,96.77035,75.8025
432,96.6973,77.8794
433,96.662,78.4656
434,96.6257,78.7926
435,96.5512,78.6501
436,96.49818,78.6203
437,96.4454,76.896
438,96.3894,78.5267
439,96.3594,79.0687
440,96.3092,78.4169
441,96.2265,79.348
442,96.1713,78.2987
443,96.1446,77.7324
444,96.0906,79.0941
445,96.0152,78.5161
446,95.9525,78.1907
447,95.8791,78.549
448,95.8207,77.1415
449,95.7854,76.6893
450,95.724,76.3366
451,95.64712,77.0641
452,95.5782,79.7919
453,95.5261,82.4791
454,95.4787,80.7187
455,95.4454,78.8617
456,95.4062,78.9525
457,95.3502,78.6275
458,95.2985,78.4168
459,95.231,80.4933
460,95.1514,81.5771
461,95.1051,81.2751
462,95.0582,80.5894
463,95.0001,79.0802
464,94.94162,78.3247
465,94.8695,78.9051
466,94.8091,79.7662
467,94.7586,78.3892
468,94.6863,79.5692
469,94.6124,79.8368
470,94.592,77.9483
471,94.5608,78.0395
472,94.4965,78.5261
473,94.4315,77.655
474,94.3685,79.4396
475,94.3288,79.0318
476,94.2675,78.1973
477,94.1946,80.4417
478,94.147,80.8243
479,94.0979,79.7274
480,94.033,81.3774
481,93.9754,81.9911
482,93.9666,80.6869
483,93.9208,80.7122
484,93.8241,79.7675
485,93.7679,79.9464
486,93.6971,78.7614
487,93.629,76.9536
488,93.56506,79.0659
489,93.50424,81.4218
490,93.4761,79.4182
491,93.4611,78.0458
492,93.4261,76.7633
493,93.3653,77.8336
494,93.2808,80.974
495,93.215,80.037
496,93.1579,79.4728
497,93.0891,81.9143
498,93.0522,81.9035
499,92.9858,80.2131
500,92.8997,80.2145
501,92.8557,80.1465
502,92.8196,79.596
503,92.7716,80.3144
504,92.737,81.0012
505,92.6804,78.0735
506,92.5828,78.4231
507,92.5322,79.9273
508,92.4885,78.7938
509,92.40078,81.5625
510,92.3425,83.2298
511,92.3037,79.8925
512,92.2201,79.1148
513,92.1513,79.9408
514,92.1442,78.9553
515,92.09791,78.6325
516,91.9971,77.8151
517,91.9486,76.2195
518,91.8956,78.5471
519,91.83892,79.4064
520,91.7907,76.9595
521,91.7302,79.892
522,91.6786,80.3972
523,91.616,78.3627
524,91.5719,79.3051
525,91.5289,80.3731
526,91.436,79.9719
527,91.385,80.329
528,91.363,80.8779
529,91.3057,78.4849
530,91.22134,78.24
531,91.1763,79.4151
532,91.1521,78.972
533,91.0806,79.3942
534,91.0059,79.3722
535,90.95918,77.5279
536,90.8889,79.2356
537,90.8294,78.9204
538,90.7817,78.1627
539,90.70966,81.3308
540,90.6507,82.382
541,90.618,78.7127
542,90.5593,79.4587
543,90.4912,80.8516
544,90.428,80.1969
545,90.3369,82.0262
546,90.272,81.3629
547,90.2663,80.7157
548,90.2213,81.6923
549,90.1609,82.5516
550,90.1271,84.2026
551,90.0731,86.7743
552,89.99922,85.1565
553,89.92,84.7161
554,89.879,84.7739
555,89.8437,82.8935
556,89.7716,83.6578
557,89.6855,83.3916
558,89.6447,81.5406
559,89.6068,81.901
560,89.5393,83.0076
561,89.4782,82.0074
562,89.4229,82.2142
563,89.3589,80.6294
564,89.2946,78.898
565,89.23956,79.4215
566,89.1866,79.4821
567,89.1545,79.8148
568,89.1249,82.5389
569,89.0544,82.9572
570,88.9719,82.1477
571,88.914,84.0272
572,88.9025,82.9046
573,88.8511,82.1357
574,88.7463,82.8719
575,88.6616,81.2507
576,88.6099,80.1993
577,88.5638,80.9543
578,88.4947,80.2704
579,88.4342,80.7286
580,88.3952,83.7915
581,88.3524,84.1338
582,88.3072,83.5069
583,88.2469,83.4487
584,88.1793,83.6201
585,88.114,83.8765
586,88.0519,82.5839
587,87.9869,81.7396
588,87.9349,84.0758
589,87.9186,83.1456
590,87.8721,79.8942
591,87.80002,83.2353
592,87.7401,86.6559
593,87.6859,84.2503
594,87.6092,83.8353
595,87.5527,85.2427
596,87.5026,82.5451
597,87.4396,79.5919
598,87.4089,80.1394
599,87.3479,82.423
600,87.28801,83.0804
601,87.2382,81.8277
602,87.1638,80.0298
603,87.0904,81.3191
604,87.0493,82.0776
605,87.0083,80.9554
606,86.9375,79.6379
607,86.8791,80.5303
608,86.853,81.7842
609,86.8025,80.3395
610,86.7228,79.3645
611,86.6763,80.9897
612,86.6302,81.8235
613,86.5557,81.4794
614,86.4771,80.9147
615,86.4195,82.2473
616,86.37487,82.5381
617,86.3238,82.0016
618,86.2592,80.9094
619,86.1975,83.4461
620,86.1416,81.7764
621,86.08294,77.3737
622,86.0304,77.8638
623,85.9988,77.6509
624,85.95098,79.4549
625,85.8824,81.6351
626,85.8274,82.6916
627,85.77327,84.1916
628,85.7239,84.6769
629,85.6808,81.9962
630,85.6141,81.8144
631,85.5442,81.306
632,85.4853,81.1064
633,85.4203,82.1248
634,85.3521,83.5354
635,85.3073,83.1606
636,85.2793,83.6785
637,85.2312,83.1463
638,85.15425,80.0276
639,85.0727,82.1053
640,85.0145,83.824
641,84.9681,81.5573
642,84.9267,82.3434
643,84.8972,84.682
644,84.8486,83.9721
645,84.76,84.0448
646,84.6765,81.7205
647,84.6647,79.4419
648,84.649,81.0992
649,84.5583,82.0526
650,84.48304,80.8808
651,84.4383,80.9382
652,84.3851,81.3007
653,84.31637,79.7213
654,84.248,81.9933
655,84.2082,82.469
656,84.1788,81.0882
657,84.125,80.9521
658,84.0694,80.6668
659,83.97901,79.0888
660,83.9153,80.5682
661,83.8715,81.0151
662,83.8113,79.7095
663,83.7656,81.4536
664,83.7078,81.9855
665,83.6422,82.2127
666,83.5869,81.1268
667,83.5283,82.0246
668,83.4672,83.49
669,83.4145,86.2132
670,83.3602,84.1577
671,83.3005,85.939
672,83.2569,86.8549
673,83.2222,85.0163
674,83.1612,86.4564
675,83.101,86.4695
676,83.0734,84.7686
677,83.0294,84.7879
678,82.9464,84.464
679,82.8609,84.1343
680,82.78598,87.0282
681,82.7363,84.936
682,82.6992,83.2321
683,82.6685,84.3189
684,82.6218,85.3308
685,82.5585,86.159
686,82.4995,86.5044
687,82.4661,87.4804
688,82.39384,85.9678
689,82.3338,87.1758
690,82.2844,85.4639
691,82.228,82.202
692,82.1843,81.0008
693,82.1428,83.7098
694,82.0776,82.3834
695,82.0014,82.2785
696,81.9257,82.7989
697,81.8662,82.3727
698,81.822,81.7433
699,81.7531,83.1233
700,81.6913,81.0793
701,81.6503,80.4343
702,81.6201,81.8238
703,81.5848,80.6408
704,81.51247,81.7275
705,81.424,84.4529
706,81.3766,83.2349
707,81.3237,82.4274
708,81.2667,82.2687
709,81.20961,81.2018
710,81.1665,81.4461
711,81.1136,85.1228
712,81.0367,83.5822
713,80.993,81.8266
714,80.9485,83.5964
715,80.8792,82.6499
716,80.8365,83.3044
717,80.7936,84.7379
718,80.7385,85.6008
719,80.6557,85.3133
720,80.5812,86.7346
721,80.5349,83.4992
722,80.4917,82.1738
723,80.4374,84.6877
724,80.3883,85.0881
725,80.3343,85.1322
726,80.2565,85.8808
727,80.2038,85.6662
728,80.177,85.2967
729,80.1158,86.0285
730,80.05013,84.5941
731,79.9834,85.7202
732,79.9417,84.675
733,79.8978,84.1019
734,79.8325,85.6444
735,79.7518,84.3277
736,79.7153,81.4873
737,79.6537,83.4442
738,79.5888,85.4793
739,79.5404,84.3411
740,79.506,84.1345
741,79.4326,82.8386
742,79.38083,83.4352
743,79.3273,84.9576
744,79.2664,87.9642
745,79.2259,84.592
746,79.2088,84.3696
747,79.1733,86.5166
748,79.1034,85.6574
749,78.993,85.9122
750,78.8979,86.2048
751,78.8276,85.3649
752,78.7822,86.8978
753,78.7331,85.7981
754,78.6998,85.5862
755,78.6628,86.2415
756,78.6234,85.0007
757,78.5793,86.4773
758,78.528,86.1902
759,78.4944,86.3622
760,78.3965,86.7594
761,78.3336,87.2037
762,78.3244,85.1486
763,78.2683,86.0116
764,78.1949,86.6268
765,78.142,84.2918
766,78.0993,85.6722
767,78.022,85.4514
768,77.972,85.6619
769,77.9122,84.9099
770,77.8043,87.5885
771,77.7171,84.7894
772,77.6532,87.2728
773,77.6487,85.5828
774,77.588,84.4239
775,77.5515,84.4259
776,77.53549,85.9092
777,77.4666,89.0712
778,77.4302,87.0341
779,77.3446,86.5384
780,77.2798,87.2586
781,77.26053,86.9664
782,77.208,86.1156
783,77.1751,88.9757
784,77.1096,86.9653
785,76.9834,84.6515
786,76.9365,84.8266
787,76.8961,84.3053
788,76.8222,85.5182
789,76.7546,85.4778
790,76.7092,86.0243
791,76.6376,83.8856
792,76.5992,85.9478
793,76.567,85.5273
794,76.4885,87.4856
795,76.4236,90.0948
796,76.3759,90.2798
797,76.32711,90.3093
798,76.2883,90.3335
799,76.2177,88.4089
800,76.1577,87.9706
801,76.1341,88.8527
802,76.0834,86.7678
803,75.9883,88.7941
804,75.9367,89.282
805,75.8871,90.9345
806,75.8629,92.3141
807,75.7967,91.2756
808,75.74164,90.5787
809,75.6731,95.2436
810,75.6166,93.7324
811,75.569,93.352
812,75.4822,92.437
813,75.4229,89.3895
814,75.3872,90.2138
815,75.3175,90.6038
816,75.279,91.2625
817,75.2524,91.661
818,75.1768,92.7801
819,75.12129,90.3064
820,75.0711,90.9477
821,75.03914,90.297
822,74.9868,89.7564
823,74.86965,89.2028
824,74.7764,91.9998
825,74.7387,90.965
826,74.6812,88.2158
827,74.6232,88.5909
828,74.6121,86.7897
829,74.5266,87.0812
830,74.4746,87.1808
831,74.4442,88.947
832,74.4234,91.2305
833,74.3827,90.8231
834,74.2872,87.9305
835,74.2256,89.5362
836,74.1518,90.2435
837,74.1043,89.6395
838,74.089,89.8436
839,74.0123,89.9706
840,73.952,89.9378
841,73.88918,88.9026
842,73.8488,87.7299
843,73.8048,87.0546
844,73.7364,90.3305
845,73.6496,88.9704
846,73.5979,88.4896
847,73.5075,92.0518
848,73.4667,89.2885
849,73.409,89.6961
850,73.3494,92.308
851,73.3,89.0479
852,73.2407,88.2319
853,73.1866,89.2507
854,73.1276,89.1702
855,73.0439,93.2706
856,72.9984,91.9651
857,72.9701,90.4347
858,72.9088,91.6015
859,72.8543,90.2498
860,72.7843,88.0972
861,72.7186,90.8396
862,72.6651,91.1117
863,72.5885,86.2082
864,72.5361,88.8676
865,72.4919,91.911
866,72.44063,90.9831
867,72.3653,91.1386
868,72.3218,92.3271
869,72.2878,89.6592
870,72.22975,89.4382
871,72.1581,93.6008
872,72.0823,94.6477
873,72.0256,91.2783
874,71.9718,91.6667
875,71.90651,89.4617
876,71.90137,90.4119
877,71.8661,91.4257
878,71.7686,92.4306
879,71.6757,91.2005
880,71.625,91.9041
881,71.59787,90.7645
882,71.5375,90.3988
883,71.4823,91.367
884,71.4156,92.8001
885,71.3373,90.1045
886,71.2455,90.407
887,71.1929,92.2732
888,71.1702,92.1748
889,71.1247,91.7256
890,71.0624,91.9906
891,71.04275,91.2674
892,70.9614,91.9346
893,70.8881,92.5073
894,70.8167,90.5788
895,70.7727,91.7699
896,70.7293,91.8498
897,70.6526,92.5059
898,70.594,91.5263
899,70.5327,92.4131
900,70.4939,93.2741
901,70.4603,95.9611
902,70.3653,95.0878
903,70.2915,94.0678
904,70.2309,94.3332
905,70.1825,92.8463
906,70.114,93.1871
907,70.0573,94.8689
908,69.9966,94.6034
909,69.9675,92.8677
910,69.922,93.8811
911,69.8354,92.0015
912,69.7868,92.8464
913,69.7486,92.3151
914,69.6874,91.4255
915,69.6305,93.0717
916,69.5367,95.2792
917,69.4686,92.775
918,69.4012,94.6362
919,69.3596,94.1908
920,69.34,95.6395
921,69.2513,96.8021
922,69.182,101.226
923,69.0922,98.8894
924,69.0457,96.2031
925,69.0364,96.5386
926,68.97751,93.7479
927,68.9238,94.793
928,68.8504,94.1712
929,68.8065,93.8725
930,68.7086,94.5816
931,68.6698,95.0887
932,68.6061,94.3539
933,68.53244,95.0177
934,68.4592,93.9625
935,68.3939,94.1104
936,68.3567,96.8335
937,68.2962,95.2246
938,68.2212,95.7075
939,68.1343,97.2582
940,68.0833,96.9802
941,68.0545,97.6729
942,67.9971,98.1546
943,67.9275,94.6922
944,67.8894,95.6396
945,67.8315,96.038
946,67.7557,96.7526
947,67.6985,98.6723
948,67.6381,100.384
949,67.5731,98.84
950,67.5072,96.003
951,67.4497,96.747
952,67.432,95.5839
953,67.3293,96.4597
954,67.2495,96.3064
955,67.2341,97.3229
956,67.1508,95.1668
957,67.0875,97.5156
958,67.0832,97.6745
959,66.9984,96.4382
960,66.9199,97.7791
961,66.8252,99.5099
962,66.7636,100.006
963,66.7068,101.815
964,66.6886,100.232
965,66.5896,98.8005
966,66.5153,102.147
967,66.4934,100.456
968,66.4871,101.764
969,66.40235,100.301
970,66.3238,98.9988
971,66.2602,99.7437
972,66.2045,99.6735
973,66.1376,97.8605
974,66.0861,97.7038
975,66.0549,98.2985
976,65.9686,96.3701
977,65.8708,98.4072
978,65.8103,99.4165
979,65.7928,98.0056
980,65.68802,99.3731
981,65.6086,99.2033
982,65.5333,96.5186
983,65.4782,98.2469
984,65.4283,101.512
985,65.3521,99.1309
986,65.2962,99.446
987,65.2463,101.815
988,65.1984,100.815
989,65.1512,103.697
990,65.06647,104.885
991,65.0219,102.482
992,64.98484,104.906
993,64.9012,101.692
994,64.8457,98.8617
995,64.8054,101.971
996,64.725,101.358
997,64.6574,101.994
998,64.6146,102.169
999,64.5698,100.03
1000,64.4752,103.086
1001,64.38108,104.783
1002,64.3388,104.237
1003,64.2649,105.718
1004,64.2074,104.206
1005,64.17373,104.095
1006,64.1294,104.925
1007,64.0147,106.736
1008,63.9264,105.309
1009,63.88146,105.615
1010,63.8314,102.023
1011,63.77905,102.686
1012,63.7383,105.79
1013,63.6592,104.84
1014,63.5729,105.085
1015,63.4796,107.281
1016,63.4276,106.536
1017,63.3834,104.632
1018,63.3307,105.184
1019,63.234,102.206
1020,63.1832,103.394
1021,63.1332,104.726
1022,63.0497,105.79
1023,62.9865,104.861
1024,62.8993,104.35
1025,62.8409,101.284
1026,62.83227,102.677
1027,62.7528,104.03
1028,62.6513,99.6379
1029,62.6124,103.364
1030,62.6014,109.35
1031,62.5015,105.573
1032,62.4146,104.886
1033,62.35908,107.534
1034,62.3229,107.168
1035,62.2315,108.975
1036,62.1384,108.413
1037,62.0734,107.525
1038,62.036,107.217
1039,61.97297,106.977
1040,61.9204,106.267
1041,61.8612,108.004
1042,61.7739,107.543
1043,61.7028,108.01
1044,61.6359,108.329
1045,61.5978,107.301
1046,61.5206,104.975
1047,61.4675,106.229
1048,61.39051,105.942
1049,61.3564,104.853
1050,61.2916,107.48
1051,61.2149,110.525
1052,61.1131,108.711
1053,61.0711,107.718
1054,61.0273,109.596
1055,60.9187,107.536
1056,60.85834,109.603
1057,60.815,111.369
1058,60.7505,109.363
1059,60.6853,107.892
1060,60.6325,107.348
1061,60.5673,108.853
1062,60.51415,107.079
1063,60.4131,106.701
1064,60.3193,107.086
1065,60.3136,108.032
1066,60.2636,105.38
1067,60.1754,105.241
1068,60.0995,107.501
1069,60.0045,108.297
1070,59.9632,109.478
1071,59.93714,112.367
1072,59.8204,111.412
1073,59.73265,109.658
1074,59.72197,111.262
1075,59.6219,110.503
1076,59.5614,112.185
1077,59.4824,113.985
1078,59.4094,114.384
1079,59.3731,112.803
1080,59.2957,114.527
1081,59.186,111.969
1082,59.1495,109.458
1083,59.04542,111.245
1084,58.98388,114.294
1085,58.9681,110.572
1086,58.8533,109.994
1087,58.8017,108.395
1088,58.7239,109.081
1089,58.6866,108.564
1090,58.6349,113.864
1091,58.55,111.865
1092,58.477,110.671
1093,58.4025,110.996
1094,58.3621,111.461
1095,58.2718,111.015
1096,58.20489,113.901
1097,58.1331,111.794
1098,58.0893,111.245
1099,58.0728,111.274
1100,57.9787,113.974
1101,57.8224,112.742
1102,57.7765,113.894
1103,57.7321,111.412
1104,57.6939,111.189
1105,57.611,112.881
1106,57.54259,113.666
1107,57.4376,111.153
1108,57.3782,108.395
1109,57.30429,110.08
1110,57.2758,108.525
1111,57.1928,109.727
1112,57.1371,109.639
1113,57.0503,112.037
1114,56.984,111.924
1115,56.9428,113.539
1116,56.8426,112.777
1117,56.7587,113.548
1118,56.7139,112.199
1119,56.6905,112.523
1120,56.5835,112.358
1121,56.5026,110.51
1122,56.4298,111.529
1123,56.3845,111.925
1124,56.30123,114.724
1125,56.2123,113.656
1126,56.1431,112.006
1127,56.0733,112.285
1128,55.9668,115.38
1129,55.9199,114.085
1130,55.89502,111.995
1131,55.8161,113.591
1132,55.75943,113.868
1133,55.7375,113.504
1134,55.6434,111.219
1135,55.511,115.285
1136,55.4607,112.876
1137,55.44392,115.132
1138,55.3725,113.916
1139,55.281,114.914
1140,55.2291,115.541
1141,55.1529,117.567
1142,55.0096,116.703
1143,54.9495,116.929
1144,54.8966,115.106
1145,54.8446,116.619
1146,54.7663,115.563
1147,54.6768,115.008
1148,54.631,115.573
1149,54.5402,118.257
1150,54.4873,116.437
1151,54.4456,114.099
1152,54.3509,116.008
1153,54.2769,113.796
1154,54.20571,113.735
1155,54.147,112.729
1156,54.0718,112.674
1157,54.0324,116.687
1158,53.9856,117.55
1159,53.84337,115.807
1160,53.7696,116.726
1161,53.7,112.352
1162,53.64431,113.91
1163,53.5983,115.696
1164,53.5235,118.827
1165,53.4067,116.185
1166,53.3275,117.383
1167,53.2696,120.344
1168,53.18404,118.189
1169,53.1414,116.378
1170,53.0375,117.837
1171,52.9615,114.641
1172,52.9527,115.748
1173,52.8989,117.721
1174,52.813,117.074
1175,52.7034,120.289
1176,52.648,120.034
1177,52.61854,118.717
1178,52.509,119.346
1179,52.4295,119.421
1180,52.3588,116.051
1181,52.267,118.331
1182,52.16957,122.156
1183,52.0988,119.781
1184,52.074,120.821
1185,52.0203,118.92
1186,51.9681,115.4
1187,51.9274,115.561
1188,51.8097,121.285
1189,51.7255,120.832
1190,51.6535,123.187
1191,51.5979,121.093
1192,51.4721,118.554
1193,51.4085,119.891
1194,51.3679,119.31
1195,51.3271,119.013
1196,51.2217,117.772
1197,51.1634,119.045
1198,51.0857,117.144
1199,51.0252,121.33
1200,50.9567,121.77
1201,50.8896,120.151
1202,50.784,121.51
1203,50.7066,122.272
1204,50.628,122.197
1205,50.56646,123.355
1206,50.53754,126.682
1207,50.4472,123.908
1208,50.3425,124.595
1209,50.3046,120.548
1210,50.2097,118.899
1211,50.133,118.58
1212,50.0512,120.053
1213,49.9575,119.659
1214,49.8765,121.569
1215,49.8368,121.743
1216,49.7729,120.595
1217,49.7061,121.65
1218,49.6586,122.087
1219,49.5697,122.997
1220,49.5218,120.761
1221,49.4514,118.837
1222,49.37536,117.893
1223,49.2923,119.41
1224,49.2469,117.989
1225,49.173,119.483
1226,49.0785,118.039
1227,48.9966,120.917
1228,48.9028,122.142
1229,48.8501,121.144
1230,48.8152,120.638
1231,48.778,121.441
1232,48.6594,120.844
1233,48.5659,119.462
1234,48.4926,121.802
1235,48.3994,121.022
1236,48.3248,121.018
1237,48.2697,118.405
1238,48.1867,121.986
1239,48.0933,118.824
1240,48.032,120.608
1241,47.9664,118.856
1242,47.9209,124.45
1243,47.8381,119.47
1244,47.7007,117.524
1245,47.6204,118.707
1246,47.61,120.226
1247,47.5286,117.954
1248,47.4433,119.937
1249,47.3639,119.175
1250,47.2874,118.557
1251,47.1823,120.162
1252,47.1355,118.105
1253,47.1322,120.595
1254,47.0222,120.68
1255,46.9323,120.912
1256,46.8651,120.053
1257,46.82224,123.88
1258,46.7153,122.659
1259,46.6553,121.515
1260,46.5615,120.653
1261,46.5312,120.829
1262,46.46415,118.586
1263,46.35746,119.546
1264,46.31567,122.259
1265,46.2475,121.082
1266,46.1488,121.287
1267,46.0713,121.165
1268,46.025,119.405
1269,45.9713,116.537
1270,45.8606,121.298
1271,45.7698,119.028
1272,45.7218,122.029
1273,45.68377,121.938
1274,45.6129,118.954
1275,45.52855,117.509
1276,45.4298,117.691
1277,45.3312,118.195
1278,45.2858,120.193
1279,45.2339,114.804
1280,45.1871,117.385
1281,45.0764,120.436
1282,45.0053,120.787
1283,44.9523,119.755
1284,44.8613,120.244
1285,44.8025,118.904
1286,44.76645,120.953
1287,44.6788,121.63
1288,44.57179,117.716
1289,44.5135,119.331
1290,44.3936,119.602
1291,44.3609,117.548
1292,44.2975,118.285
1293,44.2137,118.013
1294,44.165,117.426
1295,44.077,120.435
1296,44.0545,120.074
1297,43.9684,120.296
1298,43.8554,123.452
1299,43.8213,118.485
1300,43.73476,117.768
1301,43.6623,121.529
1302,43.6289,119.621
1303,43.5528,113.602
1304,43.4879,114.328
1305,43.3729,115.973
1306,43.3383,116.877
1307,43.2659,117.595
1308,43.1998,117.231
1309,43.127,116.236
1310,43.0555,118.112
1311,43.018,117.543
1312,42.9169,116.283
1313,42.875,119.756
1314,42.7858,119.591
1315,42.7086,120.08
1316,42.6363,113.714
1317,42.56,113.444
1318,42.5119,113.479
1319,42.4484,116.061
1320,42.4045,117.846
1321,42.3109,116.961
1322,42.2661,117.76
1323,42.178,116.82
1324,42.1155,113.654
1325,42.0819,112.032
1326,42.0233,112.655
1327,41.9212,112.996
1328,41.8817,115.169
1329,41.7762,114.775
1330,41.7272,113.91
1331,41.6944,110.821
1332,41.5883,114.385
1333,41.5738,112.053
1334,41.5198,111.178
1335,41.4193,109.699
1336,41.35079,111.727
1337,41.3114,109.624
1338,41.2823,109.427
1339,41.1613,109.31
1340,41.0957,106.585
1341,41.0812,107.599
1342,40.9997,106.003
1343,40.9199,108.009
1344,40.9301,106.36
1345,40.8316,107.648
1346,40.75306,108.824
1347,40.6463,108.453
1348,40.5912,106.792
1349,40.5279,107.584
1350,40.4891,103.84
1351,40.4685,105.593
1352,40.3812,106.111
1353,40.3421,102.538
1354,40.2747,103.777
1355,40.2377,100.741
1356,40.1633,101.132
1357,40.1408,102.508
1358,40.0521,101.58
1359,39.99759,101.73
1360,39.9561,105.505
1361,39.85263,104.795
1362,39.8042,101.388
1363,39.76295,104.672
1364,39.6949,101.769
1365,39.6492,100.207
1366,39.5903,101.056
1367,39.5556,99.7988
1368,39.461,98.0061
1369,39.4452,99.4909
1370,39.3754,96.7729
1371,39.2853,95.3642
1372,39.2417,98.9158
1373,39.2373,100.634
1374,39.1686,100.031
1375,39.1192,99.2999
1376,39.0606,97.321
1377,38.9674,98.2421
1378,38.9572,98.6702
1379,38.9192,94.0128
1380,38.86226,94.7194
1381,38.7763,93.3479
1382,38.7353,93.8612
1383,38.6783,93.4311
1384,38.65837,92.9058
1385,38.6026,91.4463
1386,38.5763,92.6737
1387,38.5151,92.9402
1388,38.4484,90.7458
1389,38.4197,90.6282
1390,38.3381,90.5813
1391,38.3121,92.2401
1392,38.2359,89.6746
1393,38.193,90.4661
1394,38.1755,89.5282
1395,38.1066,89.3074
1396,38.0971,89.1617
1397,38.0429,90.6933
1398,38.0058,91.5125
1399,37.9882,92.5448
1400,37.9174,91.6359
1401,37.8838,88.2474
1402,37.7915,88.3236
1403,37.7291,88.7999
1404,37.73459,92.4744
1405,37.7022,92.5397
1406,37.671,92.4366
1407,37.5655,91.1984
1408,37.2324,90.2685
1409,36.0643,90.2549
1410,34.8962,90.2412