File: Wood/Calibration_Data/FPL/FPL_Wood_Cone_50kW_hor_R5.csv
Time (s),Mass (g),HRR (kW/m2),TC Top (K),TC back 1 (K),TC back 2 (K)
0,95.96,4.18356,307.092,293.294,293.752
2,95.2677,4.80647,307.862,293.284,293.765
4,95.0879,1.76413,308.435,293.29,293.767
6,94.9881,1.32156,364.17,293.316,293.796
8,95.0401,1.33841,452.528,293.376,293.802
10,95.0358,0.893279,484.996,293.406,293.814
12,95.02229,0.934375,532.125,293.443,293.807
14,95.0113,-0.208866,555.884,293.495,293.794
16,94.9517,52.0249,580.067,293.545,293.84
18,94.7694,179.094,628.508,293.65,293.834
20,94.4257,189.284,666.484,293.683,293.835
22,94.1202,234.215,720.691,293.85,293.832
24,93.84183,227.861,759.667,293.93,293.815
26,93.5663,194.43,817.435,294.087,293.864
28,93.3853,168.62,861.672,294.474,293.867
30,93.1624,164.718,865.499,294.668,294.007
32,92.93277,139.825,856.572,295.061,294.077
34,92.8514,132.336,849.659,295.749,294.094
36,92.7,124.753,850.66,296.048,294.138
38,92.5692,119.069,871.357,296.953,294.11
40,92.4448,115.698,885.568,297.435,294.108
42,92.2791,114.942,893.347,298.478,294.188
44,92.1701,113.65,900.448,299.676,294.224
46,92.0261,108.703,914.96,300.34,294.265
48,91.8936,113.182,952.815,301.818,294.298
50,91.7345,110.929,943.721,302.942,294.343
52,91.63735,104.643,949.207,304.207,294.403
54,91.4785,102.049,984.104,305.978,294.492
56,91.3982,98.5019,991.803,306.897,294.538
58,91.2052,100.298,983.875,308.808,294.54
60,91.0947,101.507,988.708,310.238,294.6
62,90.9429,99.6703,992.147,311.801,294.568
64,90.8459,99.7938,989.706,313.804,294.607
66,90.6793,94.0522,993.179,314.865,294.682
68,90.5741,94.6592,993.694,316.981,294.742
70,90.423,96.5992,985.261,318.633,294.81
72,90.2805,92.0002,972.933,320.415,294.881
74,90.1735,94.7124,983.051,322.622,294.96
76,90.0465,97.191,983.413,324.322,295.058
78,89.9145,94.3464,978.275,326.016,295.04
80,89.781,93.078,972.616,328.419,295.065
82,89.6846,89.3009,970.819,329.536,295.103
84,89.536,87.4037,978.179,331.869,295.187
86,89.4724,85.2803,968.99,333.47,295.286
88,89.3331,83.1604,967.78,335.176,295.342
90,89.1733,84.9519,973.057,337.502,295.426
92,89.0836,85.6114,977.643,338.621,295.485
94,88.9971,83.8265,983.365,340.878,295.657
96,88.8369,88.4862,1006.826,342.57,295.856
98,88.7913,86.2502,986.105,344.396,295.934
100,88.6778,84.9255,981.911,346.658,296.058
102,88.50429,86.2193,981.808,347.817,296.157
104,88.3991,86.4626,981.989,350.222,296.297
106,88.2566,87.7581,995.325,351.937,296.382
108,88.1852,86.7681,1005.001,353.745,296.563
110,88.0883,85.3168,996.357,356.206,296.74
112,87.9756,84.5061,1005.931,357.847,296.832
114,87.8673,84.8805,1003.979,359.747,296.988
116,87.752,83.227,1005.129,362.082,297.184
118,87.59636,85.0441,998.981,363.253,297.271
120,87.5314,84.9738,1000.902,365.665,297.534
122,87.4439,84.5817,1008.974,367.403,297.752
124,87.3377,84.5939,1017.913,369.232,297.957
126,87.203,87.9419,1018.62,371.888,298.241
128,87.0455,86.9354,1023.081,373.219,298.419
130,86.9731,87.3881,1013.467,375.915,298.682
132,86.8991,83.0877,1006.921,377.845,298.864
134,86.7821,85.5089,1013.37,379.705,299.115
136,86.6582,84.7322,1018.763,381.898,299.394
138,86.5454,84.8385,1014.696,383.049,299.584
140,86.3904,83.5043,1007.476,385.341,299.886
142,86.303,83.9523,1000.412,386.816,300.135
144,86.13752,85.6187,997.592,388.431,300.408
146,86.104,83.7976,1011.844,390.334,300.737
148,85.9213,82.5752,1022.533,391.841,301.035
150,85.9058,82.9962,1011.56,393.397,301.29
152,85.7558,80.6904,1011.739,395.483,301.683
154,85.6858,83.02,1010.343,396.465,301.886
156,85.546,82.9648,1012.736,398.571,302.304
158,85.4689,79.3235,1015.383,400.251,302.674
160,85.3915,83.2207,1021.187,401.871,302.919
162,85.2892,83.1606,1033.604,404.22,303.335
164,85.1618,83.7684,1038.821,405.389,303.538
166,85.0504,82.6536,1036.918,407.743,303.931
168,84.8543,80.75,1029.837,409.416,304.23
170,84.7364,82.0851,1028.006,411.289,304.585
172,84.65797,81.4942,1033.85,413.716,305.074
174,84.5705,80.9865,1032.402,414.873,305.294
176,84.4369,79.0559,1019.217,417.339,305.764
178,84.3684,79.5407,1021.403,419.155,306.17
180,84.2874,78.6346,1029.033,421.049,306.546
182,84.15993,78.5862,1033.608,423.571,307.033
184,84.0655,78.6944,1028.773,425.505,307.441
186,83.9603,77.3616,1040.307,427.28,307.795
188,83.8252,77.9008,1043.78,429.991,308.327
190,83.7849,74.83,1039.521,431.179,308.569
192,83.631,77.4838,1040.027,433.766,309.113
194,83.494,78.7814,1029.223,435.687,309.487
196,83.4445,76.8375,1023.253,437.648,309.918
198,83.3515,77.8303,1022.911,441.165,310.49
200,83.24491,75.9828,1028.745,442.166,310.763
202,83.1256,75.1826,1035.143,444.802,311.32
204,83.0166,74.1054,1028.463,447.026,311.752
206,82.9092,73.3631,1039.928,448.41,312.155
208,82.8398,75.6615,1045.481,450.611,312.759
210,82.7534,74.3055,1046.72,451.854,313.069
212,82.6158,75.2035,1039.33,454.265,313.659
214,82.5243,76.438,1040.63,456.173,314.086
216,82.4418,74.1348,1038.4,458.033,314.508
218,82.3247,74.3349,1033.418,460.723,315.149
220,82.23947,79.8465,1035.243,462.759,315.605
222,82.1562,76.4987,1024.49,464.867,316.033
224,82.0355,74.285,1032.085,467.572,316.645
226,81.9265,76.7019,1038.366,468.921,316.952
228,81.8393,75.4469,1040.43,471.68,317.552
230,81.688,78.9406,1053.57,473.823,317.996
232,81.658,74.2833,1049.265,475.97,318.525
234,81.5448,73.0419,1044.141,478.861,319.202
236,81.4246,74.7662,1042.063,480.212,319.51
238,81.3986,73.5525,1032.179,483.153,320.187
240,81.3097,73.754,1050.718,485.299,320.706
242,81.0872,74.951,1039.226,487.526,321.178
244,80.99114,75.206,1051.964,490.58,321.842
246,80.959,74.7569,1047.094,491.978,322.145
248,80.8055,76.0023,1045.38,494.793,322.821
250,80.7591,75.5342,1046.191,496.934,323.353
252,80.65876,74.008,1043.541,499.111,323.864
254,80.5468,72.9149,1056.529,502.004,324.548
256,80.44045,71.9013,1056.904,504.182,325.045
258,80.2972,73.9909,1047.101,506.141,325.469
260,80.2124,73.6483,1057.164,509.806,326.266
262,80.1531,73.9515,1054.736,511.178,326.638
264,80.0748,74.9819,1057.285,513.666,327.306
266,79.9448,70.4418,1053.436,515.71,327.836
268,79.8579,73.5085,1061.818,517.804,328.343
270,79.7762,72.2067,1046.634,520.512,329.12
272,79.6865,71.627,1049.919,521.713,329.462
274,79.61,70.8028,1047.361,524.471,330.259
276,79.4307,69.7424,1053.096,526.468,330.769
278,79.3864,71.4105,1053.14,528.518,331.372
280,79.2633,71.6972,1048.868,531.074,332.138
282,79.1908,72.9176,1051.622,532.351,332.489
284,79.0934,72.438,1058.986,534.901,333.257
286,78.9908,71.0045,1055.986,536.89,333.851
288,78.8895,70.0921,1061.088,538.863,334.429
290,78.831,71.0402,1060.184,541.282,335.199
292,78.6679,70.6322,1055.065,543.067,335.72
294,78.5807,69.5135,1060.611,544.902,336.286
296,78.53861,70.198,1064.789,547.35,337.071
298,78.42008,67.818,1069.513,548.639,337.455
300,78.341,68.3351,1054.008,551.012,338.241
302,78.2021,70.7735,1048.946,552.884,338.824
304,78.1493,68.918,1055.038,554.723,339.44
306,78.054,69.7834,1056.793,557.088,340.242
308,77.91758,69.2131,1060.892,558.308,340.668
310,77.8551,66.8085,1057.853,560.585,341.464
312,77.7594,72.7367,1061.454,562.348,342.064
314,77.6343,69.3538,1063.135,564.128,342.649
316,77.555,68.0111,1053.886,566.573,343.448
318,77.4882,71.2841,1062.038,567.718,343.836
320,77.3863,68.3987,1053.464,570.12,344.706
322,77.3222,69.7599,1048.299,571.972,345.333
324,77.2096,68.5873,1050.043,573.675,345.95
326,77.123,69.5389,1055.945,576.24,346.831
328,77.0185,71.9185,1057.407,578.059,347.447
330,76.9198,66.4729,1059.633,579.899,348.084
332,76.8107,70.2801,1062.58,582.332,348.957
334,76.7196,71.3924,1056.464,583.606,349.388
336,76.6282,70.9239,1063.138,585.986,350.169
338,76.2424,71.1202,1054.919,588.12,350.811
340,76.1418,70.4667,1050.406,590.126,351.443
342,76.0308,70.8612,1047.281,592.612,352.314
344,75.9631,69.3048,1056.603,594.039,352.761
346,75.8867,69.027,1054.239,596.542,353.595
348,75.7598,71.1575,1058.97,598.409,354.266
350,75.6804,67.5879,1059.917,600.249,354.937
352,75.5752,69.0524,1057.695,602.615,355.803
354,75.4928,67.1978,1058.83,603.817,356.219
356,75.401,70.3556,1055.522,606.248,357.054
358,75.2811,69.8797,1053.541,608.174,357.892
360,75.2269,68.7706,1056.901,609.942,358.329
362,75.0477,69.1567,1060.303,612.506,359.191
364,75.042,66.4332,1058.594,614.46,359.81
366,74.9113,70.1229,1047.452,616.185,360.476
368,74.7687,67.2742,1050.875,618.686,361.349
370,74.692,66.4848,1049.064,619.94,361.834
372,74.6033,67.5844,1049.468,622.157,362.713
374,74.4677,64.5789,1051.501,623.858,363.428
376,74.375,68.8732,1056.338,625.168,363.993
378,74.2747,67.7211,1055.263,627.03,364.867
380,74.2176,68.1926,1055.748,628.377,365.466
382,74.075,69.3107,1065.733,630.631,366.36
384,73.9972,64.9726,1068.12,632.356,367.09
386,73.8718,66.8867,1061.262,633.852,367.758
388,73.7986,68.7148,1051.991,635.982,368.655
390,73.7062,68.3739,1055.572,637.015,369.131
392,73.5921,68.1096,1060.44,639.017,370.039
394,73.5319,67.0438,1063.08,640.655,370.76
396,73.3966,68.4218,1066.045,642.166,371.447
398,73.2257,69.0788,1062.013,644.044,372.267
400,73.17506,68.203,1060.418,645.587,373.047
402,73.1434,68.7296,1062.901,647.045,373.678
404,73.0026,67.6787,1063.777,649.085,374.472
406,72.8962,69.8077,1063.464,650.189,374.886
408,72.8336,66.7547,1064.025,652.168,375.656
410,72.737,67.931,1063.766,653.757,376.362
412,72.6706,68.0249,1062.488,655.032,376.851
414,72.5442,65.0776,1063.059,656.769,377.59
416,72.4337,66.984,1061.972,657.551,377.892
418,72.345,67.7051,1066.781,659.173,378.535
420,72.2151,66.379,1060.093,660.414,379.058
422,72.1014,66.0107,1064.296,661.472,379.474
424,72.0286,66.3157,1061.341,662.969,379.979
426,71.9385,67.5253,1063.226,663.65,380.205
428,71.8396,68.2211,1063.909,665.08,380.66
430,71.7048,66.4667,1069.262,666.159,381.063
432,71.5911,67.641,1066.934,667.137,381.378
434,71.5252,66.6037,1063.73,668.53,381.797
436,71.4383,67.215,1065.04,669.486,382.099
438,71.3392,68.2158,1067.736,670.508,382.353
440,71.2614,65.4248,1070.652,671.934,382.788
442,71.10668,66.7212,1067.2,672.689,382.982
444,70.98,64.4959,1069.522,674.445,383.377
446,70.9242,63.3945,1068.107,675.722,383.656
448,70.8045,66.7444,1069.413,676.911,383.918
450,70.721,67.5892,1065.702,678.506,384.372
452,70.6602,68.9569,1067.224,679.275,384.568
454,70.5181,65.1814,1063.897,681.036,385.025
456,70.4414,64.607,1064.326,682.213,385.36
458,70.3301,68.19,1066.741,683.35,385.714
460,70.2549,67.3524,1067.006,684.976,386.143
462,70.1484,65.8327,1067.571,685.807,386.347
464,70.0673,68.2607,1064.886,687.526,386.819
466,69.9774,67.082,1061.829,688.888,387.219
468,69.8347,69.3042,1070.169,690.102,387.554
470,69.7447,68.4026,1068.256,691.923,388.085
472,69.6788,69.7407,1070.624,693.315,388.508
474,69.58248,67.3797,1063.831,694.403,388.921
476,69.5115,69.1463,1068.041,695.825,389.481
478,69.3817,69.2445,1068.638,696.433,389.744
480,69.2508,71.1635,1066.656,697.668,390.43
482,69.189,70.2416,1072.33,698.819,390.872
484,69.0612,70.0932,1066.087,699.926,391.325
486,68.994,67.8993,1066.096,701.28,391.937
488,68.7963,66.6446,1061.972,701.764,392.186
490,68.7476,67.944,1065.113,703.588,393.014
492,68.6932,67.7792,1064.188,704.733,393.524
494,68.5131,67.4634,1068.346,705.831,394.035
496,68.4725,66.0456,1078.218,707.446,394.769
498,68.4029,67.4933,1072.923,708.259,395.15
500,68.246,68.5758,1072.398,709.777,395.889
502,68.1329,64.8345,1068.987,710.921,396.668
504,68.06029,67.985,1068.671,712.077,397.043
506,68.0286,69.2164,1071.02,713.525,397.843
508,67.8793,69.7968,1074.756,714.686,398.53
510,67.7882,68.689,1075.454,715.712,399.072
512,67.6909,71.2881,1065.837,717.101,399.98
514,67.57651,69.8591,1068.504,717.786,400.453
516,67.48984,69.2385,1065.51,719.237,401.329
518,67.3729,68.0403,1076.379,720.4,402.076
520,67.2467,70.4823,1074.323,721.529,402.662
522,67.1877,71.3805,1074.296,723.202,403.667
524,67.07059,71.8803,1070.87,724.058,404.16
526,66.93564,70.918,1071.676,725.614,405.068
528,66.8606,72.5388,1083.279,726.89,405.875
530,66.7801,71.2484,1079.438,728.09,406.589
532,66.649,72.5398,1080.664,729.618,407.554
534,66.5316,69.7455,1068.298,730.577,408.165
536,66.4646,68.3232,1074.182,732.056,409.085
538,66.362,68.6935,1073.377,733.663,410.131
540,66.2809,69.7929,1078.219,734.526,410.67
542,66.2234,67.2975,1069.395,736.209,411.77
544,66.0482,68.4422,1083.537,737.444,412.697
546,66.0131,69.1406,1077.776,738.684,413.464
548,65.85039,69.5747,1087.05,740.421,414.577
550,65.74747,70.3368,1086.381,741.262,415.103
552,65.6112,72.1563,1093.119,743.065,416.249
554,65.53695,75.86906,1098.631,744.421,417.087
556,65.4862,70.6018,1081.78,745.646,417.959
558,65.366,70.0355,1075.331,747.349,419.072
560,65.2248,73.592,1076.134,748.264,419.686
562,65.1967,71.0386,1078.639,749.954,420.795
564,65.0617,71.3186,1088.652,751.493,421.786
566,64.9091,73.7113,1079.426,752.887,422.623
568,64.8298,75.0948,1076.516,754.793,423.761
570,64.7462,70.9099,1072.121,756.22,424.63
572,64.6794,72.7339,1087.244,757.41,425.469
574,64.5904,72.0616,1080.429,759.214,426.759
576,64.46966,73.9757,1070.986,760.137,427.402
578,64.3437,75.2036,1084.792,761.876,428.542
580,64.2719,70.2709,1079.612,763.348,429.626
582,64.1577,71.6409,1083.388,764.631,430.342
584,64.0146,70.9908,1095.031,766.376,431.581
586,63.9111,70.7035,1093.286,767.365,432.182
588,63.8582,72.3685,1077.35,769.455,433.404
590,63.71967,74.3506,1079.31,770.849,434.266
592,63.5923,73.0975,1067.668,772.163,435.203
594,63.5527,73.9611,1062.253,773.82,436.414
596,63.4905,73.7403,1075.894,774.706,437.008
598,63.3542,74.4071,1077.225,776.581,438.145
600,63.2813,77.0685,1089.737,778.382,439.176
602,63.1668,74.8521,1088.344,779.929,439.992
604,63.06382,71.7013,1092.41,782.029,441.218
606,62.9564,74.1253,1095.743,783.848,442.183
608,62.8595,73.3377,1073.571,784.854,442.969
610,62.7072,73.5779,1080.731,786.95,444.244
612,62.6165,74.668,1079.333,788.128,444.862
614,62.5397,74.6803,1092.536,790.195,446.045
616,62.4307,74.7589,1095.005,791.734,447.025
618,62.32173,73.7725,1086.827,793.041,447.901
620,62.2229,71.9459,1079.671,794.81,449.072
622,62.11,73.9041,1088.277,795.647,449.712
624,62.0891,71.1983,1087.356,797.391,450.897
626,62.0151,71.2674,1096.048,798.769,451.905
628,61.8705,71.8692,1085.029,800.057,452.719
630,61.72926,71.9193,1086.553,801.843,453.967
632,61.6363,72.9333,1089.501,802.793,454.583
634,61.5397,74.122,1096.611,804.621,455.801
636,61.4325,72.1266,1077.892,806.37,457.051
638,61.3196,74.2216,1086.591,807.211,457.628
640,61.2437,75.4723,1075.194,808.722,458.819
642,61.1057,71.654,1062.131,809.882,459.774
644,61.0207,77.5971,1083.651,811.098,460.663
646,60.8946,76.3479,1076.889,812.84,461.849
648,60.84,74.0528,1080.946,813.42,462.391
650,60.75153,74.0917,1055.542,815.201,463.574
652,60.656,74.1212,1073.2,816.218,464.634
654,60.54316,74.589,1070.393,817.467,465.42
656,60.4645,74.7074,1070.891,818.926,466.679
658,60.3473,77.2644,1073.116,819.591,467.271
660,60.2332,78.065,1075.271,820.884,468.461
662,60.1249,75.4339,1058.973,821.791,469.49
664,60.0575,78.4063,1050.864,822.513,470.283
666,59.9284,77.7873,1063.316,823.574,471.487
668,59.8568,75.566,1073.977,824.154,472.079
670,59.7557,78.2789,1072.022,825.27,473.329
672,59.6539,73.48,1078.689,826.179,474.48
674,59.58127,78.1665,1064.729,826.963,475.085
676,59.4402,77.6382,1061.625,828.158,476.284
678,59.3859,77.9187,1087.395,829.141,477.261
680,59.2141,79.2105,1055.86,830.019,478.121
682,59.15,74.9022,1048.662,831.387,479.293
684,59.0118,76.6257,1056.23,832.105,479.883
686,58.8687,74.3297,1082.329,833.375,481.037
688,58.8326,73.2115,1091.966,834.313,482.01
690,58.721,75.1052,1073.617,835.118,482.828
692,58.6395,76.3838,1079.245,836.192,484.045
694,58.5141,77.2206,1090.93,836.666,484.57
696,58.4484,75.1923,1073.854,837.689,485.714
698,58.36,74.8105,1077.753,838.533,486.682
700,58.2588,74.8447,1054.707,839.353,487.516
702,58.1242,77.0975,1069.135,840.492,488.665
704,58.0203,74.0638,1078.664,841.163,489.285
706,57.9074,78.1053,1063.571,842.389,490.429
708,57.8621,79.1346,1076.596,843.553,491.641
710,57.7047,74.9557,1083.509,844.088,492.185
712,57.6605,76.0585,1092.268,845.214,493.436
714,57.5572,74.3835,1053.969,846.052,494.309
716,57.4437,78.1344,1029.804,846.574,495.167
718,57.319,73.539,1066.173,847.577,496.322
720,57.2574,73.5848,1087.328,848.122,496.89
722,57.1148,76.0474,1067.95,849.103,498.059
724,56.9896,75.4902,1056.26,849.828,499.031
726,56.9318,74.9824,1067.881,850.496,499.807
728,56.8757,75.2198,1085.219,851.41,500.994
730,56.7319,74.7313,1062.117,851.882,501.58
732,56.6493,73.9646,1056.387,852.64,502.778
734,56.5635,77.2093,1048.911,853.331,503.653
736,56.4463,73.1755,1038.219,853.98,504.483
738,56.3254,75.1669,1048.504,854.982,505.663
740,56.2441,75.114,1061.108,855.499,506.239
742,56.1529,75.8437,1072.446,856.738,507.445
744,56.0455,79.6413,1052.152,857.93,508.61
746,55.9201,75.0058,1063.812,858.501,509.132
748,55.8419,75.5911,1065.435,859.562,510.286
750,55.7469,77.4981,1070.946,860.39,511.27
752,55.6585,77.7267,1063.484,861.05,512.094
754,55.6003,75.7098,1067.329,861.984,513.229
756,55.4597,72.881,1085.109,862.393,513.756
758,55.3657,73.8892,1045.26,863.312,514.96
760,55.2584,73.8534,1049.53,863.964,515.864
762,55.177,75.0669,1060.35,864.715,516.696
764,55.0981,74.1315,1059.023,865.758,517.836
766,54.988,73.966,1048.322,866.305,518.357
768,54.92556,77.2174,1018.99,867.353,519.564
770,54.824,79.2284,1050.795,867.855,520.39
772,54.7076,79.0057,1056.298,868.286,521.267
774,54.6194,79.5365,1037.698,868.928,522.334
776,54.5363,76.4954,1030.183,869.382,522.959
778,54.4217,79.3683,1069.986,870.197,524.012
780,54.3373,75.4442,1085.549,870.864,524.984
782,54.23242,76.2487,1068.329,871.389,525.807
784,54.1373,76.5941,1040.456,872.227,527.011
786,54.0422,75.5865,1030.008,872.9,528.018
788,53.9904,77.2337,1037.737,873.489,528.717
790,53.8379,77.8292,1048.681,874.27,529.824
792,53.7715,78.7509,1051.286,874.551,530.32
794,53.6885,77.8062,1079.855,875.078,531.368
796,53.598,75.3849,1052.314,875.577,532.305
798,53.4501,77.1529,1072.968,875.808,532.764
800,53.345,73.0874,1069.403,876.382,533.874
802,53.2344,77.4692,1015.247,876.808,534.964
804,53.143,76.7322,1056.964,877.287,535.853
806,53.0966,74.7995,1053.297,877.813,536.762
808,53.0017,76.526,1019.271,878.133,537.581
810,52.8934,77.8589,1047.35,878.523,538.706
812,52.75807,77.2814,1049.272,878.718,539.256
814,52.6855,75.3998,1095.475,879.075,540.329
816,52.5961,76.9179,1057.759,879.339,541.218
818,52.49276,77.4547,1055.391,879.548,541.998
820,52.4143,77.1086,1052.602,879.925,543.22
822,52.3302,75.7728,1045.459,880.251,544.158
824,52.1987,78.2356,1049.044,880.511,544.683
826,52.1323,75.9445,1037.465,881.057,545.715
828,52.0266,77.0743,1022.038,881.56,546.551
830,51.9329,77.6238,1032.451,882.423,547.793
832,51.82042,78.7604,1057.636,883.019,548.694
834,51.6853,75.9408,1065.883,883.604,549.408
836,51.6157,76.4785,1061.796,884.324,550.529
838,51.495,81.497,1052.023,884.647,551.08
840,51.4549,78.1522,1052.431,885.252,552.226
842,51.3565,78.3749,1077.419,885.957,553.189
844,51.229,76.2218,1037.291,886.633,553.988
846,51.1434,77.0426,1039.839,887.622,555.16
848,51.10038,76.5875,1059.918,888.063,555.734
850,51.0076,75.8195,1055.897,889.002,556.933
852,50.8697,79.7112,1042.262,889.565,557.799
854,50.7763,76.0163,1037.19,890.139,558.631
856,50.7137,77.8531,1073.429,890.768,559.791
858,50.5849,78.4215,1053.697,891.348,560.686
860,50.5016,77.7399,1041.53,891.842,561.49
862,50.4006,78.9977,1065.616,892.629,562.68
864,50.3105,79.9299,1053.325,892.984,563.254
866,50.2226,79.7678,1019.575,893.668,564.384
868,50.1344,78.1116,987.592,894.426,565.434
870,50.0259,78.3396,1008.006,894.935,566.188
872,49.9184,77.4278,1046.747,895.702,567.406
874,49.8475,78.438,1045.709,896.09,567.988
876,49.7489,78.0994,1002.657,896.663,569.162
878,49.6161,83.0774,1060.804,897.17,570.165
880,49.5541,80.0111,1041.642,897.576,570.967
882,49.4307,80.8486,1049.229,898.152,572.119
884,49.34066,82.2372,1057.912,898.513,572.657
886,49.2309,79.4589,1079.284,898.97,573.812
888,49.1317,80.8833,1045.061,899.125,574.849
890,49.0357,77.3554,1082.347,899.137,575.685
892,48.9633,75.8474,1089.074,899.293,576.812
894,48.8237,76.729,1102.123,899.743,577.814
896,48.7145,78.334,1059.009,899.784,578.647
898,48.6673,81.0043,1056.533,900.036,579.727
900,48.556,77.7053,1059.91,900.245,580.371
902,48.4846,80.1479,1056.104,900.766,581.424
904,48.3379,78.6711,1077.719,901.351,582.32
906,48.3053,80.3205,1086.858,901.775,582.944
908,48.1623,77.9286,1028.161,902.535,583.96
910,48.0578,78.5562,1034.967,902.778,584.516
912,47.9635,79.6652,1084.23,903.262,585.675
914,47.8994,79.2049,1106.697,903.797,586.577
916,47.7722,75.8605,1052.85,904.068,587.38
918,47.6653,79.4837,1064.274,904.436,588.486
920,47.5698,82.2006,1054.864,904.583,589.113
922,47.4776,79.843,1047.629,904.782,590.215
924,47.4658,78.9065,1059.512,905.104,591.172
926,47.2257,79.1444,1029.758,905.434,591.906
928,47.13192,81.3028,1054.409,906.283,593.058
930,47.1069,84.4167,1030.612,906.925,594.065
932,47.0077,81.602,1075.655,907.312,594.669
934,46.8938,81.9594,1025.738,907.894,595.855
936,46.7291,85.8333,1035.87,908.169,596.5
938,46.6677,84.1881,1035.633,908.696,597.585
940,46.5624,81.8306,1041.136,909.401,598.629
942,46.4936,87.5012,1084.944,909.882,599.341
944,46.4004,89.7574,1058.514,910.483,600.442
946,46.3102,85.5466,1034.812,910.635,601.048
948,46.1539,86.7432,1008.968,910.949,602.229
950,46.0966,85.9614,1052.898,911.283,603.212
952,45.9574,84.699,1061.608,911.709,604.024
954,45.8882,85.6036,1030.548,912.341,605.167
956,45.8041,83.3772,1053.847,912.593,605.741
958,45.6941,81.2027,1087.882,913.207,606.884
960,45.5608,90.154,1114.954,913.762,608.057
962,45.4745,87.3368,1066.905,914.068,608.642
964,45.3413,84.692,1044.279,914.571,609.708
966,45.1948,81.4107,1033.235,914.98,610.641
968,45.1264,83.0806,1062.047,915.305,611.397
970,45.04816,85.4823,1087.966,915.784,612.504
972,44.9627,84.0016,1061.456,916.128,613.179
974,44.8609,85.2197,1088.319,916.898,614.38
976,44.7558,86.129,1045.413,917.679,615.318
978,44.6328,83.7574,1081.785,918.294,616.201
980,44.5242,87.9768,1051.886,919.159,617.333
982,44.4085,85.0463,1034.289,919.544,617.967
984,44.2963,85.8522,1068.567,920.379,619.269
986,44.204,89.5037,1040.281,921.228,620.349
988,44.1138,89.1976,1011.811,921.748,621.136
990,43.9925,88.2585,1050.887,922.527,622.395
992,43.9049,90.5216,1067.049,922.882,623.535
994,43.8334,91.6736,1072.973,923.551,624.351
996,43.674,87.9137,1088.645,924.027,625.417
998,43.5504,89.9011,1053.158,924.293,626.253
1000,43.452,92.3244,1070.733,924.729,627.527
1002,43.3144,94.7865,1047.748,925.379,628.759
1004,43.2258,92.1665,1065.818,925.824,629.559
1006,43.1464,88.866,1078.121,926.467,630.975
1008,42.9967,93.0154,1086.196,926.745,631.646
1010,42.8963,89.7131,1078.501,927.164,633.165
1012,42.8289,93.2728,1072.171,927.18,634.501
1014,42.6484,94.4268,1083.643,926.977,635.502
1016,42.56849,95.1712,1067.732,926.681,637.044
1018,42.47921,91.7832,1046.872,926.539,637.812
1020,42.3784,90.0857,1075.854,926.272,639.348
1022,42.2371,90.7105,1076.066,926.143,640.711
1024,42.1035,90.428,1087.069,926.001,641.744
1026,42.0332,93.0429,1047.469,925.915,643.241
1028,41.868,94.2902,1041.706,926.012,643.963
1030,41.77309,95.2775,1117.829,926.246,645.545
1032,41.6275,92.4632,1057.12,926.328,647.012
1034,41.4804,95.02,1059.306,926.386,647.791
1036,41.4125,98.5727,1099.34,926.547,649.255
1038,41.2731,95.5972,1072.085,926.525,650.632
1040,41.20763,95.936,1083.76,926.518,651.596
1042,41.1031,96.4614,1109.16,926.599,653.113
1044,40.9253,95.5232,1109.388,926.606,653.969
1046,40.8152,97.3657,1077.391,926.57,655.54
1048,40.6829,99.5029,1089.677,926.764,656.906
1050,40.5822,97.9554,1075.459,926.779,657.813
1052,40.4889,96.8728,1070.955,926.659,659.351
1054,40.2956,98.5488,1055.135,926.506,660.162
1056,40.2181,101.407,1078.879,926.117,661.735
1058,40.0972,96.7514,1079.444,925.957,663.163
1060,39.9846,98.651,1083.777,925.894,664.276
1062,39.8564,100.914,1129.164,925.968,665.923
1064,39.7365,103.382,1116.197,925.992,666.777
1066,39.6321,105.046,1088.534,926.06,668.593
1068,39.5122,101.625,1114.05,926.397,670.42
1070,39.3945,101.849,1116.278,926.569,671.292
1072,39.2699,99.8507,1122.025,926.798,673.317
1074,39.15601,100.779,1098.422,926.795,674.866
1076,39.0749,101.909,1080.192,926.723,675.78
1078,38.8776,98.9917,1096.938,927.075,677.428
1080,38.7549,96.5808,1126.227,927.278,678.145
1082,38.613,96.093,1146.222,927.852,679.797
1084,38.5284,101.911,1130.047,928.207,681.411
1086,38.4047,99.0697,1114.682,928.489,682.504
1088,38.2821,100.803,1125.056,928.875,684.319
1090,38.1486,101.472,1125.012,929.007,685.211
1092,38.0324,99.7301,1129.61,929.443,687.198
1094,37.8508,99.3388,1117.115,929.904,688.787
1096,37.7973,103.99,1083.914,930.164,690.07
1098,37.6713,99.7183,1120.474,930.41,691.992
1100,37.4903,100.932,1116.031,930.467,693.659
1102,37.3631,101.443,1117.681,930.472,694.881
1104,37.2348,106.96,1123.066,930.645,696.737
1106,37.10367,103.774,1085.431,930.734,697.707
1108,37.0112,104.749,1107.844,930.885,699.638
1110,36.87989,102.07,1137.064,931.027,701.293
1112,36.7595,104.081,1141.996,931.097,702.458
1114,36.63665,103.91,1138.071,931.2,704.501
1116,36.5022,107.842,1118.168,931.277,705.463
1118,36.3599,105.473,1113.524,931.196,707.654
1120,36.2378,105.967,1122.542,931.228,709.531
1122,36.1006,101.01,1093.636,931.609,710.997
1124,36.0053,103.619,1143.231,931.933,712.969
1126,35.8682,106.213,1152.362,932.014,713.916
1128,35.7152,102.825,1088.541,932.12,715.773
1130,35.5773,107.246,1141.616,932.259,717.357
1132,35.4602,104.962,1111.561,932.222,718.462
1134,35.3486,109.504,1099.833,932.34,720.352
1136,35.18705,111.653,1125.042,932.515,722.145
1138,35.07073,108.921,1130.5,932.553,723.213
1140,34.9528,106.439,1075.356,932.671,725.067
1142,34.8337,108.816,1093.216,932.868,725.923
1144,34.6819,108.337,1107.368,933.819,727.713
1146,34.5607,106.832,1131.216,934.642,729.226
1148,34.4154,103.242,1124.041,935.087,730.34
1150,34.2901,106.959,1119.861,935.584,732.085
1152,34.1742,104.696,1128.366,935.83,732.997
1154,34.0445,104.402,1185.277,936.246,734.775
1156,33.9069,104.677,1129.774,936.54,736.29
1158,33.7725,109.066,1144.508,936.603,737.409
1160,33.63599,104.858,1160.222,936.482,739.151
1162,33.4889,105.05,1155.42,936.369,740.142
1164,33.3488,110.587,1127.065,936.182,741.97
1166,33.22965,110.3,1163.284,936.142,743.782
1168,33.1391,112.886,1161.227,936.152,744.542
1170,33.0011,109.918,1172.826,936.16,746.093
1172,32.8367,107.389,1163.441,936.312,747.714
1174,32.6971,109.985,1175.112,936.514,748.788
1176,32.5865,110.768,1176.642,937.012,750.622
1178,32.4339,104.846,1143.757,937.234,751.528
1180,32.3369,106.507,1158.14,937.888,753.284
1182,32.1804,112.778,1149.546,938.612,754.82
1184,32.0849,111.118,1165.106,939.103,755.913
1186,31.8921,109.423,1168.32,939.877,757.622
1188,31.8302,107.86,1165.46,940.256,758.372
1190,31.6979,106.908,1149.733,940.968,760.232
1192,31.55155,106.969,1176.022,941.504,761.845
1194,31.3945,108.461,1181.293,941.947,762.996
1196,31.2841,111.996,1175.808,942.487,764.731
1198,31.1677,107.911,1172.032,942.798,766.461
1200,31.0235,105.755,1177.313,943.355,767.583
1202,30.8812,108.555,1175.279,943.978,769.376
1204,30.7511,106.814,1164.187,944.261,770.315
1206,30.63965,107.6,1189.091,944.597,772.157
1208,30.4751,109.424,1190.385,944.882,773.773
1210,30.3742,106.64,1178.025,945.175,774.89
1212,30.2216,103.74,1149.049,945.624,776.855
1214,30.0743,109.864,1164.55,945.847,777.741
1216,29.9501,108.169,1135.977,946.336,779.659
1218,29.8705,108.352,1161.983,946.827,781.213
1220,29.6991,111.47,1119.698,947.504,782.365
1222,29.579,105.201,1127.079,948.593,784.353
1224,29.4532,107.484,1159.514,949.249,785.463
1226,29.3604,106.42,1101.979,950.391,787.676
1228,29.1707,107.192,1111.88,951.374,789.994
1230,29.0599,104.96,1135.837,951.899,791.1
1232,28.9173,106.085,1122.809,953.072,793.32
1234,28.7964,103.607,1159.331,954.083,795.263
1236,28.707,109.169,1178.649,955.026,796.554
1238,28.5773,105.36,1173.016,955.864,798.757
1240,28.47907,109.646,1172.934,956.053,799.826
1242,28.328,108.168,1181.996,956.03,801.901
1244,28.2111,107.471,1157.385,955.747,803.723
1246,28.0609,108.523,1188.408,955.882,804.973
1248,27.9265,108.735,1169.829,956.074,806.931
1250,27.8198,106.079,1135.386,956.36,808.034
1252,27.679,109.31,1153.802,956.782,810.038
1254,27.3858,105.281,1157.714,957.294,811.784
1256,27.4206,105.858,1182.951,957.448,812.865
1258,27.2734,108.396,1155.949,957.722,814.743
1260,27.2266,103.769,1164.731,957.884,815.639
1262,27.0522,102.254,1172.728,958.074,817.377
1264,26.8493,105.803,1166.929,958.245,819.058
1266,26.9411,103.047,1153.661,958.297,819.867
1268,26.6921,104.03,1179.283,958.447,821.634
1270,26.57633,106.379,1143.213,958.674,823.229
1272,26.4788,106.124,1120.311,959.043,824.177
1274,26.356,101.603,1141.789,959.96,825.788
1276,26.2104,100.241,1122.343,960.329,826.535
1278,26.088,103.064,1082.481,960.952,828.131
1280,25.9417,100.094,1107.303,961.8,829.564
1282,25.8682,98.9424,1086.669,962.519,830.496
1284,25.7391,96.7522,1103.705,963.566,832.014
1286,25.6621,95.0027,1105.759,964.032,832.74
1288,25.5166,99.8754,1117.641,964.66,834.096
1290,25.4259,95.1029,1069.123,965.242,835.369
1292,25.2574,94.3514,1056.362,965.666,836.228
1294,25.2046,91.2086,1085.418,966.516,837.536
1296,25.0428,97.4125,1046.968,967.068,838.677
1298,24.9815,94.5062,1095.487,967.804,839.416
1300,24.8489,91.4527,1079.84,968.373,840.78
1302,24.73966,92.6122,1065.015,968.625,841.468
1304,24.66289,89.9371,1102.66,969.14,842.686
1306,24.5229,92.4771,1106.99,969.751,843.773
1308,24.45728,92.1291,1091.845,970.04,844.489
1310,24.3435,88.6291,1080.745,970.52,845.728
1312,24.196,84.7367,1052.31,970.711,846.318
1314,24.1337,90.572,1049.016,971.186,847.401
1316,24.0321,87.4073,1129.694,971.705,848.549
1318,23.9739,85.931,1026.525,971.919,849.264
1320,23.9049,84.6607,1098.106,972.199,850.326
1322,23.7866,85.7442,1087.657,972.433,850.892
1324,23.6816,86.2251,1050.201,972.683,852.012
1326,23.5534,82.6121,1084.408,973.187,852.926
1328,23.43536,83.6058,1052.884,973.572,853.548
1330,23.422,80.9516,1085.601,974.008,854.57
1332,23.32685,80.0126,1031.577,974.587,855.706
1334,23.2729,80.5991,1048.935,974.815,856.319
1336,23.1455,76.0605,1002.362,975.609,857.411
1338,23.0713,79.7148,1045.819,975.885,857.871
1340,23.0021,77.3021,1002.783,976.328,858.89
1342,22.89613,73.2327,957.064,977.052,859.816
1344,22.80947,78.6257,967.024,977.571,860.351
1346,22.77613,77.5586,978.58,978.582,861.438
1348,22.6402,73.4812,952.942,978.907,861.924
1350,22.5315,73.6394,952.911,979.712,862.859
1352,22.4888,76.8608,980.559,980.491,863.737
1354,22.419,69.887,1011.672,981.109,864.288
1356,22.335,70.7073,988.448,981.989,865.33
1358,22.2893,69.2389,1010.907,982.279,865.727
1360,22.186,69.7699,1017.114,982.717,866.641
1362,22.1623,68.8494,1029.187,982.902,867.591
1364,22.0338,67.969,1022.793,983.032,868.174
1366,21.9746,64.3333,987.315,983.124,869.142
1368,21.9015,66.2791,964.152,983.307,869.936
1370,21.8671,63.0858,953.526,983.647,870.552
1372,21.8054,64.5779,951.266,984.278,871.451
1374,21.7398,67.4516,979.843,984.543,871.893
1376,21.6355,63.1148,971.278,985.015,872.837
1378,21.5877,66.0437,954.231,985.321,873.652
1380,21.526,63.2043,950.364,985.474,874.165
1382,21.3944,61.9227,944.326,985.816,875.102
1384,21.3409,67.1829,944.748,986.068,875.539
1386,21.2409,64.353,973.38,986.676,876.465
1388,21.233,62.4772,932.759,987.077,877.345
1390,21.1425,63.9704,969.036,987.328,877.884
1392,21.1045,64.0958,926.187,987.868,878.736
1394,21.0242,61.0205,955.989,988.256,879.232
1396,20.9804,61.1899,929.048,989.082,880.08
1398,20.9023,58.7457,919.758,989.833,880.964
1400,20.8512,61.0695,925.198,990.145,881.386
1402,20.7597,59.6076,941.347,990.648,882.256
1404,20.7681,58.9365,904.435,990.828,883.07
1406,20.7226,59.48,905.706,990.935,883.533
1408,20.6214,55.7455,900.712,991.474,884.379
1410,20.5714,56.0171,928.606,991.639,884.666
1412,20.5285,56.8395,933.365,992.17,885.542
1414,20.4576,54.7071,909.405,992.5,886.298
1416,20.413,56.3122,910.958,992.785,886.642
1418,20.358,55.5801,906.488,993.31,887.438
1420,20.3249,53.1849,897.529,993.5,887.758
1422,20.2516,55.5577,863.008,993.965,888.506
1424,20.191,51.8162,880.451,994.725,889.201
1426,20.1049,51.8621,885.925,995.259,889.663
1428,20.0917,51.858,894.747,995.894,890.374
1430,20.0825,50.8304,868.385,996.028,890.726
1432,20.0118,50.325,873.417,996.565,891.357
1434,19.98006,50.1449,878.575,997.282,892.03
1436,19.91681,50.8399,874.759,997.663,892.328
1438,19.8716,50.3248,853.393,998.257,892.968
1440,19.8618,49.5759,884.379,999.05,893.51
1442,19.80961,52.28157,876.884,999.359,893.864
1444,19.7486,47.395,892.078,999.637,894.514
1446,19.7008,50.157,884.005,999.814,894.796
1448,19.6772,48.5448,882.451,1000.208,895.381
1450,19.6334,47.7121,861.779,1000.55,895.915
1452,19.6288,48.6195,853.917,1000.772,896.24
1454,19.5552,46.4241,860.358,1001.263,896.795
1456,19.5227,49.5481,860.885,1001.582,897.095
1458,19.52137,47.7594,860.659,1002.093,897.625
1460,19.4213,45.3101,862.854,1002.65,898.126
1462,19.3787,48.4356,870.409,1002.952,898.402
1464,19.36602,46.5129,863.919,1003.185,898.907
1466,19.31041,48.0954,860.022,1003.268,899.144
1468,19.3232,45.1462,858.606,1003.698,899.726
1470,19.2398,43.991,845.655,1004.406,900.201
1472,19.2199,45.4792,856.036,1004.83,900.441
1474,19.1136,44.6812,883.179,1005.092,900.944
1476,19.1585,45.2555,846.291,1005.14,901.357
1478,19.0984,44.9116,842.143,1005.346,901.632
1480,19.0627,43.947,854.812,1005.814,902.153
1482,19.00013,45.6267,877.16,1006.144,902.363
1484,18.9744,44.3281,870.664,1006.464,902.802
1486,18.94913,45.9517,872.125,1006.725,903.208
1488,18.8486,45.5953,880.829,1006.79,903.484
1490,18.8698,46.0138,874.036,1006.95,903.889
1492,18.8286,43.5761,865.487,1007.265,904.127
1494,18.787,45.5217,854.524,1007.906,904.543
1496,18.763,47.7148,853.502,1008.688,904.954
1498,18.7462,42.4003,863.565,1009.254,905.209
1500,18.7207,44.9617,862.741,1010.045,905.5
1502,18.6789,41.5242,873.679,1010.397,905.729
1504,18.6471,42.535,861.067,1010.551,906.142
1506,18.6261,44.9143,889.665,1011.008,906.526
1508,18.57351,42.3587,865.455,1011.047,906.687
1510,18.5109,44.5771,866.564,1011.264,907.068
1512,18.49648,41.9027,849.649,1011.633,907.409
1514,18.4624,41.0554,866.811,1011.786,907.659
1516,18.41614,43.2615,867.057,1011.845,908.076
1518,18.381,39.8646,861.964,1011.893,908.237
1520,18.3117,41.5259,849.605,1012.639,908.607
1522,18.3082,40.6734,853.978,1013.302,908.97
1524,18.2346,39.6439,874.046,1013.49,909.133
1526,18.2622,40.9038,873.624,1013.681,909.525
1528,18.2366,40.2044,860.442,1013.769,909.711
1530,18.2232,41.7924,852.409,1014.237,910.067
1532,18.1999,40.0022,876.947,1014.478,910.452
1534,18.1648,40.4951,865.238,1014.422,910.633
1536,18.0969,40.4805,875.974,1014.634,911.063
1538,18.0315,39.2968,865.922,1014.871,911.188
1540,17.9909,39.4249,855.373,1015.329,911.538
1542,18.0096,39.5476,863.498,1015.741,911.895
1544,17.989,38.4732,861.424,1015.92,912.122
1546,17.9804,38.4773,866.137,1016.166,912.45
1548,17.9403,37.579,872.513,1016.434,912.756
1550,17.9168,38.1261,863.987,1016.481,912.966
1552,17.8999,37.5293,860.986,1016.922,913.325
1554,17.8286,38.2943,872.085,1017.086,913.471
1556,17.8112,37.9473,847.643,1017.61,913.803
1558,17.813,38.1965,849.001,1018.458,914.095
1560,17.7689,38.5489,858.673,1018.518,914.292
1562,17.7521,37.0088,853.035,1018.956,914.613
1564,17.7009,36.8705,862.542,1019.243,914.811
1566,17.6741,34.6277,865.493,1019.146,915.074
1568,17.6587,35.452,866.592,1019.222,915.398
1570,17.59234,34.6562,873.957,1019.387,915.629
1572,17.6294,35.091,855.689,1019.563,915.934
1574,17.5305,37.2897,867.786,1019.437,916.179
1576,17.536,34.7462,869.695,1019.148,916.369
1578,17.45522,34.6862,858.114,1019.258,916.693
1580,17.4588,36.4584,852.992,1019.513,916.925
1582,17.4305,34.628,863.766,1020.436,917.283
1584,17.3812,38.8121,846.325,1020.454,917.617
1586,17.4296,35.8787,853.434,1020.778,917.766
1588,17.3706,36.0271,875.028,1021.397,918.199
1590,17.363,38.0627,880.441,1021.29,918.332
1592,17.331,38.6374,865.909,1020.829,918.641
1594,17.3146,35.0089,858.526,1021.045,918.967
1596,17.2496,38.2101,869.299,1021.194,919.153
1598,17.2751,38.1908,878.697,1020.616,919.482
1600,17.2192,36.6417,867.177,1020.352,919.676
1602,17.1991,38.2928,880.21,1020.73,919.995
1604,17.1879,37.0934,867.746,1021.013,920.347
1606,17.1415,34.5998,874.144,1020.98,920.481
1608,17.1235,35.8671,874.977,1020.422,920.854
1610,17.1047,33.8823,868.771,1020.458,920.988
1612,17.0878,33.1727,861.098,1020.885,921.296
1614,17.0547,33.1908,847.475,1021.937,921.611
1616,17.0445,33.6886,859.42,1022.607,921.763
1618,17.0044,33.414,851.863,1023.541,922.04
1620,16.9784,34.2725,850.512,1024.074,922.32
1622,16.9588,34.9226,863.146,1024.131,922.461
1624,16.9523,35.4973,861.886,1023.406,922.705
1626,16.9263,33.2807,851.715,1023.945,922.88
1628,16.9299,34.2591,832.94,1024.776,923.121
1630,16.8882,35.2385,851.653,1025.022,923.368
1632,16.8298,32.4278,848.47,1024.623,923.596
1634,16.8341,32.2253,856.89,1024.993,923.874
1636,16.7581,32.0612,839.754,1025.575,924.102
1638,16.7694,32.3976,836.338,1026.761,924.369
1640,16.7262,32.0774,851.516,1026.852,924.58
1642,16.7026,32.8913,848.859,1026.398,924.874
1644,16.7107,32.2339,852.688,1026.504,925.053
1646,16.7168,33.0785,844.139,1027.178,925.382
1648,16.645,32.9271,854.389,1027.153,925.541
1650,16.6912,34.0707,842.028,1026.873,925.826
1652,16.65306,30.6082,845.38,1027.15,926.046
1654,16.6089,32.739,834.694,1027.997,926.324
1656,16.5499,32.7847,843.644,1028.9,926.633
1658,16.5675,30.7317,829.512,1029.428,926.766
1660,16.504,31.6191,846.899,1029.978,927.019
1662,16.4879,32.2003,845.027,1029.687,927.25
1664,16.4984,32.9927,858.116,1030.037,927.486
1666,16.45278,31.3719,825.281,1030.872,927.849
1668,16.4482,35.1038,830.499,1032.217,927.949
1670,16.4111,35.249,849.105,1031.55,928.248
1672,16.39133,34.1154,835.874,1030.67,928.376
1674,16.338,33.7393,844.95,1030.936,928.656
1676,16.3501,35.2415,849.871,1030.904,928.937
1678,16.3551,32.1069,849.033,1030.378,929.068
1680,16.3006,34.6146,860.259,1030.292,929.324
1682,16.2766,30.7267,838.633,1030.236,929.587
1684,16.2599,31.6014,832.882,1032.37,929.773
1686,16.3548,31.1027,837.242,1033.453,929.995
1688,16.2243,33.1697,846.527,1033.46,930.119
1690,16.1638,31.5704,839.381,1033.104,930.367
1692,16.1581,29.3195,842.67,1032.302,930.627
1694,16.1934,30.635,842.492,1032.422,930.793
1696,16.115,28.4923,840.794,1032.865,931.094
1698,16.0719,32.5251,846.054,1033.193,931.19
1700,16.0907,31.1507,835.276,1032.762,931.494
1702,16.0768,29.3488,844.967,1031.933,931.739
1704,16.0397,33.1477,846.296,1031.846,931.879
1706,16.1297,34.2296,835.064,1033.067,932.135
1708,16.0254,30.21,831.514,1033.173,932.286
1710,15.9607,32.7272,832.684,1032.606,932.546
1712,15.9665,33.5004,824.375,1036.532,932.837
1714,15.9602,31.4786,827.037,1035.956,932.959
1716,15.93399,32.668,820.868,1036.751,933.227
1718,15.9291,29.1408,831.005,1036.729,933.512
1720,15.947,32.2593,836.586,1035.57,933.641
1722,15.8664,33.5021,845.033,1032.955,933.893
1724,15.8579,30.2439,825.04,1034.81,934.078
1726,15.8435,31.9298,833.847,1037.85,934.402
1728,15.8334,31.8703,837.559,1035.474,934.625
1730,15.7586,30.3162,846.359,1035.737,934.796
1732,15.7849,31.1858,849.102,1034.773,935.051
1734,15.6849,28.591,843.493,1034.857,935.184
1736,15.7286,29.3283,847.773,1035.223,935.376
1738,15.6746,32.3658,854.949,1034.327,935.635
1740,15.6668,29.9466,864.017,1033.156,935.757
1742,15.6542,31.6389,836.273,1035.26,936.016
1744,15.6759,32.0687,829.2,1038.156,936.362
1746,15.6196,27.5241,826.196,1040.471,936.387
1748,15.6179,28.8118,836.003,1038.004,936.696
1750,15.60249,30.4269,853.785,1036.423,936.926
1752,15.5244,28.4454,827.3,1036.06,937.154
1754,15.6494,32.1549,824.73,1039.945,937.465
1756,15.5105,30.9015,826.556,1039.631,937.611
1758,15.4661,27.5426,804.215,1039.465,937.899
1760,15.4948,29.2483,781.018,1041.658,938.047
1762,15.4335,31.2189,768.482,1045.315,938.359
1764,15.4086,29.9313,777.386,1046.404,938.657
1766,15.4412,30.4908,787.858,1047.239,938.748
1768,15.3559,32.2592,778.052,1047.859,939.16
1770,15.3497,29.2826,779.847,1047.529,939.319
1772,15.3378,32.3895,784.495,1046.413,939.625
1774,15.288,30.8568,768.038,1049.663,939.966
1776,15.2941,29.7418,786.46,1047.848,940.176
1778,15.2504,31.2443,804.572,1047.764,940.508
1780,15.2459,31.1023,794.884,1049.861,940.839
1782,15.258,30.8006,780.799,1048.99,940.959
1784,15.2545,30.9752,797.212,1048.621,941.295
1786,15.224,31.6803,791.326,1049.277,941.46
1788,15.187,32.1896,779.975,1049.258,941.81
1790,15.1768,30.2899,777.17,1051.229,942.077
1792,15.1701,29.3421,770.282,1052.609,942.252
1794,15.1333,30.8033,778.738,1050.509,942.514
1796,15.0869,29.9466,788.871,1049.38,942.844
1798,15.0905,27.8573,788.63,1049.227,942.937
1800,15.067,30.0408,771.297,1051.231,943.27
1802,15.06833,28.837,782.333,1050.786,943.546
1804,15.0373,27.6366,777.698,1051.073,943.678
1806,15.0456,30.5256,803.417,1047.718,943.913
1808,15.0071,29.4135,797.027,1048.902,944.122
1810,14.9991,29.3744,802.231,1049.695,944.316
1812,14.9761,31.324,793.531,1055.034,944.528
1814,14.9397,28.9903,788.769,1053.876,944.834
1816,14.9623,32.8976,790.919,1053.686,944.98
1818,14.9572,29.5876,776.289,1055.576,945.259
1820,14.8661,28.5941,782.861,1055.958,945.608
1822,14.8935,32.2431,770.464,1058.484,945.752
1824,14.835,30.4215,775.11,1059.769,946.06
1825,14.8072,30.1666,766.021,1063.24,946.219