File: Wood/Calibration_Data/FPL/FPL_Wood_TGA_N2_10K_R3.csv
Time (s),Temperature (K),Mass (mg)
0,303.15,5.43515
4,305.817,5.434929
8,308.483,5.434113
12,311.15,5.434575
16,313.817,5.436358
20,316.483,5.437399
24,319.15,5.437157
28,321.817,5.436759
32,324.483,5.436213
36,327.15,5.435615
40,329.817,5.434822
44,332.483,5.4339
48,335.15,5.432706
52,337.817,5.431313
56,340.483,5.429737
60,343.15,5.427814
64,345.817,5.425452
68,348.483,5.422912
72,351.15,5.419988
76,353.817,5.416438
80,356.483,5.412321
84,359.15,5.407639
88,361.817,5.402323
92,364.483,5.396348
96,367.15,5.389601
100,369.817,5.381918
104,372.483,5.373316
108,375.15,5.363935
112,377.817,5.367642
116,378.15,5.123776
120,378.15,5.123746
124,378.15,5.123704
128,378.15,5.1237
132,378.15,5.1237
136,378.15,5.1237
140,378.15,5.1237
144,378.15,5.123785
148,378.15,5.123799
152,378.15,5.123703
156,378.15,5.123646
160,378.15,5.123787
164,378.15,5.1238
168,378.15,5.1238
172,378.15,5.1238
176,378.15,5.123799
180,378.15,5.12369
184,378.15,5.1236
188,378.15,5.1236
192,378.15,5.1236
196,378.15,5.1236
200,378.15,5.1236
204,378.15,5.123687
208,378.15,5.1237
212,378.15,5.1237
216,378.15,5.1237
220,378.15,5.1237
224,378.15,5.123605
228,378.15,5.1236
232,378.15,5.1236
236,378.15,5.1236
240,378.15,5.1236
244,378.15,5.1236
248,378.15,5.123547
252,378.15,5.1234
256,378.15,5.123485
260,378.15,5.123605
264,378.15,5.123824
268,378.15,5.123899
272,378.15,5.123807
276,378.15,5.1238
280,378.15,5.1238
284,378.15,5.1238
288,378.15,5.1238
292,378.15,5.123839
296,376.692,5.123998
300,375.025,5.124054
304,373.358,5.12404
308,371.692,5.124029
312,370.025,5.123988
316,368.358,5.123979
320,366.692,5.123918
324,365.025,5.123772
328,363.358,5.123671
332,361.692,5.123579
336,360.025,5.123528
340,358.358,5.12361
344,356.692,5.123607
348,355.025,5.123565
352,353.358,5.123407
356,351.692,5.123327
360,350.025,5.123309
364,348.358,5.123373
368,346.692,5.123343
372,345.025,5.123379
376,343.358,5.123409
380,341.692,5.123407
384,340.025,5.123536
388,338.358,5.123611
392,336.692,5.123465
396,335.025,5.123395
400,333.358,5.123303
404,331.692,5.123186
408,330.025,5.123186
412,328.358,5.123202
416,326.692,5.123157
420,325.025,5.12293
424,323.358,5.123158
428,321.692,5.123255
432,320.025,5.123077
436,318.358,5.123013
440,316.692,5.123062
444,315.025,5.123032
448,313.358,5.123015
452,311.692,5.123028
456,310.025,5.123056
460,308.358,5.12302
464,306.692,5.123044
468,305.025,5.123069
472,303.358,5.123839
476,303.15,5.124607
480,303.15,5.1247
484,303.15,5.124602
488,303.15,5.12442
492,303.15,5.124802
496,303.15,5.1249
500,303.15,5.124972
504,303.15,5.125024
508,303.15,5.125
512,303.15,5.125
516,303.15,5.125
520,303.15,5.125
524,303.15,5.125
528,303.15,5.125
532,303.15,5.125
536,303.15,5.125143
540,303.15,5.125381
544,303.15,5.125162
548,303.15,5.12511
552,303.15,5.1251
556,303.15,5.125156
560,303.15,5.125184
564,303.15,5.124858
568,303.15,5.125025
572,303.15,5.12537
576,303.15,5.125278
580,303.15,5.125222
584,303.15,5.1253
588,303.15,5.125388
592,303.15,5.125309
596,303.15,5.1253
600,303.15,5.1253
604,303.15,5.1253
608,303.15,5.125227
612,303.15,5.125134
616,303.15,5.125
620,303.15,5.125
624,303.15,5.125
628,303.15,5.125015
632,303.15,5.1251
636,303.15,5.1251
640,303.15,5.1251
644,303.15,5.1251
648,303.15,5.1251
652,303.15,5.125138
656,303.15,5.1252
660,303.15,5.1252
664,303.15,5.125267
668,303.15,5.125378
672,303.15,5.125576
676,303.15,5.1256
680,303.15,5.125681
684,303.15,5.1256
688,303.15,5.125502
692,303.15,5.125556
696,303.15,5.1256
700,303.15,5.1256
704,303.15,5.125601
708,303.15,5.125696
712,303.15,5.1257
716,303.15,5.125655
720,303.15,5.125524
724,303.15,5.1255
728,303.15,5.12553
732,303.15,5.125688
736,303.15,5.1258
740,303.15,5.1258
744,303.15,5.1258
748,303.15,5.1258
752,303.15,5.1258
756,303.15,5.1258
760,303.15,5.125921
764,303.15,5.125999
768,303.15,5.125999
772,303.15,5.125999
776,303.15,5.125963
780,303.15,5.125798
784,303.15,5.125732
788,303.15,5.125966
792,303.15,5.125979
796,303.15,5.1259
800,303.15,5.1259
804,303.15,5.125997
808,303.15,5.126
812,303.15,5.125966
816,303.15,5.1259
820,303.15,5.125956
824,303.15,5.126023
828,303.15,5.126099
832,303.15,5.126132
836,303.15,5.126008
840,303.15,5.126
844,303.15,5.126
848,303.15,5.125998
852,303.15,5.1259
856,303.15,5.125952
860,303.15,5.126015
864,303.15,5.1261
868,303.15,5.1261
872,303.15,5.126191
876,303.15,5.1262
880,303.15,5.1262
884,303.15,5.125975
888,303.15,5.1259
892,303.15,5.126009
896,303.15,5.1261
900,303.15,5.126198
904,303.15,5.126187
908,303.15,5.126101
912,303.15,5.1261
916,303.15,5.1261
920,303.15,5.126112
924,303.15,5.126199
928,303.15,5.1262
932,303.15,5.1262
936,303.15,5.1262
940,303.15,5.1262
944,303.15,5.1262
948,303.15,5.1262
952,303.15,5.1262
956,303.15,5.126287
960,303.15,5.126312
964,303.15,5.126399
968,303.15,5.1264
972,303.15,5.1264
976,303.15,5.126434
980,303.15,5.1265
984,303.15,5.1265
988,303.15,5.126402
992,303.15,5.126438
996,303.15,5.126666
1000,303.15,5.1267
1004,303.15,5.1267
1008,303.15,5.1267
1012,303.15,5.126698
1016,303.15,5.126603
1020,303.15,5.1266
1024,303.15,5.1266
1028,303.15,5.1266
1032,303.15,5.1266
1036,303.15,5.12655
1040,303.15,5.126599
1044,303.15,5.1266
1048,303.15,5.126703
1052,303.15,5.126799
1056,303.15,5.1268
1060,303.15,5.1268
1064,303.15,5.1268
1068,303.15,5.1268
1072,303.15,5.12676
1076,303.733,5.126698
1080,304.4,5.126633
1084,305.067,5.127111
1088,305.733,5.127707
1092,306.4,5.127772
1096,307.067,5.127681
1100,307.733,5.127727
1104,308.4,5.127763
1108,309.067,5.127823
1112,309.733,5.127857
1116,310.4,5.127878
1120,311.067,5.127941
1124,311.733,5.127941
1128,312.4,5.127976
1132,313.067,5.127884
1136,313.733,5.127767
1140,314.4,5.128234
1144,315.067,5.128259
1148,315.733,5.128183
1152,316.4,5.128158
1156,317.067,5.128178
1160,317.733,5.128169
1164,318.4,5.128136
1168,319.067,5.128211
1172,319.733,5.128215
1176,320.4,5.128196
1180,321.067,5.128296
1184,321.733,5.128392
1188,322.4,5.12838
1192,323.067,5.128386
1196,323.733,5.128393
1200,324.4,5.128439
1204,325.067,5.128408
1208,325.733,5.128355
1212,326.4,5.128382
1216,327.067,5.128413
1220,327.733,5.128227
1224,328.4,5.128149
1228,329.067,5.128425
1232,329.733,5.12856
1236,330.4,5.128519
1240,331.067,5.128477
1244,331.733,5.128516
1248,332.4,5.128547
1252,333.067,5.128529
1256,333.733,5.128493
1260,334.4,5.128551
1264,335.067,5.128572
1268,335.733,5.128633
1272,336.4,5.128642
1276,337.067,5.128613
1280,337.733,5.128637
1284,338.4,5.128711
1288,339.067,5.12875
1292,339.733,5.128707
1296,340.4,5.128584
1300,341.067,5.128504
1304,341.733,5.128501
1308,342.4,5.128504
1312,343.067,5.12852
1316,343.733,5.128546
1320,344.4,5.128607
1324,345.067,5.128653
1328,345.733,5.128765
1332,346.4,5.128741
1336,347.067,5.12862
1340,347.733,5.128635
1344,348.4,5.128626
1348,349.067,5.128585
1352,349.733,5.128551
1356,350.4,5.128508
1360,351.067,5.128571
1364,351.733,5.128675
1368,352.4,5.128881
1372,353.067,5.12889
1376,353.733,5.128742
1380,354.4,5.128722
1384,355.067,5.128729
1388,355.733,5.128797
1392,356.4,5.128806
1396,357.067,5.1288
1400,357.733,5.12875
1404,358.4,5.128811
1408,359.067,5.12892
1412,359.733,5.128954
1416,360.4,5.128888
1420,361.067,5.128865
1424,361.733,5.128974
1428,362.4,5.129052
1432,363.067,5.128994
1436,363.733,5.128799
1440,364.4,5.128665
1444,365.067,5.128682
1448,365.733,5.128724
1452,366.4,5.128777
1456,367.067,5.128759
1460,367.733,5.128691
1464,368.4,5.128745
1468,369.067,5.128825
1472,369.733,5.128806
1476,370.4,5.128793
1480,371.067,5.128731
1484,371.733,5.128697
1488,372.4,5.128679
1492,373.067,5.12859
1496,373.733,5.12847
1500,374.4,5.128434
1504,375.067,5.128525
1508,375.733,5.128585
1512,376.4,5.128487
1516,377.067,5.128366
1520,377.733,5.128336
1524,378.4,5.128347
1528,379.067,5.12833
1532,379.733,5.128227
1536,380.4,5.128174
1540,381.067,5.128141
1544,381.733,5.128067
1548,382.4,5.128046
1552,383.067,5.128087
1556,383.733,5.128136
1560,384.4,5.128026
1564,385.067,5.12788
1568,385.733,5.127837
1572,386.4,5.127808
1576,387.067,5.127802
1580,387.733,5.127654
1584,388.4,5.127383
1588,389.067,5.12749
1592,389.733,5.127628
1596,390.4,5.127563
1600,391.067,5.127478
1604,391.733,5.127484
1608,392.4,5.127499
1612,393.067,5.127462
1616,393.733,5.127416
1620,394.4,5.127451
1624,395.067,5.127414
1628,395.733,5.127305
1632,396.4,5.127295
1636,397.067,5.127311
1640,397.733,5.127256
1644,398.4,5.127192
1648,399.067,5.127191
1652,399.733,5.127142
1656,400.4,5.127198
1660,401.067,5.127214
1664,401.733,5.126994
1668,402.4,5.126914
1672,403.067,5.126973
1676,403.733,5.126962
1680,404.4,5.126852
1684,405.067,5.126835
1688,405.733,5.126831
1692,406.4,5.12681
1696,407.067,5.126846
1700,407.733,5.126835
1704,408.4,5.126765
1708,409.067,5.126745
1712,409.733,5.126758
1716,410.4,5.126643
1720,411.067,5.12655
1724,411.733,5.126591
1728,412.4,5.126476
1732,413.067,5.126455
1736,413.733,5.126495
1740,414.4,5.126585
1744,415.067,5.126499
1748,415.733,5.126279
1752,416.4,5.126129
1756,417.067,5.126059
1760,417.733,5.126065
1764,418.4,5.125995
1768,419.067,5.125907
1772,419.733,5.125818
1776,420.4,5.125826
1780,421.067,5.125823
1784,421.733,5.125777
1788,422.4,5.125612
1792,423.067,5.125563
1796,423.733,5.125567
1800,424.4,5.125479
1804,425.067,5.125366
1808,425.733,5.12521
1812,426.4,5.125145
1816,427.067,5.125142
1820,427.733,5.125139
1824,428.4,5.125073
1828,429.067,5.124931
1832,429.733,5.124777
1836,430.4,5.124652
1840,431.067,5.124561
1844,431.733,5.124558
1848,432.4,5.124446
1852,433.067,5.124372
1856,433.733,5.124239
1860,434.4,5.124132
1864,435.067,5.124079
1868,435.733,5.123956
1872,436.4,5.123824
1876,437.067,5.123754
1880,437.733,5.123545
1884,438.4,5.123374
1888,439.067,5.123363
1892,439.733,5.123287
1896,440.4,5.123214
1900,441.067,5.123179
1904,441.733,5.12301
1908,442.4,5.122788
1912,443.067,5.122731
1916,443.733,5.122644
1920,444.4,5.122456
1924,445.067,5.122223
1928,445.733,5.122166
1932,446.4,5.122017
1936,447.067,5.121803
1940,447.733,5.12163
1944,448.4,5.12129
1948,449.067,5.121053
1952,449.733,5.12101
1956,450.4,5.120894
1960,451.067,5.120773
1964,451.733,5.120611
1968,452.4,5.120496
1972,453.067,5.120385
1976,453.733,5.120166
1980,454.4,5.119865
1984,455.067,5.11958
1988,455.733,5.11928
1992,456.4,5.119107
1996,457.067,5.118967
2000,457.733,5.118795
2004,458.4,5.118572
2008,459.067,5.11823
2012,459.733,5.117868
2016,460.4,5.117542
2020,461.067,5.117319
2024,461.733,5.116993
2028,462.4,5.116609
2032,463.067,5.116261
2036,463.733,5.115933
2040,464.4,5.115623
2044,465.067,5.11529
2048,465.733,5.114931
2052,466.4,5.114488
2056,467.067,5.114086
2060,467.733,5.113683
2064,468.4,5.113204
2068,469.067,5.112723
2072,469.733,5.112382
2076,470.4,5.111835
2080,471.067,5.111281
2084,471.733,5.11078
2088,472.4,5.110192
2092,473.067,5.109636
2096,473.733,5.10912
2100,474.4,5.108641
2104,475.067,5.108018
2108,475.733,5.107293
2112,476.4,5.106525
2116,477.067,5.105862
2120,477.733,5.105188
2124,478.4,5.104484
2128,479.067,5.103833
2132,479.733,5.10305
2136,480.4,5.1022
2140,481.067,5.101304
2144,481.733,5.100553
2148,482.4,5.099859
2152,483.067,5.099099
2156,483.733,5.09822
2160,484.4,5.097356
2164,485.067,5.096481
2168,485.733,5.09552
2172,486.4,5.094594
2176,487.067,5.093828
2180,487.733,5.092543
2184,488.4,5.091386
2188,489.067,5.090466
2192,489.733,5.089502
2196,490.4,5.088643
2200,491.067,5.087306
2204,491.733,5.086059
2208,492.4,5.084895
2212,493.067,5.083626
2216,493.733,5.082387
2220,494.4,5.081303
2224,495.067,5.080129
2228,495.733,5.07872
2232,496.4,5.077305
2236,497.067,5.075895
2240,497.733,5.074557
2244,498.4,5.073119
2248,499.067,5.071672
2252,499.733,5.070151
2256,500.4,5.068556
2260,501.067,5.066989
2264,501.733,5.065477
2268,502.4,5.06389
2272,503.067,5.062176
2276,503.733,5.060532
2280,504.4,5.058977
2284,505.067,5.057248
2288,505.733,5.055463
2292,506.4,5.053561
2296,507.067,5.051614
2300,507.733,5.049685
2304,508.4,5.047784
2308,509.067,5.04576
2312,509.733,5.043716
2316,510.4,5.041553
2320,511.067,5.039325
2324,511.733,5.037117
2328,512.4,5.034789
2332,513.067,5.032447
2336,513.733,5.030128
2340,514.4,5.027772
2344,515.067,5.025365
2348,515.733,5.022884
2352,516.4,5.020329
2356,517.067,5.017652
2360,517.733,5.014891
2364,518.4,5.012202
2368,519.067,5.00944
2372,519.733,5.006591
2376,520.4,5.003743
2380,521.067,5.000809
2384,521.733,4.997814
2388,522.4,4.994766
2392,523.067,4.99169
2396,523.733,4.988663
2400,524.4,4.985591
2404,525.067,4.982536
2408,525.733,4.979345
2412,526.4,4.976016
2416,527.067,4.972742
2420,527.733,4.969439
2424,528.4,4.96616
2428,529.067,4.962542
2432,529.733,4.958946
2436,530.4,4.955651
2440,531.067,4.952177
2444,531.733,4.94867
2448,532.4,4.945093
2452,533.067,4.941322
2456,533.733,4.937513
2460,534.4,4.933683
2464,535.067,4.929719
2468,535.733,4.925799
2472,536.4,4.921782
2476,537.067,4.917618
2480,537.733,4.913415
2484,538.4,4.909214
2488,539.067,4.904995
2492,539.733,4.900634
2496,540.4,4.896143
2500,541.067,4.891589
2504,541.733,4.887025
2508,542.4,4.882403
2512,543.067,4.877709
2516,543.733,4.87286
2520,544.4,4.867937
2524,545.067,4.862954
2528,545.733,4.857981
2532,546.4,4.852905
2536,547.067,4.847726
2540,547.733,4.84245
2544,548.4,4.837107
2548,549.067,4.831744
2552,549.733,4.826178
2556,550.4,4.8205
2560,551.067,4.814585
2564,551.733,4.808505
2568,552.4,4.803167
2572,553.067,4.797341
2576,553.733,4.791147
2580,554.4,4.784864
2584,555.067,4.778412
2588,555.733,4.772016
2592,556.4,4.76555
2596,557.067,4.758928
2600,557.733,4.752218
2604,558.4,4.74531
2608,559.067,4.738501
2612,559.733,4.731559
2616,560.4,4.724422
2620,561.067,4.71713
2624,561.733,4.70976
2628,562.4,4.702185
2632,563.067,4.694585
2636,563.733,4.686939
2640,564.4,4.679194
2644,565.067,4.671268
2648,565.733,4.663184
2652,566.4,4.654959
2656,567.067,4.64658
2660,567.733,4.638162
2664,568.4,4.629509
2668,569.067,4.620964
2672,569.733,4.612253
2676,570.4,4.603133
2680,571.067,4.593839
2684,571.733,4.584424
2688,572.4,4.575055
2692,573.067,4.565809
2696,573.733,4.556182
2700,574.4,4.546244
2704,575.067,4.536095
2708,575.733,4.52582
2712,576.4,4.515416
2716,577.067,4.504744
2720,577.733,4.494
2724,578.4,4.483004
2728,579.067,4.471781
2732,579.733,4.460702
2736,580.4,4.44939
2740,581.067,4.437603
2744,581.733,4.425729
2748,582.4,4.413582
2752,583.067,4.401312
2756,583.733,4.3888
2760,584.4,4.376076
2764,585.067,4.363151
2768,585.733,4.350003
2772,586.4,4.336667
2776,587.067,4.32305
2780,587.733,4.309271
2784,588.4,4.295258
2788,589.067,4.281056
2792,589.733,4.266537
2796,590.4,4.251827
2800,591.067,4.236901
2804,591.733,4.221714
2808,592.4,4.206285
2812,593.067,4.190672
2816,593.733,4.174863
2820,594.4,4.158918
2824,595.067,4.14266
2828,595.733,4.126079
2832,596.4,4.109356
2836,597.067,4.092482
2840,597.733,4.075491
2844,598.4,4.057948
2848,599.067,4.040306
2852,599.733,4.022541
2856,600.4,4.004596
2860,601.067,3.986244
2864,601.733,3.967858
2868,602.4,3.949329
2872,603.067,3.930572
2876,603.733,3.911559
2880,604.4,3.89236
2884,605.067,3.872828
2888,605.733,3.853382
2892,606.4,3.833835
2896,607.067,3.813973
2900,607.733,3.794025
2904,608.4,3.773836
2908,609.067,3.753564
2912,609.733,3.732943
2916,610.4,3.71227
2920,611.067,3.691305
2924,611.733,3.670248
2928,612.4,3.648966
2932,613.067,3.627548
2936,613.733,3.605868
2940,614.4,3.584123
2944,615.067,3.562129
2948,615.733,3.539847
2952,616.4,3.517389
2956,617.067,3.494687
2960,617.733,3.47177
2964,618.4,3.448503
2968,619.067,3.425087
2972,619.733,3.401373
2976,620.4,3.377344
2980,621.067,3.352943
2984,621.733,3.328245
2988,622.4,3.303095
2992,623.067,3.277658
2996,623.733,3.251722
3000,624.4,3.22543
3004,625.067,3.198731
3008,625.733,3.171497
3012,626.4,3.143745
3016,627.067,3.115413
3020,627.733,3.086596
3024,628.4,3.057154
3028,629.067,3.0272
3032,629.733,2.996653
3036,630.4,2.96561
3040,631.067,2.933842
3044,631.733,2.901562
3048,632.4,2.868687
3052,633.067,2.835207
3056,633.733,2.80118
3060,634.4,2.766787
3064,635.067,2.731819
3068,635.733,2.696425
3072,636.4,2.66019
3076,637.067,2.623699
3080,637.733,2.587348
3084,638.4,2.550766
3088,639.067,2.514213
3092,639.733,2.47766
3096,640.4,2.441422
3100,641.067,2.405511
3104,641.733,2.370263
3108,642.4,2.335585
3112,643.067,2.301747
3116,643.733,2.268925
3120,644.4,2.237465
3124,645.067,2.207144
3128,645.733,2.178076
3132,646.4,2.150448
3136,647.067,2.124327
3140,647.733,2.099786
3144,648.4,2.076924
3148,649.067,2.055614
3152,649.733,2.035778
3156,650.4,2.017481
3160,651.067,2.00078
3164,651.733,1.985343
3168,652.4,1.971122
3172,653.067,1.958152
3176,653.733,1.946304
3180,654.4,1.935515
3184,655.067,1.925599
3188,655.733,1.916611
3192,656.4,1.908346
3196,657.067,1.900687
3200,657.733,1.893734
3204,658.4,1.887211
3208,659.067,1.88109
3212,659.733,1.87532
3216,660.4,1.869814
3220,661.067,1.86462
3224,661.733,1.859696
3228,662.4,1.854837
3232,663.067,1.850287
3236,663.733,1.845803
3240,664.4,1.841037
3244,665.067,1.83679
3248,665.733,1.833121
3252,666.4,1.829198
3256,667.067,1.824867
3260,667.733,1.820733
3264,668.4,1.817111
3268,669.067,1.813261
3272,669.733,1.809298
3276,670.4,1.805499
3280,671.067,1.801839
3284,671.733,1.798088
3288,672.4,1.794369
3292,673.067,1.790737
3296,673.733,1.787076
3300,674.4,1.783438
3304,675.067,1.779772
3308,675.733,1.776088
3312,676.4,1.772464
3316,677.067,1.76886
3320,677.733,1.765394
3324,678.4,1.761916
3328,679.067,1.75835
3332,679.733,1.754395
3336,680.4,1.750859
3340,681.067,1.747505
3344,681.733,1.744113
3348,682.4,1.740642
3352,683.067,1.737183
3356,683.733,1.73356
3360,684.4,1.730203
3364,685.067,1.7268
3368,685.733,1.723325
3372,686.4,1.71987
3376,687.067,1.716392
3380,687.733,1.712989
3384,688.4,1.709531
3388,689.067,1.70601
3392,689.733,1.702556
3396,690.4,1.699279
3400,691.067,1.695852
3404,691.733,1.69246
3408,692.4,1.688706
3412,693.067,1.685483
3416,693.733,1.682369
3420,694.4,1.678886
3424,695.067,1.675426
3428,695.733,1.672126
3432,696.4,1.668887
3436,697.067,1.665544
3440,697.733,1.662133
3444,698.4,1.658768
3448,699.067,1.655506
3452,699.733,1.652127
3456,700.4,1.648821
3460,701.067,1.645485
3464,701.733,1.642153
3468,702.4,1.638923
3472,703.067,1.635789
3476,703.733,1.63265
3480,704.4,1.629499
3484,705.067,1.626301
3488,705.733,1.62298
3492,706.4,1.619678
3496,707.067,1.61637
3500,707.733,1.613256
3504,708.4,1.609847
3508,709.067,1.606847
3512,709.733,1.604058
3516,710.4,1.600852
3520,711.067,1.597696
3524,711.733,1.594706
3528,712.4,1.591586
3532,713.067,1.588635
3536,713.733,1.585722
3540,714.4,1.582715
3544,715.067,1.579648
3548,715.733,1.576701
3552,716.4,1.573797
3556,717.067,1.570892
3560,717.733,1.56806
3564,718.4,1.565217
3568,719.067,1.562344
3572,719.733,1.559619
3576,720.4,1.556982
3580,721.067,1.554186
3584,721.733,1.551367
3588,722.4,1.548573
3592,723.067,1.545767
3596,723.733,1.543067
3600,724.4,1.540511
3604,725.067,1.538004
3608,725.733,1.535443
3612,726.4,1.532804
3616,727.067,1.530231
3620,727.733,1.527646
3624,728.4,1.525134
3628,729.067,1.522632
3632,729.733,1.520219
3636,730.4,1.517818
3640,731.067,1.515451
3644,731.733,1.513148
3648,732.4,1.510866
3652,733.067,1.508564
3656,733.733,1.506281
3660,734.4,1.503946
3664,735.067,1.501665
3668,735.733,1.499537
3672,736.4,1.497404
3676,737.067,1.495248
3680,737.733,1.493031
3684,738.4,1.490807
3688,739.067,1.488744
3692,739.733,1.486694
3696,740.4,1.484711
3700,741.067,1.482698
3704,741.733,1.480671
3708,742.4,1.478665
3712,743.067,1.476763
3716,743.733,1.474816
3720,744.4,1.472801
3724,745.067,1.470907
3728,745.733,1.469026
3732,746.4,1.467107
3736,747.067,1.46524
3740,747.733,1.463247
3744,748.4,1.461524
3748,749.067,1.459792
3752,749.733,1.45798
3756,750.4,1.456165
3760,751.067,1.454377
3764,751.733,1.452593
3768,752.4,1.45087
3772,753.067,1.449091
3776,753.733,1.447091
3780,754.4,1.445534
3784,755.067,1.444055
3788,755.733,1.442379
3792,756.4,1.440675
3796,757.067,1.439011
3800,757.733,1.437449
3804,758.4,1.435922
3808,759.067,1.434326
3812,759.733,1.432649
3816,760.4,1.431137
3820,761.067,1.429555
3824,761.733,1.427976
3828,762.4,1.426446
3832,763.067,1.425055
3836,763.733,1.423619
3840,764.4,1.422105
3844,765.067,1.420544
3848,765.733,1.419028
3852,766.4,1.417588
3856,767.067,1.416092
3860,767.733,1.414602
3864,768.4,1.413202
3868,769.067,1.411818
3872,769.733,1.410413
3876,770.4,1.409017
3880,771.067,1.407936
3884,771.733,1.406398
3888,772.4,1.404772
3892,773.067,1.403288
3896,773.733,1.401855
3900,774.4,1.400488
3904,775.067,1.399166
3908,775.733,1.397874
3912,776.4,1.396507
3916,777.067,1.395075
3920,777.733,1.393794
3924,778.4,1.392476
3928,779.067,1.391213
3932,779.733,1.390059
3936,780.4,1.388729
3940,781.067,1.387276
3944,781.733,1.385857
3948,782.4,1.384449
3952,783.067,1.383167
3956,783.733,1.381855
3960,784.4,1.380578
3964,785.067,1.379282
3968,785.733,1.378004
3972,786.4,1.376762
3976,787.067,1.375538
3980,787.733,1.374242
3984,788.4,1.372957
3988,789.067,1.371751
3992,789.733,1.370513
3996,790.4,1.369293
4000,791.067,1.368084
4004,791.733,1.366918
4008,792.4,1.365701
4012,793.067,1.364462
4016,793.733,1.363382
4020,794.4,1.362347
4024,795.067,1.361251
4028,795.733,1.359965
4032,796.4,1.358616
4036,797.067,1.357319
4040,797.733,1.356102
4044,798.4,1.354563
4048,799.067,1.353335
4052,799.733,1.352423
4056,800.4,1.35095
4060,801.067,1.349718
4064,801.733,1.348784
4068,802.4,1.347859
4072,803.067,1.346857
4076,803.733,1.345817
4080,804.4,1.344833
4084,805.067,1.343663
4088,805.733,1.342552
4092,806.4,1.341399
4096,807.067,1.340243
4100,807.733,1.339125
4104,808.4,1.338052
4108,809.067,1.336986
4112,809.733,1.335987
4116,810.4,1.335024
4120,811.067,1.333965
4124,811.733,1.33289
4128,812.4,1.331787
4132,813.067,1.330685
4136,813.733,1.329648
4140,814.4,1.328609
4144,815.067,1.327568
4148,815.733,1.326639
4152,816.4,1.325606
4156,817.067,1.324434
4160,817.733,1.323403
4164,818.4,1.322523
4168,819.067,1.321394
4172,819.733,1.320227
4176,820.4,1.319231
4180,821.067,1.318187
4184,821.733,1.31718
4188,822.4,1.316181
4192,823.067,1.315189
4196,823.733,1.314159
4200,824.4,1.313155
4204,825.067,1.312204
4208,825.733,1.31115
4212,826.4,1.310202
4216,827.067,1.309297
4220,827.733,1.308396
4224,828.4,1.307446
4228,829.067,1.306358
4232,829.733,1.305499
4236,830.4,1.304576
4240,831.067,1.303537
4244,831.733,1.30252
4248,832.4,1.301615
4252,833.067,1.300698
4256,833.733,1.299821
4260,834.4,1.298736
4264,835.067,1.297568
4268,835.733,1.296838
4272,836.4,1.296072
4276,837.067,1.295142
4280,837.733,1.294212
4284,838.4,1.293304
4288,839.067,1.292459
4292,839.733,1.291529
4296,840.4,1.290514
4300,841.067,1.289507
4304,841.733,1.288645
4308,842.4,1.287825
4312,843.067,1.286897
4316,843.733,1.285967
4320,844.4,1.285103
4324,845.067,1.284238
4328,845.733,1.283356
4332,846.4,1.282541
4336,847.067,1.281744
4340,847.733,1.280887
4344,848.4,1.280033
4348,849.067,1.279058
4352,849.733,1.278097
4356,850.4,1.277203
4360,851.067,1.276427
4364,851.733,1.27561
4368,852.4,1.274765
4372,853.067,1.273867
4376,853.733,1.272912
4380,854.4,1.272055
4384,855.067,1.271346
4388,855.733,1.270581
4392,856.4,1.269736
4396,857.067,1.268705
4400,857.733,1.267689
4404,858.4,1.266889
4408,859.067,1.266207
4412,859.733,1.265423
4416,860.4,1.264607
4420,861.067,1.26381
4424,861.733,1.263096
4428,862.4,1.262354
4432,863.067,1.261545
4436,863.733,1.260669
4440,864.4,1.259793
4444,865.067,1.25898
4448,865.733,1.258187
4452,866.4,1.257451
4456,867.067,1.256606
4460,867.733,1.255727
4464,868.4,1.25518
4468,869.067,1.254323
4472,869.733,1.253487
4476,870.4,1.252671
4480,871.067,1.251953
4484,871.733,1.251192
4488,872.4,1.250397
4492,873.067,1.249571
4496,873.733,1.248821
4500,874.4,1.24812
4504,875.067,1.247476
4508,875.733,1.246817
4512,876.4,1.246097
4516,877.067,1.245221
4520,877.733,1.24447
4524,878.4,1.243842
4528,879.067,1.243167
4532,879.733,1.242308
4536,880.4,1.241499
4540,881.067,1.24082
4544,881.733,1.240136
4548,882.4,1.239457
4552,883.067,1.238721
4556,883.733,1.238094
4560,884.4,1.237643
4564,885.067,1.23702
4568,885.733,1.236376
4572,886.4,1.235698
4576,887.067,1.235062
4580,887.733,1.234469
4584,888.4,1.233968
4588,889.067,1.233554
4592,889.733,1.233071
4596,890.4,1.232234
4600,891.067,1.231569
4604,891.733,1.231022
4608,892.4,1.230389
4612,893.067,1.229957