File: Wood/Calibration_Data/FPL/FPL_Wood_TGA_N2_10K_R1.csv
Time (s),Temperature (K),Mass (mg)
0,303.15,6.522797
4,305.817,6.522635
8,308.483,6.521885
12,311.15,6.522431
16,313.817,6.524287
20,316.483,6.525347
24,319.15,6.525079
28,321.817,6.524734
32,324.483,6.524172
36,327.15,6.523521
40,329.817,6.52267
44,332.483,6.521706
48,335.15,6.520642
52,337.817,6.519354
56,340.483,6.517837
60,343.15,6.51591
64,345.817,6.513586
68,348.483,6.511065
72,351.15,6.508125
76,353.817,6.504455
80,356.483,6.500271
84,359.15,6.495566
88,361.817,6.490209
92,364.483,6.484162
96,367.15,6.47751
100,369.817,6.469512
104,372.483,6.460041
108,375.15,6.450383
112,377.817,6.453579
116,378.15,6.144679
120,378.15,6.144602
124,378.15,6.144506
128,378.15,6.144502
132,378.15,6.144502
136,378.15,6.144502
140,378.15,6.144502
144,378.15,6.144587
148,378.15,6.144504
152,378.15,6.144405
156,378.15,6.144306
160,378.15,6.144389
164,378.15,6.144402
168,378.15,6.144402
172,378.15,6.144402
176,378.15,6.144402
180,378.15,6.144308
184,378.15,6.144301
188,378.15,6.14422
192,378.15,6.143862
196,378.15,6.143928
200,378.15,6.144094
204,378.15,6.144117
208,378.15,6.144201
212,378.15,6.144201
216,378.15,6.144201
220,378.15,6.144201
224,378.15,6.144201
228,378.15,6.144201
232,378.15,6.144201
236,378.15,6.144201
240,378.15,6.144201
244,378.15,6.144201
248,378.15,6.144201
252,378.15,6.144167
256,378.15,6.144101
260,378.15,6.144108
264,378.15,6.144296
268,378.15,6.144401
272,378.15,6.144309
276,378.15,6.144298
280,378.15,6.144202
284,378.15,6.144111
288,378.15,6.144102
292,378.15,6.144175
296,376.692,6.144202
300,375.025,6.144266
304,373.358,6.144275
308,371.692,6.144283
312,370.025,6.144475
316,368.358,6.144385
320,366.692,6.144217
324,365.025,6.143995
328,363.358,6.143863
332,361.692,6.143745
336,360.025,6.143729
340,358.358,6.143885
344,356.692,6.143815
348,355.025,6.143681
352,353.358,6.143558
356,351.692,6.14352
360,350.025,6.143529
364,348.358,6.143464
368,346.692,6.143364
372,345.025,6.143367
376,343.358,6.143374
380,341.692,6.143397
384,340.025,6.143414
388,338.358,6.143387
392,336.692,6.143315
396,335.025,6.143252
400,333.358,6.143266
404,331.692,6.143203
408,330.025,6.143232
412,328.358,6.14323
416,326.692,6.14319
420,325.025,6.142954
424,323.358,6.143125
428,321.692,6.143215
432,320.025,6.14311
436,318.358,6.143127
440,316.692,6.143234
444,315.025,6.143218
448,313.358,6.143215
452,311.692,6.143266
456,310.025,6.143238
460,308.358,6.143224
464,306.692,6.14327
468,305.025,6.143335
472,303.358,6.144253
476,303.15,6.1452
480,303.15,6.145301
484,303.15,6.145205
488,303.15,6.145025
492,303.15,6.145586
496,303.15,6.145701
500,303.15,6.145664
504,303.15,6.145565
508,303.15,6.145502
512,303.15,6.145502
516,303.15,6.145502
520,303.15,6.145502
524,303.15,6.145502
528,303.15,6.145502
532,303.15,6.145502
536,303.15,6.145645
540,303.15,6.145883
544,303.15,6.145645
548,303.15,6.145511
552,303.15,6.145575
556,303.15,6.145602
560,303.15,6.145586
564,303.15,6.14526
568,303.15,6.145428
572,303.15,6.145772
576,303.15,6.14568
580,303.15,6.145631
584,303.15,6.145702
588,303.15,6.145707
592,303.15,6.14571
596,303.15,6.145701
600,303.15,6.145701
604,303.15,6.145701
608,303.15,6.145628
612,303.15,6.145608
616,303.15,6.145641
620,303.15,6.145862
624,303.15,6.14528
628,303.15,6.14522
632,303.15,6.145301
636,303.15,6.145301
640,303.15,6.145362
644,303.15,6.145462
648,303.15,6.145501
652,303.15,6.145501
656,303.15,6.145501
660,303.15,6.145501
664,303.15,6.145568
668,303.15,6.145601
672,303.15,6.145601
676,303.15,6.145601
680,303.15,6.145688
684,303.15,6.145701
688,303.15,6.145798
692,303.15,6.145802
696,303.15,6.145794
700,303.15,6.145567
704,303.15,6.145305
708,303.15,6.145533
712,303.15,6.1457
716,303.15,6.145744
720,303.15,6.145626
724,303.15,6.145601
728,303.15,6.145631
732,303.15,6.145782
736,303.15,6.145802
740,303.15,6.145802
744,303.15,6.145802
748,303.15,6.145802
752,303.15,6.145802
756,303.15,6.145802
760,303.15,6.14588
764,303.15,6.145901
768,303.15,6.145901
772,303.15,6.145901
776,303.15,6.145795
780,303.15,6.145601
784,303.15,6.145535
788,303.15,6.145768
792,303.15,6.145782
796,303.15,6.145797
800,303.15,6.145802
804,303.15,6.145802
808,303.15,6.1459
812,303.15,6.145902
816,303.15,6.145902
820,303.15,6.145958
824,303.15,6.14609
828,303.15,6.146201
832,303.15,6.146135
836,303.15,6.145922
840,303.15,6.145902
844,303.15,6.145902
848,303.15,6.145902
852,303.15,6.145902
856,303.15,6.145954
860,303.15,6.146001
864,303.15,6.146001
868,303.15,6.146001
872,303.15,6.146001
876,303.15,6.146001
880,303.15,6.146001
884,303.15,6.146001
888,303.15,6.146001
892,303.15,6.146001
896,303.15,6.146001
900,303.15,6.146001
904,303.15,6.146087
908,303.15,6.146002
912,303.15,6.145925
916,303.15,6.145802
920,303.15,6.145814
924,303.15,6.1459
928,303.15,6.145901
932,303.15,6.146094
936,303.15,6.146301
940,303.15,6.146211
944,303.15,6.146072
948,303.15,6.146001
952,303.15,6.146001
956,303.15,6.146089
960,303.15,6.146113
964,303.15,6.146277
968,303.15,6.146306
972,303.15,6.146402
976,303.15,6.146372
980,303.15,6.146296
984,303.15,6.146202
988,303.15,6.146202
992,303.15,6.146238
996,303.15,6.146368
1000,303.15,6.146402
1004,303.15,6.146501
1008,303.15,6.146502
1012,303.15,6.146499
1016,303.15,6.146405
1020,303.15,6.146401
1024,303.15,6.146484
1028,303.15,6.146502
1032,303.15,6.146437
1036,303.15,6.146428
1040,303.15,6.146501
1044,303.15,6.146502
1048,303.15,6.146514
1052,303.15,6.146601
1056,303.15,6.146602
1060,303.15,6.146602
1064,303.15,6.146602
1068,303.15,6.146602
1072,303.15,6.146562
1076,303.733,6.14652
1080,304.4,6.1464
1084,305.067,6.146939
1088,305.733,6.147452
1092,306.4,6.147614
1096,307.067,6.147663
1100,307.733,6.147746
1104,308.4,6.147763
1108,309.067,6.147786
1112,309.733,6.147732
1116,310.4,6.147706
1120,311.067,6.147716
1124,311.733,6.147762
1128,312.4,6.14784
1132,313.067,6.147805
1136,313.733,6.147713
1140,314.4,6.148118
1144,315.067,6.148064
1148,315.733,6.148009
1152,316.4,6.148056
1156,317.067,6.148026
1160,317.733,6.147992
1164,318.4,6.147977
1168,319.067,6.147989
1172,319.733,6.148031
1176,320.4,6.14806
1180,321.067,6.148131
1184,321.733,6.148109
1188,322.4,6.148033
1192,323.067,6.148035
1196,323.733,6.148086
1200,324.4,6.14809
1204,325.067,6.148089
1208,325.733,6.148038
1212,326.4,6.14801
1216,327.067,6.14806
1220,327.733,6.148115
1224,328.4,6.148259
1228,329.067,6.14835
1232,329.733,6.148303
1236,330.4,6.148172
1240,331.067,6.148203
1244,331.733,6.148314
1248,332.4,6.148318
1252,333.067,6.14828
1256,333.733,6.148309
1260,334.4,6.148355
1264,335.067,6.148354
1268,335.733,6.148422
1272,336.4,6.148488
1276,337.067,6.148405
1280,337.733,6.148304
1284,338.4,6.148308
1288,339.067,6.148378
1292,339.733,6.14837
1296,340.4,6.148255
1300,341.067,6.148155
1304,341.733,6.148118
1308,342.4,6.148166
1312,343.067,6.148248
1316,343.733,6.148302
1320,344.4,6.148436
1324,345.067,6.148516
1328,345.733,6.148506
1332,346.4,6.148406
1336,347.067,6.148293
1340,347.733,6.148249
1344,348.4,6.148204
1348,349.067,6.148252
1352,349.733,6.148323
1356,350.4,6.148234
1360,351.067,6.148168
1364,351.733,6.148139
1368,352.4,6.148165
1372,353.067,6.148154
1376,353.733,6.148114
1380,354.4,6.148144
1384,355.067,6.148223
1388,355.733,6.1483
1392,356.4,6.148619
1396,357.067,6.148348
1400,357.733,6.148044
1404,358.4,6.148216
1408,359.067,6.148372
1412,359.733,6.148382
1416,360.4,6.148304
1420,361.067,6.147895
1424,361.733,6.14787
1428,362.4,6.147931
1432,363.067,6.147846
1436,363.733,6.148318
1440,364.4,6.148744
1444,365.067,6.14848
1448,365.733,6.147801
1452,366.4,6.148032
1456,367.067,6.148132
1460,367.733,6.148069
1464,368.4,6.148108
1468,369.067,6.148114
1472,369.733,6.148102
1476,370.4,6.148103
1480,371.067,6.148032
1484,371.733,6.147962
1488,372.4,6.14796
1492,373.067,6.147996
1496,373.733,6.147969
1500,374.4,6.147952
1504,375.067,6.147956
1508,375.733,6.147914
1512,376.4,6.147815
1516,377.067,6.147745
1520,377.733,6.147684
1524,378.4,6.147673
1528,379.067,6.14761
1532,379.733,6.147359
1536,380.4,6.147089
1540,381.067,6.147191
1544,381.733,6.147229
1548,382.4,6.147199
1552,383.067,6.147221
1556,383.733,6.147233
1560,384.4,6.147151
1564,385.067,6.147134
1568,385.733,6.147124
1572,386.4,6.14711
1576,387.067,6.147111
1580,387.733,6.147094
1584,388.4,6.146996
1588,389.067,6.146898
1592,389.733,6.146936
1596,390.4,6.146871
1600,391.067,6.146802
1604,391.733,6.146764
1608,392.4,6.146725
1612,393.067,6.146617
1616,393.733,6.14651
1620,394.4,6.146469
1624,395.067,6.146422
1628,395.733,6.146224
1632,396.4,6.146172
1636,397.067,6.146194
1640,397.733,6.146182
1644,398.4,6.146226
1648,399.067,6.146225
1652,399.733,6.146078
1656,400.4,6.14607
1660,401.067,6.146155
1664,401.733,6.146117
1668,402.4,6.145978
1672,403.067,6.145807
1676,403.733,6.145659
1680,404.4,6.145521
1684,405.067,6.145547
1688,405.733,6.145612
1692,406.4,6.145588
1696,407.067,6.14559
1700,407.733,6.145594
1704,408.4,6.145586
1708,409.067,6.145549
1712,409.733,6.145412
1716,410.4,6.145217
1720,411.067,6.145078
1724,411.733,6.145087
1728,412.4,6.145101
1732,413.067,6.145092
1736,413.733,6.144973
1740,414.4,6.144863
1744,415.067,6.144827
1748,415.733,6.144714
1752,416.4,6.144624
1756,417.067,6.144569
1760,417.733,6.144554
1764,418.4,6.144448
1768,419.067,6.144455
1772,419.733,6.144593
1776,420.4,6.144504
1780,421.067,6.144358
1784,421.733,6.144172
1788,422.4,6.143939
1792,423.067,6.143814
1796,423.733,6.143808
1800,424.4,6.143687
1804,425.067,6.143545
1808,425.733,6.143387
1812,426.4,6.143303
1816,427.067,6.143281
1820,427.733,6.143158
1824,428.4,6.143065
1828,429.067,6.143007
1832,429.733,6.142896
1836,430.4,6.142817
1840,431.067,6.1427
1844,431.733,6.142558
1848,432.4,6.142452
1852,433.067,6.142376
1856,433.733,6.142295
1860,434.4,6.142185
1864,435.067,6.141782
1868,435.733,6.141483
1872,436.4,6.141484
1876,437.067,6.141458
1880,437.733,6.141227
1884,438.4,6.141112
1888,439.067,6.141149
1892,439.733,6.141059
1896,440.4,6.140913
1900,441.067,6.140821
1904,441.733,6.140708
1908,442.4,6.140501
1912,443.067,6.140358
1916,443.733,6.140207
1920,444.4,6.139976
1924,445.067,6.139741
1928,445.733,6.139681
1932,446.4,6.139493
1936,447.067,6.139206
1940,447.733,6.138981
1944,448.4,6.138829
1948,449.067,6.138603
1952,449.733,6.138326
1956,450.4,6.138161
1960,451.067,6.137999
1964,451.733,6.137836
1968,452.4,6.137728
1972,453.067,6.137583
1976,453.733,6.137317
1980,454.4,6.137048
1984,455.067,6.136788
1988,455.733,6.136325
1992,456.4,6.135847
1996,457.067,6.135723
2000,457.733,6.135521
2004,458.4,6.13521
2008,459.067,6.134885
2012,459.733,6.134555
2016,460.4,6.134257
2020,461.067,6.133981
2024,461.733,6.133638
2028,462.4,6.133284
2032,463.067,6.132995
2036,463.733,6.132581
2040,464.4,6.132111
2044,465.067,6.131651
2048,465.733,6.131203
2052,466.4,6.130764
2056,467.067,6.130219
2060,467.733,6.129504
2064,468.4,6.129108
2068,469.067,6.128659
2072,469.733,6.128267
2076,470.4,6.127737
2080,471.067,6.127168
2084,471.733,6.126486
2088,472.4,6.125806
2092,473.067,6.125142
2096,473.733,6.124527
2100,474.4,6.123937
2104,475.067,6.123199
2108,475.733,6.122476
2112,476.4,6.121709
2116,477.067,6.120975
2120,477.733,6.120221
2124,478.4,6.119376
2128,479.067,6.118525
2132,479.733,6.117686
2136,480.4,6.11669
2140,481.067,6.115708
2144,481.733,6.114784
2148,482.4,6.113885
2152,483.067,6.113025
2156,483.733,6.112087
2160,484.4,6.111241
2164,485.067,6.11017
2168,485.733,6.108998
2172,486.4,6.107947
2176,487.067,6.107041
2180,487.733,6.105525
2184,488.4,6.104067
2188,489.067,6.102981
2192,489.733,6.101863
2196,490.4,6.100841
2200,491.067,6.099443
2204,491.733,6.098061
2208,492.4,6.096695
2212,493.067,6.095256
2216,493.733,6.093791
2220,494.4,6.092357
2224,495.067,6.090923
2228,495.733,6.089355
2232,496.4,6.087744
2236,497.067,6.086216
2240,497.733,6.08463
2244,498.4,6.082938
2248,499.067,6.081267
2252,499.733,6.07956
2256,500.4,6.077833
2260,501.067,6.076068
2264,501.733,6.074241
2268,502.4,6.072365
2272,503.067,6.070461
2276,503.733,6.068572
2280,504.4,6.066701
2284,505.067,6.064722
2288,505.733,6.062647
2292,506.4,6.060413
2296,507.067,6.058147
2300,507.733,6.055905
2304,508.4,6.053702
2308,509.067,6.051376
2312,509.733,6.048967
2316,510.4,6.046422
2320,511.067,6.043816
2324,511.733,6.041195
2328,512.4,6.03855
2332,513.067,6.035869
2336,513.733,6.033108
2340,514.4,6.030302
2344,515.067,6.027435
2348,515.733,6.024537
2352,516.4,6.021531
2356,517.067,6.018244
2360,517.733,6.014896
2364,518.4,6.011909
2368,519.067,6.008784
2372,519.733,6.005577
2376,520.4,6.002514
2380,521.067,5.998801
2384,521.733,5.995089
2388,522.4,5.991631
2392,523.067,5.988194
2396,523.733,5.984584
2400,524.4,5.98087
2404,525.067,5.97719
2408,525.733,5.973459
2412,526.4,5.969529
2416,527.067,5.965663
2420,527.733,5.96174
2424,528.4,5.957773
2428,529.067,5.953735
2432,529.733,5.949602
2436,530.4,5.945427
2440,531.067,5.941229
2444,531.733,5.937058
2448,532.4,5.932776
2452,533.067,5.928304
2456,533.733,5.92377
2460,534.4,5.919242
2464,535.067,5.914616
2468,535.733,5.909837
2472,536.4,5.904968
2476,537.067,5.900012
2480,537.733,5.895061
2484,538.4,5.890061
2488,539.067,5.884889
2492,539.733,5.879575
2496,540.4,5.874135
2500,541.067,5.868783
2504,541.733,5.863428
2508,542.4,5.85793
2512,543.067,5.852303
2516,543.733,5.846575
2520,544.4,5.840731
2524,545.067,5.8348
2528,545.733,5.828815
2532,546.4,5.822711
2536,547.067,5.816536
2540,547.733,5.810198
2544,548.4,5.803745
2548,549.067,5.797251
2552,549.733,5.790757
2556,550.4,5.784019
2560,551.067,5.776938
2564,551.733,5.769696
2568,552.4,5.763213
2572,553.067,5.756361
2576,553.733,5.749144
2580,554.4,5.741577
2584,555.067,5.733865
2588,555.733,5.726221
2592,556.4,5.718447
2596,557.067,5.710541
2600,557.733,5.702515
2604,558.4,5.694349
2608,559.067,5.686242
2612,559.733,5.677947
2616,560.4,5.669411
2620,561.067,5.660777
2624,561.733,5.652003
2628,562.4,5.642984
2632,563.067,5.633814
2636,563.733,5.624669
2640,564.4,5.615449
2644,565.067,5.606029
2648,565.733,5.596418
2652,566.4,5.586634
2656,567.067,5.576637
2660,567.733,5.566553
2664,568.4,5.556246
2668,569.067,5.546018
2672,569.733,5.535607
2676,570.4,5.524805
2680,571.067,5.51391
2684,571.733,5.502841
2688,572.4,5.491607
2692,573.067,5.480197
2696,573.733,5.468593
2700,574.4,5.456815
2704,575.067,5.444966
2708,575.733,5.432823
2712,576.4,5.420405
2716,577.067,5.407761
2720,577.733,5.394961
2724,578.4,5.381892
2728,579.067,5.368553
2732,579.733,5.355343
2736,580.4,5.341722
2740,581.067,5.327752
2744,581.733,5.313554
2748,582.4,5.299083
2752,583.067,5.284388
2756,583.733,5.269461
2760,584.4,5.254353
2764,585.067,5.23896
2768,585.733,5.22324
2772,586.4,5.207368
2776,587.067,5.191093
2780,587.733,5.174283
2784,588.4,5.157544
2788,589.067,5.140702
2792,589.733,5.123546
2796,590.4,5.106038
2800,591.067,5.088255
2804,591.733,5.070129
2808,592.4,5.051706
2812,593.067,5.032984
2816,593.733,5.01414
2820,594.4,4.994956
2824,595.067,4.975564
2828,595.733,4.955853
2832,596.4,4.935873
2836,597.067,4.91569
2840,597.733,4.895315
2844,598.4,4.874433
2848,599.067,4.85327
2852,599.733,4.832035
2856,600.4,4.810466
2860,601.067,4.78859
2864,601.733,4.766509
2868,602.4,4.744336
2872,603.067,4.72184
2876,603.733,4.699025
2880,604.4,4.675978
2884,605.067,4.652845
2888,605.733,4.629517
2892,606.4,4.605811
2896,607.067,4.581926
2900,607.733,4.557905
2904,608.4,4.533573
2908,609.067,4.509051
2912,609.733,4.484326
2916,610.4,4.459407
2920,611.067,4.434225
2924,611.733,4.408757
2928,612.4,4.383194
2932,613.067,4.357306
2936,613.733,4.331187
2940,614.4,4.304861
2944,615.067,4.278449
2948,615.733,4.251498
2952,616.4,4.22429
2956,617.067,4.196711
2960,617.733,4.168892
2964,618.4,4.140785
2968,619.067,4.112327
2972,619.733,4.083663
2976,620.4,4.054538
2980,621.067,4.025023
2984,621.733,3.994948
2988,622.4,3.964559
2992,623.067,3.933593
2996,623.733,3.902195
3000,624.4,3.870173
3004,625.067,3.837763
3008,625.733,3.804645
3012,626.4,3.771081
3016,627.067,3.736772
3020,627.733,3.701812
3024,628.4,3.666241
3028,629.067,3.629854
3032,629.733,3.592875
3036,630.4,3.555155
3040,631.067,3.516735
3044,631.733,3.477544
3048,632.4,3.437758
3052,633.067,3.397102
3056,633.733,3.356017
3060,634.4,3.31426
3064,635.067,3.271893
3068,635.733,3.228881
3072,636.4,3.185096
3076,637.067,3.141108
3080,637.733,3.097306
3084,638.4,3.053356
3088,639.067,3.009259
3092,639.733,2.96537
3096,640.4,2.921721
3100,641.067,2.878708
3104,641.733,2.836245
3108,642.4,2.794734
3112,643.067,2.754163
3116,643.733,2.714935
3120,644.4,2.677218
3124,645.067,2.641059
3128,645.733,2.606364
3132,646.4,2.573509
3136,647.067,2.542214
3140,647.733,2.512881
3144,648.4,2.485872
3148,649.067,2.46065
3152,649.733,2.437232
3156,650.4,2.4155
3160,651.067,2.395544
3164,651.733,2.377217
3168,652.4,2.360574
3172,653.067,2.34526
3176,653.733,2.33128
3180,654.4,2.318444
3184,655.067,2.306726
3188,655.733,2.296037
3192,656.4,2.286217
3196,657.067,2.277069
3200,657.733,2.268698
3204,658.4,2.260876
3208,659.067,2.253542
3212,659.733,2.246595
3216,660.4,2.239901
3220,661.067,2.233607
3224,661.733,2.227501
3228,662.4,2.221654
3232,663.067,2.216033
3236,663.733,2.210498
3240,664.4,2.204739
3244,665.067,2.199659
3248,665.733,2.195148
3252,666.4,2.190394
3256,667.067,2.185071
3260,667.733,2.180075
3264,668.4,2.175593
3268,669.067,2.170846
3272,669.733,2.166071
3276,670.4,2.161468
3280,671.067,2.156882
3284,671.733,2.15225
3288,672.4,2.14773
3292,673.067,2.143225
3296,673.733,2.138681
3300,674.4,2.134104
3304,675.067,2.129642
3308,675.733,2.125311
3312,676.4,2.121168
3316,677.067,2.116745
3320,677.733,2.112276
3324,678.4,2.107885
3328,679.067,2.103523
3332,679.733,2.099107
3336,680.4,2.094758
3340,681.067,2.090439
3344,681.733,2.0861
3348,682.4,2.081687
3352,683.067,2.077553
3356,683.733,2.073497
3360,684.4,2.069259
3364,685.067,2.064934
3368,685.733,2.06059
3372,686.4,2.056408
3376,687.067,2.052203
3380,687.733,2.048033
3384,688.4,2.043858
3388,689.067,2.039511
3392,689.733,2.035231
3396,690.4,2.031067
3400,691.067,2.026879
3404,691.733,2.022757
3408,692.4,2.018331
3412,693.067,2.014323
3416,693.733,2.010364
3420,694.4,2.005977
3424,695.067,2.001731
3428,695.733,1.997626
3432,696.4,1.993594
3436,697.067,1.989496
3440,697.733,1.985374
3444,698.4,1.981307
3448,699.067,1.977293
3452,699.733,1.973137
3456,700.4,1.969067
3460,701.067,1.964996
3464,701.733,1.960981
3468,702.4,1.956974
3472,703.067,1.953032
3476,703.733,1.949119
3480,704.4,1.945171
3484,705.067,1.941236
3488,705.733,1.937187
3492,706.4,1.933225
3496,707.067,1.929203
3500,707.733,1.925332
3504,708.4,1.921198
3508,709.067,1.917404
3512,709.733,1.913903
3516,710.4,1.910084
3520,711.067,1.906236
3524,711.733,1.90242
3528,712.4,1.898488
3532,713.067,1.894571
3536,713.733,1.891057
3540,714.4,1.887544
3544,715.067,1.883828
3548,715.733,1.880235
3552,716.4,1.876751
3556,717.067,1.873184
3560,717.733,1.869738
3564,718.4,1.866185
3568,719.067,1.862559
3572,719.733,1.859089
3576,720.4,1.855618
3580,721.067,1.852222
3584,721.733,1.848859
3588,722.4,1.845476
3592,723.067,1.842114
3596,723.733,1.838826
3600,724.4,1.835579
3604,725.067,1.832519
3608,725.733,1.829324
3612,726.4,1.826038
3616,727.067,1.822902
3620,727.733,1.819772
3624,728.4,1.816707
3628,729.067,1.813533
3632,729.733,1.81049
3636,730.4,1.807553
3640,731.067,1.804693
3644,731.733,1.80186
3648,732.4,1.799027
3652,733.067,1.796226
3656,733.733,1.793431
3660,734.4,1.790577
3664,735.067,1.787793
3668,735.733,1.785145
3672,736.4,1.782501
3676,737.067,1.779787
3680,737.733,1.77706
3684,738.4,1.774375
3688,739.067,1.77181
3692,739.733,1.769241
3696,740.4,1.766756
3700,741.067,1.764212
3704,741.733,1.761761
3708,742.4,1.759375
3712,743.067,1.757025
3716,743.733,1.754578
3720,744.4,1.752016
3724,745.067,1.749664
3728,745.733,1.74737
3732,746.4,1.745153
3736,747.067,1.742805
3740,747.733,1.740307
3744,748.4,1.738199
3748,749.067,1.736117
3752,749.733,1.734084
3756,750.4,1.731916
3760,751.067,1.729633
3764,751.733,1.727339
3768,752.4,1.725142
3772,753.067,1.722984
3776,753.733,1.720825
3780,754.4,1.71882
3784,755.067,1.716788
3788,755.733,1.714659
3792,756.4,1.712569
3796,757.067,1.710594
3800,757.733,1.708573
3804,758.4,1.706536
3808,759.067,1.704577
3812,759.733,1.702633
3816,760.4,1.700761
3820,761.067,1.698798
3824,761.733,1.69688
3828,762.4,1.695001
3832,763.067,1.693249
3836,763.733,1.691479
3840,764.4,1.689507
3844,765.067,1.687556
3848,765.733,1.685709
3852,766.4,1.683936
3856,767.067,1.682115
3860,767.733,1.680338
3864,768.4,1.678573
3868,769.067,1.676721
3872,769.733,1.674884
3876,770.4,1.673156
3880,771.067,1.671834
3884,771.733,1.67006
3888,772.4,1.668125
3892,773.067,1.666279
3896,773.733,1.664535
3900,774.4,1.662812
3904,775.067,1.661168
3908,775.733,1.659561
3912,776.4,1.65791
3916,777.067,1.656204
3920,777.733,1.6546
3924,778.4,1.652937
3928,779.067,1.651363
3932,779.733,1.649874
3936,780.4,1.648168
3940,781.067,1.646324
3944,781.733,1.644615
3948,782.4,1.642968
3952,783.067,1.641418
3956,783.733,1.639706
3960,784.4,1.637843
3964,785.067,1.636326
3968,785.733,1.634954
3972,786.4,1.6335
3976,787.067,1.63201
3980,787.733,1.630459
3984,788.4,1.628913
3988,789.067,1.627418
3992,789.733,1.625824
3996,790.4,1.624291
4000,791.067,1.622812
4004,791.733,1.621335
4008,792.4,1.619889
4012,793.067,1.618454
4016,793.733,1.61713
4020,794.4,1.615784
4024,795.067,1.614372
4028,795.733,1.612776
4032,796.4,1.611133
4036,797.067,1.609549
4040,797.733,1.608068
4044,798.4,1.606217
4048,799.067,1.604765
4052,799.733,1.603681
4056,800.4,1.601928
4060,801.067,1.600413
4064,801.733,1.599207
4068,802.4,1.598055
4072,803.067,1.596797
4076,803.733,1.595448
4080,804.4,1.594028
4084,805.067,1.592645
4088,805.733,1.591243
4092,806.4,1.589897
4096,807.067,1.588553
4100,807.733,1.58719
4104,808.4,1.585901
4108,809.067,1.584673
4112,809.733,1.583353
4116,810.4,1.582074
4120,811.067,1.580782
4124,811.733,1.579433
4128,812.4,1.578249
4132,813.067,1.577187
4136,813.733,1.575762
4140,814.4,1.574272
4144,815.067,1.572912
4148,815.733,1.571677
4152,816.4,1.570286
4156,817.067,1.568831
4160,817.733,1.56762
4164,818.4,1.566642
4168,819.067,1.565357
4172,819.733,1.563992
4176,820.4,1.562717
4180,821.067,1.561441
4184,821.733,1.560256
4188,822.4,1.559005
4192,823.067,1.557707
4196,823.733,1.556427
4200,824.4,1.555197
4204,825.067,1.554035
4208,825.733,1.552843
4212,826.4,1.551687
4216,827.067,1.550526
4220,827.733,1.549422
4224,828.4,1.548281
4228,829.067,1.546994
4232,829.733,1.545838
4236,830.4,1.544684
4240,831.067,1.543488
4244,831.733,1.542248
4248,832.4,1.54109
4252,833.067,1.539944
4256,833.733,1.538784
4260,834.4,1.537581
4264,835.067,1.53638
4268,835.733,1.535279
4272,836.4,1.534184
4276,837.067,1.533009
4280,837.733,1.531886
4284,838.4,1.530773
4288,839.067,1.529731
4292,839.733,1.528696
4296,840.4,1.527549
4300,841.067,1.526317
4304,841.733,1.525185
4308,842.4,1.524062
4312,843.067,1.52288
4316,843.733,1.521819
4320,844.4,1.520803
4324,845.067,1.519765
4328,845.733,1.518443
4332,846.4,1.517371
4336,847.067,1.516522
4340,847.733,1.515583
4344,848.4,1.514475
4348,849.067,1.513295
4352,849.733,1.512177
4356,850.4,1.511107
4360,851.067,1.510175
4364,851.733,1.509203
4368,852.4,1.508156
4372,853.067,1.50704
4376,853.733,1.505959
4380,854.4,1.504889
4384,855.067,1.503851
4388,855.733,1.50284
4392,856.4,1.501805
4396,857.067,1.500665
4400,857.733,1.499509
4404,858.4,1.498567
4408,859.067,1.497714
4412,859.733,1.496662
4416,860.4,1.495614
4420,861.067,1.494584
4424,861.733,1.493682
4428,862.4,1.49267
4432,863.067,1.491588
4436,863.733,1.490514
4440,864.4,1.489453
4444,865.067,1.488485
4448,865.733,1.487626
4452,866.4,1.486832
4456,867.067,1.485901
4460,867.733,1.484838
4464,868.4,1.483812
4468,869.067,1.482822
4472,869.733,1.481899
4476,870.4,1.480962
4480,871.067,1.480115
4484,871.733,1.479242
4488,872.4,1.478295
4492,873.067,1.477292
4496,873.733,1.47634
4500,874.4,1.475461
4504,875.067,1.474621
4508,875.733,1.473779
4512,876.4,1.472958
4516,877.067,1.47194
4520,877.733,1.471066
4524,878.4,1.470208
4528,879.067,1.469304
4532,879.733,1.468282
4536,880.4,1.467357
4540,881.067,1.466521
4544,881.733,1.465662
4548,882.4,1.464818
4552,883.067,1.463995
4556,883.733,1.463204
4560,884.4,1.462437
4564,885.067,1.461642
4568,885.733,1.460905
4572,886.4,1.460179
4576,887.067,1.459449
4580,887.733,1.458695
4584,888.4,1.457975
4588,889.067,1.45741
4592,889.733,1.456833
4596,890.4,1.455869
4600,891.067,1.455145
4604,891.733,1.454575
4608,892.4,1.453724
4612,893.067,1.453037