File: Wood/Calibration_Data/FPL/FPL_Wood_Cone_50kW_hor_R6.csv
Time (s),Mass (g),HRR (kW/m2),TC Top (K),TC back 1 (K),TC back 2 (K)
0,100.1,2.13373,310.01,293.658,293.682
2,88.0362,2.86874,330.362,293.655,293.672
4,84.4201,2.06181,415.713,293.946,293.703
6,83.2961,0.650938,477.006,293.639,293.69
8,82.9666,-1.33179,525.674,293.748,293.706
10,82.7913,-0.208372,568.214,293.728,293.717
12,82.6204,21.2663,584.102,293.739,293.702
14,82.4824,56.1357,675.76,293.796,293.751
16,82.25552,136.444,717.21,293.838,293.754
18,81.9242,176.771,743.016,293.916,293.817
20,81.7073,177.113,772.7,294.008,293.845
22,81.4074,176.916,791.014,294.136,293.924
24,81.1307,178.895,800.317,294.286,293.883
26,80.9036,167.814,818.18,294.498,293.883
28,80.6428,163.009,837.614,294.771,293.894
30,80.4245,150.743,853.433,295.256,293.914
32,80.2422,143.404,861.178,295.654,293.905
34,80.06756,142.504,869.2,296.197,293.95
36,79.8586,131.647,870.466,296.986,293.974
38,79.7133,128.332,874.629,297.418,293.979
40,79.4732,122.728,883.642,298.464,294.015
42,79.3536,121.673,887.794,299.286,294.062
44,79.15806,118.175,893.796,300.234,294.062
46,79.0224,118.835,902.635,301.585,294.117
48,78.8598,118.961,904.511,302.311,294.142
50,78.6542,116.608,908.434,303.807,294.206
52,78.5271,113.369,914.04,304.912,294.193
54,78.3107,107.181,919.818,306.193,294.229
56,78.22227,112.356,926.262,307.832,294.293
58,78.0737,106.171,933.662,308.664,294.289
60,77.9885,105.323,941.635,310.474,294.329
62,77.7857,103.933,943.312,312.22,294.382
64,77.65508,102.931,945.987,313.07,294.384
66,77.4748,102.155,949.559,315.008,294.453
68,77.3384,101.779,954.609,316.304,294.453
70,77.1943,99.2943,961.058,317.858,294.483
72,77.0609,97.4595,967.552,319.761,294.542
74,76.981,97.7226,965.719,320.727,294.597
76,76.7694,96.7645,976.292,322.595,294.708
78,76.6866,95.0454,963.088,324.052,294.767
80,76.5545,95.0507,970.912,325.555,294.844
82,76.43,92.8028,968.536,327.618,294.893
84,76.2418,93.7624,974.2,328.313,294.982
86,76.1271,93.3537,977.788,330.576,295.092
88,76.0151,89.9848,973.854,332.015,295.142
90,75.9058,91.7137,970.926,333.531,295.242
92,75.779,92.0208,976.753,335.5,295.392
94,75.646,87.3587,983.714,336.46,295.441
96,75.5118,88.5341,982.71,338.402,295.587
98,75.364,85.177,984.175,340.485,295.755
100,75.2854,88.5031,984.551,341.666,295.807
102,75.1341,87.7623,984.92,343.489,295.912
104,75.0227,89.0191,990.022,344.98,296.053
106,74.8974,89.0817,990.515,346.389,296.195
108,74.7864,88.6372,981.025,348.458,296.407
110,74.6737,84.362,981.767,349.467,296.502
112,74.5287,84.7487,981.916,351.557,296.646
114,74.4001,83.7427,988.865,353.598,296.847
116,74.2635,84.2506,995.853,354.745,296.986
118,74.1707,85.56,984.587,356.895,297.255
120,74.0075,83.0943,991.017,357.815,297.314
122,73.9509,83.0432,991.749,360.597,297.566
124,73.8261,82.3613,1008.432,362.428,297.746
126,73.7441,81.8401,1002.397,364.482,297.955
128,73.6424,78.4642,1003.859,367.001,298.206
130,73.4671,77.6146,1003.462,368.205,298.346
132,73.3981,80.7052,993.432,370.56,298.605
134,73.2348,79.1869,1002.797,372.481,298.879
136,73.1137,79.195,1014.189,373.373,298.983
138,73.0181,80.2347,1003.569,374.909,299.306
140,72.8952,79.6934,1007.883,375.845,299.513
142,72.841,78.3558,998.931,376.813,299.763
144,72.7136,80.5697,997.159,377.854,300.08
146,72.5616,80.7305,1000.004,378.311,300.223
148,72.4244,80.5255,1009.15,379.34,300.585
150,72.30472,80.9154,1026.255,380.035,300.879
152,72.232,79.5863,1014.94,380.835,301.15
154,72.0841,79.3865,1020.74,381.852,301.496
156,71.98742,79.1405,1013.951,382.419,301.639
158,71.8745,77.0418,1026.604,383.609,302.019
160,71.7722,75.0973,1035.248,384.488,302.283
162,71.6298,78.0295,1012.303,385.433,302.605
164,71.5427,75.8289,1014.391,386.763,302.979
166,71.4162,76.8799,1008.654,387.411,303.157
168,71.3255,79.7298,1013.925,388.807,303.523
170,71.2054,77.4542,1016.767,390.144,303.95
172,71.0647,78.1192,1018.252,390.86,304.18
174,70.9993,77.949,1019.172,392.254,304.589
176,70.88191,76.2763,1014.271,393.282,304.94
178,70.7794,75.3509,1020.156,394.363,305.281
180,70.7252,79.0083,1006.689,395.666,305.818
182,70.5461,77.6801,1010.747,396.58,306.012
184,70.4606,80.2434,1035.882,398.122,306.383
186,70.3648,80.0814,1015.577,399.246,306.746
188,70.22837,74.4883,1032.826,400.492,307.105
190,70.1406,76.5725,1053.932,402.074,307.58
192,70.0307,75.0227,1052.047,402.894,307.841
194,69.915,77.165,1038.847,404.631,308.345
196,69.8102,74.1313,1041.581,405.884,308.684
198,69.7127,77.9034,1045.567,407.203,309.067
200,69.5835,76.2268,1035.233,408.969,309.563
202,69.4759,77.7278,1021.491,410.44,310.002
204,69.3498,77.5641,1042.978,411.852,310.403
206,69.2794,74.0232,1047.66,413.785,310.92
208,69.1327,75.4273,1043.841,414.766,311.206
210,69.0255,77.9421,1045.581,416.786,311.735
212,68.9915,76.5159,1043.838,418.297,312.104
214,68.8053,78.3718,1044.692,419.91,312.555
216,68.6924,80.7209,1045.811,422.124,313.07
218,68.6229,78.8203,1039.665,423.115,313.305
220,68.5434,79.9302,1051.12,425.34,313.852
222,68.3992,79.8664,1043.9,427.064,314.322
224,68.2433,76.6711,1050.943,428.869,314.734
226,68.1026,79.0696,1055.971,431.04,315.341
228,68.0011,78.6126,1053.14,431.754,315.618
230,67.9542,79.1545,1054.949,433.937,316.196
232,67.843,78.4625,1050.649,436.167,316.68
234,67.7084,76.5424,1061.323,438.23,317.142
236,67.60392,79.7726,1054.512,440.739,317.721
238,67.5236,78.1735,1055.721,442.621,318.146
240,67.4204,75.6614,1059.524,444.589,318.631
242,67.3064,80.0338,1036.656,447.068,319.239
244,67.1912,79.2642,1041.181,448.251,319.537
246,67.0643,77.7625,1052.541,450.732,320.217
248,66.95311,79.9119,1064.799,452.443,320.687
250,66.8598,78.0362,1047.435,454.639,321.14
252,66.7508,78.6244,1061.386,457.202,321.791
254,66.673,76.9539,1051.19,458.559,322.138
256,66.4498,75.2889,1058.776,461.008,322.715
258,66.418,78.7467,1074.988,462.997,323.235
260,66.3537,78.4419,1060.252,464.847,323.723
262,66.1735,75.9752,1059.16,467.524,324.416
264,66.0666,75.5757,1055.498,468.778,324.777
266,65.9757,76.7811,1047.581,471.292,325.463
268,65.83104,76.5292,1046.957,473.117,325.992
270,65.7452,75.7651,1057.454,475.01,326.505
272,65.6374,77.0769,1064.115,477.168,327.205
274,65.537,76.1808,1054.345,479.072,327.668
276,65.4057,75.9588,1050.834,481.22,328.142
278,65.3173,76.8671,1048.269,483.704,328.843
280,65.192,79.2716,1056.123,484.971,329.175
282,65.0854,78.8136,1068.276,487.69,329.865
284,64.979,78.5572,1072.412,490.332,330.487
286,64.883,75.5182,1046.324,491.743,330.997
288,64.7596,79.4963,1056.6,494.172,331.718
290,64.6581,78.5298,1060.879,495.633,332.103
292,64.5411,77.7306,1050.294,497.89,332.786
294,64.4133,78.0594,1037.791,499.763,333.408
296,64.3057,75.2904,1043.562,501.584,333.946
298,64.1894,75.8286,1059.578,504.158,334.711
300,64.1134,76.7946,1060.448,505.351,335.058
302,64.001,77.1179,1063.273,507.822,335.797
304,63.896,77.4177,1048.647,509.67,336.418
306,63.7384,77.1054,1061.309,511.481,336.973
308,63.6734,75.8596,1047.771,513.94,337.728
310,63.5227,79.3382,1068.017,515.482,338.296
312,63.4097,75.7815,1077.164,517.55,338.859
314,63.3317,74.5157,1066.814,519.975,339.678
316,63.0738,78.0125,1063.931,521.178,340.054
318,63.0855,75.3152,1053.185,523.565,340.776
320,62.9734,76.3901,1048.977,525.435,341.363
322,62.86317,78.0349,1059.735,527.185,341.956
324,62.7801,76.2149,1066.01,529.564,342.758
326,62.6405,76.733,1056.538,530.619,343.136
328,62.5431,77.3568,1054.926,532.919,343.936
330,62.4134,79.8998,1065.516,534.702,344.565
332,62.2952,79.6234,1056.897,536.249,345.131
334,62.2144,79.1627,1066.921,538.454,345.907
336,62.0775,76.9433,1083.712,539.536,346.333
338,61.991,78.632,1082.164,541.703,347.076
340,61.8749,76.0612,1059.685,544.214,347.882
342,61.7767,76.8452,1058.453,545.188,348.321
344,61.6328,76.388,1076.551,547.417,349.144
346,61.5436,75.7412,1068.662,549.117,349.76
348,61.4142,73.8623,1053.57,550.819,350.397
350,61.2781,74.1787,1052.177,553.164,351.205
352,61.1891,75.202,1064.476,554.153,351.601
354,61.1086,75.9186,1065.849,556.296,352.409
356,60.9999,73.5416,1074.475,558.08,353.081
358,60.8931,75.8381,1072.126,559.758,353.671
360,60.77019,74.8983,1063.335,562.126,354.535
362,60.632,77.2438,1080.295,563.357,354.976
364,60.5611,79.5148,1080.189,565.589,355.785
366,60.4301,79.4895,1093.905,567.367,356.418
368,60.31456,75.2355,1075.415,568.984,357.014
370,60.2212,75.7409,1076.681,571.308,357.826
372,60.118,77.7391,1071.875,572.447,358.217
374,60.0018,77.3984,1067.556,574.959,359.055
376,59.8705,76.0771,1072.51,577.193,359.907
378,59.72149,75.4569,1082.973,578.334,360.296
380,59.6405,75.7067,1086.245,580.786,361.108
382,59.5557,79.5973,1088.534,582.616,361.768
384,59.44008,77.3224,1086.259,584.153,362.265
386,59.3016,77.8222,1075.784,586.718,363.101
388,59.1745,78.5583,1066.532,587.845,363.507
390,59.07175,76.6887,1080.552,590.126,364.311
392,58.9983,76.0326,1084.503,592.067,364.873
394,58.8478,75.0192,1070.704,593.836,365.445
396,58.7905,76.5838,1060.924,596.118,366.155
398,58.6852,76.7039,1077.764,597.371,366.538
400,58.55652,79.1288,1074.009,599.635,367.287
402,58.4199,76.8541,1064.539,601.421,367.905
404,58.2966,74.7453,1062.711,603.081,368.455
406,58.166,75.7202,1065.77,605.456,369.25
408,58.0656,77.4528,1059.451,607.235,369.868
410,57.9948,78.8046,1065.34,608.873,370.509
412,57.87344,79.1397,1064.153,610.998,371.27
414,57.7619,78.4577,1063.209,612.187,371.644
416,57.6196,79.2028,1062.135,614.314,372.426
418,57.4603,80.3622,1065.082,615.879,373.04
420,57.3659,78.8264,1060.567,617.345,373.59
422,57.3034,79.017,1054.324,619.309,374.338
424,57.1411,81.4807,1060.205,620.264,374.704
426,57.0435,79.667,1056.64,622.117,375.367
428,56.9698,77.6819,1061.335,623.64,375.926
430,56.856,81.4305,1054.56,624.963,376.418
432,56.7433,79.625,1049.89,626.751,377.044
434,56.629,79.5016,1056.696,627.669,377.33
436,56.5011,80.5671,1057.183,629.454,377.893
438,56.3954,79.5225,1055.27,630.822,378.285
440,56.2601,78.8347,1060.897,632.227,378.676
442,56.1684,82.5165,1057.177,634.142,379.187
444,56.0763,81.9419,1049.667,635.637,379.509
446,55.9185,80.8287,1051.841,636.99,379.778
448,55.8866,81.062,1064.321,638.885,380.147
450,55.7621,80.1433,1060.452,639.785,380.323
452,55.6418,80.8604,1059.497,641.652,380.664
454,55.5808,81.1278,1055.717,643.086,380.881
456,55.4071,83.1222,1055.728,644.474,381.072
458,55.3053,79.5219,1049.465,646.27,381.345
460,55.2242,79.2341,1053.069,647.174,381.479
462,55.0162,79.6461,1048.806,649.019,381.693
464,54.9305,78.2241,1056.686,650.496,381.941
466,54.8412,75.6038,1061.205,651.871,382.033
468,54.7966,77.0199,1057.862,653.653,382.264
470,54.6587,77.0303,1055.55,655.159,382.427
472,54.4887,76.9341,1058.736,656.386,382.595
474,54.348,77.7332,1057.412,658.239,382.846
476,54.2596,78.9366,1056.235,659.161,382.967
478,54.16725,77.0483,1044.527,660.975,383.189
480,54.0243,78.5377,1060.418,662.432,383.407
482,53.94693,79.2618,1054.867,663.794,383.618
484,53.8282,76.6967,1054.829,665.577,383.901
486,53.6777,78.8709,1056.405,666.548,384.07
488,53.6007,79.2285,1056.928,668.44,384.34
490,53.4943,82.4126,1064.004,669.937,384.605
492,53.324,80.6409,1062.911,671.34,384.754
494,53.2524,79.5292,1061.752,673.166,384.979
496,53.181,79.9586,1058.408,674.218,385.188
498,53.0442,83.0464,1057.298,676.143,385.547
500,52.9382,80.1559,1052.915,677.714,385.803
502,52.8191,75.0514,1059.276,679.13,386.075
504,52.6513,79.7595,1057.189,681.303,386.459
506,52.5366,79.2431,1058.764,683.079,386.831
508,52.4855,82.5135,1065.015,684.658,387.086
510,52.3544,79.1153,1058.346,686.963,387.487
512,52.2724,79.8812,1061.186,687.95,387.696
514,52.1694,80.5693,1061.088,690.258,388.154
516,52.0351,81.3866,1067.591,692.043,388.452
518,51.9219,77.8025,1069.196,693.66,388.829
520,51.7691,78.0616,1063.388,696.078,389.263
522,51.6867,82.053,1062.449,697.454,389.503
524,51.5355,82.9205,1068.519,699.899,389.989
526,51.4685,79.7558,1057.884,701.94,390.414
528,51.3437,80.2606,1062.574,703.693,390.79
530,51.2509,79.3861,1068.095,705.884,391.3
532,51.1466,81.1568,1067.515,707.247,391.556
534,51.0608,79.0921,1059.187,709.687,392.073
536,50.9605,81.197,1068.982,711.912,392.606
538,50.8462,77.3272,1070.068,713.137,392.911
540,50.7254,77.7557,1067.883,715.343,393.532
542,50.5535,79.3983,1072.793,717.134,393.979
544,50.45757,78.1034,1073.012,718.665,394.434
546,50.3815,80.3124,1073.587,721.176,395.069
548,50.21619,79.0265,1072.681,722.435,395.418
550,50.1206,80.0944,1072.409,724.616,396.113
552,50.0192,81.6491,1075.539,726.304,396.625
554,49.897,83.5462,1073.086,728.064,397.147
556,49.8016,82.5296,1072.316,730.154,397.84
558,49.7013,81.0372,1072.164,731.278,398.2
560,49.5723,81.2638,1073.363,733.463,398.909
562,49.4903,79.2994,1085.37,735.213,399.509
564,49.3534,77.7777,1075.267,736.837,400.037
566,49.2373,79.1655,1073.552,739.125,400.812
568,49.1467,79.3745,1075.46,740.307,401.208
570,49.0317,78.1237,1077.911,742.846,401.957
572,48.8899,77.2273,1081.566,745.036,402.75
574,48.8088,78.8723,1078.724,746.155,403.123
576,48.6777,77.971,1089.73,748.618,403.948
578,48.587,76.9723,1082.432,750.514,404.584
580,48.4649,78.5999,1079.461,752.208,405.166
582,48.356,78.8961,1081.658,754.772,406.058
584,48.3002,81.7332,1082.476,756.146,406.565
586,48.1469,82.4366,1081.692,758.59,407.396
588,48.01931,81.5301,1079.798,760.622,408.077
590,47.95237,79.3491,1081.978,762.01,408.71
592,47.8032,82.7079,1084.673,764.286,409.599
594,47.7181,81.4503,1082.468,765.391,410.1
596,47.5962,80.6254,1085.536,767.487,411.002
598,47.4838,82.0608,1095.525,769.103,411.743
600,47.3484,82.7031,1090.506,770.518,412.41
602,47.2695,79.9235,1087.069,772.559,413.371
604,47.1126,81.1207,1075.405,774.39,414.117
606,47.0458,84.0703,1092.124,775.825,414.793
608,46.9547,81.1273,1092.107,777.869,415.735
610,46.8105,80.5159,1089.007,778.913,416.19
612,46.7043,82.0514,1073.19,780.917,417.205
614,46.5621,81.5384,1085.964,782.52,417.976
616,46.4581,80.004,1096.888,783.907,418.722
618,46.3582,81.981,1095.914,785.952,419.694
620,46.264,80.1408,1090.416,786.901,420.148
622,46.1664,83.1317,1089.294,788.889,421.104
624,46.0654,82.9233,1092.298,790.495,421.951
626,45.9339,85.9237,1082.685,791.749,422.669
628,45.7937,80.6819,1092.357,793.4,423.709
630,45.6913,79.4221,1088.703,794.255,424.238
632,45.6015,81.3089,1086.323,795.799,425.265
634,45.4479,82.5553,1074.388,797.104,426.109
636,45.35836,82.1186,1088.162,798.229,426.804
638,45.2376,86.2867,1086.345,799.916,427.902
640,45.1501,83.7649,1087.572,801.296,428.727
642,45.014,82.4215,1086.124,802.408,429.413
644,44.9456,83.232,1088.598,804.194,430.494
646,44.8331,83.3508,1086.833,805.108,431.029
648,44.7146,82.3529,1088.128,806.76,432.099
650,44.5929,84.205,1095.027,808.088,432.965
652,44.5172,81.9275,1089.665,809.257,433.704
654,44.3879,83.2761,1082.529,810.817,434.722
656,44.2872,81.2184,1080.542,811.587,435.252
658,44.1842,83.2708,1080.817,813.118,436.286
660,44.0647,85.5682,1086.389,814.324,437.362
662,43.9414,82.2091,1090.927,815.081,437.842
664,43.84424,80.4012,1097.55,816.477,438.931
666,43.7161,81.434,1092.191,816.923,439.484
668,43.6221,82.8382,1091.935,818.198,440.47
670,43.496,81.1007,1099.146,819.525,441.517
672,43.42082,80.0423,1107.064,820.209,442.104
674,43.3142,83.4104,1106.171,821.614,443.209
676,43.1557,84.3621,1100.232,822.856,444.121
678,43.0678,82.3825,1095.317,823.947,444.842
680,43.0026,80.3068,1082.267,825.388,445.86
682,42.87839,84.392,1087.011,826.125,446.443
684,42.7619,85.9297,1091.261,827.412,447.478
686,42.6505,85.7067,1086.151,828.664,448.371
688,42.5504,83.6896,1090.076,829.678,449.091
690,42.4156,83.4645,1100.325,831.292,450.147
692,42.2904,83.8517,1093.759,832.037,450.715
694,42.1965,84.4919,1094.245,833.07,451.79
696,42.0739,82.091,1091.582,834.369,452.849
698,41.9591,84.7409,1089.132,834.979,453.349
700,41.8475,84.8674,1088.373,836.135,454.427
702,41.7888,85.7631,1085.821,837.066,455.301
704,41.6042,83.5996,1104.001,837.877,456.125
706,41.5301,85.3961,1100.098,839.153,457.173
708,41.4254,85.952,1104.914,839.768,457.635
710,41.3559,84.9132,1094.737,841.143,458.776
712,41.2438,84.2363,1094.952,842.087,459.626
714,41.1445,87.9804,1091.697,842.79,460.345
716,41.01,85.1535,1096.655,843.761,461.422
718,40.8521,84.8742,1100.338,844.293,461.994
720,40.7514,84.1914,1105.509,845.531,463.108
722,40.6351,86.2278,1102.837,846.569,464.031
724,40.5361,85.8766,1108.307,847.444,464.724
726,40.44617,83.1097,1113.954,848.684,465.833
728,40.3037,84.0343,1105.574,849.233,466.386
730,40.2225,86.2539,1106.435,850.725,467.422
732,40.0988,85.97,1110.024,851.963,468.516
734,39.9768,83.8345,1103.083,852.62,469.082
736,39.856,84.9329,1109.085,853.939,470.196
738,39.739,86.1285,1095.616,855.113,471.17
740,39.6385,85.1429,1106.76,856.081,471.903
742,39.5504,85.0638,1100.758,857.43,473.015
744,39.4134,83.4227,1106.194,858.083,473.561
746,39.316,86.8896,1109.884,859.452,474.672
748,39.2238,88.3786,1114,860.568,475.617
750,39.0867,83.6643,1108.402,861.436,476.328
752,38.9892,86.8095,1105.343,862.866,477.486
754,38.8359,85.6072,1111.945,863.419,477.979
756,38.7851,86.4965,1109.174,864.77,479.1
758,38.6342,85.9849,1092.039,865.814,480.046
760,38.5179,88.4832,1094.057,866.514,480.724
762,38.41895,86.5451,1095.251,867.427,481.814
764,38.3403,86.4011,1105.18,868.142,482.67
766,38.1997,87.2423,1109.06,868.72,483.433
768,38.0839,87.6282,1108.184,869.556,484.493
770,38.0592,86.0131,1106.826,869.998,485.062
772,37.8577,85.011,1106.538,870.905,486.181
774,37.7594,84.8016,1101.37,871.754,487.086
776,37.6373,82.2066,1107.629,872.505,487.855
778,37.5158,84.8078,1108.189,873.568,488.908
780,37.4228,87.0963,1109.11,873.991,489.374
782,37.3001,85.9528,1114.865,875.06,490.508
784,37.20575,85.5256,1111.239,875.884,491.385
786,37.0761,87.1654,1113.376,876.905,492.125
788,37.0024,86.4928,1105.752,878.196,493.266
790,36.9007,86.7918,1105.618,878.763,493.823
792,36.7764,88.0647,1111.078,879.795,495.024
794,36.67,82.2051,1111.972,880.737,496.079
796,36.52727,86.1157,1109.986,881.614,496.661
798,36.4258,85.2933,1112.423,882.741,497.801
800,36.3259,88.0302,1096.826,883.653,498.709
802,36.2527,86.697,1104.05,884.356,499.477
804,36.1117,90.1776,1108.551,885.228,500.476
806,36.0138,89.3599,1111.668,885.743,501.04
808,35.8557,88.804,1114.859,886.799,502.175
810,35.7645,88.5079,1118.804,887.726,503.056
812,35.662,93.1924,1113.781,888.551,503.887
814,35.5355,89.7405,1113.117,889.612,504.994
816,35.4094,90.8982,1114.055,890.178,505.539
818,35.2904,90.2459,1111.061,891.311,506.702
820,35.2234,89.3562,1107.907,892.126,507.876
822,35.0833,90.9486,1115.841,892.83,508.444
824,34.9535,90.1321,1105.308,893.871,509.631
826,34.857,86.2191,1107.934,894.366,510.136
828,34.7716,88.7951,1106.396,895.373,511.235
830,34.6199,89.8591,1112.904,896.132,512.354
832,34.4858,89.271,1113.885,896.512,512.92
834,34.40669,92.087,1108.357,897.299,514.074
836,34.2739,89.7074,1111.473,897.84,515.023
838,34.1912,91.0945,1119.301,898.201,515.726
840,34.0728,90.5447,1112.153,898.946,516.77
842,33.9694,92.4455,1112.959,899.387,517.354
844,33.8081,91.0559,1112.441,900.277,518.502
846,33.7292,89.5752,1118.126,900.834,519.379
848,33.6309,90.8575,1120.509,901.33,520.176
850,33.2914,90.098,1114.595,902.117,521.319
852,33.3087,90.005,1119.676,902.562,521.895
854,33.2513,91.5535,1119.603,903.496,523.102
856,33.1393,90.6489,1117.395,904.307,523.976
858,32.93963,87.761,1119.085,904.92,524.721
860,32.8482,92.7404,1120.927,905.709,525.808
862,32.7452,94.5015,1123.075,906.204,526.739
864,32.6581,92.7368,1117.91,906.675,527.432
866,32.5538,91.5093,1119.001,907.41,528.548
868,32.4781,93.5696,1114.099,907.873,529.276
870,32.3683,93.054,1121.818,908.593,530.545
872,32.1843,92.3702,1118.456,909.153,531.513
874,32.0856,91.7789,1116.338,909.566,532.314
876,31.90254,92.219,1115.535,910.307,533.404
878,31.7894,93.1493,1118.145,910.637,534.01
880,31.6782,95.9716,1115.625,911.31,535.151
882,31.5332,94.1269,1117.938,912.095,536.107
884,31.3901,94.5928,1114.19,912.643,536.897
886,31.2103,93.8887,1116.859,913.418,538.005
888,31.1719,93.2975,1125.191,913.848,538.593
890,31.0048,92.6544,1118.896,914.905,539.823
892,30.87,96.8012,1120.741,915.774,541.058
894,30.7477,92.9602,1118.049,916.429,541.54
896,30.5951,94.6305,1124.323,917.324,542.784
898,30.461,95.5123,1119.709,917.949,543.869
900,30.3008,101.485,1120.155,918.671,544.62
902,30.173,94.5936,1126.69,919.138,545.728
904,30.0446,95.2568,1125.312,919.529,546.382
906,29.9654,94.3273,1121.284,920.224,547.447
908,29.7773,94.9176,1116.157,921.027,548.474
910,29.6576,95.1731,1113.709,921.755,549.521
912,29.4981,97.8389,1127.136,922.779,550.746
914,29.6408,97.4077,1128.949,923.316,551.383
916,29.5484,95.8464,1127.423,924.302,552.699
918,29.3951,94.4991,1127.189,924.896,553.72
920,29.3061,100.008,1132.374,925.486,554.448
922,29.09179,94.916,1129.458,926.151,555.657
924,29.014,96.3733,1123.296,926.379,556.309
926,28.8543,95.5444,1128.245,926.949,557.675
928,28.7689,94.0509,1130.68,927.595,559.046
930,28.6217,94.0123,1127.329,927.911,559.654
932,28.519,96.4694,1128.305,928.499,560.913
934,28.4215,95.5255,1130.619,929.206,562.066
936,28.28045,93.9716,1129.677,929.707,562.818
938,28.1794,97.448,1128.681,930.567,564.157
940,28.0301,99.0178,1121.26,930.935,564.776
942,27.9151,96.6885,1121.111,931.782,565.922
944,27.783,94.5905,1122.555,932.534,567.149
946,27.6667,97.2213,1124.805,933.017,567.868
948,27.5287,93.2411,1126.383,933.638,568.979
950,27.3784,97.8695,1126.415,934.043,569.869
952,27.2631,100.285,1126.124,934.71,571.198
954,27.1379,96.6976,1123.679,935.271,572.302
956,27.11009,98.277,1127.424,935.486,573.008
958,26.9693,96.4194,1121.757,935.988,573.99
960,26.78686,98.3607,1120.611,936.266,575.336
962,26.6706,95.0987,1121.789,936.287,576.313
964,26.5987,99.5942,1120.34,936.786,577.867
966,26.4061,98.1189,1120.087,936.9,578.547
968,26.2563,99.1832,1123.729,937.267,580.002
970,26.1223,98.4092,1117.544,938.033,581.211
972,26.0529,97.0419,1122.558,938.562,582.166
974,25.838,96.4707,1131.839,939.545,583.27
976,25.7554,96.9733,1131.088,940.234,584.031
978,25.6293,98.5566,1132.404,941.171,585.213
980,25.4616,100.757,1133.408,941.85,586.357
982,25.3499,98.0995,1126.769,942.203,587.172
984,25.1517,101.313,1118.987,943.154,588.649
986,25.0437,102.671,1127.142,943.473,589.496
988,24.9468,100.281,1132.257,943.906,591.027
990,24.7649,100.772,1133.026,944.569,592.322
992,24.6625,102.77,1134.048,944.994,592.906
994,24.5067,102.153,1132.169,945.844,594.199
996,24.4185,101.444,1135.686,946.426,595.284
998,24.2265,100.672,1136.237,946.804,596.294
1000,24.0743,100.046,1136.043,947.35,597.666
1002,23.9286,100.962,1137.826,947.629,598.23
1004,23.7679,104.775,1128.184,948.165,599.723
1006,23.6152,103.638,1133.992,948.792,601.135
1008,23.5173,99.9284,1124.759,949.25,602.078
1010,23.393,104.238,1132.135,950.189,603.29
1012,23.2655,103.699,1136.217,950.656,603.821
1014,23.1259,104.38,1125.29,951.526,605.298
1016,22.9244,103.117,1123.614,952.102,606.523
1018,22.8553,104.935,1130.418,952.498,607.307
1020,22.8006,102.372,1123.291,952.976,608.75
1022,22.7094,102.553,1129.329,953.37,610.162
1024,22.51726,102.772,1129.23,953.732,611.229
1026,22.4034,106.711,1124.933,953.867,612.687
1028,22.2296,102.196,1134.727,953.763,613.603
1030,22.1106,100.754,1130.465,953.899,615.085
1032,21.9115,101.134,1130.362,954.498,616.481
1034,21.7336,101.678,1131.063,955.147,617.36
1036,21.5816,106.36,1126.579,956.051,619.036
1038,21.4623,105.036,1123.64,956.26,619.762
1040,21.343,103.511,1133.028,956.956,621.339
1042,21.205,103.124,1134.545,957.239,622.754
1044,21.0542,104.94,1127.936,957.541,623.7
1046,20.91833,105.01,1127.061,958.07,624.975
1048,20.76327,106.229,1124.654,958.454,625.871
1050,20.6346,103.936,1124.636,959.348,627.491
1052,20.5009,107.122,1126.136,959.98,628.84
1054,20.3778,106.767,1129.595,960.253,629.822
1056,20.2168,107.271,1121.846,960.712,631.445
1058,20.084,111.393,1126.589,961.013,632.771
1060,20.0437,107.24,1127.879,961.399,633.435
1062,19.971,108.218,1127.127,962.058,634.944
1064,19.7718,108.376,1125.626,962.392,635.754
1066,19.6009,106.18,1121.291,962.847,637.467
1068,19.4422,108.174,1114.119,963.261,638.923
1070,19.3106,107.016,1121.862,963.58,639.804
1072,19.12561,107.961,1125.072,964.229,641.625
1074,19.0071,108.49,1115.832,964.614,642.432
1076,18.8787,108.001,1123.27,965.293,644.409
1078,18.7311,108.548,1121.95,965.509,646.255
1080,18.5854,109.753,1123.735,965.53,647.293
1082,18.4332,109.423,1111.384,965.824,649.069
1084,18.3115,111.648,1127.808,966.06,650.091
1086,18.12161,109.928,1114.63,966.32,652.092
1088,18.0342,111.79,1103.175,966.642,653.621
1090,17.9218,113.105,1101.893,966.813,654.718
1092,17.7786,111.783,1098.157,967.407,656.18
1094,17.6306,111.626,1111.584,967.816,657.682
1096,17.5258,114.183,1097.742,968.039,659.081
1098,17.3904,112.55,1097.258,968.488,660.974
1100,17.2557,111.532,1089.49,968.83,662.172
1102,17.131,112.175,1097.319,969.535,664.098
1104,16.9776,111.595,1117.673,970.091,666.301
1106,16.8565,111.096,1110.076,970.351,667.389
1108,16.7024,112.759,1089.201,970.717,669.921
1110,16.5454,111.536,1083.838,971.081,671.254
1112,16.362,109.981,1066.913,972.087,673.429
1114,16.2223,108.677,1078.417,972.673,675.739
1116,16.0683,111.864,1101.436,973.455,677.393
1118,15.9163,116.694,1078.824,973.854,679.755
1120,15.8052,114.539,1062.528,974.367,682.217
1122,15.6318,113.345,1085.417,974.748,684.077
1124,15.4779,116.82,1077.974,975.58,687.434
1126,15.3476,114.828,1072.84,976.221,688.857
1128,15.1715,111.607,1103.528,976.419,693.348
1130,14.99632,111.915,1107.759,976.468,696.986
1132,14.8857,114.715,1070.641,976.492,701.066
1134,14.7307,118.565,1066.59,976.793,708.746
1136,14.5633,113.119,1056.029,976.857,711.324
1138,14.44934,116.594,1062.902,977.676,716.555
1140,14.2805,116.298,1055.484,978.206,720.167
1142,14.1425,111.141,1037.604,978.428,723.078
1144,14.0029,113.406,1046.088,979.149,726.265
1146,13.8247,114.944,1045.303,979.52,728.174
1148,13.6883,116.606,1040.398,980.511,732.634
1150,13.5508,112.13,1042.71,981.068,736.688
1152,13.4155,118.188,1067.996,981.482,738.677
1154,13.184,111.315,1043.063,981.771,742.365
1156,13.0875,110.997,1044.721,982.173,745.763
1158,12.9447,115.157,1026.516,982.379,747.712
1160,12.8151,112.641,1042.112,982.981,751.811
1162,12.6461,113.844,1038.885,983.305,753.902
1164,12.497,113.212,1021.534,983.868,757.983
1166,12.3476,116.594,1033.085,984.39,764.474
1168,12.1891,112.628,1020.359,984.827,767.789
1170,12.0107,114.791,1017.397,985.448,770.98
1172,11.9201,114.889,1014.739,985.848,772.529
1174,11.8246,116.55,994.229,986.537,775.444
1176,11.6949,112.29,1000.089,987.132,778.101
1178,11.5567,116.375,1000.134,987.552,778.881
1180,11.4128,112.682,1027.095,988.289,780.153
1182,11.2759,113.944,1047.352,988.623,780.809
1184,11.2733,112.018,1001.894,988.956,780.021
1186,11.1239,111.502,1018.573,989.929,781.846
1188,11.0092,112.061,1010.97,990.141,783.064
1190,10.8474,115.424,1002.835,990.26,784.193
1192,10.6921,114.513,989.447,990.743,786.174
1194,10.5739,110.529,1018.193,991.456,786.027
1196,10.4298,115.536,989.339,991.815,790.183
1198,10.2482,113.59,981.983,992.116,791.49
1200,10.1343,112.097,1002.513,992.946,791.984
1202,9.98215,112.924,994.684,993.429,795.432
1204,9.863111,116.528,990.724,993.671,797.69
1206,9.681726,112.962,1001.733,993.643,796.305
1208,9.600236,112.004,1004.365,993.399,795.522
1210,9.479213,110.041,991.721,993.342,795.303
1212,9.339679,110.725,983.079,993.202,796.99
1214,9.153234,108.85,999.555,993.196,796.206
1216,9.011156,111.762,1010.335,993.554,798.305
1218,8.882764,109.28,1028.421,994.209,800.552
1220,8.722649,109.815,972.847,994.479,803.8
1222,8.690745,107.727,967.268,995.364,806.52
1224,8.646667,108.104,976.7,995.798,808.076
1226,8.517946,106.429,962.427,996.669,813.741
1228,8.349357,105.275,986.405,997.591,817.49
1230,8.207825,105.364,968.018,998.01,818.786
1232,8.090618,104.331,951.751,998.892,822.298
1234,7.95865,103.788,949.893,999.484,822.045
1236,7.853719,105.9,960.009,1000.332,824.878
1238,7.758529,103.181,950.397,1000.995,829.294
1240,7.6485,103.492,945.975,1001.15,830.223
1242,7.52489,104.648,927.045,1001.564,830.974
1244,7.407825,103.766,931.495,1001.957,832.049
1246,7.305814,105.099,950.414,1002.261,833.723
1248,7.190535,103.903,928.502,1002.42,835.252
1250,7.070865,99.2732,931.209,1002.875,834.996
1252,6.911393,99.5039,937.564,1003.892,834.357
1254,6.823756,98.7864,944.767,1004.995,834.761
1256,6.708775,97.218,937.309,1005.608,835.011
1258,6.596271,96.5891,932.609,1006.366,836.124
1260,6.504526,95.3224,949.497,1006.544,836.964
1262,6.414207,96.0044,959.208,1006.632,836.444
1264,6.31096,93.0436,941.951,1006.72,834.294
1266,6.20132,92.7348,928.37,1006.756,832.606
1268,6.085236,94.0554,944.052,1007.214,831.554
1270,5.987452,91.296,934.126,1007.363,831.349
1272,5.893848,92.9038,911.002,1007.29,831.691
1274,5.804775,92.5027,904.431,1007.726,831.818
1276,5.679346,91.4867,943.01,1007.963,832.184
1278,5.60637,86.8182,933.919,1008.111,832.899
1280,5.520825,86.2743,917.703,1008.544,833.873
1282,5.442187,87.8926,927.902,1008.79,834.534
1284,5.381197,85.1764,976.857,1008.582,835.632
1286,5.214349,80.8475,946.822,1008.519,836.322
1288,5.181109,85.8109,956.673,1008.39,836.781
1290,5.104276,85.8614,939.207,1008.704,837.994
1292,5.005037,83.9387,944.131,1008.743,838.617
1294,4.930768,82.448,922.369,1008.882,839.519
1296,4.845392,79.5119,939.24,1008.965,840.221
1298,4.756663,81.1967,916.973,1009.143,840.645
1300,4.700759,79.1388,916.276,1009.556,841.468
1302,4.645914,77.4659,955.058,1009.587,841.801
1304,4.530967,80.7254,928.03,1009.332,842.759
1306,4.437513,79.4618,934.559,1009.528,843.231
1308,4.323932,79.9814,927.394,1009.962,844.423
1310,4.284592,75.9758,899.846,1010.346,845.259
1312,4.224783,73.9021,919.878,1010.519,845.578
1314,4.145294,71.7059,901.848,1010.986,846.69
1316,4.046502,73.0962,890.471,1011.692,847.522
1318,3.964663,69.8154,894.053,1011.85,848.492
1320,3.922631,66.8511,912.071,1011.965,849.682
1322,3.863073,67.9042,910.681,1012.48,850.238
1324,3.819289,67.1706,929.576,1012.918,851.362
1326,3.710643,65.4464,940.865,1013.039,852.477
1328,3.663453,62.7258,902.323,1013.529,853.054
1330,3.575854,65.5462,901.563,1014.376,854.258
1332,3.57018,64.0474,912.754,1014.687,855.057
1334,3.45157,66.0323,919.765,1015.107,856.045
1336,3.429526,65.0831,938.106,1014.615,857.658
1338,3.373333,66.0288,924.981,1014.452,858.308
1340,3.294882,61.5325,931.533,1015.421,859.727
1342,3.347817,60.6495,934.86,1015.571,860.947
1344,3.317028,60.4362,957.57,1016.132,861.3
1346,3.264834,57.0704,928.012,1016.578,862.552
1348,3.23354,58.549,941.119,1017.199,863.202
1350,3.159055,59.0993,950.663,1017.252,864.33
1352,3.085209,59.425,923.023,1017.57,865.201
1354,3.028912,57.6526,938.242,1018.04,866.204
1356,2.974749,55.6595,1009.257,1018.266,867.248
1358,2.910097,56.998,998.834,1018.125,867.862
1360,2.876486,55.7605,959.447,1018.159,869.134
1362,2.808414,57.2818,935.889,1019.502,870.184
1364,2.735837,55.1976,956.12,1019.953,870.78
1366,2.636708,57.5413,980.251,1020.187,871.611
1368,2.61368,52.9695,959.509,1019.789,872.133
1370,2.576538,53.9241,991.396,1020.018,873.01
1372,2.509825,52.9574,949.25,1020.576,873.966
1374,2.466009,55.7763,908.804,1021.361,874.891
1376,2.40614,53.8163,932.649,1022.274,876.45
1378,2.346856,52.4984,924.287,1022.507,876.761
1380,2.277087,49.4755,930.803,1022.553,877.561
1382,2.291386,51.2854,905.589,1022.28,878.736
1384,2.238166,47.4733,890.166,1022.947,879.52
1386,2.197298,50.0914,925.031,1024.213,880.103
1388,2.142637,48.7,903.562,1024.836,881.066
1390,2.086436,48.5546,916.827,1025.456,881.339
1392,2.047106,47.6176,889.175,1026.466,882.525
1394,1.947049,49.8053,902.502,1026.907,883.068
1396,1.895476,47.1855,898.607,1027.287,883.968
1398,1.880473,47.9351,888.986,1027.607,884.612
1400,1.732816,48.6438,869.375,1027.811,885.101
1402,1.762883,46.6046,847.52,1028.403,886.161
1404,1.687356,46.6053,872.225,1028.756,886.863
1406,1.655206,47.2023,901.574,1028.774,888.079
1408,1.597432,46.1358,923.286,1029.882,888.85
1410,1.581458,44.6179,879.896,1030.198,889.23
1412,1.553742,45.5095,905.647,1031.171,890.17
1414,1.444717,45.3588,912.413,1031.759,890.799
1416,1.395077,46.2453,892.281,1032.433,891.271
1418,1.383901,45.8915,916.514,1032.732,892.405
1420,1.334839,46.2313,894.101,1032.871,892.589
1422,1.306976,44.4571,937.039,1033.195,893.359
1424,1.277551,44.8788,937.489,1033.28,894.013
1426,1.228904,45.7716,946.033,1034.088,894.454
1428,1.221576,44.7447,965.467,1034.444,895.502
1430,1.219997,44.1911,970.563,1034.572,896.208
1432,1.133206,46.0106,922.749,1035.953,896.796
1434,1.105655,41.8261,939.407,1036.551,897.175
1436,1.087235,41.2541,939.831,1036.782,897.673
1438,1.052175,39.5073,940.49,1037.411,898.494
1440,1.073968,41.1814,924.935,1037.388,898.855
1442,1.030856,42.2497,947.073,1036.84,899.83
1444,1.007672,41.281,968.473,1036.691,900.37
1446,0.980717,39.2779,952.407,1035.973,900.958
1448,0.947078,41.6642,966.27,1036.916,901.451
1450,0.867578,41.1236,965.243,1037.959,902.213
1452,0.874207,42.7942,952.827,1037.226,902.51
1454,0.873058,42.7022,971.67,1037.652,903.439
1456,0.832652,43.5714,955.897,1038.286,903.975
1458,0.737287,40.3805,939.647,1039.634,904.319
1460,0.726737,38.1234,929.99,1039.848,904.802
1462,0.710046,40.2837,971.674,1039.838,905.516
1464,0.696216,36.9592,947.259,1039.903,906.246
1466,0.6711,36.6903,926.329,1040.045,906.45
1468,0.681498,38.2931,934.252,1040.276,907.013
1470,0.636209,38.0862,945.801,1039.648,907.654
1472,0.569687,37.7622,950.928,1040.387,908.21
1474,0.560519,41.6582,937.069,1041.284,908.837
1476,0.504295,39.7334,940.949,1040.886,909.189
1478,0.486513,36.7153,922.988,1040.713,909.856
1480,0.507771,35.5726,943.705,1040.131,910.476
1482,0.435092,38.4102,920.39,1039.594,910.852
1484,0.453464,36.0075,914.144,1040.613,911.211
1486,0.372887,36.4682,924.286,1040.389,911.938
1488,0.410698,35.4239,900.275,1040.829,912.167
1490,0.380486,34.8855,940.767,1040.236,912.629
1492,0.332397,35.1191,915.802,1040.114,912.882
1494,0.324261,35.927,919.466,1041.147,913.33
1496,0.259626,35.6953,916.121,1042.866,913.904
1498,0.158708,33.7035,912.291,1043.537,914.303
1500,0.235717,35.8962,926.759,1042.543,914.791
1502,0.249127,36.5006,914.88,1041.88,915.04
1504,0.137414,39.722,934.949,1042.562,915.671
1506,0.159169,40.625,916.288,1042.144,916.097
1508,0.078235,39.5074,922.699,1042.12,916.524
1510,0.088789,39.2916,929.88,1041.445,916.945
1512,0.058421,40.3906,914.337,1042.169,917.469
1514,0.072062,36.9614,907.437,1043.184,917.728
1516,0.05891,38.215,903.226,1041.951,918.26
1518,0.015123,37.8371,892.4,1041.693,918.523
1520,0.007969,34.7883,887.048,1043.321,918.91
1522,0.005279,34.6676,904.158,1043.61,919.628
1524,-0.026978,38.0458,907.206,1044.473,919.952
1526,-0.080483,36.1387,892.032,1043.26,920.485
1528,-0.079321,34.8838,892.747,1043.022,920.692
1530,-0.152629,38.2447,898.668,1042.365,921.189
1532,-0.149631,37.3478,894.961,1043.084,921.62
1534,-0.176016,36.7585,900.4,1043.032,921.986
1536,-0.18956,33.7107,902.5,1043.272,922.468
1538,-0.193751,36.0866,914.376,1043.1,922.715
1540,-0.258914,34.1771,873.366,1045.482,923.237
1542,-0.272289,34.8773,869.554,1045.683,923.688
1544,-0.258113,34.7697,875.028,1045.273,923.959
1546,-0.321324,36.4011,890.061,1042.93,924.411
1548,-0.332519,35.3954,893.097,1042.524,924.948
1550,-0.359298,34.493,885.975,1042.257,925.165
1552,-0.41827,37.2399,881.33,1041.859,925.674
1554,-0.420887,36.7739,885.196,1041.56,925.848
1556,-0.40613,34.2328,871.447,1040.66,926.308
1558,-0.413353,36.2023,871.86,1041.186,926.789
1560,-0.424239,35.417,900.569,1040.966,927.132
1562,-0.513088,34.7381,895.526,1039.583,927.688
1564,-0.46831,32.5661,888.989,1039.318,927.969
1566,-0.598837,33.7636,856.252,1039.988,928.427
1568,-0.569877,33.1142,866.387,1040.778,928.867
1570,-0.626572,33.9139,860.51,1039.985,929.111
1572,-0.612409,33.8886,873.985,1039.519,929.376
1574,-0.571417,33.5907,876.617,1039.453,929.748
1576,-0.637201,35.2577,887.244,1038.575,930.266
1578,-0.664866,36.5022,900.48,1038.386,930.54
1580,-0.672146,35.2196,903.98,1038.859,930.986
1582,-0.686641,34.7926,898.978,1038.893,931.218
1584,-0.727084,33.7726,876.224,1037.53,931.602
1586,-0.716647,31.7843,871.959,1037.893,931.842
1588,-0.803249,32.314,888.822,1037.034,932.212
1590,-0.843722,35.5805,886.059,1037.331,932.653
1592,-0.822601,34.3686,879.301,1038.226,932.913
1594,-0.864711,34.9065,875.647,1038.368,933.379
1596,-0.850153,33.4017,879.174,1038.664,933.639
1598,-0.856832,34.5687,882.117,1038.429,933.985
1600,-0.88869,33.8062,876.359,1038.579,934.128
1602,-0.931212,37.4622,868.904,1038.018,934.539
1604,-0.988225,36.4921,859.256,1039.318,934.852
1606,-1.002682,35.0853,873,1038.504,934.991
1608,-1.000121,34.9174,874.015,1037.876,935.299
1610,-1.001869,34.8801,856.708,1037.773,935.623
1612,-1.019466,33.3949,857.632,1037.757,935.892
1614,-1.041106,31.4368,864.735,1037.399,936.055
1616,-1.043294,34.2344,863.49,1036.57,936.222
1618,-1.099141,30.9242,856.731,1037.357,936.62
1620,-1.118008,31.8624,872.69,1036.412,937.07