File: Wood/Calibration_Data/FPL/FPL_Wood_TGA_N2_10K_R2.csv
Time (s),Temperature (K),Mass (mg)
0,303.15,5.184297
4,305.817,5.184076
8,308.483,5.183255
12,311.15,5.183558
16,313.817,5.185447
20,316.483,5.186366
24,319.15,5.186198
28,321.817,5.185763
32,324.483,5.185289
36,327.15,5.184705
40,329.817,5.18392
44,332.483,5.18288
48,335.15,5.181671
52,337.817,5.180273
56,340.483,5.178638
60,343.15,5.176806
64,345.817,5.174377
68,348.483,5.171758
72,351.15,5.168738
76,353.817,5.165106
80,356.483,5.160892
84,359.15,5.156128
88,361.817,5.150746
92,364.483,5.144703
96,367.15,5.1379
100,369.817,5.130104
104,372.483,5.121451
108,375.15,5.112071
112,377.817,5.1157
116,378.15,4.886877
120,378.15,4.8868
124,378.15,4.886704
128,378.15,4.886738
132,378.15,4.886799
136,378.15,4.886799
140,378.15,4.886799
144,378.15,4.886885
148,378.15,4.886899
152,378.15,4.886803
156,378.15,4.886703
160,378.15,4.886786
164,378.15,4.886799
168,378.15,4.886792
172,378.15,4.8867
176,378.15,4.886699
180,378.15,4.886606
184,378.15,4.8866
188,378.15,4.8866
192,378.15,4.8866
196,378.15,4.886594
200,378.15,4.886369
204,378.15,4.886312
208,378.15,4.886487
212,378.15,4.886594
216,378.15,4.8866
220,378.15,4.8866
224,378.15,4.8866
228,378.15,4.886502
232,378.15,4.886499
236,378.15,4.886499
240,378.15,4.886499
244,378.15,4.886499
248,378.15,4.886499
252,378.15,4.886499
256,378.15,4.886499
260,378.15,4.886507
264,378.15,4.886527
268,378.15,4.886599
272,378.15,4.886507
276,378.15,4.886499
280,378.15,4.886499
284,378.15,4.886499
288,378.15,4.886499
292,378.15,4.886503
296,376.692,4.8865
300,375.025,4.886588
304,373.358,4.886552
308,371.692,4.886482
312,370.025,4.886448
316,368.358,4.886474
320,366.692,4.886458
324,365.025,4.88636
328,363.358,4.886275
332,361.692,4.886127
336,360.025,4.886097
340,358.358,4.886232
344,356.692,4.886281
348,355.025,4.886257
352,353.358,4.886137
356,351.692,4.886115
360,350.025,4.886214
364,348.358,4.886161
368,346.692,4.88606
372,345.025,4.886077
376,343.358,4.886024
380,341.692,4.886018
384,340.025,4.886024
388,338.358,4.886031
392,336.692,4.885974
396,335.025,4.885955
400,333.358,4.885992
404,331.692,4.885933
408,330.025,4.885957
412,328.358,4.885956
416,326.692,4.885906
420,325.025,4.8857
424,323.358,4.88594
428,321.692,4.886055
432,320.025,4.885882
436,318.358,4.885799
440,316.692,4.885827
444,315.025,4.885806
448,313.358,4.885799
452,311.692,4.885802
456,310.025,4.885879
460,308.358,4.88591
464,306.692,4.885935
468,305.025,4.885967
472,303.358,4.886799
476,303.15,4.887597
480,303.15,4.887599
484,303.15,4.887502
488,303.15,4.88732
492,303.15,4.887704
496,303.15,4.887899
500,303.15,4.887933
504,303.15,4.887963
508,303.15,4.8879
512,303.15,4.8879
516,303.15,4.8879
520,303.15,4.8879
524,303.15,4.8879
528,303.15,4.8879
532,303.15,4.8879
536,303.15,4.888043
540,303.15,4.888281
544,303.15,4.888065
548,303.15,4.888009
552,303.15,4.888
556,303.15,4.888
560,303.15,4.888035
564,303.15,4.887758
568,303.15,4.887925
572,303.15,4.888269
576,303.15,4.888178
580,303.15,4.8881
584,303.15,4.8881
588,303.15,4.8881
592,303.15,4.888009
596,303.15,4.888
600,303.15,4.888
604,303.15,4.888
608,303.15,4.887926
612,303.15,4.887836
616,303.15,4.887799
620,303.15,4.887703
624,303.15,4.887626
628,303.15,4.887602
632,303.15,4.887699
636,303.15,4.887755
640,303.15,4.887799
644,303.15,4.887799
648,303.15,4.887799
652,303.15,4.887799
656,303.15,4.887799
660,303.15,4.887898
664,303.15,4.887966
668,303.15,4.888
672,303.15,4.888
676,303.15,4.888
680,303.15,4.888087
684,303.15,4.8881
688,303.15,4.8881
692,303.15,4.8881
696,303.15,4.8881
700,303.15,4.888225
704,303.15,4.888398
708,303.15,4.888495
712,303.15,4.888401
716,303.15,4.888355
720,303.15,4.888224
724,303.15,4.888139
728,303.15,4.88813
732,303.15,4.88828
736,303.15,4.8883
740,303.15,4.8883
744,303.15,4.8883
748,303.15,4.8883
752,303.15,4.8883
756,303.15,4.8883
760,303.15,4.888379
764,303.15,4.888418
768,303.15,4.888499
772,303.15,4.888499
776,303.15,4.888463
780,303.15,4.888295
784,303.15,4.888133
788,303.15,4.888366
792,303.15,4.888379
796,303.15,4.8883
800,303.15,4.8883
804,303.15,4.8883
808,303.15,4.8883
812,303.15,4.8883
816,303.15,4.8883
820,303.15,4.888356
824,303.15,4.888423
828,303.15,4.888499
832,303.15,4.888433
836,303.15,4.888308
840,303.15,4.8883
844,303.15,4.8883
848,303.15,4.8883
852,303.15,4.8883
856,303.15,4.888352
860,303.15,4.8884
864,303.15,4.8884
868,303.15,4.88839
872,303.15,4.888133
876,303.15,4.888182
880,303.15,4.888409
884,303.15,4.888499
888,303.15,4.888499
892,303.15,4.888499
896,303.15,4.888499
900,303.15,4.888499
904,303.15,4.888389
908,303.15,4.888309
912,303.15,4.888399
916,303.15,4.888497
920,303.15,4.888512
924,303.15,4.888598
928,303.15,4.888599
932,303.15,4.888599
936,303.15,4.888699
940,303.15,4.8887
944,303.15,4.8887
948,303.15,4.8887
952,303.15,4.8887
956,303.15,4.888787
960,303.15,4.888911
964,303.15,4.888999
968,303.15,4.889042
972,303.15,4.8891
976,303.15,4.8891
980,303.15,4.8891
984,303.15,4.8891
988,303.15,4.8891
992,303.15,4.889136
996,303.15,4.889266
1000,303.15,4.889299
1004,303.15,4.889299
1008,303.15,4.889299
1012,303.15,4.889297
1016,303.15,4.889203
1020,303.15,4.889199
1024,303.15,4.889199
1028,303.15,4.889199
1032,303.15,4.889199
1036,303.15,4.889226
1040,303.15,4.889299
1044,303.15,4.889299
1048,303.15,4.889359
1052,303.15,4.889627
1056,303.15,4.889673
1060,303.15,4.889558
1064,303.15,4.8895
1068,303.15,4.8895
1072,303.15,4.889497
1076,303.733,4.889605
1080,304.4,4.889529
1084,305.067,4.890066
1088,305.733,4.890516
1092,306.4,4.89055
1096,307.067,4.890554
1100,307.733,4.890615
1104,308.4,4.890581
1108,309.067,4.890612
1112,309.733,4.890643
1116,310.4,4.890643
1120,311.067,4.890738
1124,311.733,4.890772
1128,312.4,4.89075
1132,313.067,4.890614
1136,313.733,4.890514
1140,314.4,4.891006
1144,315.067,4.891068
1148,315.733,4.891008
1152,316.4,4.890998
1156,317.067,4.891021
1160,317.733,4.890994
1164,318.4,4.890923
1168,319.067,4.890898
1172,319.733,4.89089
1176,320.4,4.890921
1180,321.067,4.890924
1184,321.733,4.890713
1188,322.4,4.890679
1192,323.067,4.890843
1196,323.733,4.890938
1200,324.4,4.890901
1204,325.067,4.890937
1208,325.733,4.890951
1212,326.4,4.891013
1216,327.067,4.891051
1220,327.733,4.891046
1224,328.4,4.891104
1228,329.067,4.891179
1232,329.733,4.891181
1236,330.4,4.891135
1240,331.067,4.891032
1244,331.733,4.890976
1248,332.4,4.891023
1252,333.067,4.891029
1256,333.733,4.891084
1260,334.4,4.891151
1264,335.067,4.891207
1268,335.733,4.891297
1272,336.4,4.891316
1276,337.067,4.891308
1280,337.733,4.891289
1284,338.4,4.891311
1288,339.067,4.891327
1292,339.733,4.891314
1296,340.4,4.89124
1300,341.067,4.891176
1304,341.733,4.891183
1308,342.4,4.891189
1312,343.067,4.891194
1316,343.733,4.891184
1320,344.4,4.891194
1324,345.067,4.891273
1328,345.733,4.891357
1332,346.4,4.89128
1336,347.067,4.891258
1340,347.733,4.891284
1344,348.4,4.891219
1348,349.067,4.891229
1352,349.733,4.891266
1356,350.4,4.891323
1360,351.067,4.891302
1364,351.733,4.891285
1368,352.4,4.891348
1372,353.067,4.891295
1376,353.733,4.89126
1380,354.4,4.891317
1384,355.067,4.891389
1388,355.733,4.891452
1392,356.4,4.891481
1396,357.067,4.891497
1400,357.733,4.891465
1404,358.4,4.89144
1408,359.067,4.891427
1412,359.733,4.89144
1416,360.4,4.891423
1420,361.067,4.891436
1424,361.733,4.891492
1428,362.4,4.891492
1432,363.067,4.89142
1436,363.733,4.891315
1440,364.4,4.891224
1444,365.067,4.89118
1448,365.733,4.891174
1452,366.4,4.891212
1456,367.067,4.89115
1460,367.733,4.891
1464,368.4,4.891051
1468,369.067,4.891111
1472,369.733,4.891076
1476,370.4,4.891018
1480,371.067,4.890945
1484,371.733,4.890941
1488,372.4,4.890937
1492,373.067,4.890945
1496,373.733,4.890873
1500,374.4,4.890835
1504,375.067,4.890831
1508,375.733,4.890825
1512,376.4,4.890759
1516,377.067,4.890703
1520,377.733,4.890639
1524,378.4,4.890617
1528,379.067,4.890583
1532,379.733,4.890583
1536,380.4,4.890533
1540,381.067,4.89043
1544,381.733,4.890341
1548,382.4,4.890449
1552,383.067,4.89048
1556,383.733,4.890411
1560,384.4,4.890296
1564,385.067,4.89019
1568,385.733,4.89009
1572,386.4,4.890072
1576,387.067,4.890051
1580,387.733,4.890047
1584,388.4,4.890005
1588,389.067,4.889997
1592,389.733,4.890005
1596,390.4,4.889959
1600,391.067,4.889936
1604,391.733,4.889929
1608,392.4,4.889877
1612,393.067,4.889794
1616,393.733,4.889794
1620,394.4,4.889794
1624,395.067,4.889763
1628,395.733,4.889601
1632,396.4,4.889547
1636,397.067,4.889472
1640,397.733,4.889408
1644,398.4,4.889483
1648,399.067,4.889551
1652,399.733,4.889449
1656,400.4,4.889436
1660,401.067,4.889538
1664,401.733,4.88958
1668,402.4,4.889368
1672,403.067,4.889224
1676,403.733,4.88917
1680,404.4,4.889092
1684,405.067,4.88913
1688,405.733,4.889211
1692,406.4,4.889191
1696,407.067,4.889107
1700,407.733,4.889081
1704,408.4,4.889071
1708,409.067,4.88909
1712,409.733,4.88908
1716,410.4,4.888966
1720,411.067,4.888875
1724,411.733,4.888873
1728,412.4,4.888815
1732,413.067,4.888578
1736,413.733,4.888474
1740,414.4,4.888488
1744,415.067,4.888472
1748,415.733,4.888425
1752,416.4,4.888331
1756,417.067,4.88826
1760,417.733,4.888187
1764,418.4,4.888127
1768,419.067,4.888103
1772,419.733,4.888007
1776,420.4,4.888031
1780,421.067,4.888042
1784,421.733,4.887959
1788,422.4,4.887762
1792,423.067,4.887701
1796,423.733,4.887693
1800,424.4,4.887584
1804,425.067,4.88756
1808,425.733,4.887434
1812,426.4,4.88737
1816,427.067,4.887326
1820,427.733,4.887241
1824,428.4,4.887178
1828,429.067,4.887146
1832,429.733,4.887075
1836,430.4,4.886987
1840,431.067,4.886872
1844,431.733,4.886801
1848,432.4,4.886731
1852,433.067,4.886701
1856,433.733,4.886624
1860,434.4,4.88653
1864,435.067,4.88641
1868,435.733,4.886281
1872,436.4,4.886155
1876,437.067,4.886072
1880,437.733,4.885939
1884,438.4,4.885732
1888,439.067,4.885647
1892,439.733,4.885541
1896,440.4,4.885451
1900,441.067,4.885381
1904,441.733,4.885249
1908,442.4,4.885078
1912,443.067,4.884959
1916,443.733,4.884764
1920,444.4,4.884575
1924,445.067,4.884359
1928,445.733,4.884346
1932,446.4,4.884247
1936,447.067,4.884092
1940,447.733,4.883965
1944,448.4,4.883962
1948,449.067,4.883922
1952,449.733,4.883638
1956,450.4,4.883497
1960,451.067,4.883335
1964,451.733,4.883118
1968,452.4,4.883004
1972,453.067,4.882759
1976,453.733,4.882448
1980,454.4,4.882215
1984,455.067,4.881993
1988,455.733,4.881813
1992,456.4,4.881615
1996,457.067,4.881391
2000,457.733,4.881203
2004,458.4,4.880963
2008,459.067,4.88068
2012,459.733,4.880367
2016,460.4,4.880038
2020,461.067,4.879757
2024,461.733,4.879522
2028,462.4,4.879305
2032,463.067,4.878911
2036,463.733,4.878556
2040,464.4,4.878242
2044,465.067,4.877911
2048,465.733,4.877536
2052,466.4,4.877119
2056,467.067,4.876715
2060,467.733,4.876293
2064,468.4,4.875846
2068,469.067,4.875357
2072,469.733,4.874987
2076,470.4,4.874515
2080,471.067,4.873965
2084,471.733,4.873379
2088,472.4,4.872791
2092,473.067,4.872235
2096,473.733,4.87172
2100,474.4,4.87124
2104,475.067,4.870718
2108,475.733,4.870115
2112,476.4,4.869408
2116,477.067,4.868688
2120,477.733,4.86798
2124,478.4,4.867219
2128,479.067,4.866338
2132,479.733,4.865438
2136,480.4,4.864741
2140,481.067,4.864134
2144,481.733,4.863405
2148,482.4,4.862697
2152,483.067,4.861928
2156,483.733,4.86101
2160,484.4,4.860132
2164,485.067,4.859334
2168,485.733,4.858447
2172,486.4,4.857473
2176,487.067,4.856595
2180,487.733,4.855352
2184,488.4,4.854319
2188,489.067,4.853441
2192,489.733,4.852503
2196,490.4,4.85168
2200,491.067,4.85046
2204,491.733,4.849341
2208,492.4,4.848216
2212,493.067,4.846978
2216,493.733,4.845715
2220,494.4,4.84453
2224,495.067,4.843229
2228,495.733,4.841874
2232,496.4,4.840568
2236,497.067,4.839315
2240,497.733,4.838071
2244,498.4,4.836781
2248,499.067,4.835371
2252,499.733,4.833893
2256,500.4,4.832312
2260,501.067,4.830767
2264,501.733,4.82929
2268,502.4,4.827785
2272,503.067,4.826172
2276,503.733,4.824545
2280,504.4,4.82291
2284,505.067,4.821264
2288,505.733,4.819633
2292,506.4,4.817794
2296,507.067,4.815861
2300,507.733,4.813906
2304,508.4,4.811996
2308,509.067,4.810064
2312,509.733,4.808069
2316,510.4,4.805997
2320,511.067,4.80386
2324,511.733,4.801684
2328,512.4,4.799488
2332,513.067,4.797262
2336,513.733,4.795093
2340,514.4,4.792898
2344,515.067,4.79042
2348,515.733,4.787889
2352,516.4,4.785355
2356,517.067,4.782812
2360,517.733,4.780151
2364,518.4,4.777506
2368,519.067,4.77482
2372,519.733,4.772053
2376,520.4,4.769333
2380,521.067,4.766491
2384,521.733,4.763592
2388,522.4,4.760609
2392,523.067,4.757632
2396,523.733,4.754838
2400,524.4,4.751829
2404,525.067,4.748826
2408,525.733,4.745803
2412,526.4,4.742613
2416,527.067,4.739428
2420,527.733,4.736244
2424,528.4,4.73304
2428,529.067,4.729771
2432,529.733,4.726487
2436,530.4,4.723035
2440,531.067,4.719362
2444,531.733,4.716239
2448,532.4,4.712822
2452,533.067,4.708673
2456,533.733,4.705556
2460,534.4,4.701806
2464,535.067,4.697876
2468,535.733,4.694167
2472,536.4,4.690341
2476,537.067,4.686379
2480,537.733,4.682339
2484,538.4,4.67828
2488,539.067,4.674177
2492,539.733,4.669945
2496,540.4,4.665623
2500,541.067,4.661294
2504,541.733,4.656895
2508,542.4,4.652422
2512,543.067,4.647892
2516,543.733,4.643214
2520,544.4,4.638565
2524,545.067,4.633855
2528,545.733,4.629031
2532,546.4,4.624066
2536,547.067,4.619051
2540,547.733,4.613775
2544,548.4,4.608524
2548,549.067,4.603412
2552,549.733,4.598197
2556,550.4,4.592834
2560,551.067,4.587152
2564,551.733,4.581192
2568,552.4,4.576227
2572,553.067,4.570673
2576,553.733,4.564589
2580,554.4,4.558492
2584,555.067,4.552323
2588,555.733,4.546189
2592,556.4,4.539955
2596,557.067,4.533658
2600,557.733,4.52725
2604,558.4,4.520622
2608,559.067,4.514013
2612,559.733,4.507372
2616,560.4,4.500508
2620,561.067,4.493476
2624,561.733,4.486395
2628,562.4,4.479105
2632,563.067,4.471737
2636,563.733,4.464367
2640,564.4,4.45691
2644,565.067,4.44925
2648,565.733,4.44153
2652,566.4,4.433636
2656,567.067,4.425546
2660,567.733,4.417461
2664,568.4,4.409196
2668,569.067,4.400885
2672,569.733,4.392442
2676,570.4,4.383733
2680,571.067,4.374969
2684,571.733,4.366004
2688,572.4,4.356912
2692,573.067,4.347733
2696,573.733,4.338383
2700,574.4,4.32895
2704,575.067,4.319297
2708,575.733,4.309443
2712,576.4,4.299464
2716,577.067,4.28922
2720,577.733,4.278879
2724,578.4,4.26845
2728,579.067,4.257697
2732,579.733,4.24714
2736,580.4,4.236156
2740,581.067,4.224804
2744,581.733,4.213308
2748,582.4,4.201682
2752,583.067,4.189854
2756,583.733,4.177889
2760,584.4,4.165829
2764,585.067,4.153438
2768,585.733,4.140847
2772,586.4,4.128048
2776,587.067,4.115062
2780,587.733,4.10181
2784,588.4,4.088383
2788,589.067,4.074735
2792,589.733,4.060889
2796,590.4,4.046748
2800,591.067,4.032579
2804,591.733,4.018401
2808,592.4,4.003116
2812,593.067,3.988245
2816,593.733,3.972755
2820,594.4,3.957793
2824,595.067,3.942219
2828,595.733,3.926337
2832,596.4,3.910295
2836,597.067,3.894176
2840,597.733,3.877835
2844,598.4,3.861037
2848,599.067,3.844058
2852,599.733,3.827093
2856,600.4,3.810019
2860,601.067,3.792562
2864,601.733,3.774539
2868,602.4,3.756775
2872,603.067,3.738913
2876,603.733,3.720682
2880,604.4,3.702349
2884,605.067,3.683907
2888,605.733,3.6653
2892,606.4,3.646353
2896,607.067,3.627369
2900,607.733,3.608184
2904,608.4,3.588843
2908,609.067,3.569314
2912,609.733,3.549638
2916,610.4,3.529883
2920,611.067,3.509934
2924,611.733,3.489716
2928,612.4,3.469404
2932,613.067,3.448949
2936,613.733,3.428255
2940,614.4,3.407349
2944,615.067,3.386239
2948,615.733,3.364998
2952,616.4,3.343481
2956,617.067,3.321743
2960,617.733,3.299803
2964,618.4,3.277638
2968,619.067,3.255146
2972,619.733,3.232438
2976,620.4,3.209403
2980,621.067,3.186198
2984,621.733,3.162572
2988,622.4,3.138637
2992,623.067,3.114224
2996,623.733,3.089453
3000,624.4,3.064227
3004,625.067,3.038583
3008,625.733,3.012344
3012,626.4,2.985955
3016,627.067,2.959224
3020,627.733,2.931762
3024,628.4,2.903726
3028,629.067,2.875051
3032,629.733,2.845956
3036,630.4,2.816282
3040,631.067,2.786098
3044,631.733,2.755259
3048,632.4,2.723994
3052,633.067,2.692075
3056,633.733,2.659762
3060,634.4,2.626929
3064,635.067,2.593546
3068,635.733,2.559858
3072,636.4,2.525305
3076,637.067,2.490633
3080,637.733,2.455985
3084,638.4,2.421248
3088,639.067,2.38637
3092,639.733,2.351759
3096,640.4,2.317171
3100,641.067,2.283074
3104,641.733,2.249362
3108,642.4,2.21636
3112,643.067,2.184051
3116,643.733,2.152802
3120,644.4,2.122765
3124,645.067,2.093773
3128,645.733,2.065984
3132,646.4,2.039483
3136,647.067,2.01445
3140,647.733,1.990868
3144,648.4,1.968913
3148,649.067,1.948384
3152,649.733,1.929402
3156,650.4,1.911701
3160,651.067,1.895488
3164,651.733,1.880622
3168,652.4,1.867094
3172,653.067,1.854663
3176,653.733,1.843307
3180,654.4,1.832923
3184,655.067,1.823424
3188,655.733,1.814764
3192,656.4,1.80685
3196,657.067,1.799445
3200,657.733,1.79274
3204,658.4,1.786502
3208,659.067,1.780591
3212,659.733,1.775108
3216,660.4,1.769787
3220,661.067,1.764781
3224,661.733,1.760037
3228,662.4,1.755481
3232,663.067,1.751132
3236,663.733,1.746797
3240,664.4,1.742216
3244,665.067,1.738284
3248,665.733,1.734882
3252,666.4,1.731153
3256,667.067,1.726897
3260,667.733,1.722906
3264,668.4,1.719472
3268,669.067,1.715783
3272,669.733,1.71209
3276,670.4,1.708547
3280,671.067,1.705036
3284,671.733,1.701362
3288,672.4,1.697801
3292,673.067,1.694322
3296,673.733,1.690803
3300,674.4,1.687288
3304,675.067,1.683809
3308,675.733,1.680317
3312,676.4,1.676812
3316,677.067,1.673401
3320,677.733,1.670126
3324,678.4,1.666866
3328,679.067,1.663505
3332,679.733,1.66008
3336,680.4,1.656696
3340,681.067,1.65336
3344,681.733,1.650054
3348,682.4,1.646675
3352,683.067,1.643454
3356,683.733,1.640254
3360,684.4,1.636895
3364,685.067,1.633446
3368,685.733,1.630073
3372,686.4,1.626829
3376,687.067,1.623515
3380,687.733,1.620251
3384,688.4,1.616965
3388,689.067,1.613639
3392,689.733,1.610501
3396,690.4,1.607329
3400,691.067,1.60394
3404,691.733,1.600656
3408,692.4,1.597132
3412,693.067,1.594118
3416,693.733,1.591104
3420,694.4,1.587673
3424,695.067,1.584399
3428,695.733,1.581227
3432,696.4,1.5781
3436,697.067,1.574925
3440,697.733,1.571764
3444,698.4,1.568615
3448,699.067,1.565536
3452,699.733,1.562339
3456,700.4,1.559206
3460,701.067,1.556025
3464,701.733,1.552894
3468,702.4,1.549849
3472,703.067,1.546628
3476,703.733,1.543476
3480,704.4,1.540673
3484,705.067,1.537701
3488,705.733,1.534576
3492,706.4,1.531521
3496,707.067,1.528395
3500,707.733,1.52544
3504,708.4,1.522162
3508,709.067,1.519226
3512,709.733,1.516522
3516,710.4,1.513431
3520,711.067,1.510423
3524,711.733,1.507537
3528,712.4,1.504507
3532,713.067,1.501701
3536,713.733,1.498957
3540,714.4,1.496077
3544,715.067,1.49313
3548,715.733,1.490355
3552,716.4,1.48764
3556,717.067,1.484867
3560,717.733,1.482193
3564,718.4,1.479454
3568,719.067,1.476651
3572,719.733,1.474017
3576,720.4,1.471372
3580,721.067,1.468723
3584,721.733,1.465997
3588,722.4,1.463086
3592,723.067,1.460495
3596,723.733,1.458086
3600,724.4,1.455668
3604,725.067,1.453376
3608,725.733,1.450929
3612,726.4,1.44842
3616,727.067,1.445969
3620,727.733,1.44352
3624,728.4,1.441107
3628,729.067,1.438689
3632,729.733,1.436427
3636,730.4,1.434152
3640,731.067,1.43187
3644,731.733,1.429639
3648,732.4,1.427445
3652,733.067,1.425215
3656,733.733,1.423038
3660,734.4,1.420772
3664,735.067,1.418596
3668,735.733,1.416614
3672,736.4,1.414583
3676,737.067,1.412511
3680,737.733,1.410404
3684,738.4,1.408236
3688,739.067,1.406217
3692,739.733,1.404259
3696,740.4,1.402311
3700,741.067,1.40036
3704,741.733,1.398549
3708,742.4,1.396723
3712,743.067,1.39486
3716,743.733,1.39297
3720,744.4,1.391055
3724,745.067,1.389249
3728,745.733,1.387434
3732,746.4,1.38571
3736,747.067,1.38401
3740,747.733,1.382199
3744,748.4,1.380467
3748,749.067,1.378713
3752,749.733,1.376992
3756,750.4,1.375247
3760,751.067,1.373558
3764,751.733,1.371859
3768,752.4,1.370239
3772,753.067,1.36863
3776,753.733,1.366937
3780,754.4,1.365375
3784,755.067,1.363981
3788,755.733,1.362543
3792,756.4,1.360894
3796,757.067,1.35924
3800,757.733,1.357613
3804,758.4,1.356098
3808,759.067,1.354569
3812,759.733,1.353016
3816,760.4,1.351593
3820,761.067,1.350096
3824,761.733,1.348572
3828,762.4,1.347128
3832,763.067,1.345809
3836,763.733,1.344443
3840,764.4,1.342964
3844,765.067,1.341419
3848,765.733,1.339983
3852,766.4,1.338644
3856,767.067,1.33726
3860,767.733,1.335889
3864,768.4,1.334544
3868,769.067,1.333145
3872,769.733,1.331732
3876,770.4,1.330382
3880,771.067,1.329429
3884,771.733,1.328094
3888,772.4,1.326515
3892,773.067,1.325002
3896,773.733,1.323621
3900,774.4,1.322303
3904,775.067,1.32105
3908,775.733,1.319842
3912,776.4,1.318508
3916,777.067,1.317156
3920,777.733,1.315945
3924,778.4,1.31469
3928,779.067,1.313479
3932,779.733,1.312379
3936,780.4,1.311108
3940,781.067,1.309664
3944,781.733,1.308267
3948,782.4,1.307004
3952,783.067,1.30581
3956,783.733,1.304602
3960,784.4,1.30341
3964,785.067,1.302207
3968,785.733,1.301007
3972,786.4,1.29985
3976,787.067,1.298625
3980,787.733,1.297369
3984,788.4,1.296161
3988,789.067,1.295017
3992,789.733,1.293874
3996,790.4,1.29269
4000,791.067,1.29149
4004,791.733,1.290345
4008,792.4,1.289235
4012,793.067,1.287969
4016,793.733,1.286793
4020,794.4,1.285982
4024,795.067,1.285078
4028,795.733,1.283819
4032,796.4,1.282472
4036,797.067,1.281258
4040,797.733,1.280131
4044,798.4,1.278567
4048,799.067,1.277369
4052,799.733,1.276572
4056,800.4,1.275204
4060,801.067,1.274005
4064,801.733,1.273092
4068,802.4,1.272215
4072,803.067,1.271266
4076,803.733,1.270195
4080,804.4,1.269072
4084,805.067,1.268053
4088,805.733,1.267056
4092,806.4,1.266048
4096,807.067,1.265077
4100,807.733,1.264003
4104,808.4,1.262946
4108,809.067,1.261966
4112,809.733,1.260936
4116,810.4,1.259917
4120,811.067,1.258903
4124,811.733,1.257793
4128,812.4,1.256708
4132,813.067,1.255711
4136,813.733,1.254752
4140,814.4,1.253754
4144,815.067,1.252772
4148,815.733,1.25182
4152,816.4,1.250847
4156,817.067,1.249745
4160,817.733,1.248801
4164,818.4,1.248039
4168,819.067,1.246937
4172,819.733,1.245804
4176,820.4,1.244819
4180,821.067,1.243824
4184,821.733,1.243061
4188,822.4,1.242226
4192,823.067,1.241098
4196,823.733,1.239994
4200,824.4,1.239014
4204,825.067,1.238117
4208,825.733,1.237148
4212,826.4,1.23624
4216,827.067,1.235389
4220,827.733,1.234554
4224,828.4,1.233574
4228,829.067,1.232462
4232,829.733,1.231555
4236,830.4,1.23065
4240,831.067,1.229716
4244,831.733,1.228787
4248,832.4,1.227876
4252,833.067,1.226958
4256,833.733,1.226107
4260,834.4,1.225243
4264,835.067,1.224349
4268,835.733,1.223536
4272,836.4,1.222723
4276,837.067,1.221811
4280,837.733,1.220928
4284,838.4,1.219978
4288,839.067,1.219096
4292,839.733,1.218279
4296,840.4,1.217464
4300,841.067,1.216546
4304,841.733,1.215706
4308,842.4,1.214771
4312,843.067,1.213884
4316,843.733,1.213072
4320,844.4,1.212199
4324,845.067,1.211424
4328,845.733,1.210667
4332,846.4,1.209853
4336,847.067,1.209058
4340,847.733,1.208209
4344,848.4,1.207359
4348,849.067,1.206463
4352,849.733,1.20554
4356,850.4,1.204738
4360,851.067,1.204002
4364,851.733,1.203195
4368,852.4,1.202383
4372,853.067,1.201597
4376,853.733,1.200747
4380,854.4,1.199921
4384,855.067,1.199174
4388,855.733,1.198434
4392,856.4,1.19763
4396,857.067,1.19666
4400,857.733,1.195685
4404,858.4,1.19491
4408,859.067,1.194191
4412,859.733,1.193184
4416,860.4,1.192253
4420,861.067,1.191789
4424,861.733,1.191283
4428,862.4,1.190624
4432,863.067,1.189741
4436,863.733,1.188867
4440,864.4,1.188086
4444,865.067,1.18733
4448,865.733,1.186597
4452,866.4,1.185853
4456,867.067,1.185055
4460,867.733,1.184157
4464,868.4,1.18341
4468,869.067,1.182666
4472,869.733,1.181852
4476,870.4,1.181164
4480,871.067,1.180544
4484,871.733,1.179905
4488,872.4,1.179088
4492,873.067,1.178242
4496,873.733,1.177564
4500,874.4,1.176894
4504,875.067,1.176248
4508,875.733,1.175605
4512,876.4,1.174952
4516,877.067,1.174042
4520,877.733,1.173277
4524,878.4,1.172644
4528,879.067,1.171956
4532,879.733,1.171127
4536,880.4,1.170427
4540,881.067,1.169821
4544,881.733,1.169162
4548,882.4,1.168525
4552,883.067,1.167885
4556,883.733,1.167228
4560,884.4,1.166658
4564,885.067,1.166066
4568,885.733,1.165476
4572,886.4,1.164907
4576,887.067,1.164317
4580,887.733,1.163734
4584,888.4,1.163169
4588,889.067,1.162731
4592,889.733,1.162317
4596,890.4,1.161562
4600,891.067,1.161085
4604,891.733,1.160449
4608,892.4,1.159761
4612,893.067,1.159276