File: Wood/Calibration_Data/FPL/FPL_Wood_Cone_50kW_hor_R1.csv
Time (s),Mass (g),HRR (kW/m2)
0,98.95,-1.74772
2,111.918,-1.15427
4,111.796,1.59031
6,111.711,0.789878
8,111.699,1.59075
10,111.697,1.38039
12,111.665,18.1715
14,111.549,58.0771
16,111.395,113.962
18,111.158,164.063
20,110.882,179.531
22,110.646,189.486
24,110.445,184.343
26,110.263,174.047
28,110.038,170.791
30,109.856,155.329
32,109.632,151.313
34,109.505,143.663
36,109.31,143.834
38,109.114,137.608
40,108.977,127.239
42,108.829,123.011
44,108.684,116.839
46,108.53,114.888
48,108.415,111.941
50,108.25,109.603
52,108.114,103.185
54,108.005,101.212
56,107.877,104.967
58,107.745,102.432
60,107.632,102.499
62,107.513,101.618
64,107.355,97.6396
66,107.244,96.0966
68,107.104,94.4546
70,107.018,92.0127
72,106.899,90.6626
74,106.761,92.3139
76,106.662,90.9971
78,106.5544,91.4704
80,106.445,91.4532
82,106.297,89.4257
84,106.224,87.6941
86,106.093,83.1394
88,106.021,82.0701
90,105.912,80.5207
92,105.804,81.7835
94,105.691,79.6041
96,105.624,80.6408
98,105.47,79.2678
100,105.426,79.6697
102,105.273,81.1677
104,105.158,79.2432
106,105.097,77.6465
108,105.018,76.8494
110,104.912,76.3279
112,104.804,75.8882
114,104.688,77.9064
116,104.605,76.655
118,104.52,75.2171
120,104.431,76.8079
122,104.345,73.3583
124,104.23,75.189
126,104.132,74.7761
128,104.042,72.5582
130,103.951,76.9035
132,103.882,74.6315
134,103.761,73.6159
136,103.693,72.6088
138,103.599,71.9222
140,103.523,71.9288
142,103.404,71.3675
144,103.344,70.9625
146,103.229,73.935
148,103.145,69.556
150,103.0338,72.0035
152,102.955,70.7276
154,102.865,70.3843
156,102.814,70.1777
158,102.69,68.0082
160,102.634,71.5701
162,102.497,72.1614
164,102.432,67.6595
166,102.369,67.7061
168,102.31,67.7505
170,102.2,68.0992
172,102.079,67.1375
174,101.966,70.3733
176,101.914,68.7956
178,101.851,67.1355
180,101.765,66.6618
182,101.662,65.314
184,101.553,65.9026
186,101.482,68.0055
188,101.362,66.5121
190,101.288,63.869
192,101.215,62.0653
194,101.155,65.459
196,101.049,66.4336
198,100.979,64.8649
200,100.842,65.2272
202,100.781,66.6843
204,100.745,66.2868
206,100.629,65.728
208,100.557,67.1539
210,100.462,64.0947
212,100.354,63.7544
214,100.274,66.0697
216,100.191,66.6335
218,100.071,64.4043
220,99.9916,65.6794
222,99.9355,64.071
224,99.81847,64.2304
226,99.7365,67.0188
228,99.6553,65.7456
230,99.5425,65.6719
232,99.4553,64.6829
234,99.3524,66.069
236,99.2941,66.8272
238,99.1975,67.7991
240,99.0758,66.0886
242,99.0175,66.9714
244,98.9286,63.8093
246,98.8523,66.9971
248,98.7204,66.3225
250,98.6353,66.0819
252,98.5605,63.5713
254,98.4656,65.8093
256,98.39453,64.9711
258,98.2863,66.0156
260,98.2413,66.2473
262,98.0934,70.1428
264,97.9962,67.3687
266,97.9052,68.5548
268,97.825,68.7915
270,97.7409,68.1518
272,97.6053,66.0089
274,97.5465,65.9519
276,97.463,65.6228
278,97.36814,67.2836
280,97.2326,66.6898
282,97.1692,67.4459
284,97.066,66.942
286,96.94493,67.3838
288,96.8641,65.2534
290,96.7683,66.7548
292,96.6854,66.3154
294,96.5719,63.9255
296,96.4769,66.3198
298,96.4034,70.5074
300,96.2887,67.8577
302,96.1974,68.4821
304,96.0692,70.5682
306,95.9841,67.9935
308,95.8656,67.3748
310,95.8172,67.8582
312,95.7109,69.4739
314,95.5953,69.4681
316,95.5106,69.3218
318,95.3692,68.9208
320,95.2919,68.2565
322,95.2252,68.6139
324,95.0924,69.6331
326,94.9978,70.193
328,94.8791,69.7749
330,94.8084,67.2663
332,94.676,67.7115
334,94.5616,66.3242
336,94.4946,68.0071
338,94.3801,68.5694
340,94.2878,69.7349
342,94.1843,67.1084
344,94.063,67.9215
346,93.9879,67.9868
348,93.8933,70.3606
350,93.7454,68.8936
352,93.6814,70.1031
354,93.5911,70.4404
356,93.4765,71.0101
358,93.4035,69.2428
360,93.2514,73.1787
362,93.15955,70.2245
364,93.0658,69.4033
366,92.99,69.564
368,92.88597,71.9681
370,92.7672,69.2432
372,92.6474,72.4359
374,92.5531,70.3052
376,92.4169,72.3779
378,92.3426,69.058
380,92.2352,70.3366
382,92.1616,69.9862
384,92.0344,71.6817
386,91.9314,70.1809
388,91.8368,70.283
390,91.7047,69.839
392,91.6477,72.4772
394,91.5137,71.675
396,91.4178,73.9101
398,91.2959,72.7832
400,91.2169,72.3615
402,91.1013,73.6762
404,91.0402,71.4597
406,90.8948,69.0716
408,90.7968,70.1593
410,90.6789,69.882
412,90.6099,69.5377
414,90.4909,69.1904
416,90.3808,70.279
418,90.30036,69.8675
420,90.162,68.5549
422,90.0884,72.1574
424,89.9876,71.3243
426,89.8835,71.06
428,89.7922,69.6141
430,89.6405,71.8934
432,89.5297,69.4867
434,89.4663,69.7603
436,89.3613,69.1947
438,89.2636,68.8069
440,89.1641,72.5994
442,89.0579,70.734
444,88.9486,68.8608
446,88.8352,67.7326
448,88.7337,70.7302
450,88.6666,72.1152
452,88.5304,69.4942
454,88.4522,71.5626
456,88.3448,69.3394
458,88.2532,70.2822
460,88.13713,71.3281
462,88.0372,70.7206
464,87.9563,71.3811
466,87.8457,69.719
468,87.7644,67.6101
470,87.6093,71.5002
472,87.5295,71.8011
474,87.4136,69.8983
476,87.3093,69.2601
478,87.2391,71.5295
480,87.1105,68.3291
482,86.9965,69.2241
484,86.9002,73.0379
486,86.8076,70.7062
488,86.7024,71.4347
490,86.6497,72.5976
492,86.5397,71.6802
494,86.3865,70.2714
496,86.3057,71.6197
498,86.2131,72.9716
500,86.1118,72.4327
502,86.0022,73.0522
504,85.925,70.8524
506,85.8093,72.4192
508,85.7265,71.4097
510,85.5833,70.9618
512,85.51,70.1456
514,85.4111,69.0239
516,85.3423,70.0708
518,85.2259,70.1733
520,85.1231,70.7259
522,84.9841,71.3977
524,84.8926,69.1243
526,84.7941,68.2863
528,84.7096,69.1875
530,84.5998,72.4439
532,84.50955,70.7872
534,84.40859,67.9003
536,84.2926,68.6188
538,84.2157,68.9368
540,84.1182,68.6788
542,84.036,68.312
544,83.9028,69.8691
546,83.8234,67.7648
548,83.7142,68.7695
550,83.6057,70.6653
552,83.5275,71.1313
554,83.4232,70.5555
556,83.3338,71.0586
558,83.22174,68.6475
560,83.13492,69.3829
562,82.9968,71.0968
564,82.9372,71.9901
566,82.8161,68.4034
568,82.7565,70.2817
570,82.6596,69.717
572,82.5396,70.003
574,82.4357,68.5107
576,82.3373,69.9623
578,82.2161,69.905
580,82.1416,69.1625
582,82.0639,70.5233
584,81.9462,69.0748
586,81.8545,69.6727
588,81.7345,69.6669
590,81.6592,68.7172
592,81.5399,70.4426
594,81.4242,70.1529
596,81.3658,70.0208
598,81.2552,69.3245
600,81.1505,69.1357
602,81.0328,68.8231
604,80.9571,70.6654
606,80.887,71.725
608,80.7542,70.3092
610,80.6678,69.5265
612,80.5539,68.1293
614,80.4631,66.5796
616,80.3809,67.8765
618,80.2574,71.506
620,80.1695,70.0928
622,80.0676,70.5701
624,80.0106,68.49
626,79.8937,66.245
628,79.8097,67.6331
630,79.6941,65.8582
632,79.6101,67.4732
634,79.4974,67.9619
636,79.3782,69.2179
638,79.2874,67.7823
640,79.1965,68.1172
642,79.1715,71.1687
644,79.0307,68.6147
646,78.9275,69.1589
648,78.8292,70.395
650,78.75,71.1675
652,78.6598,72.2922
654,78.5466,68.0231
656,78.4059,70.0838
658,78.3373,69.7112
660,78.2164,71.3392
662,78.1461,72.7084
664,78.0386,71.2789
666,77.9498,69.3788
668,77.8474,71.0423
670,77.7371,70.1166
672,77.6873,70.7237
674,77.595,70.2652
676,77.4574,69.2976
678,77.3941,70.17
680,77.2671,68.1573
682,77.1936,70.2853
684,77.0616,69.4693
686,76.9752,67.5973
688,76.8643,67.7191
690,76.8128,71.5852
692,76.7165,69.5397
694,76.5724,69.6371
696,76.50032,69.5393
698,76.3578,70.4788
700,76.3111,69.7209
702,76.2083,69.5412
704,76.0954,71.18
706,76.0243,71.0285
708,75.9227,73.2538
710,75.8042,69.8219
712,75.7169,68.5574
714,75.6047,70.7633
716,75.52623,71.0588
718,75.4258,71.2868
720,75.3092,70.8414
722,75.1873,70.6856
724,75.1037,71.2154
726,75.0035,70.7766
728,74.9337,69.317
730,74.8536,69.9378
732,74.7663,71.3707
734,74.6435,69.6675
736,74.5414,68.0936
738,74.4828,71.5722
740,74.4001,71.9684
742,74.3201,71.4676
744,74.2001,72.211
746,74.0726,71.0885
748,73.9609,70.0194
750,73.8933,69.8603
752,73.8005,73.8792
754,73.6911,70.7705
756,73.5889,68.8164
758,73.4875,70.4611
760,73.41322,71.7033
762,73.3018,72.8253
764,73.20087,73.3555
766,73.1121,73.2491
768,73.0466,70.6622
770,72.9332,71.0861
772,72.85181,74.1062
774,72.7231,72.231
776,72.6429,70.8733
778,72.5658,70.2952
780,72.4402,70.4496
782,72.3453,71.0163
784,72.2696,72.6013
786,72.1824,71.9308
788,72.0796,70.5792
790,71.9481,72.1054
792,71.8543,72.2211
794,71.7686,71.0263
796,71.6511,70.647
798,71.5748,75.2473
800,71.5061,74.3911
802,71.39605,72.0273
804,71.27978,72.9453
806,71.1969,71.7763
808,71.1065,71.826
810,70.9736,72.3286
812,70.9539,72.6381
814,70.8282,70.5778
816,70.7526,74.1861
818,70.6406,73.4912
820,70.5288,71.401
822,70.40383,71.4261
824,70.3045,74.6133
826,70.2445,73.3494
828,70.1637,74.7956
830,70.0389,72.9297
832,69.9506,73.8283
834,69.8691,73.4078
836,69.7451,71.4905
838,69.6514,72.4303
840,69.567,73.6635
842,69.4683,75.206
844,69.3744,73.6475
846,69.3027,72.6477
848,69.1462,76.0565
850,69.0747,76.264
852,68.9858,74.5568
854,68.893,72.9005
856,68.7744,75.1001
858,68.6525,73.9728
860,68.5716,75.9185
862,68.4822,76.5529
864,68.389,77.6771
866,68.3127,76.5165
868,68.21478,76.5301
870,68.0886,76.2034
872,67.99574,74.899
874,67.8978,76.4015
876,67.8358,77.2258
878,67.7286,76.3028
880,67.5821,75.0467
882,67.4978,73.6152
884,67.4161,75.6365
886,67.3379,75.62
888,67.2381,75.8853
890,67.1424,76.0006
892,67.0378,76.2768
894,66.9117,77.0342
896,66.8304,74.859
898,66.7272,75.9254
900,66.6607,76.1456
902,66.5564,75.1206
904,66.4531,77.3201
906,66.3297,79.1648
908,66.2709,77.0201
910,66.17289,73.6012
912,66.0552,74.4724
914,65.9547,77.9643
916,65.9005,77.8592
918,65.7434,78.6539
920,65.6583,78.0336
922,65.5556,77.1886
924,65.4478,77.9553
926,65.3655,78.1945
928,65.2787,75.596
930,65.181,79.3904
932,65.0928,78.6088
934,64.9764,77.3879
936,64.8589,78.0423
938,64.7595,77.1761
940,64.682,74.7025
942,64.5852,80.1236
944,64.5099,78.9416
946,64.366,77.4819
948,64.2856,75.3296
950,64.1771,77.9106
952,64.0878,77.0024
954,63.9938,78.9786
956,63.8754,81.3544
958,63.8138,81.8229
960,63.6788,77.1462
962,63.60673,78.0384
964,63.51772,77.6815
966,63.4261,77.8215
968,63.2922,78.42
970,63.1837,78.2014
972,63.0662,78.5108
974,62.9989,80.4572
976,62.8973,81.4147
978,62.79525,80.8831
980,62.6923,80.5841
982,62.5541,82.9653
984,62.43928,82.1376
986,62.3832,79.8585
988,62.2843,82.6349
990,62.1749,80.5703
992,62.1041,79.2404
994,61.9888,83.53
996,61.8951,83.2602
998,61.7872,82.1716
1000,61.6827,86.1145
1002,61.5354,83.7628
1004,61.50542,82.832
1006,61.4088,84.8649
1008,61.2795,83.5818
1010,61.1626,84.3879
1012,61.047,83.0243
1014,60.9596,82.1923
1016,60.8316,86.6649
1018,60.7341,85.765
1020,60.6427,83.8709
1022,60.5196,86.5005
1024,60.43847,85.5627
1026,60.344,89.2554
1028,60.2394,86.618
1030,60.1383,85.5711
1032,60.0587,88.0248
1034,59.8973,87.2117
1036,59.827,88.6253
1038,59.6844,88.3853
1040,59.63,88.8077
1042,59.4681,87.0833
1044,59.3858,87.0042
1046,59.29,88.5999
1048,59.1556,88.8375
1050,59.0505,88.1042
1052,58.9605,88.8885
1054,58.8451,89.5364
1056,58.713,86.6244
1058,58.6439,89.4704
1060,58.4962,90.5877
1062,58.4325,88.7672
1064,58.2655,88.6324
1066,58.1757,92.2982
1068,58.0893,91.4545
1070,57.9441,90.0165
1072,57.8426,91.7789
1074,57.763,91.0976
1076,57.6577,93.9675
1078,57.5145,91.1774
1080,57.37124,93.2245
1082,57.2993,93.1256
1084,57.181,95.5048
1086,57.0905,94.7161
1088,56.9437,93.9078
1090,56.825,93.8045
1092,56.7161,95.2651
1094,56.6143,95.0603
1096,56.5119,92.6502
1098,56.4107,94.5716
1100,56.2703,98.3642
1102,56.1509,92.8158
1104,56.0392,95.3409
1106,55.9253,97.463
1108,55.8023,94.1079
1110,55.6986,94.2196
1112,55.5878,96.5761
1114,55.4706,92.7299
1116,55.3225,95.3844
1118,55.2005,94.1414
1120,55.10482,96.8759
1122,54.9674,100.953
1124,54.884,98.0284
1126,54.7627,102.345
1128,54.6719,98.6296
1130,54.5119,101.265
1132,54.3799,100.874
1134,54.2372,100.56
1136,54.1449,101.067
1138,54.047,98.8611
1140,53.9201,102.672
1142,53.7793,101.48
1144,53.6956,103.445
1146,53.5301,100.952
1148,53.4323,100.458
1150,53.2822,98.3024
1152,53.1954,100.734
1154,53.0466,98.8063
1156,52.9227,101.812
1158,52.8359,100.878
1160,52.6911,99.0971
1162,52.5519,100.087
1164,52.4509,103.337
1166,52.283,103.113
1168,52.17499,104.655
1170,52.0343,102.898
1172,51.9193,101.981
1174,51.81339,100.448
1176,51.671,101.986
1178,51.5758,103.038
1180,51.4114,101.615
1182,51.2844,107.34
1184,51.1604,102.982
1186,51.08544,107.203
1188,50.9617,103.158
1190,50.79173,104.81
1192,50.6716,103.428
1194,50.5689,102.909
1196,50.4288,105.514
1198,50.3251,102.558
1200,50.1557,101.069
1202,50.0352,107.677
1204,49.8843,106.251
1206,49.8103,104.774
1208,49.6254,104.84
1210,49.5074,104.881
1212,49.3469,103.205
1214,49.2375,103.659
1216,49.163,105.217
1218,49.033,104.935
1220,48.8893,106.758
1222,48.7388,107.156
1224,48.6363,105.903
1226,48.5188,110.102
1228,48.3544,108.321
1230,48.2409,107.448
1232,48.1058,104.498
1234,47.9605,107.48
1236,47.8557,104.556
1238,47.7205,108.094
1240,47.6048,109.061
1242,47.443,106.18
1244,47.3004,109.764
1246,47.1844,111.127
1248,47.0362,109.796
1250,46.9497,107.618
1252,46.7718,111.319
1254,46.6226,107.337
1256,46.5161,105.013
1258,46.3795,107.539
1260,46.2169,106.627
1262,46.12264,106.367
1264,45.9988,106.386
1266,45.8692,111.144
1268,45.7589,110.545
1270,45.5785,107.846
1272,45.4815,113.635
1274,45.343,110.122
1276,45.19416,108.601
1278,45.0618,108.976
1280,44.8987,107.535
1282,44.8148,107.155
1284,44.6415,107.883
1286,44.5336,107.169
1288,44.39285,105.769
1290,44.2579,108.57
1292,44.1504,113.077
1294,44.0021,111.826
1296,43.83051,111.573
1298,43.7174,114.579
1300,43.5884,113.064
1302,43.4462,109.277
1304,43.3527,108.899
1306,43.1773,111.898
1308,43.0575,109.715
1310,42.94404,110.274
1312,42.766,111.666
1314,42.6479,110.234
1316,42.5505,111.62
1318,42.4092,113.716
1320,42.2725,111.293
1322,42.1068,108.177
1324,41.9756,110.407
1326,41.8915,109.096
1328,41.7154,110.279
1330,41.5839,110.982
1332,41.4659,107.921
1334,41.3042,108.28
1336,41.1661,111.265
1338,41.0567,113.149
1340,40.919,108.219
1342,40.7759,107.632
1344,40.6423,108.432
1346,40.5083,106.406
1348,40.382,109.427
1350,40.2797,112.709
1352,40.1107,111.088
1354,39.948,108.092
1356,39.8493,111.529
1358,39.7272,109.083
1360,39.5992,110.651
1362,39.4674,111.953
1364,39.3365,109.111
1366,39.18886,111.091
1368,39.0705,110.59
1370,38.9144,107.857
1372,38.8267,110.334
1374,38.6899,110.399
1376,38.558,109.472
1378,38.41377,111.118
1380,38.3032,110.498
1382,38.1904,111.655
1384,38.0567,110.191
1386,37.8818,109.43
1388,37.7697,104.109
1390,37.6605,106.538
1392,37.5177,107.568
1394,37.3781,106.537
1396,37.2646,104.63
1398,37.1319,108.804
1400,37.0244,105.302
1402,36.8775,104.034
1404,36.7997,108.663
1406,36.6773,106.023
1408,36.5386,106.524
1410,36.40085,103.504
1412,36.28181,107.639
1414,36.14705,104.21
1416,36.0342,99.8167
1418,35.903,100.888
1420,35.8141,99.9572
1422,35.65958,102.196
1424,35.558,102.003
1426,35.4681,102.269
1428,35.3318,102.279
1430,35.24495,100.584
1432,35.1112,99.9555
1434,35.0123,102.29
1436,34.8814,98.6954
1438,34.7854,97.0678
1440,34.6567,96.0021
1442,34.5611,98.9589
1444,34.47679,96.5321
1446,34.3241,93.4872
1448,34.2426,95.7006
1450,34.144,93.4605
1452,34.0751,92.0581
1454,33.9291,92.2655
1456,33.84616,93.4206
1458,33.7569,91.4862
1460,33.6397,90.2893
1462,33.544,91.0274
1464,33.44756,90.3481
1466,33.32509,93.0616
1468,33.254,91.2623
1470,33.1587,88.1121
1472,33.0349,90.0116
1474,32.9669,86.3458
1476,32.8387,85.3395
1478,32.7797,85.8613
1480,32.6488,83.431
1482,32.5934,81.3835
1484,32.4771,80.0107
1486,32.3978,83.3237
1488,32.3307,80.8001
1490,32.2267,79.6234
1492,32.1537,78.0929
1494,32.068,79.7612
1496,31.9792,77.447
1498,31.91028,79.0791
1500,31.8596,75.7491
1502,31.7542,76.1496
1504,31.6537,73.4428
1506,31.5613,72.7242
1508,31.522,75.088
1510,31.4462,70.5914
1512,31.3667,72.8909
1514,31.3012,71.9364
1516,31.2057,71.6009
1518,31.1699,70.1441
1520,31.0847,69.341
1522,31.0446,69.7307
1524,31.0003,65.6633
1526,30.9199,65.9672
1528,30.8431,65.7188
1530,30.795,67.097
1532,30.71738,61.8109
1534,30.665,62.6025
1536,30.6114,63.6203
1538,30.5579,59.2874
1540,30.4737,59.5492
1542,30.4295,60.184
1544,30.3922,60.1841
1546,30.32083,56.4079
1548,30.2654,59.7995
1550,30.2366,56.904
1552,30.1911,55.7668
1554,30.1272,56.1258
1556,30.0938,54.7102
1558,30.049,54.8563
1560,30.0068,54.5808
1562,29.98879,51.9446
1564,29.896,52.8885
1566,29.8451,52.5337
1568,29.821,50.8362
1570,29.8113,50.1297
1572,29.73113,49.3191
1574,29.708,50.8664
1576,29.6344,50.3558
1578,29.6055,48.4638
1580,29.5757,47.6343
1582,29.563,47.0628
1584,29.4961,48.4169
1586,29.4531,46.7566
1588,29.4365,48.3845
1590,29.4536,46.4232
1592,29.3864,44.2875
1594,29.3487,46.3406
1596,29.3119,45.9916
1598,29.2765,43.6021
1600,29.2396,43.5333
1602,29.2283,44.1791
1604,29.1644,41.8489
1606,29.1514,42.0897
1608,29.1324,42.5155
1610,29.0633,41.6288
1612,29.049,41.9401
1614,29.0191,43.6172
1616,28.96532,40.6654
1618,29.02962,41.135
1620,28.9376,44.3326
1622,28.9057,42.4374
1624,28.8572,41.6485
1626,28.8746,42.2709
1628,28.81655,40.3184
1630,28.7589,41.3126
1632,28.7588,42.0607
1634,28.7272,39.7713
1636,28.7397,38.7525
1638,28.7072,40.9435
1640,28.6413,39.3317
1642,28.6044,39.5145
1644,28.5981,38.4725
1646,28.6098,40.3291
1648,28.5404,39.5776
1650,28.5105,42.1189
1652,28.4627,40.4557
1654,28.4554,38.6136
1656,28.4699,41.4601
1658,28.4051,38.753
1660,28.4134,40.056
1662,28.3552,39.8012
1664,28.3534,42.1226
1666,28.2931,38.0368
1668,28.2792,38.6571
1670,28.2768,37.6684
1672,28.2547,38.2371
1674,28.2028,38.5689
1676,28.1904,40.3628
1678,28.1611,39.3779
1680,28.136,38.3298
1682,28.1072,40.5027
1684,28.0844,36.9267
1686,28.06454,38.9742
1688,28.04559,39.6289
1690,27.9817,37.462
1692,27.9757,39.6731
1694,28.0015,39.3047
1696,27.9447,37.6545
1698,27.9454,37.883
1700,27.9055,39.6402
1702,27.8767,38.2339
1704,27.8651,37.2706
1706,27.8467,37.3147
1708,27.7948,38.1776
1710,27.7702,37.7331
1712,27.7754,37.1374
1714,27.74387,37.4465
1716,27.7357,36.5965
1718,27.7051,39.7122
1720,27.6573,37.5289
1722,27.6601,35.4335
1724,27.5942,36.5242
1726,27.59415,38.1285
1728,27.5665,35.5053
1730,27.5539,36.0172
1732,27.4803,33.3019
1734,27.4753,34.4472
1736,27.4697,37.2706
1738,27.4743,35.2456
1740,27.4551,33.2803
1742,27.4077,32.2688
1744,27.3415,36.7388
1746,27.387,34.925
1748,27.3375,37.6305
1750,27.3254,38.0189
1752,27.3112,34.7079
1754,27.2825,38.0707
1756,27.2478,35.6547
1758,27.22873,37.0291
1760,27.1986,37.183
1762,27.20109,35.9717
1764,27.1978,34.5994
1766,27.148,33.2429
1768,27.1313,33.627
1770,27.0957,32.2744
1772,27.0821,33.2469
1773,27.0563,34.5798