File: Wood/Calibration_Data/FPL/FPL_Wood_Cone_50kW_hor_R4.csv
Time (s),Mass (g),HRR (kW/m2),TC Top (K),TC back 1 (K),TC back 2 (K)
0,99.37,7.08598,32.274,20.5,20.056
2,95.4754,4.19305,52.73,20.486,20.037
4,88.8422,2.69926,137.002,20.521,20.042
6,86.5265,3.12344,190.406,20.514,20.046
8,83.8878,2.99585,239.25,20.572,20.039
10,81.8875,2.33592,282.155,20.573,20.019
12,80.3603,9.69154,300.328,20.608,19.926
14,79.3319,40.4262,353.2,20.661,20.051
16,77.7205,137.214,387.493,20.681,20.03
18,77.1464,179.871,415.648,20.549,20.04
20,76.6868,200.881,445.614,20.71,20.061
22,76.1206,213.653,461.669,20.852,20.002
24,74.3298,210.786,486.115,21.096,19.946
26,71.8991,200.099,504.835,21.194,19.873
28,71.1799,180.958,513.851,21.496,19.897
30,70.2716,170.624,526.949,21.988,19.943
32,69.4606,161.197,539.155,22.484,20.049
34,68.6207,137.849,549.476,22.927,20.046
36,67.7904,133.572,572.451,23.999,20.004
38,67.3457,123.008,576.51,24.494,19.973
40,67.0538,124.234,584.926,25.492,19.891
42,66.7696,115.82,590.597,26.345,19.854
44,66.5771,117.846,604.097,27.593,19.836
46,66.4839,115.32,611.369,28.998,19.805
48,66.2771,108.997,611.708,29.746,19.79
50,66.1041,114.94,624.378,31.215,19.805
52,66.0268,108.373,630.681,32.355,19.822
54,65.8946,105.093,636.575,33.763,19.831
56,65.6709,105.384,641.483,35.554,19.864
58,65.4266,101.669,646.391,36.359,19.811
60,65.2657,103.024,654.611,38.196,19.905
62,65.1205,102.316,655.508,39.473,19.96
64,65.0532,102.67,663.712,40.993,19.984
66,64.9096,98.2543,666.13,42.846,20.03
68,64.77171,97.6351,662.987,44.134,20.149
70,64.497,95.0445,675.086,45.718,20.102
72,64.3759,93.5597,677.271,47.556,20.142
74,64.3131,91.7938,672.147,48.474,20.132
76,64.2089,97.9552,671.262,50.32,20.19
78,64.0874,93.7374,676.63,51.591,20.2
80,64.0286,92.9437,681.994,53.208,20.254
82,63.91359,91.8557,679.462,55.058,20.307
84,63.7893,92.857,678.197,56.018,20.366
86,63.663,92.7274,692.353,58.106,20.395
88,63.5761,85.704,688.563,59.143,20.472
90,63.4935,86.0236,693.681,60.912,20.463
92,63.3793,88.7864,700.518,62.117,20.541
94,63.2927,86.0466,697.931,63.996,20.588
96,63.1752,86.6493,702.913,65.532,20.682
98,63.1613,83.372,700.59,66.875,20.714
100,63.083,83.5818,695.917,68.503,20.706
102,63.0604,82.5412,704.184,70.674,20.851
104,62.8973,80.9795,696.215,71.84,20.869
106,62.7973,81.7906,694.387,73.308,20.992
108,62.8198,82.5301,698.784,75.197,21.086
110,62.6713,83.3876,700.775,76.109,21.128
112,62.5309,79.8495,706.355,77.886,21.222
114,62.4351,82.7668,704.049,79.086,21.259
116,62.3289,80.4033,701.25,80.513,21.422
118,62.1611,79.5553,705.281,82.169,21.549
120,62.1308,80.0319,707.321,83.066,21.597
122,62.049,78.9666,706.08,84.941,21.768
124,61.9706,79.841,725.604,86.045,21.922
126,61.87158,80.1886,716.24,87.294,21.97
128,61.7718,80.7923,717.465,89.263,22.133
130,61.6609,82.4584,716.194,90.112,22.226
132,61.5785,79.8498,710.275,91.807,22.352
134,61.5094,76.6092,712.572,92.903,22.472
136,61.3283,78.0623,708.285,94.193,22.651
138,61.2784,76.8084,717.914,95.671,22.815
140,61.2002,77.3084,711.909,96.775,22.922
142,61.07173,78.3019,717.441,97.932,23.132
144,60.8891,78.5326,713.348,99.521,23.285
146,60.7388,81.8282,724.797,100.627,23.437
148,60.6173,78.8569,726.473,102.237,23.662
150,60.50801,80.736,719.817,103.555,23.914
152,60.4067,79.7233,718.254,104.923,24.022
154,60.2725,78.0783,714.842,106.585,24.26
156,60.1302,77.1063,710.549,107.449,24.441
158,59.9931,77.8953,721.242,109.148,24.687
160,59.8742,75.6871,718.075,110.291,24.855
162,59.8019,77.382,717.834,111.559,25.106
164,59.7243,77.398,721.131,113.12,25.359
166,59.613,75.775,728.624,113.865,25.538
168,59.5762,78.3011,727.42,115.182,25.856
170,59.453,77.2122,726.162,116.406,26.148
172,59.3393,77.8153,722.454,117.613,26.325
174,59.1683,78.3905,733.232,119.092,26.659
176,59.0721,78.5237,736.583,120.115,26.884
178,59.0694,79.7391,725.721,121.3,27.192
180,59.0956,78.0224,736.1,122.847,27.556
182,59.1963,76.0207,732.767,123.576,27.725
184,59.1297,78.247,732.728,125.14,28.055
186,59.0071,78.9613,730.025,126.22,28.38
188,58.8941,78.2164,733.407,127.285,28.687
190,58.82,77.1712,733.701,129.034,29.06
192,58.6706,75.6576,744.618,129.828,29.277
194,58.57986,78.2249,743.408,131.308,29.687
196,58.46013,77.2183,747.581,132.426,29.936
198,58.3557,78.5359,734.84,133.649,30.315
200,58.2319,78.8919,743.509,135.218,30.737
202,58.0871,75.445,742.637,135.98,30.944
204,58.0174,78.4904,734.87,137.62,31.399
206,57.9415,76.1414,734.438,139.1,31.862
208,57.84685,74.024,735.115,140.029,32.093
210,57.6974,78.2953,740.813,141.544,32.551
212,57.6478,77.8699,739.587,142.66,32.913
214,57.5908,76.4617,745.589,143.909,33.233
216,57.4382,77.525,758.574,145.568,33.75
218,57.332,77.2268,759.393,146.379,34.012
220,57.2123,78.5091,757.057,148.075,34.49
222,57.0781,75.9543,752.842,149.302,34.811
224,57.027,74.661,753.366,150.608,35.252
226,56.9008,77.2429,755.622,152.358,35.706
228,56.7629,78.1064,758.155,153.207,36.027
230,56.6194,76.258,764.305,155.037,36.594
232,56.5029,76.4612,750.283,156.316,36.938
234,56.4453,77.556,743.126,157.765,37.376
236,56.337,79.164,747.039,159.534,37.905
238,56.2206,78.306,753.664,160.324,38.191
240,56.1004,75.0079,751.621,162.385,38.765
242,55.9239,78.4636,769.409,163.784,39.324
244,55.8131,77.5619,749.601,165.429,39.573
246,55.7788,77.9866,756.491,167.262,40.162
248,55.6609,76.5148,764.473,168.708,40.582
250,55.61627,77.1244,758.82,170.316,41.021
252,55.5805,76.4064,749.309,172.357,41.58
254,55.5035,74.91,755.968,173.338,41.864
256,55.3162,75.9902,764.621,175.393,42.463
258,55.127,77.2239,754.006,176.921,42.956
260,55.0062,75.8752,763.553,178.55,43.46
262,54.9275,73.9444,761.221,180.63,44.049
264,54.8752,75.1419,757.435,181.594,44.353
266,54.7042,77.3381,753.76,183.647,44.98
268,54.509,76.7065,751.682,185.385,45.444
270,54.4654,74.3167,768.458,186.739,45.986
272,54.384,72.0455,769.4,188.74,46.62
274,54.3347,73.0868,763.603,189.718,46.935
276,54.247,76.2348,764.128,191.687,47.584
278,54.0953,77.151,756.638,193.665,48.241
280,53.9979,73.1067,766.831,194.675,48.597
282,53.8923,75.5257,755.251,196.729,49.287
284,53.7787,73.014,756.361,198.2,49.762
286,53.6978,76.9758,756.195,199.799,50.338
288,53.6642,76.1533,763.161,201.634,51.037
290,53.62083,77.1448,765.07,202.89,51.468
292,53.5811,76.508,764.051,204.842,52.099
294,53.5795,77.4727,755.843,206.624,52.615
296,53.695,78.0517,763.562,207.898,53.172
298,53.6262,76.3664,761.215,209.949,53.862
300,53.4483,72.9537,765.345,210.864,54.23
302,53.3704,73.6217,767.365,212.89,55.006
304,53.2902,74.0667,766.683,214.417,55.536
306,53.2616,74.9574,769.893,215.96,56.143
308,52.954,73.8581,764.274,217.921,56.866
310,52.87621,74.8371,775.771,218.891,57.241
312,52.8289,77.8802,770.757,220.918,58.086
314,52.6359,75.1741,764.214,222.326,58.622
316,52.4281,73.3028,771.531,223.866,59.261
318,52.4035,75.8393,769.076,225.831,60.017
320,52.2865,75.6046,766.082,227.261,60.618
322,52.1806,77.4529,763.253,228.777,61.271
324,52.0378,74.2296,774.583,230.786,62.05
326,51.9985,76.5142,772.778,231.846,62.47
328,51.8946,76.6136,775.717,233.817,63.258
330,51.8339,77.6385,770.938,235.29,63.821
332,51.6986,76.5906,766.383,236.69,64.429
334,51.6406,75.6983,775.571,238.806,65.252
336,51.5388,77.4771,771.366,239.849,65.657
338,51.3516,72.8201,794.641,241.791,66.45
340,51.3002,75.2824,773.224,244.017,67.258
342,51.1917,74.2398,762.441,245.052,67.714
344,51.1394,73.4304,774.563,246.845,68.556
346,51.13291,74.6111,782.151,247.906,69.133
348,51.1542,76.4512,771.934,249.892,69.771
350,51.3161,74.4195,787.389,251.775,70.534
352,51.1261,75.3321,775.722,252.675,70.931
354,50.9285,77.0021,781.805,254.628,71.79
356,50.7684,72.6143,779.822,255.963,72.369
358,50.6722,74.0546,761.938,257.519,73.003
360,50.56566,74.2158,770.515,259.428,73.818
362,50.4226,74.7474,778.187,260.304,74.194
364,50.3188,78.2892,776.216,262.186,75.074
366,50.1382,76.2325,776.704,263.521,75.665
368,50.0241,74.6945,785.69,264.869,76.233
370,49.93178,77.0222,780.453,266.76,77.049
372,49.818,78.3157,778.259,267.671,77.391
374,49.6874,75.5113,772.056,269.553,78.255
376,49.5849,76.9045,796.952,270.836,78.824
378,49.4657,77.8966,786.055,272.297,79.426
380,49.3908,77.2509,780.398,274.084,80.203
382,49.2897,79.9573,779.13,275.44,80.734
384,49.186,77.0764,784.228,276.783,81.366
386,49.02528,79.4721,787.766,278.565,82.111
388,48.91345,77.9347,783.665,279.438,82.489
390,48.7236,75.8538,800.552,281.214,83.263
392,48.6328,76.2497,790.165,282.469,83.83
394,48.5063,78.5468,783.487,283.872,84.377
396,48.4017,80.4949,792.743,285.335,85.057
398,48.3284,78.742,795.092,286.283,85.704
400,48.113,76.484,785.981,288.107,86.227
402,47.9651,78.8098,780.118,289.423,86.781
404,47.8797,78.2824,776.884,290.785,87.317
406,47.8616,75.8572,787.817,292.592,88.04
408,47.8797,77.9346,786.59,293.393,88.37
410,47.94051,79.5666,778.896,295.24,89.099
412,48.0825,78.2095,789.307,296.508,89.604
414,47.8528,79.0066,786.047,297.676,90.14
416,47.6864,78.7753,784.077,299.5,90.824
418,47.531,80.1546,794.448,300.852,91.306
420,47.3563,81.2511,779.769,302.105,91.789
422,47.1707,79.657,788.03,303.816,92.38
424,47.0176,78.6045,783.032,304.831,92.749
426,46.9063,81.6778,786.694,306.399,93.448
428,46.7007,80.5432,787.996,307.646,93.94
430,46.4965,79.2782,793.706,309.083,94.408
432,46.3512,78.8459,775.405,310.692,95.103
434,46.2571,77.5267,787.512,311.544,95.378
436,46.1608,81.3069,799.5,313.159,95.98
438,46.0528,79.105,781.7,314.419,96.364
440,45.9458,79.0636,783.033,315.766,96.877
442,45.8274,79.6086,784.744,317.376,97.431
444,45.7118,79.3322,787,318.285,97.701
446,45.5726,78.9814,787.694,319.843,98.32
448,45.405,80.4006,800.386,321.03,98.737
450,45.3089,80.325,789.349,322.359,99.191
452,45.1517,80.9242,784.252,323.945,99.662
454,45.0832,79.0794,798.138,325.17,100.103
456,44.9519,80.4862,799.082,326.414,100.515
458,44.9131,77.6487,802.02,328.06,101.048
460,44.8243,77.7407,797.028,329.013,101.296
462,44.6823,77.1865,789.511,330.595,101.791
464,44.5473,77.5577,790.181,332.066,102.145
466,44.3994,76.4717,788.569,333.14,102.592
468,44.2785,76.8849,796.241,334.834,103.019
470,44.1279,77.1511,797.787,335.638,103.216
472,44.0476,78.2842,795.361,337.213,103.601
474,43.9143,78.2191,792.003,338.508,103.939
476,43.7722,75.976,798.997,339.875,104.209
478,43.7226,77.5082,801.218,341.54,104.584
480,43.6207,78.3261,798.148,342.449,104.755
482,43.5017,75.8457,799.125,344.255,105.148
484,43.3956,76.9958,801.275,346.031,105.485
486,43.337,76.6652,805.221,346.926,105.651
488,43.2139,75.2019,799.313,348.74,106.007
490,43.14,76.995,789.247,350.139,106.267
492,43.0375,78.5554,790.896,351.673,106.484
494,42.9707,78.0633,795.836,353.47,106.79
496,42.8384,76.6156,806.983,354.413,106.941
498,42.7028,79.4642,787.336,356.312,107.282
500,42.5541,77.0417,779.8,357.808,107.518
502,42.4425,76.9454,782.86,359.318,107.747
504,42.4004,79.5473,807.973,361.497,108.092
506,42.3654,79.9203,798.63,362.412,108.24
508,42.3486,77.9456,797.703,364.26,108.583
510,42.5431,79.5251,815.42,365.765,108.916
512,42.6421,77.1303,808.123,367.245,109.144
514,42.4596,76.9368,796.632,369.413,109.532
516,42.2959,77.1141,804.771,370.39,109.715
518,42.13681,82.2934,813.824,372.518,110.114
520,42.0435,79.9957,801.22,374.681,110.522
522,41.95001,81.0296,793.951,375.775,110.755
524,41.8227,81.2866,809.582,377.9,111.16
526,41.773,79.2072,799.822,379.635,111.493
528,41.679,81.8916,788.039,381.369,111.839
530,41.5182,80.2353,800.502,383.616,112.313
532,41.3174,80.9577,796.274,384.705,112.558
534,41.2624,79.5823,799.793,387.038,113.043
536,41.10094,82.7333,821.469,388.85,113.387
538,40.9355,79.5724,791.557,390.572,113.737
540,40.8509,80.3013,789.689,393.096,114.21
542,40.6537,76.7915,786.282,394.496,114.463
544,40.585,81.6247,789.879,397.082,115.037
546,40.3632,78.0662,799.763,399.117,115.55
548,40.2884,76.8844,804.926,401.013,115.839
550,40.1198,80.6901,783.907,403.569,116.378
552,40.0268,80.5856,784.378,405.461,116.776
554,39.921,80.2141,814.179,407.228,117.27
556,39.8447,80.7139,811.298,409.635,117.813
558,39.7183,80.3337,806.241,410.79,118.093
560,39.5932,79.0989,801.175,413.172,118.692
562,39.526,80.6714,810.817,414.786,119.124
564,39.4282,81.6955,811.707,416.444,119.591
566,39.3215,78.8606,813.815,418.648,120.161
568,39.195,80.7642,812.312,419.797,120.474
570,39.0904,81.9497,805.922,421.972,121.087
572,38.9408,78.7622,809.668,423.613,121.645
574,38.8811,80.1771,796.812,425.17,122.102
576,38.721,82.4318,797.092,427.132,122.797
578,38.5961,82.4068,796.466,428.178,123.142
580,38.47072,79.0741,812.703,430.364,123.836
582,38.34599,81.1338,795.715,432.329,124.527
584,38.2503,79.8661,799.029,433.204,124.865
586,38.1566,82.2205,801.483,435.272,125.584
588,38.1114,79.2105,791.756,436.598,126.038
590,38.0191,82.1194,820.529,438.141,126.676
592,37.8762,80.5334,795.215,439.985,127.392
594,37.7058,80.9024,795.869,440.956,127.772
596,37.5396,83.9756,804.969,442.67,128.486
598,37.419,83.3189,796.479,444.045,129.123
600,37.2534,82.44,799.787,445.287,129.62
602,37.1404,79.9225,808.107,447.116,130.412
604,37.04119,81.8791,798.355,447.973,130.767
606,36.9625,79.8156,801.603,449.754,131.55
608,36.9221,80.2096,817.532,451.107,132.2
610,36.7827,80.7376,810.293,452.371,132.742
612,36.65032,81.2734,809.058,454.333,133.587
614,36.561,80.914,809.679,455.903,134.218
616,36.4627,80.2762,806.787,457.273,134.805
618,36.3644,79.7213,811.226,459.413,135.689
620,36.23376,80.1784,819.933,460.279,136.085
622,36.0851,83.3536,803.708,462.193,136.896
624,35.9519,85.683,814.961,463.613,137.487
626,36.0174,86.8292,821.591,464.997,138.086
628,36.1386,84.445,799.665,466.863,138.97
630,35.9796,86.4397,805.096,467.904,139.499
632,35.7386,84.1501,831.752,469.867,140.45
634,35.5881,82.7133,846.32,471.364,141.138
636,35.5497,85.526,809.51,472.696,141.717
638,35.3728,84.7828,806.776,474.603,142.657
640,35.25447,84.5696,815.812,475.645,143.182
642,35.2503,85.056,805.109,477.504,144.057
644,35.35035,83.8158,803.385,478.956,144.728
646,35.1675,84.3112,830.05,480.337,145.393
648,34.9787,82.3482,832.219,482.225,146.226
650,34.8164,78.9036,820.098,483.951,146.989
652,34.7113,84.9915,811.63,486.414,147.622
654,34.5649,83.551,805.902,489.454,148.523
656,34.4088,84.3235,811.623,490.902,148.979
658,34.2311,85.093,825.045,493.513,149.872
660,34.0934,84.593,799.799,495.405,150.631
662,33.9495,86.6738,819.072,497.114,151.328
664,33.8734,85.3696,811.087,499.488,152.215
666,33.7453,85.0264,825.13,500.483,152.625
668,33.5679,86.2314,827.05,502.745,153.597
670,33.4441,85.1322,810.999,504.55,154.425
672,33.3741,84.3389,814.33,506.094,155.078
674,33.2703,85.844,810.528,508.286,156.021
676,33.2019,84.4011,811.332,509.392,156.499
678,33.0705,84.1103,830.383,511.482,157.431
680,32.9189,85.0586,798.804,513.342,158.203
682,32.8171,84.2624,803.111,514.9,158.893
684,32.7817,83.5818,840.517,517.086,159.848
686,32.6588,86.0115,823.305,518.726,160.586
688,32.5346,83.0935,808.77,520.303,161.296
690,32.5919,85.5706,820.979,522.613,162.298
692,32.5619,86.7256,825.609,523.632,162.725
694,32.4466,86.2338,837.686,525.891,163.677
696,32.4802,88.0104,806.203,527.441,164.485
698,32.602,84.8922,810.101,529.025,165.163
700,32.5325,87.8099,823.115,531.065,166.171
702,32.4768,86.8776,822.91,532.017,166.648
704,32.3277,86.8293,809.347,533.822,167.574
706,32.2684,87.9864,809.791,535.244,168.331
708,32.0846,86.7143,820.339,536.546,169.064
710,31.96589,86.2988,828.217,538.288,170.055
712,31.8212,86.1004,820.894,539.151,170.555
714,31.7212,87.2635,814.401,540.933,171.564
716,31.5517,83.0897,808.729,542.492,172.343
718,31.43712,84.8169,807.731,543.803,173.032
720,31.3677,85.8059,810.956,545.637,174.022
722,31.1063,86.3206,827.795,547.221,174.872
724,30.994,89.7187,817.619,548.51,175.576
726,30.8585,85.3123,818.809,550.303,176.573
728,30.7805,85.9592,826.188,551.125,177.058
730,30.68135,87.8902,811.503,552.75,178.04
732,30.5844,85.8044,817.585,553.978,178.871
734,30.4458,84.0821,827.553,555.119,179.599
736,30.2686,86.4328,834.199,556.767,180.626
738,30.1434,86.2982,841.311,557.66,181.148
740,30.0211,85.0113,836.946,559.189,182.071
742,29.9072,87.7909,834.145,560.568,182.989
744,29.7555,87.7352,829.141,561.747,183.696
746,29.6593,88.7703,819.036,563.319,184.681
748,29.4871,89.923,809.727,564.146,185.209
750,29.32372,86.3636,816.204,565.553,186.181
752,29.2579,87.5416,818.977,566.985,187.249
754,29.1436,89.5509,810.834,567.678,187.751
756,29.0245,85.4989,829.703,569.117,188.745
758,28.9253,88.4449,829.924,570.259,189.555
760,28.8309,88.3663,815.674,571.22,190.288
762,28.709,88.3855,811.396,572.568,191.326
764,28.6079,86.8326,813.571,573.286,191.889
766,28.5629,85.1684,822.119,574.595,192.892
768,28.5045,87.2845,812.457,575.727,193.74
770,28.3566,88.7128,812.246,576.703,194.465
772,28.2179,86.3653,824.385,577.992,195.511
774,28.0576,89.8118,820.864,578.668,196.045
776,27.831,92.5638,820.077,580.101,197.08
778,27.765,88.7954,824.488,581.257,197.895
780,27.6801,88.3043,829.808,582.246,198.661
782,27.5679,89.4391,827.712,583.72,199.666
784,27.4254,90.1955,819.847,584.485,200.211
786,27.3157,87.5055,819.103,586.199,201.219
788,27.2333,87.9121,829.296,587.744,202.272
790,27.2568,87.2444,826.282,588.424,202.78
792,27.1268,86.9227,813.855,589.915,203.821
794,27.0302,87.4525,807.436,591.084,204.727
796,26.8878,89.8115,821.398,592.075,205.413
798,26.7469,90.1388,827.571,593.509,206.496
800,26.7393,90.3768,825.881,594.192,206.982
802,26.6218,89.1727,818.74,595.565,208.026
804,26.5662,91.1791,828.972,596.634,208.855
806,26.4779,91.0328,826.88,597.622,209.669
808,26.4266,87.35066,816.221,598.862,210.675
810,26.3678,89.6364,819.283,599.429,211.142
812,26.2297,91.0554,817.595,600.829,212.307
814,26.0558,87.4793,829.723,601.747,213.107
816,25.8763,91.5073,817.323,602.518,213.905
818,25.7912,88.6496,809.134,603.42,214.911
820,25.77795,89.18,811.547,603.832,215.755
822,25.648,90.2674,831.272,604.718,216.41
824,25.552,90.1394,829.426,605.648,217.544
826,26.0813,89.8771,828.708,606.086,218.112
828,25.3151,90.8241,818.667,606.947,219.199
830,25.1876,92.8337,826.063,607.684,219.967
832,25.0521,92.6982,839.768,608.331,220.717
834,25.0057,90.4401,829.798,609.451,221.867
836,24.8774,93.4527,838.56,609.997,222.431
838,24.7898,94.9249,841.926,611.224,223.552
840,24.7295,91.6141,848.624,611.948,224.452
842,24.6785,90.8585,826.984,612.775,225.214
844,24.6218,91.1669,828.501,613.877,226.358
846,24.444,90.9149,831.141,614.468,226.96
848,24.4209,90.7824,850.7,615.523,228.101
850,24.2424,89.1046,823.822,616.405,229.027
852,24.0317,89.1676,823.149,617.35,229.816
854,23.8633,91.7312,832.291,618.215,230.998
856,23.7001,92.4783,829.299,618.92,231.839
858,23.4939,91.605,821.16,619.523,232.682
860,23.326,89.1312,826.026,620.389,233.864
862,23.2111,93.1159,833.019,620.843,234.419
864,23.0668,94.798,832.47,621.702,235.474
866,22.956,91.9525,824.278,622.433,236.453
868,22.8277,93.9758,831.509,623.184,237.239
870,22.7012,92.932,838.175,624.278,238.427
872,22.5425,90.8609,839.403,624.832,238.982
874,22.4249,94.8647,813.474,625.98,240.137
876,22.3514,92.7853,820.757,626.8,241.042
878,22.2173,92.7113,838.913,627.42,241.805
880,22.0752,95.5603,829.97,628.298,242.979
882,21.8763,96.1668,827.933,628.682,243.524
884,21.8116,91.0189,837.059,629.481,244.815
886,21.7084,92.4067,826.974,630.118,246.156
888,21.6485,96.0343,828.53,630.652,246.887
890,21.5298,94.3854,823.759,631.596,248.327
892,21.4664,95.0313,835.977,632.167,249.251
894,21.3829,93.9105,826.392,632.617,250.013
896,21.2774,94.5848,832.206,633.207,251.068
898,21.1077,94.3594,826.499,633.513,251.577
900,20.9712,91.9217,821.65,634.176,252.376
902,20.8305,95.1233,816.698,634.989,253.572
904,20.7686,94.5439,822.542,635.446,254.252
906,20.5989,97.1155,816.713,636.236,255.392
908,20.4629,95.5984,818.762,636.626,255.936
910,20.2853,93.3581,822.037,637.433,256.949
912,20.2055,94.9251,837.203,638.071,257.941
914,20.095,94.3772,819.353,638.533,258.654
916,19.9738,96.2375,833.368,639.179,259.809
918,19.8456,95.3909,831.874,639.824,260.739
920,19.8013,95.6263,830.169,640.486,261.555
922,19.6739,95.9899,810.913,641.52,262.691
924,19.5228,95.9046,816.296,641.99,263.27
926,19.4428,93.443,820.792,642.893,264.503
928,19.3553,95.5267,810.375,643.422,265.363
930,19.2262,94.6301,821.52,643.879,266.181
932,19.1152,96.2447,824.41,644.486,267.282
934,18.9899,97.9906,834.239,644.884,267.931
936,18.8659,95.6713,812.12,645.697,269.13
938,18.7343,96.6128,823.771,646.38,270.136
940,18.6054,98.0915,815.969,646.802,270.946
942,18.46618,96.667,830.258,647.553,272.128
944,18.3895,96.824,831.741,647.99,272.688
946,18.1953,100.609,809.985,648.941,273.972
948,18.1607,96.182,825.639,649.492,274.939
950,18.0276,97.0061,801.794,649.885,275.726
952,17.8881,100.901,818.463,650.351,276.933
954,17.7866,94.6573,827.408,650.804,277.918
956,17.6951,95.1192,831.486,651.355,278.816
958,17.5899,98.0497,800.686,652.094,280.025
960,17.4901,97.5199,818.157,652.494,280.683
962,17.3443,102.451,829.634,653.139,281.915
964,17.1862,100.194,811.873,653.72,282.989
966,17.0909,98.633,808.943,654.3,283.891
968,16.9697,96.8544,807.588,655.089,285.118
970,16.8529,97.7639,806.839,655.419,285.764
972,16.7043,99.4891,807.198,656.063,286.992
974,16.5594,98.3726,808.516,656.808,288.048
976,16.41551,97.0663,813.014,657.008,288.915
978,16.2555,100.437,804.998,657.553,290.15
980,16.1418,101.545,817.323,657.897,290.848
982,16.0552,100.206,812.38,658.661,292.137
984,15.908,99.0514,806.004,659.306,293.515
986,15.8098,101.537,813.15,659.542,294.209
988,15.664,100.831,806.075,660.021,295.512
990,15.6004,102.153,799.635,660.498,296.691
992,15.4619,100.879,810.14,660.811,297.645
994,15.3142,101.372,805.429,661.325,299.062
996,15.2549,101.462,810.688,661.527,299.7
998,15.142,101.017,809.25,662.135,301.092
1000,15.0659,102.423,793.778,662.875,302.296
1002,14.98017,104.258,798.232,663.391,303.274
1004,14.8389,102.387,795.405,664.352,304.668
1006,14.6941,102.936,803.071,664.702,305.36
1008,14.58379,105.164,804.903,665.289,306.826
1010,14.4928,102.051,804.708,665.872,308.048
1012,14.3543,102.154,804.74,666.3,309.029
1014,14.2209,103.635,798.744,666.704,310.466
1016,14.1417,102.09,796.01,666.895,311.616
1018,14.0519,101.786,795.455,667.542,312.694
1020,13.9671,100.956,809.112,668.095,314.183
1022,13.8768,102.774,804.658,668.361,314.952
1024,13.7091,102.061,797.268,668.764,316.266
1026,13.55144,102.678,810.981,669.21,317.521
1028,13.4955,102.235,815.153,669.529,318.45
1030,13.4244,102.628,811.201,670.109,320.005
1032,13.2624,102.084,802.147,670.48,320.776
1034,13.1404,105.973,807.894,671.352,322.183
1036,13.0883,107.728,796.238,672.232,323.437
1038,12.9789,106.346,795.561,672.806,324.465
1040,12.8248,106.623,796.737,673.544,325.997
1042,12.721,110.427,789.797,673.828,326.734
1044,12.6296,110.074,806.03,674.405,328.339
1046,12.5437,108.54,790.713,674.85,329.869
1048,12.4085,108.398,792.257,675.39,330.634
1050,12.2714,105.561,795.206,676.103,332.238
1052,12.1122,104.005,797.819,676.707,333.439
1054,12.0417,106.584,794.039,677.227,334.53
1056,11.9104,106.532,796.308,677.859,336.044
1058,11.8108,104.628,788.346,678.231,336.843
1060,11.675,103.893,779.017,678.824,338.29
1062,11.475,110.166,797.531,679.161,339.7
1064,11.36,111.246,803.955,679.28,340.731
1066,11.1577,108.756,793.199,679.827,342.369
1068,11.0905,111.627,789.931,680.137,343.195
1070,10.928,110.85,791.455,680.59,344.638
1072,10.7791,107.794,798.026,680.836,345.744
1074,10.6496,109.247,788.373,681.051,346.713
1076,10.552,113.525,787.484,681.436,348.264
1078,10.4027,110.891,790.354,681.74,349.038
1080,10.2641,108.504,793.245,682.351,350.581
1082,10.1015,111.224,777.537,682.741,352.107
1084,9.967976,108.493,777.596,682.984,352.946
1086,9.862617,110.41,776.248,683.492,354.626
1088,9.739298,114.461,795.149,683.696,355.994
1090,9.569131,112.971,783.759,683.875,357.01
1092,9.432527,110.285,787.376,684.296,358.864
1094,9.188999,111.884,778.807,684.544,359.663
1096,9.176774,110.575,779.534,685.324,361.437
1098,9.028324,111.267,775.053,685.93,362.932
1100,8.917256,109.868,775.233,686.425,364.089
1102,8.800161,111.703,780.262,687.113,365.751
1104,8.655037,112.657,783.066,687.359,366.706
1106,8.530513,109.727,784.715,687.698,368.408
1108,8.360022,112.079,782.194,687.992,369.949
1110,8.303851,113.443,779.319,688.139,371.117
1112,8.085309,110.954,770.138,688.46,372.841
1114,8.026174,110.054,771.596,688.848,374.379
1116,7.865203,114.587,771.766,689.128,375.519
1118,7.716967,109.838,777.579,689.439,377.24
1120,7.604536,110.525,779.412,689.568,378.183
1122,7.519794,111.632,770.826,690.012,379.827
1124,7.381933,111.7,777.35,690.618,381.306
1126,7.249158,113.434,774.362,691.072,382.533
1128,7.125799,112.437,769.731,691.487,384.278
1130,6.910151,113.146,777.263,691.925,385.124
1132,6.786339,111.648,776.347,692.416,386.885
1134,6.678825,120.671,792.423,692.973,388.435
1136,6.524847,118,778.243,693.429,389.668
1138,6.363601,115.73,774.494,694.057,391.408
1140,6.239805,109.894,770.504,694.402,392.32
1142,6.138417,114.259,772.053,695.016,394.229
1144,6.029831,113.881,760.887,695.472,396.165
1146,5.894048,116.861,776.847,695.843,397.107
1148,5.817127,115.246,790.97,696.251,399.007
1150,5.69388,115.415,775.274,696.649,400.537
1152,5.539057,113.823,772.912,696.936,401.781
1154,5.407145,115.351,775.954,697.286,403.72
1156,5.262072,116.668,771.772,697.442,404.745
1158,5.130311,114.372,761.142,697.977,406.809
1160,5.017049,113.949,757.687,698.082,408.542
1162,4.8907,113.872,765.733,698.038,409.822
1164,4.736764,113.827,781.501,698.216,411.991
1166,4.538567,115.43,780.749,698.435,413.026
1168,4.410474,116.389,779.227,698.815,415.227
1170,4.262616,115.348,764.601,699.261,417.084
1172,4.029694,117.382,778.504,699.689,418.609
1174,3.883114,117.783,776.328,700.157,421.111
1176,3.706938,115.355,769.233,700.316,423.271
1178,3.470006,116.753,769.284,700.697,425.066
1180,3.295218,113.27,775.022,701.009,427.761
1182,3.151511,117.825,766.667,701.209,429.079
1184,2.96701,114.81,762.992,701.692,431.744
1186,2.817058,116.947,764.601,702.191,434.082
1188,2.67699,117.279,762.977,702.49,436.006
1190,2.551968,115.475,774.046,702.68,438.589
1192,2.355168,114.291,791.212,702.752,439.997
1194,2.197585,117.306,768.285,702.905,442.873
1196,2.082052,116.977,768.535,702.866,445.341
1198,1.932679,114.944,764.604,703.104,447.107
1200,1.813731,116.12,767.664,703.308,450.175
1202,1.602077,115.941,773.836,703.508,451.673
1204,1.414246,116.246,769.374,704.249,454.665
1206,1.221795,113.863,802.856,704.988,457.026
1208,1.034081,117.462,775.961,705.363,458.835
1210,0.90961,113.877,767.837,705.375,461.448
1212,0.782011,111.475,764.816,705.805,464.038
1214,0.778982,112.792,773.39,706.136,466.002
1216,0.651849,111.514,755.363,706.516,468.738
1218,0.526493,111.082,755.248,706.726,470.288
1220,0.422088,110.567,762.45,706.916,472.927
1222,0.353904,110.77,780.174,707.131,475.254
1224,0.25538,111.497,779.28,707.24,477.07
1226,0.192994,109.869,766.874,707.432,479.541
1228,0.159239,111.29,764.117,707.578,480.809
1230,0.024977,107.779,762.351,707.75,483.344
1232,-0.073479,108.576,757.119,707.905,485.5
1234,-0.128179,105.874,761.024,707.879,487.223
1236,-0.192505,108.619,770.627,708.038,489.802
1238,-0.267224,108.454,760.078,708.143,491.083
1240,-0.332069,107.172,760.22,708.306,493.592
1242,-0.326602,109.075,771.651,708.476,496.203
1244,-0.250299,107.554,759.957,708.545,497.448
1246,-0.254793,108.511,760.397,708.74,499.917
1248,-0.309134,107.08,761.898,709.09,501.07
1250,-0.299705,105.463,760.258,709.244,502.009
1252,-0.240947,105.946,751.14,709.116,504.01
1254,-0.233728,106.312,755.169,709.011,505.039
1256,-0.264621,105.811,756.826,708.906,506.998
1258,-0.322123,103.773,765.264,709.207,508.749
1260,-0.379024,103.773,766.931,709.413,510.116
1262,-0.418536,102.833,768.96,709.866,512.163
1264,-0.500017,103.444,761.796,710.129,513.125
1266,-0.583009,102.608,763.754,710.514,515.121
1268,-0.662963,102.329,763.528,710.604,516.827
1270,-0.779923,101.364,768.508,710.658,518.073
1272,-0.953313,101.67,769.586,710.751,519.985
1274,-0.978811,99.9666,768.569,710.871,520.785
1276,-1.064429,99.6994,766.355,711.367,522.747
1278,-1.200658,96.5419,755.89,711.915,524.618
1280,-1.255635,94.138,769.658,711.972,525.559
1282,-1.357095,98.2472,768.34,711.965,527.48
1284,-1.526611,94.7685,773.241,712.063,529.1
1286,-1.64483,96.5258,769.688,712.246,530.208
1288,-1.784748,91.9591,777.49,712.72,531.968
1290,-1.95008,92.8465,773.488,712.914,532.878
1292,-2.097991,90.6009,770.18,713.201,534.558
1294,-2.24595,88.105,763.174,713.352,535.961
1296,-2.477558,90.5894,753.551,713.536,536.94
1298,-2.563321,89.5162,774.872,713.711,538.427
1300,-2.699444,89.1155,768.084,713.837,539.156
1302,-2.774835,88.8351,759.931,714.309,541.078
1304,-2.936256,84.9798,774.744,714.526,542.122
1306,-3.070443,84.362,770.998,714.617,543.009
1308,-3.159827,84.1777,783.029,714.883,544.462
1310,-3.305373,81.4715,782.222,715.114,545.228
1312,-3.432201,80.8553,782.071,715.739,546.642
1314,-3.550957,84.8646,773.238,716.607,547.949
1316,-3.66681,82.2071,780.727,716.929,548.888
1318,-3.848515,82.2623,799.342,717.322,550.335
1320,-4.0915,82.7818,793.237,717.912,551.741
1322,-4.210342,79.6789,804.516,718.202,552.693
1324,-4.380419,75.8138,804.481,718.895,554.291
1326,-4.468996,74.1594,795.864,719.222,555.187
1328,-4.592282,76.2611,803.472,720.105,556.77
1330,-4.629838,74.3839,795.343,720.926,558.383
1332,-4.747487,71.9789,811.949,721.291,559.451
1334,-4.914086,71.8116,804.738,721.826,561.175
1336,-5.060621,70.3275,805.415,722.11,561.957
1338,-5.153038,69.9873,814.091,722.697,563.555
1340,-5.218899,70.1679,797.084,723.149,564.984
1342,-4.778113,67.9137,802.995,723.436,565.989
1344,-4.687756,65.2242,812.637,723.886,567.545
1346,-4.899124,63.3723,804.629,724.142,568.236
1348,-5.094196,67.0635,808.801,724.616,569.804
1350,-5.198035,64.2742,817.237,725.564,571.331
1352,-5.370969,64.8239,814.457,725.929,572.004
1354,-5.554632,63.3763,811.046,726.702,573.539
1356,-5.745925,62.536,825.028,727.652,574.862
1358,-5.861794,59.1873,823.228,727.839,575.756
1360,-5.910845,61.7221,817.132,727.962,577.406
1362,-5.907981,57.3045,818.554,728.024,578.47
1364,-6.020668,59.4125,816.793,728.472,580.322
1366,-6.224192,57.3607,826.495,728.661,581.916
1368,-6.352033,55.9844,833.261,728.842,583.069
1370,-6.446474,58.3191,820.763,729.062,584.93
1372,-6.592623,55.8976,819.504,729.069,585.675
1374,-6.72834,56.7067,828.378,729.231,587.505
1376,-6.859389,53.1184,842.208,729.3,589.101
1378,-6.54562,55.1034,832.528,729.571,590.061
1380,-6.228427,54.9096,829.369,730.163,591.869
1382,-6.104029,54.2477,833.917,730.438,592.725
1384,-6.07386,53.5768,823.143,731.032,594.406
1386,-6.083298,50.1751,833.248,731.904,596.217
1388,-6.111599,50.3396,830.614,732.259,596.995
1390,-6.128709,49.6971,848.163,732.593,598.648
1392,-6.173753,49.4581,842.376,732.923,600.214
1394,-6.292265,50.8569,844.665,733.267,601.266
1396,-6.552582,50.1032,842.041,734.306,602.866
1398,-6.737256,47.6747,842.059,734.86,603.633
1400,-6.823057,50.4748,836.861,735.835,605.108
1402,-6.855653,47.6427,826.634,736.898,606.494
1404,-6.863754,47.119,820.707,737.317,607.406
1406,-6.911456,45.097,819.278,737.517,608.832
1408,-6.977186,47.2931,821.111,737.62,609.537
1410,-7.069103,47.3488,822.499,737.718,610.941
1412,-7.1762,45.3527,803.415,738.158,612.235
1414,-7.31833,45.8911,800.02,738.456,613.022
1416,-7.316093,44.918,785.464,739.252,614.3
1418,-7.372913,48.1814,772.344,739.702,614.873
1420,-7.420343,49.0377,775.532,739.98,616.134
1422,-7.444688,47.3263,767.821,740.662,617.262
1424,-7.570654,45.6039,763.758,740.965,617.885
1426,-7.585769,45.5659,743.726,741.326,618.953
1428,-7.672234,44.2598,778.411,741.739,619.912
1430,-7.681822,47.3283,773.857,742.139,620.613
1432,-7.783136,43.7981,760.144,742.494,621.618
1434,-7.907262,43.3381,748.506,742.454,622.144
1436,-7.901785,42.9329,732.011,742.099,623.115
1438,-7.793742,45.7575,723.426,742.228,623.94
1440,-7.379411,45.7869,725.027,742.474,624.539
1442,-7.168468,42.9851,738.609,743.108,625.517
1444,-7.14768,45.5155,726.213,743.718,625.952
1446,-7.182227,44.1188,740.903,744.865,626.809
1448,-7.063002,46.5745,725.131,745.202,627.66
1450,-7.119235,42.3622,719.068,745.2,628.133
1452,-7.181729,44.626,719.334,744.93,629.064
1454,-7.20223,44.111,725.449,745.03,629.487
1456,-7.261781,40.2139,725.964,745.723,630.3
1458,-7.330161,44.0276,727.954,746.179,631.059
1460,-7.378736,40.4395,732.436,746.348,631.392
1462,-7.433708,42.0882,734.17,746.728,632.212
1464,-7.546057,40.9035,730.244,747.263,632.885
1466,-7.640141,40.3664,746.775,747.617,633.303
1468,-7.71813,40.4804,728.838,747.528,634.037
1470,-7.734083,39.8549,727.613,747.593,634.4
1472,-7.791676,41.9291,719.353,748.105,635.142
1474,-7.790445,40.1147,717.515,748.786,635.677
1476,-7.720932,39.8306,721.884,748.665,636.066
1478,-7.753092,40.7491,734.337,748.718,636.721
1480,-7.745049,39.6015,727.094,749.027,637.095
1482,-7.669636,40.2297,717.376,749.51,637.752
1484,-7.716582,39.1559,711.433,749.885,638.283
1486,-7.74858,37.0563,720.608,749.772,638.626
1488,-7.866958,37.2896,722.187,749.163,639.238
1490,-7.962288,35.7638,717.418,749.609,639.493
1492,-8.006885,39.8093,731.659,750.453,640.108
1494,-8.072425,35.7357,715.727,750.755,640.69
1496,-8.185034,37.4481,722.489,750.996,640.958
1498,-8.227389,38.391,698.31,751.896,641.497
1500,-8.257195,38.0518,695.898,752.7,642.062
1502,-8.349209,39.6607,705.234,752.753,642.341
1504,-8.470581,38.175,713.157,753.023,642.852
1506,-8.494999,36.644,716.263,753.41,643.064
1508,-8.616522,38.1197,697.449,754.337,643.614
1510,-8.735976,36.9073,697.01,754.152,644.044
1512,-8.773146,36.0815,690.521,754.12,644.407
1514,-8.851805,37.4955,698.103,754.467,644.847
1516,-8.895848,37.2501,692.078,754.886,645.125
1518,-9.027275,34.781,704.621,755.196,645.604
1520,-9.080922,38.1414,701.549,755.136,646.006
1522,-9.132003,38.5515,700.457,755.19,646.341
1524,-9.205115,36.1314,711.238,755.125,646.825
1526,-9.296916,39.8963,696.529,755.177,647.059
1528,-9.317315,37.6907,691.924,755.793,647.509
1530,-9.404096,39.0603,695.936,755.882,647.949
1532,-9.136452,39.5271,706.921,756.55,648.195
1534,-9.212126,38.3698,698.05,757.595,648.673
1536,-9.024232,37.7429,675.747,758.913,649.042
1538,-8.741505,39.2518,673.957,758.905,649.313
1540,-8.711886,38.2793,682.549,757.991,649.702
1542,-8.6024,36.4085,666.278,757.658,649.903
1544,-8.730409,37.3572,673.892,757.108,650.354
1546,-8.844879,37.0214,703.137,757.19,650.658
1548,-8.924218,36.4436,670.596,758.272,650.87
1550,-9.032047,35.4117,683.784,757.997,651.132
1552,-9.141393,39.0113,667.045,757.386,651.452
1554,-9.259112,38.2525,670.082,757.731,651.844
1556,-9.299974,36.2278,670.586,758.185,651.986
1558,-9.377842,36.8646,658.657,760.084,652.356
1560,-9.511,35.3567,664.863,761.42,652.56
1562,-9.544441,37.1674,655.223,762.132,652.826
1564,-9.627539,37.409,649.161,761.724,653.099
1566,-8.63427,34.9952,658.508,761.826,653.394
1568,-8.716845,35.1853,673.082,761.808,653.537
1570,-8.827108,36.7829,670.763,761.202,653.842
1572,-8.946315,35.2467,634.598,761.163,654.142
1574,-9.039609,35.0932,648.05,760.751,654.266
1576,-9.163395,34.1646,631.046,760.249,654.574
1578,-9.264282,34.327,646.946,760.22,654.705
1580,-9.2907,34.9786,654.332,761.102,655.01
1582,-9.417279,33.1205,655.947,760.967,655.295
1584,-9.48195,32.8403,638.139,761.203,655.496
1586,-9.551691,35.4787,620.053,761.919,655.844
1588,-9.608932,36.7976,630.035,762.263,655.995
1590,-9.665795,33.4699,639.29,763.419,656.283
1592,-9.704773,36.4812,635.783,763.4,656.576
1594,-9.778559,34.2583,634.687,764.666,656.673
1596,-9.82674,33.8493,655.55,764.556,657.059
1598,-9.897917,35.8574,632.076,764.919,657.294
1600,-9.882365,33.6209,621.573,765.231,657.423
1602,-9.948521,33.681,623.516,764.636,657.718
1604,-9.986826,34.7113,615.866,764.494,657.9
1606,-10.0726,32.1881,601.8,763.599,658.159
1608,-10.12753,32.4737,613.145,763.565,658.356
1610,-10.152,34.4247,602.671,764.08,658.526
1612,-10.203,30.9336,611.381,763.499,658.757
1614,-10.2023,33.6878,612,763.858,658.904
1616,-10.2566,32.469,607.299,763.291,659.16
1618,-10.3369,32.4831,593.423,764.266,659.446
1620,-10.3474,31.2723,605.065,763.484,659.538
1622,-10.438,33.1987,599.883,763.466,659.814
1624,-10.4696,31.9332,608.479,764.044,659.918
1626,-10.5077,30.7006,614.182,764.882,660.145
1628,-10.4977,33.5834,589.298,765.037,660.422
1630,-10.50964,32.964,589.695,762.809,660.588
1632,-10.5169,31.0108,609.878,763.54,660.813
1634,-9.809607,33.8028,594.344,764.449,661.022
1636,-9.808,32.6555,590.413,763.723,661.187
1638,-9.838379,34.1376,580.958,765.547,661.461
1640,-9.933512,36.2424,580.306,766.214,661.551
1642,-9.987372,31.934,604.591,768.453,661.821
1644,-10.0735,33.0081,614.896,769.827,662.089
1646,-10.1447,35.3848,619.304,767.858,662.24
1648,-10.1144,32.7064,609.227,766.991,662.525
1650,-10.0551,34.8473,593.277,767.365,662.7
1652,-9.876541,32.794,577.536,766.497,662.933
1654,-9.804539,33.6213,590.101,768.441,663.188
1656,-9.925155,34.352,582.181,767.816,663.396
1658,-9.870212,32.2064,583.725,765.939,663.628
1660,-9.87567,32.9832,567.417,766.96,663.912
1662,-9.964553,33.4428,587.796,766.356,664.088
1664,-10.0609,30.255,580.594,766.216,664.373
1666,-10.0941,32.3096,574.537,765.855,664.482
1668,-10.1645,30.9628,569.851,768.329,664.765
1670,-10.2243,30.5786,583.289,768.731,665.034
1672,-10.3408,30.5565,580.183,769.287,665.149
1673,-10.3169,30.5265,580.737,769.494,665.285