File: PMMA/Calibration_Data/NIST/NIST_Cone_25kW_2.csv
Time,Mass,HRR
[s],[g],[kW/m2]
0,154.993,-0.510215
1,155.284,0.70071
2,155.285,-0.317272
3,155.119,0.907264
4,155.268,1.367624
5,155.357,0.382815
6,155.457,-0.247574
7,155.186,1.90015
8,155.203,1.323508
9,155.444,0.128808
10,155.222,0.621484
11,155.387,-0.196371
12,155.308,-0.031361
13,155.168,1.025588
14,155.091,-0.307586
15,155.557,-0.666456
16,155.198,-0.079745
17,155.37,-1.209384
18,155.228,-1.089795
19,155.361,0.355417
20,155.1,-0.777912
21,155.254,-0.934505
22,155.341,-0.766632
23,155.298,-0.402518
24,155.234,-0.279543
25,155.364,1.038426
26,155.372,0.518856
27,155.289,0.410656
28,155.459,-0.117023
29,155.092,-1.288597
30,155.443,-0.140611
31,155.276,-0.889117
32,155.206,-1.153659
33,155.359,-0.5097
34,155.306,-0.011742
35,155.212,-0.319317
36,155.337,-0.528455
37,155.334,-0.24152
38,155.027,-0.304104
39,155.397,-0.993118
40,155.531,-1.94805
41,155.35,0.520739
42,155.336,-0.383444
43,155.196,-0.157631
44,155.157,0.058838
45,155.472,0.620615
46,155.248,-0.722389
47,155.184,-0.163332
48,155.272,1.550968
49,155.216,0.196973
50,155.224,-0.444085
51,155.386,0.922937
52,155.337,1.176236
53,155.084,0.580176
54,155.231,1.166218
55,155.198,0.890752
56,155.243,0.447337
57,155.352,0.130161
58,155.32,0.389764
59,155.349,-1.647992
60,155.255,0.582064
61,155.101,-0.709616
62,155.208,0.498609
63,155.453,0.274015
64,155.236,-1.24723
65,155.203,0.271674
66,155.212,1.169108
67,155.12,0.949836
68,155.066,1.283861
69,155.098,1.604375
70,155.206,1.806163
71,155.334,0.832868
72,155.436,0.217363
73,155.03,0.751507
74,155.115,2.347279
75,155.248,1.177825
76,155.255,-0.859318
77,155.134,0.656239
78,155.132,0.658677
79,155.244,0.17606
80,155.326,0.617181
81,155.387,0.052596
82,155.048,-0.022114
83,155.17,-0.263994
84,155.358,-0.590223
85,155.39,0.175573
86,155.245,0.877856
87,155.151,0.423833
88,155.395,0.463045
89,155.144,-0.315445
90,155.202,0.179408
91,155.265,0.305826
92,155.194,0.802568
93,155.352,1.244057
94,155.121,-0.199965
95,155.141,0.291518
96,155.29,0.726629
97,155.216,-1.084478
98,155.266,-0.061024
99,155.324,-0.32527
100,155.338,0.771974
101,155.216,2.484049
102,155.167,1.459691
103,155.274,0.910468
104,155.278,0.663854
105,155.224,2.211068
106,155.128,0.94211
107,155.312,1.077157
108,155.129,5.596291
109,155.037,14.78183
110,155.046,16.2469
111,155.081,51.5596
112,155.213,63.5666
113,155.038,90.9625
114,154.987,116.562
115,154.885,147.064
116,154.615,164.796
117,154.47,177.236
118,154.693,198.12
119,154.41,215.367
120,154.283,225.515
121,154.117,226.951
122,154.019,242.829
123,154.159,257.309
124,153.762,277.404
125,153.643,300.824
126,153.571,327.281
127,153.5,334.329
128,153.318,346.905
129,153.202,356.224
130,152.95,365.177
131,152.992,370.185
132,152.639,377.792
133,152.458,383.103
134,152.335,380.816
135,152.242,396.093
136,151.94,418.214
137,151.794,416.149
138,151.863,408.088
139,151.621,411.732
140,151.617,421.885
141,151.239,425.141
142,151.097,402.75
143,150.783,413.083
144,150.712,414.557
145,150.587,413.008
146,150.381,414.711
147,150.235,418.634
148,150.057,417.434
149,149.949,419.792
150,149.733,418.924
151,149.487,427.163
152,149.429,426.33
153,149.253,427.622
154,149.165,426.992
155,148.895,423.74
156,148.646,423.404
157,148.552,421.288
158,148.443,428.466
159,148.206,423.762
160,147.891,425.46
161,147.73,429.226
162,147.571,426.278
163,147.541,429.304
164,147.293,433.964
165,147.193,433.729
166,146.981,437.537
167,146.772,429.415
168,146.634,434.079
169,146.401,434.821
170,146.342,429.037
171,146.12,429.94
172,145.944,433.923
173,145.724,430.571
174,145.611,428.809
175,145.317,435.246
176,145.144,431.706
177,144.942,437.14
178,144.893,440.063
179,144.771,442.585
180,144.439,440.382
181,144.286,447.215
182,143.952,444.878
183,143.881,437.923
184,143.621,447.727
185,143.588,449.936
186,143.355,452.253
187,143.241,450.615
188,142.977,452.106
189,142.811,450.989
190,142.599,451.941
191,142.533,453.676
192,142.227,452.635
193,142.098,456.355
194,141.932,459.091
195,141.468,465.981
196,141.506,460.253
197,141.476,458.912
198,141.108,464.281
199,140.789,464.607
200,140.793,465.417
201,140.445,471.9
202,140.252,470.031
203,140.142,469.339
204,139.877,475.691
205,139.638,475.291
206,139.58,471.29
207,139.381,473.319
208,139.15,480.929
209,138.921,495.684
210,138.727,496.841
211,138.555,497.025
212,138.317,489.488
213,138.11,490.887
214,137.968,489.514
215,137.722,488.554
216,137.568,494.584
217,137.347,492.345
218,137.115,496.409
219,136.815,501.019
220,136.71,507.493
221,136.524,513.994
222,136.336,519.379
223,135.997,520.231
224,135.718,517.58
225,135.587,518.045
226,135.203,514.283
227,135.211,511.331
228,134.949,511.02
229,134.804,524.994
230,134.624,525.168
231,134.438,525.912
232,134.266,531.105
233,133.95,532.621
234,133.616,533.209
235,133.505,532.266
236,133.211,526.02
237,133.219,535.979
238,132.865,536.524
239,132.595,549.694
240,132.353,546.623
241,132.099,537.36
242,131.948,537.941
243,131.62,548.627
244,131.507,541.195
245,131.087,553.317
246,131.069,546.864
247,130.848,548.422
248,130.551,547.913
249,130.295,552.061
250,130.039,555.266
251,129.836,553.327
252,129.637,565.31
253,129.33,565.623
254,129.092,562.423
255,128.977,572.318
256,128.702,582.345
257,128.444,581.829
258,128.245,582.335
259,128.141,582.058
260,127.728,578.477
261,127.607,579.179
262,127.284,585.6
263,126.993,579.438
264,126.726,593.193
265,126.621,596.656
266,126.276,594.563
267,126.076,597.668
268,125.612,598.56
269,125.5336,589.286
270,125.26,594.998
271,124.934,598.488
272,124.835,602.145
273,124.608,605.3336
274,124.363,612.734
275,124.201,608.952
276,123.889,607.855
277,123.617,597.15
278,123.266,608.328
279,123.328,610.555
280,122.88,620.448
281,122.361,617.369
282,122.389,622.248
283,122.041,609.667
284,121.763,611.229
285,121.424,610.334
286,121.171,623.88
287,121.01,620.368
288,120.583,612.976
289,120.57,611.337
290,120.382,611.549
291,120.062,612.228
292,119.927,621.555
293,119.566,611.225
294,119.358,605.458
295,119.19,612.724
296,118.731,618.136
297,118.401,623.678
298,118.265,617.075
299,118.214,617.517
300,117.774,631.677
301,117.546,621.978
302,117.286,621.61
303,117.216,617.081
304,116.636,633.397
305,116.624,627.488
306,116.322,630.175
307,115.986,625.329
308,115.531,642.872
309,115.536,643.875
310,115.253,633.763
311,114.89,642.622
312,114.671,639.933
313,114.341,645.074
314,114.146,641.501
315,113.846,646.55
316,113.793,644.315
317,113.308,649.741
318,113.066,645.054
319,112.88,641.729
320,112.611,649.748
321,112.369,646.5995
322,111.93,641.269
323,111.801,653.231
324,111.708,656.416
325,111.37,652.451
326,111.049,649.137
327,110.617,649.25
328,110.318,654.855
329,110.3,652.015
330,109.8,649.198
331,109.7,649.831
332,109.422,651.606
333,109.081,652.137
334,108.866,652.344
335,108.676,646.468
336,108.483,651.234
337,108.053,660.2743
338,107.717,658.191
339,107.424,654.424
340,107.326,668.809
341,107.016,671.013
342,106.744,668.419
343,106.347,672.093
344,106.155,686.282
345,105.801,683.141
346,105.544,678.021
347,105.173,689.959
348,104.972,692.725
349,104.775,680.52
350,104.402,702.32
351,104.199,713.544
352,103.817,710.294
353,103.453,701.162
354,103.184,706.015
355,102.91,706.502
356,102.649,700.234
357,102.368,694.653
358,102.327,700.326
359,101.901,698.049
360,101.476,695.455
361,101.203,702.806
362,100.954,706.205
363,100.731,704.514
364,100.537,712.597
365,100.038,711.906
366,99.8059,705.703
367,99.3763,721.491
368,99.1139,716.135
369,98.9161,707.745
370,98.7709,710.248
371,98.4245,679.787
372,98.0201,718.257
373,97.8629,714.592
374,97.415,704.426
375,97.3807,709.942
376,96.9504,700.693
377,96.6132,711.007
378,96.2732,709.224
379,96.0867,685.139
380,95.7708,697.748
381,95.5025,690.783
382,95.1946,686.338
383,94.9959,686.752
384,94.7417,679.496
385,94.4442,667.022
386,94.0316,664.582
387,93.7067,653.504
388,93.4596,645.445
389,93.4014,644.966
390,93.2036,630.164
391,92.8576,628.2
392,92.5032,631.776
393,92.4231,621.724
394,92.0108,624.109
395,91.8444,609.524
396,91.6512,610.477
397,91.2792,612.666
398,91.0047,607.639
399,90.9554,606.51
400,90.5872,607.393
401,90.339,591.671
402,89.995,592.862
403,90.0072,590.24
404,89.7475,577.976
405,89.3176,575.141
406,89.1779,578.204
407,89.0094,575.335
408,88.7964,552.533
409,88.3324,534.995
410,88.3033,522.386
411,88.0447,500.002
412,87.8872,482.028
413,87.7246,472.154
414,87.5109,462.061
415,87.3321,425.416
416,87.4197,394.536
417,87.1168,369.779
418,87.1433,345.804
419,86.9393,313.162
420,86.7176,291.387
421,86.7298,264.519
422,86.5445,244.104
423,86.4692,232.48
424,86.4159,213.833
425,86.3986,205.194
426,86.3693,191.705
427,86.3189,171.569
428,86.1276,166.03
429,86.0546,151.609
430,85.9607,127.187
431,85.9204,114.25
432,85.9365,93.9031
433,85.9003,76.3847
434,86.0647,66.8673
435,85.8311,58.62855
436,85.8119,49.6226
437,85.8163,37.2197
438,85.8276,27.8339
439,86.0736,20.6275
440,85.9616,17.0277
441,85.9762,11.5044
442,86.0103,5.511624
443,85.7899,1.655519
444,85.9994,0.254516
445,85.9388,-0.63939
446,85.7046,-2.634313
447,85.786,-2.823761
448,86.0783,-1.145777
449,85.8688,-1.77291
450,85.8023,-2.505534
451,86.0509,-2.402341
452,85.9467,-1.320931
453,85.8087,-1.43777
454,85.9392,-0.996564
455,85.7977,-0.954844
456,85.9764,-0.189459
457,85.9856,-1.168966
458,86.0162,1.478425
459,85.9543,0.10691
460,85.7456,1.571055
461,85.9194,1.634795
462,85.8993,1.165028
463,85.7636,-0.336011
464,85.8968,0.876984
465,85.7339,1.244035
466,85.9426,0.820338
467,85.8679,1.652799
468,85.99,0.865289
469,86.035,1.054453
470,85.8934,1.762658
471,85.8347,1.293887
472,85.9428,2.046052
473,86.0218,1.948379
474,85.7427,0.416004
475,86.1178,0.969181
476,85.9446,0.989246
477,85.8573,0.208811
478,85.9584,1.100236
479,85.7864,-0.500665
480,86.0578,-0.717371
481,85.7274,0.897413
482,85.8706,1.220931
483,86.0147,1.050368
484,85.9563,0.509219
485,85.8541,0.621232
486,85.9557,-0.827151
487,85.9417,2.323899
488,85.9024,2.05852
489,85.8351,1.665973
490,85.9869,-0.988615
491,85.8631,1.00856
492,85.9095,-0.573165
493,85.9438,1.617935
494,85.7443,0.916104
495,85.727,-0.11841
496,85.9563,1.017003
497,85.7847,0.520159
498,85.7997,0.46263
499,85.7924,0.502772
500,86.0322,1.053871
501,85.8355,0.087469
502,85.7696,-1.787376
503,85.9283,-0.981273
504,85.8033,-1.622386
505,86.0496,-0.236797
506,85.8198,0.59972
507,85.9618,-2.108449
508,85.9472,5.693605
509,85.9754,-1.210067
510,85.9994,2.531994
511,85.8706,0.824678
512,86.009,1.08346
513,85.9503,0.624221
514,85.8274,0.553465
515,85.957,0.33064
516,85.8474,0.306587
517,85.9683,0.594106
518,86.0243,2.412536
519,85.9168,-0.308453
520,85.9854,-0.026917
521,85.746,-0.144148
522,85.8825,0.738126
523,85.9332,-1.017588
524,85.8171,-1.100294
525,85.9352,0.404338
526,85.9089,0.051931
527,85.8572,0.416444
528,85.8236,2.101232
529,85.9309,2.548539
530,85.9618,0.67275
531,85.9118,0.859273
532,85.7732,1.137025
533,85.9584,0.194208
534,85.8842,-1.348879
535,85.9603,0.959973
536,85.869,0.956252
537,86.0661,0.804842
538,85.8618,-0.329754
539,85.9143,1.0902
540,85.7828,0.78456
541,85.9064,0.897978
542,85.9988,1.000468
543,85.8372,0.967197
544,85.7736,-0.095588
545,85.8907,-1.470884
546,85.8497,0.416724
547,85.9185,-0.071637
548,85.7822,1.41601
549,85.8884,1.150921
550,85.8861,1.701632
551,85.8343,1.293755
552,85.8547,2.746534
553,85.9124,2.206056
554,86.0138,1.254059
555,85.825,5.957042
556,85.7609,4.007547
557,85.9417,1.888915
558,85.8518,2.293431
559,85.9877,1.321874
560,85.9214,2.374902
561,85.8033,0.421954
562,85.9729,0.902883
563,85.9102,1.043021
564,85.8297,1.822919
565,85.9511,1.809289
566,85.8851,1.057454
567,85.9074,1.624176
568,85.8978,1.459864
569,85.8803,1.438236
570,85.8382,2.098709
571,85.671,0.957858
572,85.8612,0.835254
573,85.9766,1.719624
574,86.0036,1.044438
575,85.6691,-0.046026
576,85.7998,1.265472
577,85.8673,0.534981
578,85.8447,0.093137
579,85.7699,1.444538
580,85.9607,1.960279
581,85.9641,-0.344013
582,85.9009,0.297707
583,85.8261,0.470696
584,85.779,0.23392
585,85.8725,-1.303099
586,85.7584,-0.316336
587,85.8761,-0.67802
588,85.8023,-1.717098
589,85.9541,-0.392823
590,85.9033,-0.595557
591,86.0586,0.333463
592,85.8583,-0.676362
593,85.7548,1.314985
594,85.9175,0.985533
595,85.9047,1.82502
596,85.9486,0.551717
597,85.9495,-1.569245
598,85.8345,-0.189522
599,85.7573,2.243008
600,85.9043,0.766382