File: PMMA/Calibration_Data/NIST/NIST_TGA_N2_10K_5.csv
Time,Temperature,Mass
[s],[K],[mg]
0,303.147,5.56025
50.9274,304.147,5.56069
63.192,305.147,5.55999
72.0282,306.147,5.56078
79.2792,307.147,5.55829
85.6122,308.147,5.56083
91.3362,309.147,5.5598
96.6348,310.147,5.56078
101.6256,311.147,5.56054
106.3812,312.147,5.55941
110.9616,313.147,5.56162
115.4046,314.147,5.56134
119.739,315.147,5.56028
123.9948,316.147,5.56066
128.1996,317.147,5.56015
132.369,318.147,5.55989
136.5114,319.147,5.56068
140.6406,320.147,5.55997
144.7686,321.147,5.5605
148.9086,322.147,5.56045
153.066,323.147,5.55892
157.254,324.147,5.56159
161.4798,325.147,5.56198
165.7518,326.147,5.56089
170.073,327.147,5.56049
174.4494,328.147,5.56282
178.8876,329.147,5.5617
183.3948,330.147,5.56161
187.977,331.147,5.56144
192.636,332.147,5.5616
197.3772,333.147,5.56026
202.1934,334.147,5.56159
207.0852,335.147,5.56329
212.0556,336.147,5.56327
217.1112,337.147,5.56333
222.2424,338.147,5.56193
227.4396,339.147,5.56193
232.7016,340.147,5.56234
238.023,341.147,5.56227
243.3954,342.147,5.56324
248.817,343.147,5.56218
254.2734,344.147,5.55921
259.7664,345.147,5.55925
265.2888,346.147,5.55972
270.8322,347.147,5.56059
276.3972,348.147,5.56059
281.9694,349.147,5.56059
287.5554,350.147,5.56094
293.1492,351.147,5.55958
298.7496,352.147,5.56059
304.353,353.147,5.56129
309.9648,354.147,5.56059
315.5814,355.147,5.5606
321.204,356.147,5.56059
326.8332,357.147,5.55925
332.4756,358.147,5.55972
338.1252,359.147,5.5591
343.7856,360.147,5.55925
349.4604,361.147,5.55791
355.155,362.147,5.55922
360.8694,363.147,5.55922
366.5988,364.147,5.55925
372.3474,365.147,5.55791
378.1206,366.147,5.55875
383.9166,367.147,5.55925
389.7318,368.147,5.55924
395.5734,369.147,5.55791
401.4372,370.147,5.55791
407.3178,371.147,5.55657
413.2188,372.147,5.55791
419.1366,373.147,5.55929
425.0772,374.147,5.55926
431.0346,375.147,5.55768
437.0058,376.147,5.55422
442.9974,377.147,5.55422
448.9944,378.147,5.55519
454.9938,379.147,5.55467
461.01,380.147,5.5539
467.0418,381.147,5.55255
473.0814,382.147,5.55389
479.1264,383.147,5.55389
485.1852,384.147,5.55344
491.2452,385.147,5.55209
497.298,386.147,5.5521
503.3502,387.147,5.55344
509.397,388.147,5.5511
515.4414,389.147,5.55244
521.481,390.147,5.55115
527.5092,391.147,5.55109
533.5356,392.147,5.55111
539.5656,393.147,5.55108
545.5842,394.147,5.54996
551.5872,395.147,5.54861
557.5854,396.147,5.54995
563.5854,397.147,5.55009
569.583,398.147,5.55142
575.5728,399.147,5.5501
581.5524,400.147,5.55005
587.5272,401.147,5.55144
593.5068,402.147,5.55247
599.4864,403.147,5.55277
605.46,404.147,5.55141
611.4234,405.147,5.55244
617.3898,406.147,5.55143
623.3598,407.147,5.5529
629.3214,408.147,5.55255
635.2782,409.147,5.55117
641.235,410.147,5.54987
647.1936,411.147,5.5497
653.154,412.147,5.54987
659.115,413.147,5.54985
665.0796,414.147,5.54853
671.0472,415.147,5.54987
677.0154,416.147,5.5499
682.9824,417.147,5.54853
688.953,418.147,5.54718
694.9302,419.147,5.5472
700.9044,420.147,5.54686
706.8762,421.147,5.54719
712.842,422.147,5.54584
718.8132,423.147,5.54686
724.7916,424.147,5.54686
730.77,425.147,5.54552
736.7508,426.147,5.54318
742.7304,427.147,5.54284
748.7124,428.147,5.5415
754.6956,429.147,5.5405
760.6848,430.147,5.53916
766.671,431.147,5.5388
772.6578,432.147,5.53689
778.6572,433.147,5.53614
784.6578,434.147,5.53614
790.6542,435.147,5.5348
796.6512,436.147,5.53242
802.65,437.147,5.53212
808.6482,438.147,5.53077
814.6488,439.147,5.53078
820.659,440.147,5.52942
826.6692,441.147,5.52808
832.6776,442.147,5.52676
838.6848,443.147,5.52541
844.6968,444.147,5.52391
850.7124,445.147,5.52395
856.7304,446.147,5.52129
862.7484,447.147,5.51999
868.7664,448.147,5.51861
874.785,449.147,5.51593
880.8102,450.147,5.51459
886.8324,451.147,5.51191
892.8498,452.147,5.51056
898.8666,453.147,5.50918
904.8828,454.147,5.50514
910.896,455.147,5.50265
916.9086,456.147,5.50096
922.9224,457.147,5.49829
928.9368,458.147,5.49552
934.9512,459.147,5.49167
940.9602,460.147,5.48871
946.9728,461.147,5.48467
952.9878,462.147,5.48194
958.9998,463.147,5.47941
965.01,464.147,5.47669
971.0202,465.147,5.47147
977.0352,466.147,5.46853
983.0436,467.147,5.46558
989.0502,468.147,5.46389
995.0604,469.147,5.4602
1001.073,470.147,5.4585
1007.09,471.147,5.45711
1013.112,472.147,5.45315
1019.127,473.147,5.45107
1025.136,474.147,5.44775
1031.15,475.147,5.44647
1037.17,476.147,5.44106
1043.19,477.147,5.43971
1049.21,478.147,5.43955
1055.23,479.147,5.43435
1061.24,480.147,5.43293
1067.25,481.147,5.43253
1073.27,482.147,5.42896
1079.292,483.147,5.42662
1085.31,484.147,5.42474
1091.32,485.147,5.4212
1097.337,486.147,5.41981
1103.36,487.147,5.41811
1109.379,488.147,5.41547
1115.4,489.147,5.41278
1121.41,490.147,5.41144
1127.43,491.147,5.41009
1133.448,492.147,5.40743
1139.47,493.147,5.40666
1145.49,494.147,5.40509
1151.51,495.147,5.40374
1157.52,496.147,5.40341
1163.54,497.147,5.40091
1169.556,498.147,5.39972
1175.58,499.147,5.40104
1181.601,500.147,5.40039
1187.63,501.147,5.40039
1193.65,502.147,5.40015
1199.68,503.147,5.39905
1205.71,504.147,5.39771
1211.74,505.147,5.39637
1217.775,506.147,5.39775
1223.81,507.147,5.39771
1229.84,508.147,5.39905
1235.87,509.147,5.39511
1241.9,510.147,5.39503
1247.93,511.147,5.39503
1253.96,512.147,5.39368
1259.991,513.147,5.39267
1266.02,514.147,5.39369
1272.05,515.147,5.39301
1278.08,516.147,5.39369
1284.11,517.147,5.39235
1290.14,518.147,5.3917
1296.168,519.147,5.39057
1302.2,520.147,5.39168
1308.23,521.147,5.39034
1314.26,522.147,5.38966
1320.28,523.147,5.38833
1326.3,524.147,5.38766
1332.321,525.147,5.38729
1338.33,526.147,5.38699
1344.35,527.147,5.38629
1350.37,528.147,5.38532
1356.38,529.147,5.38498
1362.38,530.147,5.38289
1368.39,531.147,5.3816
1374.399,532.147,5.38045
1380.41,533.147,5.37895
1386.41,534.147,5.37895
1392.41,535.147,5.37862
1398.42,536.147,5.37691
1404.42,537.147,5.37501
1410.43,538.147,5.37259
1416.43,539.147,5.37126
1422.444,540.147,5.36987
1428.46,541.147,5.37092
1434.47,542.147,5.36824
1440.48,543.147,5.36422
1446.49,544.147,5.36289
1452.51,545.147,5.36154
1458.52,546.147,5.35882
1464.54,547.147,5.35592
1470.56,548.147,5.3535
1476.58,549.147,5.35216
1482.61,550.147,5.34948
1488.63,551.147,5.34777
1494.65,552.147,5.34413
1500.67,553.147,5.34134
1506.7,554.147,5.33831
1512.72,555.147,5.33575
1518.75,556.147,5.33131
1524.78,557.147,5.32748
1530.8,558.147,5.32438
1536.813,559.147,5.31982
1542.83,560.147,5.31661
1548.86,561.147,5.31188
1554.87,562.147,5.30849
1560.88,563.147,5.30336
1566.89,564.147,5.29798
1572.9,565.147,5.29346
1578.9,566.147,5.28824
1584.92,567.147,5.28261
1590.92,568.147,5.27701
1596.93,569.147,5.27061
1602.94,570.147,5.26694
1608.948,571.147,5.26135
1614.96,572.147,5.25607
1620.97,573.147,5.25074
1626.98,574.147,5.24354
1632.99,575.147,5.23766
1639,576.147,5.23248
1645.01,577.147,5.22465
1651.02,578.147,5.21704
1657.02,579.147,5.21223
1663.03,580.147,5.20393
1669.03,581.147,5.19834
1675.04,582.147,5.19179
1681.04,583.147,5.18133
1687.04,584.147,5.17453
1693.04,585.147,5.16814
1699.05,586.147,5.15826
1705.05,587.147,5.14894
1711.04,588.147,5.13962
1717.04,589.147,5.12837
1723.05,590.147,5.11928
1729.05,591.147,5.10921
1735.06,592.147,5.09653
1741.06,593.147,5.08376
1747.08,594.147,5.07154
1753.101,595.147,5.05874
1759.12,596.147,5.04689
1765.15,597.147,5.03125
1771.17,598.147,5.01397
1777.2,599.147,4.99682
1783.24,600.147,4.97968
1789.27,601.147,4.95934
1795.31,602.147,4.93859
1801.353,603.147,4.91766
1807.41,604.147,4.8951
1813.45,605.147,4.86959
1819.5,606.147,4.84183
1825.55,607.147,4.814
1831.59,608.147,4.78433
1837.638,609.147,4.75286
1843.68,610.147,4.71951
1849.73,611.147,4.68457
1855.77,612.147,4.6467
1861.81,613.147,4.60868
1867.87,614.147,4.56735
1873.914,615.147,4.52424
1879.96,616.147,4.47558
1886,617.147,4.42707
1892.046,618.147,4.37463
1898.09,619.147,4.32261
1904.12,620.147,4.26478
1910.16,621.147,4.20413
1916.19,622.147,4.14179
1922.22,623.147,4.0771
1928.24,624.147,4.00934
1934.27,625.147,3.94105
1940.29,626.147,3.86509
1946.31,627.147,3.79067
1952.32,628.147,3.71229
1958.33,629.147,3.63213
1964.34,630.147,3.54785
1970.34,631.147,3.46429
1976.34,632.147,3.37512
1982.33,633.147,3.28677
1988.32,634.147,3.19466
1994.31,635.147,3.10127
2000.283,636.147,3.006
2006.25,637.147,2.91012
2012.22,638.147,2.81165
2018.18,639.147,2.71603
2024.13,640.147,2.61873
2030.08,641.147,2.52407
2036.03,642.147,2.42468
2041.974,643.147,2.32814
2047.92,644.147,2.22948
2053.872,645.147,2.13489
2059.82,646.147,2.03624
2065.76,647.147,1.94314
2071.704,648.147,1.84602
2077.65,649.147,1.7538
2083.59,650.147,1.66002
2089.527,651.147,1.57224
2095.46,652.147,1.48112
2101.4,653.147,1.39558
2107.33,654.147,1.31278
2113.26,655.147,1.23218
2119.194,656.147,1.15264
2125.13,657.147,1.07851
2131.062,658.147,1.00719
2137,659.147,0.937048
2142.95,660.147,0.870843
2148.9,661.147,0.807849
2154.85,662.147,0.750685
2160.81,663.147,0.692207
2166.77,664.147,0.641616
2172.74,665.147,0.591004
2178.71,666.147,0.545589
2184.69,667.147,0.501445
2190.68,668.147,0.461697
2196.675,669.147,0.424832
2202.681,670.147,0.388958
2208.693,671.147,0.3554786
2214.72,672.147,0.326696
2220.747,673.147,0.30033
2226.78,674.147,0.273828
2232.82,675.147,0.25075
2238.86,676.147,0.228415
2244.9,677.147,0.210411
2250.94,678.147,0.193025
2256.99,679.147,0.176309
2263.044,680.147,0.161733
2269.1,681.147,0.149204
2275.15,682.147,0.137835
2281.22,683.147,0.128732
2287.29,684.147,0.119744
2293.35,685.147,0.112627
2299.413,686.147,0.104132
2305.46,687.147,0.0972155
2311.51,688.147,0.0912579
2317.55,689.147,0.0858003
2323.587,690.147,0.081623
2329.62,691.147,0.07634158
2335.65,692.147,0.072796
2341.683,693.147,0.0701016
2347.71,694.147,0.0671281
2353.737,695.147,0.0650564
2359.77,696.147,0.0608937
2365.794,697.147,0.0585262
2371.83,698.147,0.0568643
2377.86,699.147,0.0555133
2383.89,700.147,0.0541716
2389.92,701.147,0.0533349
2395.95,702.147,0.0514928
2401.97,703.147,0.0505004
2407.99,704.147,0.0518587
2413.98,705.147,0.05046256
2419.96,706.147,0.0491465
2425.96,707.147,0.0478065
2431.97,708.147,0.04647604
2437.977,709.147,0.0451355
2443.99,710.147,0.0451822
2450.01,711.147,0.0444661
2456.034,712.147,0.04446
2462.08,713.147,0.0454758
2468.14,714.147,0.0465928
2474.19,715.147,0.0468158
2480.23,716.147,0.0463571
2486.25,717.147,0.0468057
2492.27,718.147,0.0464605
2498.28,719.147,0.0451344
2504.29,720.147,0.04458842
2510.304,721.147,0.0454652
2516.3,722.147,0.0441258
2522.3,723.147,0.0438006
2528.3,724.147,0.04513608
2534.3,725.147,0.0464827
2540.301,726.147,0.0454669
2546.29,727.147,0.0454658
2552.28,728.147,0.0454658
2558.271,729.147,0.0454658
2564.26,730.147,0.0454658
2570.25,731.147,0.0454658
2576.24,732.147,0.0454658
2582.23,733.147,0.0454658
2588.22,734.147,0.04412694
2594.2,735.147,0.0454647
2600.18,736.147,0.0427892
2606.16,737.147,0.0441264
2612.14,738.147,0.0427419
2618.13,739.147,0.0442109
2624.12,740.147,0.0438022
2630.11,741.147,0.041779
2636.1,742.147,0.04312614
2642.091,743.147,0.04312614
2648.09,744.147,0.0431267
2654.091,745.147,0.04451892
2660.09,746.147,0.04587278
2666.1,747.147,0.04452
2672.11,748.147,0.0411184
2678.124,749.147,0.0437622
2684.13,750.147,0.0459039
2690.14,751.147,0.0449754
2696.145,752.147,0.0442165
2702.157,753.147,0.0442459
2708.17,754.147,0.0442459
2714.18,755.147,0.0445156
2720.19,756.147,0.0445762
2726.21,757.147,0.0445762
2732.22,758.147,0.0458939
2738.232,759.147,0.0431801
2744.24,760.147,0.043249
2750.26,761.147,0.0445762
2756.26,762.147,0.0438261
2762.26,763.147,0.0437244
2768.26,764.147,0.0432362
2774.26,765.147,0.0443916
2780.26,766.147,0.0445762
2786.259,767.147,0.0445762
2792.26,768.147,0.0438623
2798.26,769.147,0.0449615
2804.25,770.147,0.0435759
2810.24,771.147,0.0461747
2816.23,772.147,0.0459067
2822.21,773.147,0.0432379
2828.19,774.147,0.0459161
2834.187,775.147,0.0473156
2840.18,776.147,0.047245
2846.181,777.147,0.0462331
2852.17,778.147,0.0449059
2858.17,779.147,0.0435982
2864.17,780.147,0.0432362
2870.16,781.147,0.0446907
2876.15,782.147,0.0460262
2882.15,783.147,0.0460279
2888.14,784.147,0.0446902
2894.13,785.147,0.0446957
2900.12,786.147,0.0446957
2906.11,787.147,0.0460251
2912.1,788.147,0.0473595
2918.1,789.147,0.0460279
2924.11,790.147,0.04602846
2930.12,791.147,0.04496094
2936.121,792.147,0.04475244
2942.124,793.147,0.0459306
2948.13,794.147,0.0462592
2954.13,795.147,0.04469684
2960.14,796.147,0.0447713
2966.145,797.147,0.0459806
2972.15,798.147,0.0446874
2978.157,799.147,0.0460268
2984.16,800.147,0.0446863
2990.17,801.147,0.04603124
2996.16,802.147,0.0460368
3002.16,803.147,0.0460296
3008.16,804.147,0.0436732
3014.16,805.147,0.043686
3020.16,806.147,0.043686
3026.17,807.147,0.043686
3032.17,808.147,0.043686
3038.169,809.147,0.043686
3044.166,810.147,0.045041
3050.17,811.147,0.0453557
3056.17,812.147,0.04602568
3062.16,813.147,0.04335966
3068.16,814.147,0.04468572
3074.15,815.147,0.0460046
3080.151,816.147,0.0460296
3086.15,817.147,0.0446846
3092.15,818.147,0.0470259
3098.15,819.147,0.0470259
3104.16,820.147,0.0456876
3110.18,821.147,0.045686
3116.187,822.147,0.045686
3122.2,823.147,0.0456876
3128.21,824.147,0.0470259
3134.22,825.147,0.0463526
3140.229,826.147,0.0463559
3146.24,827.147,0.0463804
3152.25,828.147,0.0477832
3158.27,829.147,0.0461169
3164.28,830.147,0.045686
3170.29,831.147,0.045686
3176.313,832.147,0.04524172
3182.33,833.147,0.0466973
3188.337,834.147,0.0453457
3194.34,835.147,0.0453312
3200.35,836.147,0.0466962
3206.36,837.147,0.0466962
3212.37,838.147,0.0453518
3218.38,839.147,0.0453563
3224.38,840.147,0.0453557
3230.39,841.147,0.0460262
3236.39,842.147,0.0460262
3242.38,843.147,0.0446868
3248.38,844.147,0.0446863
3254.38,845.147,0.0446863
3260.39,846.147,0.0446863
3266.403,847.147,0.0446863
3272.42,848.147,0.0446863
3278.44,849.147,0.0446863
3284.463,850.147,0.0446863
3290.48,851.147,0.0446863
3296.5,852.147,0.04469684
3302.505,853.147,0.0460235
3308.51,854.147,0.0473634
3314.52,855.147,0.04566428
3320.52,856.147,0.045696
3326.53,857.147,0.0457104
3332.54,858.147,0.0456493
3338.55,859.147,0.0456882
3344.553,860.147,0.0466962
3350.56,861.147,0.0466879
3356.58,862.147,0.0466962
3362.59,863.147,0.0466962
3368.6,864.147,0.0480456
3374.62,865.147,0.0466962
3380.64,866.147,0.0453568
3386.64,867.147,0.0453563
3392.65,868.147,0.0467029
3398.655,869.147,0.0466951
3404.66,870.147,0.0454096
3410.68,871.147,0.0471199
3416.7,872.147,0.0480362
3422.72,873.147,0.0480362
3428.73,874.147,0.0480362
3434.742,875.147,0.048034
3440.75,876.147,0.0466918
3446.76,877.147,0.0476959
3452.76,878.147,0.0463532
3458.77,879.147,0.0477704
3464.77,880.147,0.047121
3470.77,881.147,0.0470259
3476.76,882.147,0.0470259
3482.75,883.147,0.0470509
3488.74,884.147,0.0476959
3494.73,885.147,0.0476959
3500.733,886.147,0.0490292
3506.736,887.147,0.0462748
3512.73,888.147,0.0463615
3518.706,889.147,0.0463559
3524.66,890.147,0.0464243
3530.59,891.147,0.0460262
3536.56,892.147,0.0460262
3542.56,893.147,0.0460262
3548.57,894.147,0.04600622
3554.574,895.147,0.0476959
3560.58,896.147,0.0490398
3566.58,897.147,0.0483842
3572.58,898.147,0.0483575
3578.577,899.147,0.0470259
3584.58,900.147,0.0470259
3590.59,901.147,0.0462853
3596.59,902.147,0.0463559
3602.6,903.147,0.0463559
3608.61,904.147,0.04635372
3614.62,905.147,0.047806
3620.63,906.147,0.04653998
3626.64,907.147,0.04517
3632.64,908.147,0.046466
3638.64,909.147,0.0471166
3644.637,910.147,0.0464749
3650.64,911.147,0.0474757
3656.631,912.147,0.0474757
3662.62,913.147,0.0480139
3668.62,914.147,0.0474229
3674.616,915.147,0.0474757
3680.61,916.147,0.0474757
3686.586,917.147,0.04650106
3692.55,918.147,0.0463031
3698.52,919.147,0.04658
3704.51,920.147,0.0488051
3710.51,921.147,0.0474757
3716.51,922.147,0.0488902
3722.51,923.147,0.0467501
3728.52,924.147,0.0468057
3734.54,925.147,0.0467996
3740.54,926.147,0.0454658
3746.55,927.147,0.046183
3752.56,928.147,0.046466
3758.58,929.147,0.046466
3764.604,930.147,0.0466623
3770.62,931.147,0.0454647
3776.64,932.147,0.0462453
3782.66,933.147,0.0461358
3788.67,934.147,0.0461358
3794.66,935.147,0.0461358
3800.66,936.147,0.0448853
3806.658,937.147,0.0465183
3812.65,938.147,0.0478065
3818.65,939.147,0.0468052
3824.655,940.147,0.0468057
3830.65,941.147,0.0482447
3836.652,942.147,0.0470743
3842.65,943.147,0.047136
3848.65,944.147,0.0468035
3854.65,945.147,0.0474746
3860.637,946.147,0.0474757
3866.63,947.147,0.04743792
3872.64,948.147,0.04747684
3878.63,949.147,0.048898
3884.63,950.147,0.0465789
3890.628,951.147,0.04657612
3896.63,952.147,0.0452378
3902.62,953.147,0.046575
3908.619,954.147,0.0468864
3914.62,955.147,0.0469158
3920.61,956.147,0.0469158
3926.61,957.147,0.0469158
3932.61,958.147,0.0469158
3938.63,959.147,0.0472461
3944.64,960.147,0.0472444
3950.64,961.147,0.0499143
3956.649,962.147,0.04858606
3962.66,963.147,0.0485872
3968.658,964.147,0.0495963
3974.66,965.147,0.0482491
3980.66,966.147,0.0478699
3986.66,967.147,0.0471505
3992.67,968.147,0.0482658
3998.67,969.147,0.0482658
4004.65,970.147,0.0499794
4010.64,971.147,0.049608
4016.619,972.147,0.0482919
4022.6,973.147,0.04826358
4028.58,974.147,0.0496058
4034.57,975.147,0.0496597
4040.56,976.147,0.04681242
4046.556,977.147,0.0481852
4052.56,978.147,0.045582
4058.553,979.147,0.0502641
4064.55,980.147,0.0499444
4070.54,981.147,0.0499355
4076.53,982.147,0.0485961
4082.517,983.147,0.0492605
4088.51,984.147,0.049266
4094.5,985.147,0.049266
4100.49,986.147,0.0479283
4106.48,987.147,0.0482658
4112.47,988.147,0.0482658
4118.47,989.147,0.0469258
4124.47,990.147,0.0472494
4130.47,991.147,0.0482658
4136.47,992.147,0.0479266
4142.48,993.147,0.0456776
4148.49,994.147,0.0469258
4154.5,995.147,0.0469258
4160.52,996.147,0.0469258
4166.526,997.147,0.0469258
4172.538,998.147,0.0469253
4178.55,999.147,0.0469247
4184.56,1000.147,0.0454769
4190.58,1001.147,0.0469008
4196.61,1002.147,0.0467696
4202.631,1003.147,0.0481535
4208.65,1004.147,0.0480984
4214.67,1005.147,0.0457104
4220.68,1006.147,0.047136
4226.68,1007.147,0.044326
4232.69,1008.147,0.04445776
4238.69,1009.147,0.0464677
4244.7,1010.147,0.0480306
4250.7,1011.147,0.0482558
4256.7,1012.147,0.04825802
4262.72,1013.147,0.0455781
4268.73,1014.147,0.0469158
4274.727,1015.147,0.0469158
4280.72,1016.147,0.0469158
4286.7,1017.147,0.0469158
4292.691,1018.147,0.0469158
4298.67,1019.147,0.0464977
4304.65,1020.147,0.0463598
4310.63,1021.147,0.0469158
4316.6,1022.147,0.0458539
4322.58,1023.147,0.0459273
4328.57,1024.147,0.0478082
4334.559,1025.147,0.04959798
4340.56,1026.147,0.0480312
4346.55,1027.147,0.0472561
4352.55,1028.147,0.047925
4358.56,1029.147,0.0479122
4364.56,1030.147,0.04797724
4370.55,1031.147,0.0472561
4376.54,1032.147,0.0471366
4382.53,1033.147,0.0459139
4388.53,1034.147,0.0459161
4394.53,1035.147,0.0452245
4400.53,1036.147,0.046292
4406.53,1037.147,0.0475858
4412.53,1038.147,0.0489313
4418.54,1039.147,0.0475625
4424.538,1040.147,0.0484243
4430.538,1041.147,0.04625086
4436.54,1042.147,0.0462459
4442.54,1043.147,0.046247
4448.553,1044.147,0.0475897
4454.56,1045.147,0.0464544
4460.55,1046.147,0.0474957
4466.54,1047.147,0.0464227
4472.52,1048.147,0.0452562
4478.5,1049.147,0.0452072
4484.48,1050.147,0.045259
4490.46,1051.147,0.0479272
4496.45,1052.147,0.0465861
4502.43,1053.147,0.0465778
4508.42,1054.147,0.0479228
4514.41,1055.147,0.0469142
4520.4,1056.147,0.0482558
4526.39,1057.147,0.0469158
4532.38,1058.147,0.0482397
4538.38,1059.147,0.0482558
4544.382,1060.147,0.0478944
4550.38,1061.147,0.0469175
4556.38,1062.147,0.0469286
4562.38,1063.147,0.0462459
4568.38,1064.147,0.0475919
4574.379,1065.147,0.0489258
4580.379,1066.147,0.047598
4586.38,1067.147,0.0482425
4592.38,1068.147,0.04858606
4598.38,1069.147,0.04858606
4604.39,1070.147,0.04858606
4610.39,1071.147,0.046585
4616.397,1072.147,0.0479166