File: PMMA/Calibration_Data/NIST/NIST_Cone_25kW_3.csv
Time,Mass,HRR
[s],[g],[kW/m2]
0,160.569,2.088128
1,160.406,0.887896
2,160.462,1.240884
3,160.628,2.418713
4,160.88,2.595659
5,160.692,2.707263
6,160.693,1.172552
7,160.823,0.999803
8,160.67,1.783289
9,160.685,0.39606
10,160.656,1.402808
11,160.743,1.542041
12,160.821,-0.24532
13,160.758,1.094911
14,160.624,1.293554
15,160.784,-0.251545
16,160.966,1.372353
17,160.902,2.114217
18,160.558,1.266802
19,160.684,-0.23646
20,160.665,2.053066
21,160.956,0.784348
22,160.724,-1.18821
23,160.719,-0.288033
24,161.033,-0.58965
25,160.879,-0.663353
26,160.784,-1.09388
27,160.903,-2.024904
28,161.06,0.212418
29,160.705,0.059424
30,160.846,-0.124717
31,161.194,1.282076
32,160.739,-0.000099
33,160.681,1.483866
34,160.649,1.705947
35,160.71,-0.373356
36,161.08,-0.870424
37,160.695,1.023831
38,160.712,0.93531
39,160.971,-0.341798
40,160.923,0.640502
41,160.738,0.288877
42,160.722,0.079798
43,160.792,-0.566247
44,161.088,0.831059
45,160.675,-0.400038
46,160.635,-0.625203
47,160.776,-0.624336
48,160.937,-2.299528
49,160.971,-1.800167
50,160.809,2.935657
51,160.797,-0.481062
52,160.777,-1.7066
53,160.957,1.43101
54,160.763,-0.370262
55,160.951,-0.712509
56,161.084,-0.726022
57,160.797,-0.458864
58,160.868,-0.083728
59,160.848,-0.36105
60,160.886,-0.133143
61,160.866,1.081681
62,160.787,1.149807
63,160.915,-0.317679
64,160.843,0.60224
65,161.043,-0.148004
66,160.686,0.598518
67,160.875,0.557239
68,160.703,-0.277877
69,161.018,1.082834
70,160.722,-1.332941
71,160.92,0.800881
72,160.841,2.60582
73,160.931,0.433659
74,160.725,-0.155519
75,160.517,1.003103
76,160.705,1.460335
77,160.837,-0.442906
78,160.721,-0.893903
79,160.779,-0.971122
80,160.654,0.348731
81,160.678,1.654359
82,160.727,0.470616
83,160.723,1.424847
84,160.847,0.524922
85,160.661,1.514519
86,160.757,4.480221
87,161.024,-0.090507
88,160.736,4.219724
89,160.663,-0.195975
90,160.724,2.5319
91,160.663,-0.084251
92,160.748,0.523112
93,160.821,1.673732
94,160.769,0.368313
95,160.572,0.806634
96,160.669,-0.550454
97,160.586,0.088794
98,160.609,-0.293621
99,160.727,-1.290204
100,160.685,-1.504178
101,160.827,-0.125454
102,160.67,0.426694
103,160.568,-0.299208
104,160.661,-0.104896
105,160.546,-0.590169
106,160.67,0.63824
107,160.565,5.148493
108,160.522,9.599345
109,160.675,18.41648
110,160.635,35.0054
111,160.467,50.1929
112,160.5,82.1026
113,160.325,109.902
114,160.258,139.82
115,160.198,158.464
116,159.94,156.29
117,159.844,178.883
118,159.785,186.731
119,159.912,215.106
120,159.682,236.781
121,159.672,247.708
122,159.672,308.06
123,159.354,307.854
124,158.986,314.562
125,159.106,320.714
126,159.088,335.379
127,158.838,344.393
128,158.652,370.882
129,158.532,374.376
130,158.2,383.045
131,158.15,380.123
132,157.988,384.189
133,157.84,390.719
134,157.595,395.017
135,157.383,399.509
136,157.457,395.562
137,157.184,394.137
138,157.036,391.065
139,156.736,394.234
140,156.815,395.13
141,156.446,401.037
142,156.315,404.504
143,156.191,402.091
144,156.004,403.196
145,155.891,402.29
146,155.768,402.232
147,155.446,401.584
148,155.352,400.815
149,155.18,405.046
150,155.119,408.709
151,154.853,409.764
152,154.681,410.007
153,154.517,411.112
154,154.36,410.393
155,154.11,415.458
156,154.147,419.948
157,154.048,418.07
158,153.813,418.791
159,153.466,419.364
160,153.416,421.652
161,153.122,420.314
162,152.797,416.543
163,152.784,419.001
164,152.561,420.446
165,152.508,424.317
166,152.255,421.106
167,152.073,425.003
168,152.117,425.116
169,151.855,433.586
170,151.595,429.805
171,151.446,433.415
172,151.269,422.671
173,150.912,431.273
174,150.98,429.269
175,150.6,426.249
176,150.493,424.94
177,150.427,428.144
178,150.085,438.583
179,149.995,429.269
180,149.936,442.6
181,149.678,430.856
182,149.371,404.854
183,149.132,444.848
184,149.313,432.927
185,148.887,403.856
186,148.689,426.624
187,148.538,442.188
188,148.274,449.041
189,148.059,446.25
190,147.924,437.419
191,147.829,440.61
192,147.598,436.792
193,147.312,446.088
194,147.211,446.666
195,146.95,448.405
196,146.87,455.153
197,146.734,448.409
198,146.558,448.804
199,146.078,443.736
200,146.176,444.703
201,145.884,447.71
202,145.75,458.14
203,145.646,454.517
204,145.349,462.724
205,145.091,472.973
206,144.965,465.222
207,144.908,464.088
208,144.514,466.611
209,144.32,462.586
210,144.283,465.139
211,144.154,464.336
212,143.882,466.334
213,143.683,472.186
214,143.394,471.201
215,143.211,462.061
216,142.841,474.394
217,143.005,469.711
218,142.557,477.529
219,142.398,475.263
220,142.352,475.69
221,141.938,478.603
222,141.964,488.36
223,141.69,490.883
224,141.485,490.241
225,141.316,482.138
226,141.035,492.397
227,140.941,489.348
228,140.671,490.753
229,140.381,490.346
230,140.273,501.994
231,140.116,494.547
232,139.631,494.032
233,139.641,487.667
234,139.386,495.866
235,139.167,503.937
236,138.945,503.992
237,138.768,510.718
238,138.665,512.13
239,138.42,514.737
240,138.174,513.381
241,137.976,513.29
242,137.86,513.183
243,137.431,509.861
244,137.386,520.763
245,137.018,519.196
246,136.85,514.629
247,136.732,519.089
248,136.549,515.845
249,136.376,526.927
250,136.053,535.906
251,135.816,533.064
252,135.465,530.298
253,135.274,530.204
254,135.095,533.021
255,134.843,535.907
256,134.567,535.63
257,134.48,535.216
258,134.332,535.437
259,134.133,544.472
260,133.746,536.353
261,133.528,544.732
262,133.318,538.846
263,133.178,542.745
264,132.85,552.315
265,132.644,547.938
266,132.619,549.196
267,132.276,563.062
268,132.003,559.889
269,131.606,554.081
270,131.561,550.913
271,131.382,557.736
272,130.926,558.644
273,130.901,555.429
274,130.451,552.331
275,130.334,557.635
276,130.186,564.362
277,129.937,570.615
278,129.6,571.373
279,129.387,572.997
280,129.204,578.82
281,129.085,576.371
282,128.628,568.515
283,128.48,572.441
284,128.043,580.574
285,127.987,574.33
286,127.759,563.097
287,127.292,577.316
288,127.157,592.255
289,127.025,592.837
290,126.758,590.933
291,126.592,588.814
292,126.329,591.397
293,125.952,592.096
294,125.79,592.16
295,125.393,602.494
296,125.365,602.753
297,125.108,602.496
298,124.857,605.604
299,124.499,604.935
300,124.423,613.469
301,123.935,605.916
302,123.713,602.742
303,123.521,609.115
304,123.275,610.241
305,123.021,610.083
306,122.894,599.714
307,122.618,613.746
308,122.231,605.997
309,121.995,595.241
310,121.84,603.219
311,121.636,605.447
312,121.179,606.677
313,120.881,597.294
314,120.769,608.1
315,120.507,619.589
316,120.418,621.039
317,120.072,618.658
318,119.742,618.088
319,119.423,626.616
320,119.188,619.716
321,118.976,622.711
322,118.621,621.913
323,118.557,622.216
324,118.076,626.238
325,117.802,627.469
326,117.634,625.502
327,117.31,622.023
328,117.29,632.638
329,116.964,638.13
330,116.781,628.312
331,116.519,621.449
332,116.114,617.82
333,115.87,620.737
334,115.606,635.952
335,115.313,645.61
336,114.989,652.874
337,114.882,651.585
338,114.591,649.222
339,114.182,660.053
340,113.982,655.718
341,113.707,657.3029
342,113.31,648.418
343,113.264,660.421
344,112.941,659.569
345,112.61,663.442
346,112.382,665.141
347,112.102,668.403
348,111.798,671.812
349,111.489,667.214
350,111.41,670.764
351,111.093,670.727
352,110.788,676.171
353,110.51,679.215
354,110.121,676.473
355,109.968,679.279
356,109.44,677.597
357,109.408,679.732
358,109.15,685.066
359,108.654,679.895
360,108.679,682.599
361,108.121,681.531
362,107.889,686.661
363,107.473,694.386
364,107.286,694.715
365,107.089,704.3387
366,106.738,699.865
367,106.389,712.15
368,106.124,701.479
369,105.95,705.282
370,105.468,692.485
371,105.296,685.716
372,105.002,683.958
373,104.777,694.395
374,104.437,702.099
375,104.176,699.488
376,103.932,692.388
377,103.509,687.641
378,103.303,685.76
379,103.148,715.85
380,102.767,717.068
381,102.466,708.646
382,102.056,705.521
383,101.859,707.372
384,101.525,720.646
385,101.072,718.662
386,100.86,706.134
387,100.583,710.597
388,100.31,717.707
389,100.021,722.494
390,99.6389,705.125
391,99.5138,712.181
392,99.2843,719.991
393,98.9092,711.452
394,98.6424,709.819
395,98.3243,702.497
396,98.1038,706.131
397,97.8179,714.968
398,97.4019,714.205
399,97.1652,702.887
400,97.037,690.75
401,96.7295,698.033
402,96.2849,696.727
403,96.0727,698.244
404,95.8306,689.221
405,95.4059,673.34
406,95.1563,662.382
407,94.8389,655.486
408,94.6472,652.64
409,94.4619,650.028
410,94.1604,654.074
411,93.8303,634.164
412,93.4652,639.224
413,93.4276,625.527
414,93.0075,626.379
415,92.7065,626.114
416,92.5482,617.29
417,92.461,619.473
418,92.0846,604.676
419,91.7836,603.862
420,91.6332,591.745
421,91.3629,599.869
422,91.2194,598.388
423,90.8335,590.649
424,90.5121,593.638
425,90.4728,585.482
426,90.2303,577.079
427,89.9028,563.963
428,89.7604,554.122
429,89.5323,535.222
430,89.2463,520.038
431,89.0368,508.61
432,88.9918,502.57
433,88.5438,491.252
434,88.4286,462.347
435,88.3671,450.682
436,88.2205,421.223
437,87.9516,392.356
438,87.9701,373.428
439,87.7024,342.631
440,87.7434,322.469
441,87.4975,298.114
442,87.2688,271.15
443,87.3821,264.147
444,87.131,240.802
445,86.9842,220.168
446,87.0365,208.817
447,86.9242,183.932
448,86.925,174.422
449,86.9597,159.006
450,86.8197,122.893
451,86.6641,107.464
452,86.7421,98.4871
453,86.6382,83.9969
454,86.7599,73.4649
455,86.7538,62.3556
456,86.6739,52.2276
457,86.6407,41.3113
458,86.7001,27.0581
459,86.5989,14.79
460,86.6697,11.2414
461,86.6342,8.980054
462,86.6815,-0.277904
463,86.647,-0.62816
464,86.7166,0.658392
465,86.7709,2.771044
466,86.6835,-1.144722
467,86.7124,-1.806557
468,86.6263,-2.711742
469,86.5188,-1.435144
470,86.579,-2.281325
471,86.5999,-2.927059
472,86.5171,-2.625805
473,86.6248,-0.607342
474,86.6583,-0.97201
475,86.7364,-0.743253
476,86.6942,-1.887057
477,86.7239,-1.051076
478,86.6603,0.146067
479,86.6631,-0.54472
480,86.5811,-2.627834
481,86.8395,-0.95117
482,86.6005,-0.506403
483,86.6365,-1.847568
484,86.8059,2.466489
485,86.5173,-7.605873
486,86.6639,-2.821883
487,86.6986,-1.656531
488,86.69,-1.173572
489,86.5874,-0.017419
490,86.7107,-0.449118
491,86.6785,-0.161288
492,86.7107,0.324472
493,86.7258,-0.135485
494,86.7011,0.117029
495,86.5872,0.466434
496,86.5253,2.242745
497,86.7444,-0.154535
498,86.7479,0.193794
499,86.5522,0.374352
500,86.5964,-1.300031
501,86.6135,-1.284459
502,86.4586,-1.138
503,86.7116,-0.153728
504,86.5754,1.162678
505,86.6445,-1.470653
506,86.6969,0.140989
507,86.7281,-3.367719
508,86.6007,-14.0436
509,86.6973,-0.043875
510,86.716,-0.095898
511,86.8144,-0.960967
512,86.7065,-0.312805
513,86.6394,-1.777693
514,86.5928,-0.37937
515,86.6507,0.909584
516,86.7617,-0.153802
517,86.5849,-0.343592
518,86.5638,-0.099643
519,86.7402,-0.781411
520,86.4592,0.284939
521,86.6911,0.321518
522,86.6445,1.350366
523,86.6974,0.720994
524,86.6411,1.814726
525,86.5228,0.185744
526,86.6127,-0.329899
527,86.6449,1.931543
528,86.9242,-0.278955
529,86.5951,1.032832
530,86.6658,1.286642
531,86.6077,0.871779
532,86.6058,0.673789
533,86.579,1.172533
534,86.5991,1.172069
535,86.7373,-0.207024
536,86.6881,-0.093564
537,86.5717,-0.537654
538,86.6674,-1.160495
539,86.7626,-1.284939
540,86.7003,-0.357078
541,86.6325,-0.048899
542,86.6879,0.191111
543,86.6639,1.60733
544,86.5673,1.354861
545,86.7103,0.949978
546,86.7459,0.749904
547,86.6095,-1.360222
548,86.5368,-0.019086
549,86.51,0.496715
550,86.6072,-0.188848
551,86.6181,-0.88147
552,86.7185,0.278265
553,86.7155,-0.339377
554,86.592,0.346791
555,86.5251,-0.84823
556,86.6378,0.785666
557,86.6697,0.401463
558,86.593,0.753883
559,86.8169,1.909626
560,86.7406,-1.825847
561,86.6764,9.863171
562,86.5368,-3.914626
563,86.7191,2.512251
564,86.7091,-2.789882
565,86.7484,0.133881
566,86.6951,-0.115889
567,86.5372,-0.985044
568,86.6994,0.885413
569,86.6758,-0.013164
570,86.6434,0.385933
571,86.6486,-1.289183
572,86.7181,0.481263
573,86.7645,0.472627
574,86.7019,0.996721
575,86.6217,0.361715
576,86.5612,1.171332
577,86.7038,0.301681
578,86.7887,0.407704
579,86.6992,0.424646
580,86.6562,0.960452
581,86.6716,1.068149
582,86.6396,-0.744747
583,86.6319,1.3731
584,86.6812,1.057917
585,86.6215,0.244545
586,86.5445,0.022281
587,86.5424,0.4473
588,86.5865,0.52325
589,86.6467,1.85207
590,86.7038,0.451257
591,86.606,0.286516
592,86.7429,0.406828
593,86.6476,0.591339
594,86.698,-1.790149
595,86.6398,5.667617
596,86.514,-9.752757
597,86.6921,-1.567578
598,86.4485,0.315428
599,86.7488,0.188109
600,86.8427,0.661885