File: PMMA/Calibration_Data/NIST/NIST_DSC_N2_10K_2.csv
Time,Temperature,Heat Flow
[s],[K],[mW/mg]
0,303.152,0.0007999447
50.7858,304.152,0.05594609
63.0384,305.152,0.09753636
71.862,306.152,0.13121
79.1082,307.152,0.15968
85.4244,308.152,0.18423
91.1388,309.152,0.20658
96.4278,310.152,0.22713
101.412,311.152,0.24564
106.1658,312.152,0.26225
110.7474,313.152,0.27791
115.1934,314.152,0.29222
119.5344,315.152,0.3049
123.7974,316.152,0.31678
128.0034,317.152,0.3273
132.1722,318.152,0.33662
136.3182,319.152,0.34486
140.4546,320.152,0.3522
144.5928,321.152,0.35872
148.7388,322.152,0.36392
152.904,323.152,0.36802
157.0998,324.152,0.37133
161.3334,325.152,0.37392
165.618,326.152,0.37563
169.9542,327.152,0.376
174.3528,328.152,0.37595
178.812,329.152,0.37493
183.3384,330.152,0.37414
187.9404,331.152,0.37218
192.6192,332.152,0.37002
197.3748,333.152,0.36753
202.2084,334.152,0.36472
207.1272,335.152,0.36166
212.1252,336.152,0.35906
217.1988,337.152,0.35623
222.3444,338.152,0.35363
227.5602,339.152,0.35101
232.8408,340.152,0.34838
238.1778,341.152,0.34542
243.564,342.152,0.34246
248.9958,343.152,0.33901
254.4666,344.152,0.33575
259.9734,345.152,0.33202
265.5048,346.152,0.32885
271.053,347.152,0.32582
276.6126,348.152,0.32304
282.186,349.152,0.32054
287.7642,350.152,0.319
293.3508,351.152,0.3177
298.95,352.152,0.31705
304.5528,353.152,0.31673
310.1616,354.152,0.31632
315.7728,355.152,0.31616
321.3936,356.152,0.31624
327.0192,357.152,0.31652
332.6574,358.152,0.31633
338.3076,359.152,0.31635
343.971,360.152,0.31634
349.6488,361.152,0.31665
355.3428,362.152,0.31639
361.0524,363.152,0.31605
366.777,364.152,0.31594
372.5256,365.152,0.31615
378.297,366.152,0.31578
384.0864,367.152,0.31526
389.8998,368.152,0.31525
395.7348,369.152,0.31519
401.592,370.152,0.3149
407.4678,371.152,0.31455
413.3628,372.152,0.3145
419.283,373.152,0.31426
425.22,374.152,0.31425
431.1702,375.152,0.31415
437.1402,376.152,0.31398
443.1228,377.152,0.31425
449.118,378.152,0.31432
455.1264,379.152,0.31482
461.1438,380.152,0.31502
467.1684,381.152,0.31576
473.199,382.152,0.31645
479.2356,383.152,0.31727
485.2776,384.152,0.31846
491.3172,385.152,0.31961
497.3532,386.152,0.32095
503.3934,387.152,0.32267
509.4324,388.152,0.32433
515.4672,389.152,0.32649
521.4936,390.152,0.32862
527.514,391.152,0.33101
533.5368,392.152,0.33382
539.5512,393.152,0.3367
545.5596,394.152,0.33975
551.5656,395.152,0.34286
557.5638,396.152,0.34599
563.5536,397.152,0.34887
569.5362,398.152,0.35168
575.5218,399.152,0.35405
581.5038,400.152,0.35603
587.484,401.152,0.35831
593.4576,402.152,0.361
599.4282,403.152,0.36359
605.3964,404.152,0.36554
611.3586,405.152,0.36804
617.3244,406.152,0.36981
623.2926,407.152,0.37155
629.259,408.152,0.37332
635.2224,409.152,0.37546
641.1834,410.152,0.37716
647.1468,411.152,0.37902
653.115,412.152,0.38136
659.0808,413.152,0.38274
665.0484,414.152,0.38423
671.0166,415.152,0.3864
676.9842,416.152,0.38804
682.9536,417.152,0.38952
688.9224,418.152,0.39131
694.8912,419.152,0.39269
700.8594,420.152,0.39447
706.8324,421.152,0.39583
712.8066,422.152,0.3974
718.779,423.152,0.39851
724.7562,424.152,0.4
730.7388,425.152,0.40123
736.7232,426.152,0.40259
742.7076,427.152,0.40422
748.692,428.152,0.40573
754.686,429.152,0.40738
760.6818,430.152,0.40901
766.6758,431.152,0.41063
772.6776,432.152,0.41211
778.6836,433.152,0.41387
784.6944,434.152,0.4159
790.701,435.152,0.41784
796.707,436.152,0.42003
802.7154,437.152,0.42252
808.7208,438.152,0.42515
814.725,439.152,0.42795
820.7322,440.152,0.43068
826.7406,441.152,0.43375
832.7538,442.152,0.43706
838.7622,443.152,0.44038
844.7658,444.152,0.44375
850.7736,445.152,0.44711
856.785,446.152,0.45042
862.7958,447.152,0.45388
868.8084,448.152,0.45721
874.8216,449.152,0.4605
880.8342,450.152,0.46376
886.8492,451.152,0.46713
892.863,452.152,0.46999
898.8792,453.152,0.4731
904.8984,454.152,0.47597
910.92,455.152,0.47862
916.9344,456.152,0.48068
922.9482,457.152,0.48268
928.968,458.152,0.48423
934.9794,459.152,0.48559
940.992,460.152,0.4865
947.0064,461.152,0.4868
953.0214,462.152,0.4869
959.0352,463.152,0.48644
965.0526,464.152,0.48552
971.0706,465.152,0.48461
977.0844,466.152,0.48316
983.1072,467.152,0.48168
989.1318,468.152,0.47995
995.1546,469.152,0.47829
1001.18,470.152,0.47652
1007.19,471.152,0.47503
1013.208,472.152,0.4742
1019.22,473.152,0.47357
1025.23,474.152,0.47351
1031.25,475.152,0.47348
1037.26,476.152,0.47436
1043.262,477.152,0.47527
1049.27,478.152,0.47693
1055.28,479.152,0.47879
1061.3,480.152,0.48067
1067.31,481.152,0.48237
1073.32,482.152,0.48378
1079.33,483.152,0.48528
1085.337,484.152,0.48661
1091.35,485.152,0.48739
1097.36,486.152,0.48783
1103.37,487.152,0.48757
1109.38,488.152,0.48656
1115.39,489.152,0.4852
1121.412,490.152,0.48322
1127.43,491.152,0.48068
1133.44,492.152,0.47793
1139.46,493.152,0.47499
1145.48,494.152,0.47151
1151.502,495.152,0.46868
1157.526,496.152,0.46629
1163.55,497.152,0.4638
1169.57,498.152,0.46194
1175.6,499.152,0.46027
1181.63,500.152,0.4587
1187.66,501.152,0.45786
1193.7,502.152,0.45707
1199.73,503.152,0.45631
1205.76,504.152,0.45645
1211.79,505.152,0.45652
1217.83,506.152,0.45676
1223.862,507.152,0.45703
1229.89,508.152,0.45756
1235.91,509.152,0.45854
1241.92,510.152,0.45929
1247.94,511.152,0.46001
1253.96,512.152,0.46069
1259.982,513.152,0.46122
1266,514.152,0.46224
1272.02,515.152,0.46294
1278.04,516.152,0.46385
1284.07,517.152,0.46485
1290.09,518.152,0.46576
1296.11,519.152,0.46689
1302.13,520.152,0.46813
1308.15,521.152,0.46928
1314.17,522.152,0.47072
1320.18,523.152,0.47237
1326.2,524.152,0.47382
1332.21,525.152,0.47528
1338.24,526.152,0.47676
1344.26,527.152,0.47821
1350.28,528.152,0.47999
1356.3,529.152,0.48181
1362.32,530.152,0.48358
1368.34,531.152,0.4855
1374.36,532.152,0.4876
1380.38,533.152,0.48957
1386.4,534.152,0.49162
1392.42,535.152,0.49386
1398.44,536.152,0.49616
1404.456,537.152,0.49849
1410.47,538.152,0.50102
1416.483,539.152,0.50362
1422.49,540.152,0.50613
1428.51,541.152,0.50928
1434.52,542.152,0.51309
1440.53,543.152,0.51708
1446.543,544.152,0.52117
1452.56,545.152,0.52546
1458.57,546.152,0.5298
1464.59,547.152,0.53414
1470.6,548.152,0.53828
1476.61,549.152,0.54287
1482.62,550.152,0.54719
1488.636,551.152,0.55183
1494.65,552.152,0.5568
1500.65,553.152,0.56187
1506.66,554.152,0.56611
1512.67,555.152,0.57081
1518.69,556.152,0.57537
1524.705,557.152,0.58007
1530.72,558.152,0.58438
1536.74,559.152,0.58883
1542.76,560.152,0.5935
1548.786,561.152,0.59783
1554.81,562.152,0.60234
1560.83,563.152,0.60683
1566.85,564.152,0.61142
1572.87,565.152,0.61565
1578.88,566.152,0.62015
1584.888,567.152,0.62465
1590.9,568.152,0.62866
1596.91,569.152,0.63306
1602.93,570.152,0.63719
1608.95,571.152,0.64156
1614.96,572.152,0.64556
1620.97,573.152,0.64943
1626.98,574.152,0.65402
1632.99,575.152,0.65854
1639.005,576.152,0.66298
1645.017,577.152,0.66845
1651.026,578.152,0.67391
1657.03,579.152,0.68037
1663.029,580.152,0.68777
1669.02,581.152,0.69674
1675.02,582.152,0.70607
1681.01,583.152,0.71655
1687,584.152,0.72787
1692.99,585.152,0.74012
1698.98,586.152,0.75282
1704.975,587.152,0.76648
1710.97,588.152,0.78016
1716.97,589.152,0.79494
1722.97,590.152,0.81007
1728.98,591.152,0.8259
1735,592.152,0.84233
1741.02,593.152,0.85989
1747.05,594.152,0.8782
1753.09,595.152,0.8979
1759.13,596.152,0.9187
1765.17,597.152,0.94099
1771.21,598.152,0.96453
1777.251,599.152,0.98947
1783.29,600.152,1.01642
1789.338,601.152,1.04484
1795.39,602.152,1.07521
1801.43,603.152,1.1067
1807.47,604.152,1.14091
1813.52,605.152,1.17747
1819.57,606.152,1.21574
1825.608,607.152,1.2545
1831.65,608.152,1.29538
1837.69,609.152,1.3386
1843.73,610.152,1.38359
1849.77,611.152,1.43142
1855.812,612.152,1.48177
1861.85,613.152,1.53442
1867.88,614.152,1.59779
1873.92,615.152,1.65601
1879.96,616.152,1.71609
1886,617.152,1.7773
1892.046,618.152,1.83965
1898.09,619.152,1.90445
1904.14,620.152,1.97052
1910.18,621.152,2.03829
1916.217,622.152,2.10781
1922.25,623.152,2.17735
1928.28,624.152,2.24787
1934.31,625.152,2.31764
1940.33,626.152,2.38556
1946.35,627.152,2.45347
1952.36,628.152,2.51918
1958.37,629.152,2.58218
1964.37,630.152,2.6436
1970.38,631.152,2.70105
1976.376,632.152,2.75544
1982.37,633.152,2.80172
1988.37,634.152,2.84045
1994.36,635.152,2.87272
2000.34,636.152,2.89147
2006.31,637.152,2.91237
2012.28,638.152,2.92074
2018.24,639.152,2.93146
2024.2,640.152,2.94729
2030.15,641.152,2.89224
2036.08,642.152,2.81096
2042,643.152,2.77184
2047.93,644.152,2.80893
2053.85,645.152,2.81419
2059.78,646.152,2.83051
2065.725,647.152,2.75991
2071.66,648.152,2.67465
2077.6,649.152,2.66325
2083.54,650.152,2.63344
2089.47,651.152,2.60653
2095.41,652.152,2.53978
2101.338,653.152,2.45808
2107.27,654.152,2.40128
2113.21,655.152,2.3643
2119.15,656.152,2.26903
2125.1,657.152,2.18427
2131.04,658.152,2.10558
2136.99,659.152,2.01064
2142.94,660.152,1.91989
2148.888,661.152,1.82909
2154.84,662.152,1.73844
2160.8,663.152,1.64188
2166.76,664.152,1.54607
2172.74,665.152,1.4524
2178.71,666.152,1.36378
2184.69,667.152,1.27355
2190.675,668.152,1.19127
2196.67,669.152,1.11743
2202.67,670.152,1.04475
2208.68,671.152,0.97586
2214.69,672.152,0.91395
2220.72,673.152,0.85051
2226.747,674.152,0.79096
2232.78,675.152,0.73355
2238.82,676.152,0.67927
2244.861,677.152,0.62828
2250.91,678.152,0.58069
2256.96,679.152,0.53734
2263.011,680.152,0.49736
2269.07,681.152,0.46094
2275.13,682.152,0.42749
2281.19,683.152,0.39751
2287.24,684.152,0.36989
2293.28,685.152,0.34491
2299.33,686.152,0.32301
2305.39,687.152,0.30293
2311.44,688.152,0.28557
2317.491,689.152,0.26967
2323.536,690.152,0.25516
2329.575,691.152,0.2422
2335.61,692.152,0.23058
2341.66,693.152,0.22062
2347.7,694.152,0.21152
2353.728,695.152,0.20351
2359.75,696.152,0.19668
2365.779,697.152,0.19073
2371.8,698.152,0.18633
2377.8,699.152,0.18808
2383.794,700.152,0.19458
2389.78,701.152,0.20096
2395.77,702.152,0.20746
2401.77,703.152,0.21365
2407.77,704.152,0.21891
2413.78,705.152,0.22095
2419.81,706.152,0.21941
2425.85,707.152,0.21379
2431.89,708.152,0.20794
2437.94,709.152,0.2016
2443.99,710.152,0.1954
2450.03,711.152,0.19032
2456.07,712.152,0.17942
2462.13,713.152,0.15753
2468.2,714.152,0.14109
2474.262,715.152,0.13294
2480.3,716.152,0.12916
2486.325,717.152,0.12784
2492.34,718.152,0.1265
2498.35,719.152,0.12601
2504.36,720.152,0.12541
2510.36,721.152,0.12502
2516.361,722.152,0.12512
2522.364,723.152,0.12512
2528.37,724.152,0.12601
2534.36,725.152,0.12627
2540.36,726.152,0.12673
2546.36,727.152,0.12723
2552.35,728.152,0.12749
2558.35,729.152,0.12803
2564.34,730.152,0.1281
2570.34,731.152,0.12823
2576.34,732.152,0.12826
2582.33,733.152,0.12793
2588.32,734.152,0.12774
2594.32,735.152,0.12772
2600.32,736.152,0.1278
2606.32,737.152,0.12757
2612.32,738.152,0.12786
2618.31,739.152,0.12736
2624.304,740.152,0.127
2630.3,741.152,0.12777
2636.3,742.152,0.12748
2642.3,743.152,0.1283
2648.29,744.152,0.12823
2654.28,745.152,0.12828
2660.28,746.152,0.12811
2666.274,747.152,0.1279
2672.271,748.152,0.12776
2678.27,749.152,0.12784
2684.27,750.152,0.12796
2690.26,751.152,0.12809
2696.26,752.152,0.12831
2702.265,753.152,0.12832
2708.26,754.152,0.12879
2714.26,755.152,0.12919
2720.26,756.152,0.12949
2726.26,757.152,0.13038
2732.26,758.152,0.13076
2738.26,759.152,0.13122
2744.26,760.152,0.1317
2750.26,761.152,0.13215
2756.26,762.152,0.1323
2762.256,763.152,0.13277
2768.25,764.152,0.13303
2774.25,765.152,0.13331
2780.24,766.152,0.13372
2786.24,767.152,0.13375
2792.232,768.152,0.13399
2798.22,769.152,0.13442
2804.21,770.152,0.1345
2810.2,771.152,0.13482
2816.19,772.152,0.13503
2822.18,773.152,0.13537
2828.17,774.152,0.13567
2834.16,775.152,0.13594
2840.15,776.152,0.13576
2846.14,777.152,0.13605
2852.139,778.152,0.13637
2858.14,779.152,0.13671
2864.14,780.152,0.13689
2870.14,781.152,0.1375
2876.136,782.152,0.1377
2882.14,783.152,0.13784
2888.15,784.152,0.13838
2894.16,785.152,0.13805
2900.16,786.152,0.13841
2906.17,787.152,0.13906
2912.19,788.152,0.13892
2918.21,789.152,0.13944
2924.22,790.152,0.13956
2930.23,791.152,0.13968
2936.24,792.152,0.13972
2942.256,793.152,0.14015
2948.27,794.152,0.13999
2954.28,795.152,0.14035
2960.29,796.152,0.14022
2966.29,797.152,0.14038
2972.3,798.152,0.14029
2978.301,799.152,0.14043
2984.3,800.152,0.14045
2990.31,801.152,0.14033
2996.31,802.152,0.14055
3002.316,803.152,0.14039
3008.32,804.152,0.14031
3014.316,805.152,0.1398
3020.32,806.152,0.13989
3026.32,807.152,0.14008
3032.31,808.152,0.13908
3038.31,809.152,0.13835
3044.3,810.152,0.13824
3050.28,811.152,0.13748
3056.27,812.152,0.13724
3062.26,813.152,0.13723
3068.244,814.152,0.13685
3074.23,815.152,0.13655
3080.223,816.152,0.13647
3086.22,817.152,0.13592
3092.22,818.152,0.1362
3098.22,819.152,0.13582
3104.23,820.152,0.13539
3110.23,821.152,0.13488
3116.22,822.152,0.13472
3122.22,823.152,0.13427
3128.22,824.152,0.13382
3134.22,825.152,0.13338
3140.23,826.152,0.13284
3146.24,827.152,0.13258
3152.25,828.152,0.13215
3158.25,829.152,0.13137
3164.25,830.152,0.13076
3170.26,831.152,0.13024
3176.26,832.152,0.12959
3182.26,833.152,0.12918
3188.27,834.152,0.1284
3194.27,835.152,0.12732
3200.274,836.152,0.12693
3206.28,837.152,0.12592
3212.29,838.152,0.1249
3218.3,839.152,0.12409
3224.31,840.152,0.12318
3230.33,841.152,0.12241
3236.343,842.152,0.12138
3242.355,843.152,0.12083
3248.37,844.152,0.11965
3254.38,845.152,0.11844
3260.4,846.152,0.11767
3266.42,847.152,0.11656
3272.45,848.152,0.11578
3278.46,849.152,0.1144
3284.47,850.152,0.11319
3290.47,851.152,0.11212
3296.48,852.152,0.11104
3302.49,853.152,0.10974
3308.496,854.152,0.10896
3314.5,855.152,0.10757
3320.505,856.152,0.10667
3326.5,857.152,0.10472
3332.499,858.152,0.10384
3338.5,859.152,0.1022
3344.51,860.152,0.10134
3350.514,861.152,0.09982523
3356.52,862.152,0.0980238
3362.54,863.152,0.0972272
3368.55,864.152,0.09559076
3374.55,865.152,0.09414996
3380.56,866.152,0.0926159
3386.57,867.152,0.09127518
3392.58,868.152,0.0882253
3398.58,869.152,0.08048359
3404.58,870.152,0.07760376
3410.571,871.152,0.07537813
3416.553,872.152,0.07679636
3422.53,873.152,0.07853508
3428.52,874.152,0.07712195
3434.51,875.152,0.0760022
3440.508,876.152,0.07631301
3446.51,877.152,0.07551916
3452.511,878.152,0.0747225
3458.52,879.152,0.07390379
3464.53,880.152,0.07301968
3470.54,881.152,0.07182996
3476.54,882.152,0.07102101
3482.55,883.152,0.06998687
3488.556,884.152,0.06889749
3494.56,885.152,0.06800547
3500.57,886.152,0.06698642
3506.58,887.152,0.06589613
3512.59,888.152,0.06441189
3518.61,889.152,0.06365321
3524.62,890.152,0.06239087
3530.64,891.152,0.06131395
3536.65,892.152,0.06005078
3542.66,893.152,0.05904139
3548.67,894.152,0.05808449
3554.68,895.152,0.05719781
3560.7,896.152,0.05646646
3566.703,897.152,0.05545765
3572.703,898.152,0.05457833
3578.7,899.152,0.05433791
3584.697,900.152,0.05347149
3590.69,901.152,0.05245396
3596.69,902.152,0.05189087
3602.69,903.152,0.05083015
3608.673,904.152,0.05034212
3614.65,905.152,0.04924588
3620.64,906.152,0.04803835
3626.619,907.152,0.04787333
3632.604,908.152,0.04705499
3638.589,909.152,0.04675064
3644.57,910.152,0.04619818
3650.56,911.152,0.04594749
3656.553,912.152,0.04531452
3662.55,913.152,0.04722322
3668.54,914.152,0.04744299
3674.54,915.152,0.04777988
3680.55,916.152,0.04817519
3686.56,917.152,0.04819922
3692.571,918.152,0.04895371
3698.589,919.152,0.04864299
3704.61,920.152,0.04931397
3710.62,921.152,0.04902403
3716.631,922.152,0.04890694
3722.64,923.152,0.04917097
3728.65,924.152,0.0492973
3734.649,925.152,0.04920105
3740.652,926.152,0.04976652
3746.66,927.152,0.04963516
3752.65,928.152,0.05020557
3758.63,929.152,0.05003066
3764.59,930.152,0.04901296
3770.57,931.152,0.04874518
3776.57,932.152,0.04920549
3782.58,933.152,0.04912193
3788.59,934.152,0.04967422
3794.604,935.152,0.04962021
3800.63,936.152,0.05016427
3806.649,937.152,0.05030396
3812.66,938.152,0.05129484
3818.67,939.152,0.05139987
3824.67,940.152,0.05231199
3830.68,941.152,0.05255601
3836.68,942.152,0.05269862
3842.679,943.152,0.05332459
3848.682,944.152,0.05388604
3854.69,945.152,0.05496144
3860.68,946.152,0.05533611
3866.68,947.152,0.05590198
3872.68,948.152,0.0561186
3878.67,949.152,0.05781221
3884.664,950.152,0.05854501
3890.66,951.152,0.05902596
3896.65,952.152,0.05936633
3902.64,953.152,0.06036194
3908.643,954.152,0.06172277
3914.64,955.152,0.06306271
3920.65,956.152,0.0647731
3926.65,957.152,0.06503745
3932.65,958.152,0.06604713
3938.65,959.152,0.06682923
3944.649,960.152,0.06748068
3950.65,961.152,0.06952197
3956.65,962.152,0.07071221
3962.66,963.152,0.07169491
3968.68,964.152,0.07300579
3974.697,965.152,0.07437017
3980.71,966.152,0.07540756
3986.72,967.152,0.07637605
3992.73,968.152,0.07765397
3998.74,969.152,0.07944134
4004.742,970.152,0.080026
4010.74,971.152,0.08127391
4016.736,972.152,0.08259349
4022.73,973.152,0.08359086
4028.721,974.152,0.08496035
4034.71,975.152,0.08606048
4040.7,976.152,0.08748663
4046.682,977.152,0.08898741
4052.67,978.152,0.08992604
4058.66,979.152,0.09123529
4064.64,980.152,0.09237801
4070.628,981.152,0.09306701
4076.62,982.152,0.09419549
4082.62,983.152,0.09508572
4088.6,984.152,0.09671221
4094.59,985.152,0.09800741
4100.58,986.152,0.09920316
4106.59,987.152,0.10028
4112.592,988.152,0.10193
4118.6,989.152,0.10294
4124.6,990.152,0.10414
4130.61,991.152,0.10536
4136.62,992.152,0.1066
4142.63,993.152,0.10749
4148.63,994.152,0.10805
4154.64,995.152,0.10967
4160.65,996.152,0.1108
4166.65,997.152,0.11201
4172.673,998.152,0.11332
4178.69,999.152,0.11481
4184.694,1000.152,0.11558
4190.7,1001.152,0.11736
4196.71,1002.152,0.11725
4202.72,1003.152,0.11914
4208.727,1004.152,0.12146
4214.74,1005.152,0.1234
4220.75,1006.152,0.12422
4226.75,1007.152,0.12566
4232.76,1008.152,0.12694
4238.77,1009.152,0.12755
4244.77,1010.152,0.12842
4250.76,1011.152,0.13052
4256.75,1012.152,0.13145
4262.73,1013.152,0.13241
4268.71,1014.152,0.1335
4274.7,1015.152,0.1353
4280.68,1016.152,0.13591
4286.67,1017.152,0.13756
4292.649,1018.152,0.13818
4298.63,1019.152,0.13965
4304.61,1020.152,0.14141
4310.58,1021.152,0.14231
4316.556,1022.152,0.14295
4322.54,1023.152,0.14416
4328.53,1024.152,0.1449
4334.52,1025.152,0.1461
4340.51,1026.152,0.14709
4346.51,1027.152,0.14751
4352.499,1028.152,0.14891
4358.49,1029.152,0.14972
4364.5,1030.152,0.15052
4370.511,1031.152,0.15063
4376.52,1032.152,0.15107
4382.52,1033.152,0.15145
4388.53,1034.152,0.15225
4394.53,1035.152,0.1528
4400.54,1036.152,0.15282
4406.55,1037.152,0.1526
4412.55,1038.152,0.1527
4418.562,1039.152,0.15278
4424.56,1040.152,0.15157
4430.559,1041.152,0.15148
4436.56,1042.152,0.15199
4442.57,1043.152,0.15227
4448.58,1044.152,0.15124
4454.58,1045.152,0.15084
4460.58,1046.152,0.1506
4466.583,1047.152,0.15049
4472.58,1048.152,0.14924
4478.58,1049.152,0.14864
4484.59,1050.152,0.14783
4490.6,1051.152,0.14694
4496.607,1052.152,0.14533
4502.61,1053.152,0.14423
4508.61,1054.152,0.14313
4514.6,1055.152,0.14224
4520.6,1056.152,0.14119
4526.6,1057.152,0.14016
4532.589,1058.152,0.13976
4538.56,1059.152,0.14035
4544.55,1060.152,0.13995
4550.52,1061.152,0.13882
4556.5,1062.152,0.13703
4562.48,1063.152,0.13649
4568.46,1064.152,0.13657
4574.45,1065.152,0.1367
4580.42,1066.152,0.13663
4586.4,1067.152,0.13567
4592.38,1068.152,0.13573
4598.36,1069.152,0.13548
4604.346,1070.152,0.13595
4610.33,1071.152,0.13509
4616.37,1072.152,0.13448