File: PMMA/Calibration_Data/NIST/NIST_Cone_25kW_1.csv
Time,Mass,HRR
[s],[g],[kW/m2]
0,154.469,-0.55203
1,154.419,0.141992
2,154.473,-0.501094
3,154.563,-0.541368
4,154.466,-0.314993
5,154.5,-0.420336
6,154.61,0.109556
7,154.71,0.271417
8,154.656,0.683722
9,154.684,0.980472
10,154.599,1.60338
11,154.603,1.7
12,154.854,1.048585
13,154.881,0.86808
14,154.68,0.664586
15,154.642,0.834373
16,154.733,0.677144
17,154.711,0.840116
18,154.924,0.510337
19,154.892,1.110207
20,154.769,-0.732462
21,154.855,-2.354841
22,154.888,-0.951405
23,154.724,-1.700415
24,154.672,-0.542516
25,154.708,-1.042086
26,154.665,-1.347004
27,154.74,-1.434644
28,154.698,-1.246985
29,154.82,-1.168588
30,154.952,-0.333682
31,155.008,-0.316538
32,154.921,-0.064572
33,154.712,-0.251793
34,154.826,-0.349665
35,154.911,0.914453
36,154.78,1.103895
37,154.714,-2.057985
38,154.638,-0.004563
39,154.93,-0.883153
40,154.683,-0.004733
41,154.672,-0.905469
42,154.602,-1.899572
43,154.768,-0.93208
44,154.948,0.636076
45,155.008,1.03206
46,154.955,2.303847
47,154.806,1.964432
48,154.878,-2.640001
49,154.796,-1.177109
50,154.861,-2.248419
51,154.82,-0.068504
52,154.903,-0.873797
53,154.68,-0.510479
54,154.67,-0.234629
55,154.789,-0.536572
56,154.589,-2.182424
57,154.871,-1.146841
58,154.762,-1.788526
59,154.678,-0.781345
60,154.674,-0.789248
61,154.828,0.441005
62,154.718,1.255568
63,154.902,-1.96342
64,154.804,-0.718569
65,154.802,-1.205999
66,154.744,-1.362888
67,154.893,1.613892
68,154.869,-1.43194
69,154.762,-0.809146
70,154.827,-0.983251
71,154.673,-1.047602
72,154.795,-0.677217
73,154.887,-0.976019
74,154.706,-0.810355
75,154.776,-0.670119
76,154.732,-1.213849
77,154.626,-1.027649
78,154.63,0.448648
79,154.801,-0.635233
80,154.694,-1.077616
81,154.766,-1.141037
82,154.662,-0.621183
83,154.871,-0.99785
84,155.006,-0.873577
85,154.772,-1.940679
86,154.625,-1.4167
87,154.617,-0.780647
88,154.789,-2.065074
89,154.798,-2.264314
90,154.672,0.124806
91,154.833,-1.592106
92,154.736,-3.148178
93,154.849,-3.230504
94,154.527,-3.689855
95,154.697,-2.61486
96,154.813,-3.992947
97,154.816,-2.143231
98,154.738,-2.944072
99,154.634,-3.867577
100,154.802,-2.997813
101,154.866,-3.521853
102,154.574,-2.388224
103,154.728,-0.71547
104,154.912,-0.137286
105,154.776,-1.266243
106,154.752,-0.526178
107,154.685,-2.016357
108,154.807,-0.142156
109,154.763,-1.076305
110,154.664,0.177708
111,154.562,1.941822
112,154.792,12.6063
113,154.782,15.6966
114,154.493,29.7825
115,154.581,42.93141
116,154.399,71.6017
117,154.472,99.1259
118,154.299,127.17
119,154.185,148.112
120,154.18,169.396
121,153.978,194.49
122,154.023,213.497
123,153.787,232.662
124,153.652,244.458
125,153.6,263.989
126,153.527,272.424
127,153.353,288.861
128,153.306,308.281
129,152.946,316.667
130,152.944,340.002
131,152.914,356.391
132,152.633,366.233
133,152.481,367.624
134,152.435,376.618
135,152.224,380.512
136,151.869,385.594
137,151.855,393.25
138,151.668,404.188
139,151.591,398.525
140,151.335,410.429
141,151.241,407.751
142,151.008,403.03
143,150.972,416.896
144,150.646,417.529
145,150.603,427.168
146,150.345,425.899
147,150.272,417.95
148,150.04,418.285
149,149.89,422.08
150,149.797,424.071
151,149.477,421.02
152,149.458,422.958
153,149.029,422.478
154,148.959,429.775
155,148.861,431.544
156,148.631,431.977
157,148.388,431.539
158,148.415,432.489
159,148.218,436.072
160,147.908,435.773
161,147.716,432.084
162,147.405,430.457
163,147.359,436.756
164,147.041,434.125
165,147.086,435.779
166,146.879,429.694
167,146.776,432.604
168,146.444,436.48
169,146.331,434.885
170,146.141,434.555
171,145.959,432.414
172,145.721,443.385
173,145.423,435.168
174,145.467,429.421
175,145.217,436.9088
176,145.026,439.609
177,144.761,435.192
178,144.794,429.783
179,144.539,441.806
180,144.538,443.842
181,144.247,442.042
182,143.903,442.552
183,143.691,449.16
184,143.49,447.226
185,143.516,443.834
186,143.318,445.567
187,143,446.153
188,143.028,447.331
189,142.695,448.518
190,142.486,451.626
191,142.413,447.014
192,142.162,450.448
193,141.838,452.465
194,141.833,448.582
195,141.441,452.896
196,141.421,464.038
197,141.222,458.212
198,140.901,458.322
199,140.959,459.955
200,140.726,459.295
201,140.334,462.986
202,140.186,459.9181
203,139.939,457.898
204,139.936,465.177
205,139.611,476.83
206,139.366,473.855
207,139.33,477.205
208,139.062,478.542
209,138.77,475.998
210,138.701,474.903
211,138.557,476.039
212,138.345,478.62
213,138.262,481.479
214,137.988,489.947
215,137.574,489.115
216,137.458,488.284
217,137.244,491.648
218,137.117,497.258
219,136.973,493.424
220,136.619,489.605
221,136.521,498.696
222,136.341,499.795
223,135.989,501.413
224,135.883,502.312
225,135.63,512.15
226,135.541,505.939
227,135.273,501.909
228,135.04,506.281
229,134.874,513.378
230,134.547,520.094
231,134.257,514.001
232,134.198,515.672
233,133.906,521.49
234,133.7,519.815
235,133.469,524.929
236,133.192,510.664
237,133.009,519.963
238,132.946,530.965
239,132.598,531.113
240,132.402,534.921
241,132.259,528.667
242,132.079,533.859
243,131.711,539.995
244,131.431,539.878
245,131.219,544.302
246,131.296,553.12
247,130.979,548.523
248,130.629,544.324
249,130.403,548.158
250,129.981,560.574
251,129.933,555.639
252,129.576,557.946
253,129.451,563.475
254,129.21,572.83
255,128.938,562.878
256,128.74,563.024
257,128.455,560.084
258,128.267,570.431
259,128.05,580.252
260,127.821,582.708
261,127.523,584.12
262,127.355,581.236
263,127.165,585.095
264,126.773,581.242
265,126.552,580.36
266,126.413,589.98
267,125.943,588.044
268,125.908,582.637
269,125.734,584.707
270,125.333,594.24
271,125.11,581.618
272,124.887,605.831
273,124.628,601.113
274,124.541,590.888
275,124.11,606.841
276,123.923,607.689
277,123.725,593.73
278,123.296,609.775
279,123.223,609.173
280,122.836,605.499
281,122.599,605.838
282,122.416,609.168
283,122.221,613.224
284,121.82,619.488
285,121.688,603.44
286,121.493,581.406
287,121.056,625.546
288,120.756,620.767
289,120.735,617.359
290,120.461,609.478
291,120.322,622.306
292,119.892,615.525
293,119.681,610.306
294,119.435,616.446
295,119.183,618.315
296,119.012,622.392
297,118.555,624.611
298,118.432,624.052
299,118.007,626.604
300,117.789,625.771
301,117.676,625.588
302,117.334,631.262
303,117.08,626.645
304,116.787,617.666
305,116.593,633.352
306,116.345,632.462
307,116.101,633.415
308,115.668,631.519
309,115.594,643.4
310,115.309,649.694
311,114.934,655.577
312,114.576,641.708
313,114.517,651.305
314,114.21,653.961
315,113.999,651.401
316,113.638,644.635
317,113.317,657.167
318,113.129,656.254
319,112.82,663.227
320,112.748,657.756
321,112.249,651.883
322,112.202,657.813
323,111.771,669.147
324,111.596,664.026
325,111.072,656.188
326,111.058,649.075
327,110.74,649.079
328,110.608,653.171
329,110.153,660.504
330,109.798,652.951
331,109.484,644.139
332,109.287,649.881
333,109.081,663.458
334,108.895,662.546
335,108.346,661.221
336,108.154,665.955
337,107.969,662.899
338,107.605,672.082
339,107.419,689.59
340,107.214,689.603
341,106.991,671.294
342,106.709,680.508
343,106.313,695.22
344,105.967,695.124
345,105.742,693.03
346,105.537,675.251
347,105.401,686.86
348,104.944,694.737
349,104.663,699.013
350,104.114,679.616
351,104.097,685.898
352,103.913,689.734
353,103.493,709.126
354,103.019,702.146
355,102.934,692.433
356,102.605,703.594
357,102.382,695.621
358,102.078,699.614
359,101.65,705.965
360,101.438,705.842
361,101.178,703.758
362,100.812,705.66
363,100.674,709.158
364,100.362,705.456
365,99.956,710.26
366,99.8509,705.665
367,99.4678,700.939
368,99.0173,704.04
369,98.8998,710.725
370,98.6965,713.856
371,98.2004,700.283
372,98.0967,700.347
373,97.7015,696.727
374,97.3837,687.065
375,97.2227,690.285
376,96.894,682.9
377,96.7897,676.9
378,96.3437,671.325
379,96.1668,676.275
380,95.8603,669.801
381,95.5937,661.689
382,95.2017,653.474
383,94.9838,645.858
384,94.6996,654.713
385,94.5757,643.051
386,94.2639,643.066
387,93.8687,654.547
388,93.7036,653.813
389,93.5049,641.084
390,93.3228,633.522
391,92.9005,645.606
392,92.6236,634.811
393,92.355,626.905
394,92.1689,613.52
395,91.9617,616.81
396,91.5431,603.178
397,91.3309,608.71
398,91.1603,612.226
399,90.8561,608.21
400,90.7109,610.397
401,90.4523,615.44
402,90.0937,616.008
403,89.9018,591.931
404,89.7165,579.316
405,89.2823,573.222
406,89.1568,556.332
407,89.1198,535.9727
408,88.7924,518.729
409,88.6548,508.4729
410,88.3943,498.882
411,88.4096,485.929
412,87.9673,484.673
413,88.0288,474.549
414,87.6832,439.844
415,87.4919,416.543
416,87.4223,397.16
417,87.3376,363.909
418,87.1668,340.195
419,87.0497,321.111
420,86.7641,302.084
421,86.5182,282.497
422,86.684,279.168
423,86.643,263.322
424,86.552,231.995
425,86.4924,192.873
426,86.2472,165.574
427,86.3545,162.294
428,86.3475,139.5
429,86.1912,121.564
430,86.0458,104.766
431,86.1456,83.7546
432,85.9497,71.4121
433,85.9198,56.8845
434,86.0701,52.7281
435,86.1414,40.5164
436,86.1656,31.8353
437,85.9424,19.3351
438,85.9963,9.965688
439,86.1487,5.711761
440,86.0415,3.699624
441,86.0421,0.790968
442,86.0138,-0.971303
443,85.9672,-1.210303
444,85.9806,-5.04446
445,85.954,-5.253143
446,85.9693,-4.846137
447,86.1679,-5.300482
448,86.3041,-2.195305
449,86.0138,-2.922659
450,85.9699,-2.469567
451,86.0038,-3.238519
452,85.9367,-4.739671
453,85.9127,-2.392389
454,85.9609,-2.00674
455,86.0954,-3.458538
456,85.9357,-1.272422
457,86.1211,-4.380332
458,86.0193,-1.441449
459,85.9791,-2.052912
460,86.1295,-3.457509
461,85.9066,-3.326325
462,86.1412,-1.40023
463,86.0904,-0.534151
464,86.1686,-1.471367
465,85.8966,-1.845134
466,85.9308,-1.865624
467,86.1107,-1.650554
468,86.0791,-1.828704
469,86.0201,-1.259602
470,86.1552,-2.197636
471,85.9837,-1.60485
472,86.0172,-1.737737
473,85.9277,-1.521173
474,85.9202,-1.216724
475,86.0943,-1.55157
476,86.0337,-0.972191
477,86.1054,-0.703771
478,85.9551,-3.299332
479,86.0622,-0.931242
480,86.0011,-0.86343
481,85.98,-1.055613
482,85.947,-1.346202
483,85.9885,-0.867209
484,86.1073,-0.256113
485,86.1261,-0.179527
486,85.8715,-1.339412
487,86.1351,0.229361
488,85.8826,1.394672
489,85.8449,1.723263
490,85.9248,-0.418809
491,86.0958,-1.691809
492,86.058,-0.640874
493,85.9701,0.395721
494,86.0034,-0.761313
495,85.9982,0.240419
496,85.9482,-1.027934
497,86.168,-0.246749
498,86.0954,-0.640687
499,86.0548,0.436592
500,85.9911,-0.178443
501,86.0046,-3.548235
502,85.9896,-0.306467
503,85.9545,-0.900683
504,86.0638,-2.399661
505,85.9902,3.1236
506,86.0159,-1.411687
507,85.8541,-13.6336
508,85.9428,0.707062
509,86.0647,-4.263301
510,86.0546,-2.77527
511,86.1119,-4.878481
512,86.069,-0.074731
513,85.9825,0.068591
514,85.9152,-1.673494
515,86.2167,-0.573869
516,85.8947,0.927051
517,85.9676,-0.463134
518,86.0726,0.064755
519,86.1656,-0.390215
520,85.9735,0.368518
521,86.1159,-0.373177
522,86.0283,-0.050669
523,86.0621,-0.615515
524,86.0967,-1.750209
525,85.8135,-0.027387
526,86.046,-1.837779
527,86.0588,-0.610169
528,86.0253,-0.923104
529,86.1102,-2.381458
530,86.0697,-1.916151
531,86.0155,-1.748386
532,85.906,-2.317406
533,85.9913,-3.484552
534,86.1341,-1.149104
535,86.1192,-2.711085
536,85.7747,-1.240498
537,85.9446,-2.487662
538,86.1136,-2.205721
539,85.9361,-1.944876
540,86.0421,-4.077169
541,85.9902,-4.341849
542,86.1132,-1.720639
543,85.9702,-3.969027
544,86.0667,-1.846832
545,85.9768,-1.644387
546,86.2093,-1.409898
547,85.8159,-1.137503
548,85.948,-2.156789
549,86.0155,0.461826
550,86.1508,0.510883
551,86.0214,-1.108196
552,86.0831,1.037942
553,86.0429,-0.424457
554,85.9524,-2.774428
555,86.1157,-3.112369
556,86.008,-3.474332
557,86.012,-3.642688
558,85.7558,-3.027231
559,85.9883,-2.609935
560,86.1322,-1.80199
561,86.0724,-0.88142
562,86.086,0.385596
563,85.998,-1.438047
564,86.0668,-1.636193
565,86.0615,-1.582364
566,86.0281,-2.21001
567,86.0617,-2.459656
568,85.9369,0.017619
569,85.9288,-0.725277
570,85.9104,-0.070985
571,86.0966,-0.518384
572,85.8972,-0.116702
573,85.948,-0.449065
574,85.9637,2.35394
575,86.0667,-1.287169
576,86.0063,-1.204197
577,86.0207,-0.455769
578,85.9472,0.268743
579,85.8092,0.113938
580,86.0088,-0.962514
581,85.7903,-1.957563
582,86.0632,0.373521
583,85.9271,-0.354129
584,85.8537,-0.965952
585,85.9503,-0.593357
586,86.1742,-0.426262
587,86.035,-0.96923
588,85.8903,-2.393957
589,85.9679,-0.649139
590,85.9438,-2.23233
591,85.9045,-0.416445
592,85.9528,-0.154922
593,85.8077,-0.544154
594,86.021,-0.271747
595,86.0253,-1.417473
596,86.127,-0.307224
597,85.8681,-0.186844
598,86.0927,-1.293085
599,86.1199,-1.398585
600,86.0111,0.491866