File: PMMA/Calibration_Data/NIST/NIST_TGA_N2_10K_2.csv
Time,Temperature,Mass
[s],[K],[mg]
0,303.152,5.86703
50.7858,304.152,5.86372
63.0384,305.152,5.86241
71.862,306.152,5.86184
79.1082,307.152,5.86
85.4244,308.152,5.85895
91.1388,309.152,5.85701
96.4278,310.152,5.85516
101.412,311.152,5.85698
106.1658,312.152,5.85557
110.7474,313.152,5.85506
115.1934,314.152,5.85541
119.5344,315.152,5.85468
123.7974,316.152,5.85546
128.0034,317.152,5.85344
132.1722,318.152,5.85412
136.3182,319.152,5.85493
140.4546,320.152,5.85352
144.5928,321.152,5.85341
148.7388,322.152,5.85578
152.904,323.152,5.85534
157.0998,324.152,5.855
161.3334,325.152,5.85484
165.618,326.152,5.85577
169.9542,327.152,5.8563
174.3528,328.152,5.85542
178.812,329.152,5.85542
183.3384,330.152,5.85582
187.9404,331.152,5.85542
192.6192,332.152,5.85542
197.3748,333.152,5.85676
202.2084,334.152,5.85676
207.1272,335.152,5.85741
212.1252,336.152,5.85742
217.1988,337.152,5.85676
222.3444,338.152,5.85676
227.5602,339.152,5.8581
232.8408,340.152,5.8581
238.1778,341.152,5.85743
243.564,342.152,5.85877
248.9958,343.152,5.85877
254.4666,344.152,5.85878
259.9734,345.152,5.8581
265.5048,346.152,5.8591
271.053,347.152,5.85956
276.6126,348.152,5.85874
282.186,349.152,5.8581
287.7642,350.152,5.8591
293.3508,351.152,5.8591
298.95,352.152,5.8582
304.5528,353.152,5.85944
310.1616,354.152,5.86078
315.7728,355.152,5.85947
321.3936,356.152,5.85932
327.0192,357.152,5.86066
332.6574,358.152,5.8607
338.3076,359.152,5.85932
343.971,360.152,5.85861
349.6488,361.152,5.85932
355.3428,362.152,5.85898
361.0524,363.152,5.859
366.777,364.152,5.86067
372.5256,365.152,5.85931
378.297,366.152,5.85959
384.0864,367.152,5.85828
389.8998,368.152,5.85794
395.7348,369.152,5.85798
401.592,370.152,5.85929
407.4678,371.152,5.85721
413.3628,372.152,5.8553
419.283,373.152,5.85526
425.22,374.152,5.85531
431.1702,375.152,5.85664
437.1402,376.152,5.85525
443.1228,377.152,5.8553
449.118,378.152,5.8553
455.1264,379.152,5.8553
461.1438,380.152,5.8553
467.1684,381.152,5.85598
473.199,382.152,5.85529
479.2356,383.152,5.85398
485.2776,384.152,5.8553
491.3172,385.152,5.85401
497.3532,386.152,5.85396
503.3934,387.152,5.85263
509.4324,388.152,5.8533
515.4672,389.152,5.85329
521.4936,390.152,5.8523
527.514,391.152,5.8523
533.5368,392.152,5.85129
539.5512,393.152,5.85274
545.5596,394.152,5.85553
551.5656,395.152,5.85542
557.5638,396.152,5.85547
563.5536,397.152,5.85408
569.5362,398.152,5.85542
575.5218,399.152,5.85488
581.5038,400.152,5.85408
587.484,401.152,5.8527
593.4576,402.152,5.85407
599.4282,403.152,5.85408
605.3964,404.152,5.85508
611.3586,405.152,5.85408
617.3244,406.152,5.85274
623.2926,407.152,5.85274
629.259,408.152,5.85139
635.2224,409.152,5.85006
641.1834,410.152,5.85147
647.1468,411.152,5.8514
653.115,412.152,5.85141
659.0808,413.152,5.85006
665.0484,414.152,5.84872
671.0166,415.152,5.84872
676.9842,416.152,5.84872
682.9536,417.152,5.84872
688.9224,418.152,5.84872
694.8912,419.152,5.84605
700.8594,420.152,5.84604
706.8324,421.152,5.84435
712.8066,422.152,5.84302
718.779,423.152,5.84333
724.7562,424.152,5.84436
730.7388,425.152,5.84202
736.7232,426.152,5.84202
742.7076,427.152,5.84068
748.692,428.152,5.83935
754.686,429.152,5.83934
760.6818,430.152,5.84001
766.6758,431.152,5.83734
772.6776,432.152,5.8395
778.6836,433.152,5.83741
784.6944,434.152,5.83666
790.701,435.152,5.83598
796.707,436.152,5.83331
802.7154,437.152,5.83185
808.7208,438.152,5.83186
814.725,439.152,5.8332
820.7322,440.152,5.83096
826.7406,441.152,5.82993
832.7538,442.152,5.82783
838.7622,443.152,5.8265
844.7658,444.152,5.82516
850.7736,445.152,5.82381
856.785,446.152,5.82248
862.7958,447.152,5.82114
868.8084,448.152,5.81846
874.8216,449.152,5.81712
880.8342,450.152,5.81578
886.8492,451.152,5.81445
892.863,452.152,5.81037
898.8792,453.152,5.80963
904.8984,454.152,5.80658
910.92,455.152,5.8042
916.9344,456.152,5.80105
922.9482,457.152,5.79971
928.968,458.152,5.7983
934.9794,459.152,5.79422
940.992,460.152,5.79031
947.0064,461.152,5.78617
953.0214,462.152,5.78347
959.0352,463.152,5.78028
965.0526,464.152,5.77655
971.0706,465.152,5.77458
977.0844,466.152,5.77186
983.1072,467.152,5.76828
989.1318,468.152,5.76555
995.1546,469.152,5.76209
1001.18,470.152,5.75937
1007.19,471.152,5.75587
1013.208,472.152,5.75319
1019.22,473.152,5.75107
1025.23,474.152,5.74952
1031.25,475.152,5.74525
1037.26,476.152,5.74334
1043.262,477.152,5.74076
1049.27,478.152,5.74066
1055.28,479.152,5.73683
1061.3,480.152,5.73467
1067.31,481.152,5.73256
1073.32,482.152,5.73117
1079.33,483.152,5.72715
1085.337,484.152,5.72454
1091.35,485.152,5.72312
1097.36,486.152,5.72048
1103.37,487.152,5.71777
1109.38,488.152,5.71497
1115.39,489.152,5.71219
1121.412,490.152,5.70984
1127.43,491.152,5.70848
1133.44,492.152,5.7057
1139.46,493.152,5.70571
1145.48,494.152,5.70437
1151.502,495.152,5.70343
1157.526,496.152,5.70185
1163.55,497.152,5.70168
1169.57,498.152,5.70169
1175.6,499.152,5.70169
1181.63,500.152,5.69896
1187.66,501.152,5.69901
1193.7,502.152,5.69901
1199.73,503.152,5.69766
1205.76,504.152,5.69767
1211.79,505.152,5.69633
1217.83,506.152,5.69598
1223.862,507.152,5.69633
1229.89,508.152,5.69499
1235.91,509.152,5.69499
1241.92,510.152,5.69432
1247.94,511.152,5.69298
1253.96,512.152,5.69332
1259.982,513.152,5.69332
1266,514.152,5.69231
1272.02,515.152,5.69097
1278.04,516.152,5.69231
1284.07,517.152,5.69097
1290.09,518.152,5.69064
1296.11,519.152,5.69063
1302.13,520.152,5.6905
1308.15,521.152,5.6893
1314.17,522.152,5.68796
1320.18,523.152,5.68662
1326.2,524.152,5.68561
1332.21,525.152,5.68562
1338.24,526.152,5.68562
1344.26,527.152,5.68428
1350.28,528.152,5.68428
1356.3,529.152,5.68403
1362.32,530.152,5.6826
1368.34,531.152,5.68126
1374.36,532.152,5.67992
1380.38,533.152,5.6786
1386.4,534.152,5.67724
1392.42,535.152,5.6759
1398.44,536.152,5.67477
1404.456,537.152,5.6738
1410.47,538.152,5.67187
1416.483,539.152,5.67054
1422.49,540.152,5.66919
1428.51,541.152,5.66653
1434.52,542.152,5.6652
1440.53,543.152,5.66484
1446.543,544.152,5.66159
1452.56,545.152,5.65839
1458.57,546.152,5.65742
1464.59,547.152,5.65638
1470.6,548.152,5.65124
1476.61,549.152,5.65011
1482.62,550.152,5.64743
1488.636,551.152,5.64544
1494.65,552.152,5.64156
1500.65,553.152,5.63771
1506.66,554.152,5.63773
1512.67,555.152,5.63384
1518.69,556.152,5.62835
1524.705,557.152,5.62559
1530.72,558.152,5.62271
1536.74,559.152,5.6183
1542.76,560.152,5.61295
1548.786,561.152,5.60822
1554.81,562.152,5.60484
1560.83,563.152,5.60107
1566.85,564.152,5.59571
1572.87,565.152,5.59063
1578.88,566.152,5.58537
1584.888,567.152,5.57993
1590.9,568.152,5.57501
1596.91,569.152,5.56886
1602.93,570.152,5.56401
1608.95,571.152,5.55705
1614.96,572.152,5.55219
1620.97,573.152,5.54665
1626.98,574.152,5.53832
1632.99,575.152,5.53188
1639.005,576.152,5.52506
1645.017,577.152,5.51822
1651.026,578.152,5.51143
1657.03,579.152,5.50583
1663.029,580.152,5.49825
1669.02,581.152,5.4904
1675.02,582.152,5.48212
1681.01,583.152,5.475
1687,584.152,5.46597
1692.99,585.152,5.45628
1698.98,586.152,5.44884
1704.975,587.152,5.43907
1710.97,588.152,5.42886
1716.97,589.152,5.41687
1722.97,590.152,5.40705
1728.98,591.152,5.39522
1735,592.152,5.38509
1741.02,593.152,5.37178
1747.05,594.152,5.35897
1753.09,595.152,5.34428
1759.13,596.152,5.32675
1765.17,597.152,5.31269
1771.21,598.152,5.29341
1777.251,599.152,5.27725
1783.29,600.152,5.25749
1789.338,601.152,5.23936
1795.39,602.152,5.21803
1801.43,603.152,5.19661
1807.47,604.152,5.17031
1813.52,605.152,5.14553
1819.57,606.152,5.11743
1825.608,607.152,5.0887
1831.65,608.152,5.05754
1837.69,609.152,5.02645
1843.73,610.152,4.99191
1849.77,611.152,4.95356
1855.812,612.152,4.91549
1861.85,613.152,4.87444
1867.88,614.152,4.83258
1873.92,615.152,4.78587
1879.96,616.152,4.73835
1886,617.152,4.68516
1892.046,618.152,4.63107
1898.09,619.152,4.57587
1904.14,620.152,4.51876
1910.18,621.152,4.45612
1916.217,622.152,4.38923
1922.25,623.152,4.32087
1928.28,624.152,4.25066
1934.31,625.152,4.1765
1940.33,626.152,4.10112
1946.35,627.152,4.02138
1952.36,628.152,3.94093
1958.37,629.152,3.8549
1964.37,630.152,3.76886
1970.38,631.152,3.67642
1976.376,632.152,3.58758
1982.37,633.152,3.49038
1988.37,634.152,3.39596
1994.36,635.152,3.29492
2000.34,636.152,3.19852
2006.31,637.152,3.09519
2012.28,638.152,2.99579
2018.24,639.152,2.89327
2024.2,640.152,2.79221
2030.15,641.152,2.68944
2036.08,642.152,2.58853
2042,643.152,2.49081
2047.93,644.152,2.38773
2053.85,645.152,2.28157
2059.78,646.152,2.18428
2065.725,647.152,2.08476
2071.66,648.152,1.98609
2077.6,649.152,1.88819
2083.54,650.152,1.78994
2089.47,651.152,1.70019
2095.41,652.152,1.60137
2101.338,653.152,1.51238
2107.27,654.152,1.42108
2113.21,655.152,1.33885
2119.15,656.152,1.24766
2125.1,657.152,1.17034
2131.04,658.152,1.09021
2136.99,659.152,1.01765
2142.94,660.152,0.944578
2148.888,661.152,0.877647
2154.84,662.152,0.812412
2160.8,663.152,0.752018
2166.76,664.152,0.693215
2172.74,665.152,0.641516
2178.71,666.152,0.59095
2184.69,667.152,0.542445
2190.675,668.152,0.499788
2196.67,669.152,0.458511
2202.67,670.152,0.419514
2208.68,671.152,0.383603
2214.69,672.152,0.351222
2220.72,673.152,0.320937
2226.747,674.152,0.293033
2232.78,675.152,0.268817
2238.82,676.152,0.244975
2244.861,677.152,0.223937
2250.91,678.152,0.204311
2256.96,679.152,0.186939
2263.011,680.152,0.171288
2269.07,681.152,0.157312
2275.13,682.152,0.144668
2281.19,683.152,0.13223
2287.24,684.152,0.122215
2293.28,685.152,0.11218
2299.33,686.152,0.105234
2305.39,687.152,0.0968912
2311.44,688.152,0.08978352
2317.491,689.152,0.0856149
2323.536,690.152,0.0801535
2329.575,691.152,0.07425126
2335.61,692.152,0.0704028
2341.66,693.152,0.067704
2347.7,694.152,0.0644407
2353.728,695.152,0.0608813
2359.75,696.152,0.05786183
2365.779,697.152,0.0551889
2371.8,698.152,0.0535103
2377.8,699.152,0.0525077
2383.794,700.152,0.05050611
2389.78,701.152,0.049836
2395.77,702.152,0.0471443
2401.77,703.152,0.0458263
2407.77,704.152,0.0444655
2413.78,705.152,0.044469
2419.81,706.152,0.0444678
2425.85,707.152,0.0437472
2431.89,708.152,0.0424539
2437.94,709.152,0.0411177
2443.99,710.152,0.04112062
2450.03,711.152,0.0421279
2456.07,712.152,0.0407366
2462.13,713.152,0.0407876
2468.2,714.152,0.0417849
2474.262,715.152,0.0424574
2480.3,716.152,0.041086
2486.325,717.152,0.041103
2492.34,718.152,0.04280975
2498.35,719.152,0.0434682
2504.36,720.152,0.0425225
2510.36,721.152,0.0418441
2516.361,722.152,0.0417298
2522.364,723.152,0.0421279
2528.37,724.152,0.042798
2534.36,725.152,0.0428068
2540.36,726.152,0.0418435
2546.36,727.152,0.0411177
2552.35,728.152,0.0414419
2558.35,729.152,0.0421279
2564.34,730.152,0.0434775
2570.34,731.152,0.0418682
2576.34,732.152,0.040118
2582.33,733.152,0.040118
2588.32,734.152,0.040118
2594.32,735.152,0.041422
2600.32,736.152,0.0414577
2606.32,737.152,0.0421343
2612.32,738.152,0.0421279
2618.31,739.152,0.0414847
2624.304,740.152,0.0411177
2630.3,741.152,0.04245797
2636.3,742.152,0.04245797
2642.3,743.152,0.0427576
2648.29,744.152,0.0441377
2654.28,745.152,0.0436341
2660.28,746.152,0.0414577
2666.274,747.152,0.0414589
2672.271,748.152,0.0424574
2678.27,749.152,0.04245797
2684.27,750.152,0.0424562
2690.26,751.152,0.04159435
2696.26,752.152,0.04245797
2702.265,753.152,0.0411189
2708.26,754.152,0.0410333
2714.26,755.152,0.0437994
2720.26,756.152,0.041456
2726.26,757.152,0.0414577
2732.26,758.152,0.0414577
2738.26,759.152,0.0414577
2744.26,760.152,0.0414114
2750.26,761.152,0.042798
2756.26,762.152,0.0414736
2762.256,763.152,0.0414577
2768.25,764.152,0.04277809
2774.25,765.152,0.0433192
2780.24,766.152,0.0424668
2786.24,767.152,0.0412385
2792.232,768.152,0.0411177
2798.22,769.152,0.0424621
2804.21,770.152,0.04245797
2810.2,771.152,0.0414472
2816.19,772.152,0.0404481
2822.18,773.152,0.0404481
2828.17,774.152,0.0404481
2834.16,775.152,0.0404481
2840.15,776.152,0.0414495
2846.14,777.152,0.04245797
2852.139,778.152,0.0411118
2858.14,779.152,0.0414349
2864.14,780.152,0.04245797
2870.14,781.152,0.0424615
2876.136,782.152,0.0411177
2882.14,783.152,0.0411177
2888.15,784.152,0.0424638
2894.16,785.152,0.04213785
2900.16,786.152,0.0417878
2906.17,787.152,0.0407647
2912.19,788.152,0.0414261
2918.21,789.152,0.0426444
2924.22,790.152,0.042448
2930.23,791.152,0.042098
2936.24,792.152,0.0421179
2942.256,793.152,0.0421179
2948.27,794.152,0.0421179
2954.28,795.152,0.0421156
2960.29,796.152,0.0431439
2966.29,797.152,0.0430906
2972.3,798.152,0.0434582
2978.301,799.152,0.04343885
2984.3,800.152,0.0421179
2990.31,801.152,0.0421179
2996.31,802.152,0.0421185
3002.316,803.152,0.0411177
3008.32,804.152,0.0411183
3014.316,805.152,0.0414448
3020.32,806.152,0.0434535
3026.32,807.152,0.0434582
3032.31,808.152,0.0421179
3038.31,809.152,0.0407765
3044.3,810.152,0.0421179
3050.28,811.152,0.0414484
3056.27,812.152,0.0416289
3062.26,813.152,0.04244683
3068.244,814.152,0.0431193
3074.23,815.152,0.0417697
3080.223,816.152,0.0417796
3086.22,817.152,0.0431205
3092.22,818.152,0.043117
3098.22,819.152,0.0420241
3104.23,820.152,0.0417315
3110.23,821.152,0.0417784
3116.22,822.152,0.04115228
3122.22,823.152,0.0417779
3128.22,824.152,0.0417708
3134.22,825.152,0.0431181
3140.23,826.152,0.0417996
3146.24,827.152,0.0431
3152.25,828.152,0.042448
3158.25,829.152,0.042448
3164.25,830.152,0.042448
3170.26,831.152,0.042448
3176.26,832.152,0.042448
3182.26,833.152,0.043151
3188.27,834.152,0.0431176
3194.27,835.152,0.0444608
3200.274,836.152,0.0431181
3206.28,837.152,0.0431146
3212.29,838.152,0.0444567
3218.3,839.152,0.043117
3224.31,840.152,0.0431205
3230.33,841.152,0.0436857
3236.343,842.152,0.0431181
3242.355,843.152,0.0431111
3248.37,844.152,0.0441254
3254.38,845.152,0.0441278
3260.4,846.152,0.0414478
3266.42,847.152,0.0427881
3272.45,848.152,0.0427881
3278.46,849.152,0.0431293
3284.47,850.152,0.044119
3290.47,851.152,0.0430349
3296.48,852.152,0.0427922
3302.49,853.152,0.04412658
3308.496,854.152,0.0427851
3314.5,855.152,0.0429118
3320.505,856.152,0.044238
3326.5,857.152,0.0436312
3332.499,858.152,0.04100336
3338.5,859.152,0.0410462
3344.51,860.152,0.0410174
3350.514,861.152,0.0423477
3356.52,862.152,0.0423413
3362.54,863.152,0.0416682
3368.55,864.152,0.0430085
3374.55,865.152,0.0416612
3380.56,866.152,0.042995
3386.57,867.152,0.0428408
3392.58,868.152,0.0423378
3398.58,869.152,0.0437349
3404.58,870.152,0.0430009
3410.571,871.152,0.0430079
3416.553,872.152,0.04302844
3422.53,873.152,0.0443505
3428.52,874.152,0.0430079
3434.51,875.152,0.0430079
3440.508,876.152,0.0430079
3446.51,877.152,0.0416676
3452.511,878.152,0.0430067
3458.52,879.152,0.0430079
3464.53,880.152,0.0430079
3470.54,881.152,0.0430202
3476.54,882.152,0.04469
3482.55,883.152,0.0440134
3488.556,884.152,0.0440181
3494.56,885.152,0.0433544
3500.57,886.152,0.0446865
3506.58,887.152,0.0440609
3512.59,888.152,0.043348
3518.61,889.152,0.04367806
3524.62,890.152,0.0446713
3530.64,891.152,0.0440193
3536.65,892.152,0.0440181
3542.66,893.152,0.04401401
3548.67,894.152,0.0450277
3554.68,895.152,0.0440205
3560.7,896.152,0.0440621
3566.703,897.152,0.043688
3572.703,898.152,0.043688
3578.7,899.152,0.043688
3584.697,900.152,0.0436869
3590.69,901.152,0.0422991
3596.69,902.152,0.04234071
3602.69,903.152,0.0438938
3608.673,904.152,0.0425811
3614.65,905.152,0.0440181
3620.64,906.152,0.0436728
3626.619,907.152,0.0426784
3632.604,908.152,0.0426509
3638.589,909.152,0.0426778
3644.57,910.152,0.0426778
3650.56,911.152,0.0403543
3656.553,912.152,0.040284
3662.55,913.152,0.0443558
3668.54,914.152,0.0443582
3674.54,915.152,0.0457008
3680.55,916.152,0.0450277
3686.56,917.152,0.0450277
3692.571,918.152,0.0450277
3698.589,919.152,0.0450277
3704.61,920.152,0.043956
3710.62,921.152,0.0439888
3716.631,922.152,0.0440351
3722.64,923.152,0.0419954
3728.65,924.152,0.0420077
3734.649,925.152,0.0420083
3740.652,926.152,0.0426169
3746.66,927.152,0.0433996
3752.65,928.152,0.0446877
3758.63,929.152,0.0450922
3764.59,930.152,0.0446167
3770.57,931.152,0.0460414
3776.57,932.152,0.0446883
3782.58,933.152,0.0446871
3788.59,934.152,0.0433474
3794.604,935.152,0.043372
3800.63,936.152,0.0430179
3806.649,937.152,0.0430179
3812.66,938.152,0.0430179
3818.67,939.152,0.0430179
3824.67,940.152,0.0443998
3830.68,941.152,0.0456949
3836.68,942.152,0.0443412
3842.679,943.152,0.0430073
3848.682,944.152,0.0443482
3854.69,945.152,0.0421742
3860.68,946.152,0.0423378
3866.68,947.152,0.0431756
3872.68,948.152,0.0428484
3878.67,949.152,0.0427605
3884.664,950.152,0.04367806
3890.66,951.152,0.04370034
3896.65,952.152,0.0450178
3902.64,953.152,0.0447293
3908.643,954.152,0.0461053
3914.64,955.152,0.0434447
3920.65,956.152,0.04357663
3926.65,957.152,0.0434676
3932.65,958.152,0.0428139
3938.65,959.152,0.0434682
3944.649,960.152,0.0434682
3950.65,961.152,0.0435104
3956.65,962.152,0.0448061
3962.66,963.152,0.04434996
3968.68,964.152,0.0431416
3974.697,965.152,0.0431434
3980.71,966.152,0.0445012
3986.72,967.152,0.0444678
3992.73,968.152,0.0444995
3998.74,969.152,0.0460344
4004.742,970.152,0.0463059
4010.74,971.152,0.0473542
4016.736,972.152,0.045947
4022.73,973.152,0.0449322
4028.721,974.152,0.046358
4034.71,975.152,0.04392841
4040.7,976.152,0.043688
4046.682,977.152,0.0437027
4052.67,978.152,0.0446877
4058.66,979.152,0.0446877
4064.64,980.152,0.0446877
4070.628,981.152,0.0446953
4076.62,982.152,0.0450178
4082.62,983.152,0.0460285
4088.6,984.152,0.0436077
4094.59,985.152,0.0450793
4100.58,986.152,0.0447709
4106.59,987.152,0.0433474
4112.592,988.152,0.0433497
4118.6,989.152,0.0446988
4124.6,990.152,0.0456979
4130.61,991.152,0.0443599
4136.62,992.152,0.0453561
4142.63,993.152,0.04535781
4148.63,994.152,0.04535781
4154.64,995.152,0.04535781
4160.65,996.152,0.0456979
4166.65,997.152,0.0443752
4172.673,998.152,0.0457002
4178.69,999.152,0.0456979
4184.694,1000.152,0.0456979
4190.7,1001.152,0.0446888
4196.71,1002.152,0.0446877
4202.72,1003.152,0.0446877
4208.727,1004.152,0.0446877
4214.74,1005.152,0.0447703
4220.75,1006.152,0.04601857
4226.75,1007.152,0.0456979
4232.76,1008.152,0.0456967
4238.77,1009.152,0.0443576
4244.77,1010.152,0.0437812
4250.76,1011.152,0.0436816
4256.75,1012.152,0.0450541
4262.73,1013.152,0.046368
4268.71,1014.152,0.0450142
4274.7,1015.152,0.0446806
4280.68,1016.152,0.0459177
4286.67,1017.152,0.0439231
4292.649,1018.152,0.0452482
4298.63,1019.152,0.0452464
4304.61,1020.152,0.04390789
4310.58,1021.152,0.0435684
4316.556,1022.152,0.0435678
4322.54,1023.152,0.0435678
4328.53,1024.152,0.0449075
4334.52,1025.152,0.0449064
4340.51,1026.152,0.0462279
4346.51,1027.152,0.0475775
4352.499,1028.152,0.0455267
4358.49,1029.152,0.0455736
4364.5,1030.152,0.0442403
4370.511,1031.152,0.0468857
4376.52,1032.152,0.0490861
4382.52,1033.152,0.0462079
4388.53,1034.152,0.0446976
4394.53,1035.152,0.04335794
4400.54,1036.152,0.04431185
4406.55,1037.152,0.0456979
4412.55,1038.152,0.0457717
4418.562,1039.152,0.0469238
4424.56,1040.152,0.0473676
4430.559,1041.152,0.0463668
4436.56,1042.152,0.0463528
4442.57,1043.152,0.046256
4448.58,1044.152,0.0473676
4454.58,1045.152,0.0460743
4460.58,1046.152,0.0446613
4466.583,1047.152,0.04462728
4472.58,1048.152,0.0450137
4478.58,1049.152,0.0450207
4484.59,1050.152,0.0473676
4490.6,1051.152,0.0473501
4496.607,1052.152,0.0460291
4502.61,1053.152,0.0471994
4508.61,1054.152,0.0463487
4514.6,1055.152,0.0477951
4520.6,1056.152,0.04769656
4526.6,1057.152,0.0476983
4532.589,1058.152,0.0476977
4538.56,1059.152,0.0476432
4544.55,1060.152,0.0477018
4550.52,1061.152,0.0450183
4556.5,1062.152,0.0476977
4562.48,1063.152,0.0476995
4568.46,1064.152,0.0490755
4574.45,1065.152,0.0483679
4580.42,1066.152,0.0487402
4586.4,1067.152,0.0497082
4592.38,1068.152,0.048379
4598.36,1069.152,0.04836846
4604.346,1070.152,0.0493746
4610.33,1071.152,0.0507178
4616.37,1072.152,0.0493781