File: PMMA/Calibration_Data/NIST/NIST_DSC_N2_10K_1.csv
Time,Temperature,Heat Flow
[s],[K],[mW/mg]
0,303.147,0.003923031
50.907,304.147,0.06448089
63.1962,305.147,0.10242
72.054,306.147,0.13411
79.3158,307.147,0.16435
85.6476,308.147,0.19213
91.3692,309.147,0.21848
96.6696,310.147,0.2429
101.6652,311.147,0.26587
106.4256,312.147,0.28764
111.0048,313.147,0.30789
115.4478,314.147,0.32667
119.7894,315.147,0.344
124.0524,316.147,0.35958
128.2572,317.147,0.37392
132.4218,318.147,0.38708
136.5618,319.147,0.39833
140.6892,320.147,0.40879
144.8148,321.147,0.41738
148.9506,322.147,0.42511
153.1086,323.147,0.43146
157.2972,324.147,0.43621
161.5236,325.147,0.44044
165.7926,326.147,0.443
170.1138,327.147,0.44472
174.4926,328.147,0.44572
178.935,329.147,0.44584
183.4434,330.147,0.4452
188.0226,331.147,0.4441
192.6768,332.147,0.44211
197.4132,333.147,0.4403
202.2294,334.147,0.43769
207.1254,335.147,0.43529
212.0958,336.147,0.43267
217.1466,337.147,0.42994
222.2736,338.147,0.42699
227.4702,339.147,0.4244
232.731,340.147,0.42179
238.0494,341.147,0.41888
243.423,342.147,0.41563
248.8476,343.147,0.41197
254.31,344.147,0.4083
259.8042,345.147,0.40439
265.3284,346.147,0.40065
270.8682,347.147,0.3972
276.4308,348.147,0.39438
282.0096,349.147,0.3922
287.5974,350.147,0.39105
293.199,351.147,0.39004
298.8054,352.147,0.38959
304.4148,353.147,0.38975
310.0296,354.147,0.39015
315.6534,355.147,0.39057
321.2844,356.147,0.391
326.9184,357.147,0.39166
332.5608,358.147,0.39272
338.2164,359.147,0.39341
343.8792,360.147,0.39403
349.551,361.147,0.39475
355.2372,362.147,0.39555
360.9438,363.147,0.39589
366.6684,364.147,0.39647
372.4098,365.147,0.39702
378.1668,366.147,0.39715
383.9472,367.147,0.39728
389.7486,368.147,0.39772
395.5698,369.147,0.39776
401.4192,370.147,0.39761
407.2866,371.147,0.39799
413.178,372.147,0.39799
419.0946,373.147,0.39785
425.0322,374.147,0.39791
430.9932,375.147,0.39814
436.9692,376.147,0.3981
442.9596,377.147,0.39836
448.9692,378.147,0.39867
454.9932,379.147,0.39904
461.0214,380.147,0.39983
467.0628,381.147,0.40091
473.103,382.147,0.40184
479.1462,383.147,0.40309
485.199,384.147,0.40448
491.2584,385.147,0.40592
497.3154,386.147,0.40795
503.3676,387.147,0.4102
509.4204,388.147,0.41243
515.469,389.147,0.41544
521.5104,390.147,0.41873
527.5428,391.147,0.42193
533.5674,392.147,0.42564
539.5872,393.147,0.42978
545.6034,394.147,0.43412
551.6082,395.147,0.43905
557.6046,396.147,0.44354
563.5956,397.147,0.44782
569.5764,398.147,0.45224
575.5554,399.147,0.45556
581.5362,400.147,0.45891
587.5158,401.147,0.46146
593.4966,402.147,0.46354
599.4702,403.147,0.46563
605.436,404.147,0.46711
611.4018,405.147,0.46848
617.364,406.147,0.46958
623.3256,407.147,0.47058
629.2914,408.147,0.47167
635.256,409.147,0.47311
641.22,410.147,0.47393
647.1792,411.147,0.47496
653.1396,412.147,0.47591
659.1042,413.147,0.47685
665.0646,414.147,0.47785
671.0238,415.147,0.47908
676.9842,416.147,0.47996
682.9476,417.147,0.48085
688.9128,418.147,0.48169
694.8786,419.147,0.48265
700.8462,420.147,0.4836
706.8168,421.147,0.48441
712.788,422.147,0.48512
718.7604,423.147,0.48567
724.7418,424.147,0.48673
730.725,425.147,0.48769
736.7148,426.147,0.48869
742.704,427.147,0.48963
748.6926,428.147,0.49079
754.6884,429.147,0.49214
760.6884,430.147,0.49365
766.6848,431.147,0.49528
772.6818,432.147,0.49671
778.6806,433.147,0.49907
784.6806,434.147,0.50065
790.6794,435.147,0.50313
796.6764,436.147,0.50534
802.6764,437.147,0.50782
808.6722,438.147,0.51034
814.6716,439.147,0.51304
820.6734,440.147,0.51622
826.6734,441.147,0.51926
832.683,442.147,0.52251
838.6974,443.147,0.52509
844.7082,444.147,0.52807
850.7184,445.147,0.53119
856.7316,446.147,0.53409
862.7508,447.147,0.53718
868.7706,448.147,0.54079
874.791,449.147,0.54397
880.8102,450.147,0.54732
886.8288,451.147,0.55025
892.8486,452.147,0.55349
898.8684,453.147,0.55668
904.8876,454.147,0.55907
910.9026,455.147,0.56123
916.9158,456.147,0.56319
922.9314,457.147,0.56508
928.9428,458.147,0.56639
934.9542,459.147,0.56726
940.9674,460.147,0.56805
946.9854,461.147,0.56818
952.9998,462.147,0.56773
959.0094,463.147,0.56734
965.0184,464.147,0.56585
971.0262,465.147,0.56474
977.0376,466.147,0.56302
983.0484,467.147,0.56103
989.0586,468.147,0.55918
995.0712,469.147,0.55738
1001.08,470.147,0.55531
1007.088,471.147,0.55329
1013.1,472.147,0.55216
1019.11,473.147,0.55142
1025.12,474.147,0.55047
1031.13,475.147,0.55017
1037.14,476.147,0.55026
1043.16,477.147,0.55082
1049.18,478.147,0.55121
1055.21,479.147,0.55234
1061.24,480.147,0.55373
1067.268,481.147,0.55571
1073.29,482.147,0.55744
1079.319,483.147,0.55873
1085.34,484.147,0.56017
1091.36,485.147,0.56136
1097.39,486.147,0.56249
1103.412,487.147,0.56304
1109.43,488.147,0.56287
1115.46,489.147,0.56241
1121.48,490.147,0.56135
1127.49,491.147,0.55975
1133.51,492.147,0.55758
1139.535,493.147,0.55503
1145.56,494.147,0.55231
1151.57,495.147,0.54915
1157.59,496.147,0.54569
1163.61,497.147,0.54241
1169.63,498.147,0.53932
1175.66,499.147,0.5365
1181.68,500.147,0.53405
1187.703,501.147,0.53214
1193.73,502.147,0.53069
1199.75,503.147,0.52925
1205.77,504.147,0.52831
1211.79,505.147,0.52769
1217.81,506.147,0.52723
1223.83,507.147,0.52736
1229.85,508.147,0.52709
1235.87,509.147,0.52695
1241.883,510.147,0.52725
1247.9,511.147,0.52753
1253.92,512.147,0.52796
1259.943,513.147,0.52827
1265.96,514.147,0.52895
1271.982,515.147,0.52946
1278.006,516.147,0.53001
1284.03,517.147,0.53089
1290.05,518.147,0.5315
1296.07,519.147,0.53225
1302.09,520.147,0.53296
1308.11,521.147,0.53392
1314.123,522.147,0.53493
1320.14,523.147,0.53594
1326.17,524.147,0.53718
1332.19,525.147,0.5381
1338.21,526.147,0.53968
1344.23,527.147,0.54094
1350.25,528.147,0.54254
1356.27,529.147,0.54386
1362.29,530.147,0.54523
1368.31,531.147,0.54707
1374.33,532.147,0.54855
1380.35,533.147,0.55032
1386.37,534.147,0.55204
1392.39,535.147,0.55331
1398.41,536.147,0.55552
1404.43,537.147,0.55752
1410.45,538.147,0.55969
1416.47,539.147,0.56171
1422.49,540.147,0.56364
1428.51,541.147,0.56578
1434.53,542.147,0.56787
1440.54,543.147,0.57097
1446.56,544.147,0.5737
1452.579,545.147,0.57614
1458.6,546.147,0.57879
1464.62,547.147,0.58162
1470.63,548.147,0.58465
1476.65,549.147,0.5883
1482.666,550.147,0.59146
1488.68,551.147,0.59526
1494.69,552.147,0.59863
1500.7,553.147,0.60293
1506.72,554.147,0.60711
1512.73,555.147,0.61116
1518.74,556.147,0.61546
1524.75,557.147,0.61951
1530.76,558.147,0.62406
1536.762,559.147,0.62876
1542.76,560.147,0.63313
1548.76,561.147,0.63829
1554.76,562.147,0.64392
1560.76,563.147,0.6496
1566.75,564.147,0.65557
1572.747,565.147,0.66101
1578.75,566.147,0.66684
1584.75,567.147,0.67243
1590.76,568.147,0.67789
1596.78,569.147,0.68302
1602.79,570.147,0.68753
1608.801,571.147,0.69234
1614.82,572.147,0.69665
1620.84,573.147,0.70034
1626.87,574.147,0.70467
1632.89,575.147,0.70864
1638.909,576.147,0.7129
1644.924,577.147,0.71722
1650.94,578.147,0.72237
1656.96,579.147,0.72721
1662.97,580.147,0.73201
1668.98,581.147,0.73798
1674.987,582.147,0.74371
1681,583.147,0.75066
1687.01,584.147,0.75821
1693.02,585.147,0.76632
1699.023,586.147,0.77573
1705.03,587.147,0.78667
1711.04,588.147,0.79884
1717.04,589.147,0.81228
1723.053,590.147,0.82702
1729.062,591.147,0.84332
1735.06,592.147,0.86105
1741.068,593.147,0.88005
1747.08,594.147,0.90023
1753.08,595.147,0.92097
1759.089,596.147,0.94349
1765.1,597.147,0.96659
1771.12,598.147,0.99104
1777.13,599.147,1.01672
1783.15,600.147,1.04334
1789.18,601.147,1.07216
1795.21,602.147,1.10238
1801.25,603.147,1.13446
1807.29,604.147,1.16841
1813.338,605.147,1.20409
1819.39,606.147,1.24251
1825.431,607.147,1.28233
1831.476,608.147,1.32516
1837.52,609.147,1.36989
1843.58,610.147,1.41721
1849.623,611.147,1.46627
1855.67,612.147,1.51784
1861.716,613.147,1.5719
1867.76,614.147,1.62839
1873.82,615.147,1.68664
1879.87,616.147,1.74674
1885.92,617.147,1.80937
1891.96,618.147,1.87356
1898.01,619.147,1.939
1904.05,620.147,2.00597
1910.1,621.147,2.07389
1916.127,622.147,2.14282
1922.16,623.147,2.21117
1928.19,624.147,2.28029
1934.21,625.147,2.34873
1940.235,626.147,2.41675
1946.25,627.147,2.48343
1952.27,628.147,2.54861
1958.28,629.147,2.61138
1964.27,630.147,2.67133
1970.27,631.147,2.72753
1976.25,632.147,2.78068
1982.235,633.147,2.82712
1988.22,634.147,2.86999
1994.19,635.147,2.90328
2000.16,636.147,2.93542
2006.121,637.147,2.95924
2012.085,638.147,2.96761
2018.04,639.147,2.96872
2023.99,640.147,2.97384
2029.93,641.147,2.98224
2035.88,642.147,2.95167
2041.83,643.147,2.90412
2047.76,644.147,2.87297
2053.7,645.147,2.88561
2059.64,646.147,2.85747
2065.58,647.147,2.87278
2071.515,648.147,2.82
2077.455,649.147,2.76004
2083.4,650.147,2.705
2089.34,651.147,2.66115
2095.29,652.147,2.5782
2101.233,653.147,2.51184
2107.18,654.147,2.42469
2113.13,655.147,2.33076
2119.071,656.147,2.24524
2125.02,657.147,2.1504
2130.96,658.147,2.05167
2136.91,659.147,1.95317
2142.87,660.147,1.85577
2148.84,661.147,1.76822
2154.8,662.147,1.67509
2160.78,663.147,1.58226
2166.75,664.147,1.49267
2172.735,665.147,1.406
2178.72,666.147,1.31863
2184.72,667.147,1.23632
2190.72,668.147,1.15963
2196.73,669.147,1.08859
2202.74,670.147,1.01674
2208.75,671.147,0.95398
2214.77,672.147,0.89221
2220.795,673.147,0.83316
2226.83,674.147,0.77649
2232.87,675.147,0.72324
2238.91,676.147,0.67344
2244.96,677.147,0.62649
2251.01,678.147,0.58313
2257.07,679.147,0.54269
2263.125,680.147,0.50554
2269.176,681.147,0.47092
2275.23,682.147,0.43992
2281.296,683.147,0.41213
2287.35,684.147,0.38593
2293.41,685.147,0.36278
2299.47,686.147,0.3417
2305.512,687.147,0.32247
2311.56,688.147,0.30538
2317.6,689.147,0.2902
2323.638,690.147,0.27635
2329.67,691.147,0.26433
2335.7,692.147,0.25415
2341.74,693.147,0.24436
2347.76,694.147,0.23605
2353.78,695.147,0.22938
2359.81,696.147,0.22368
2365.821,697.147,0.21927
2371.83,698.147,0.21579
2377.84,699.147,0.21709
2383.84,700.147,0.22196
2389.83,701.147,0.2283
2395.82,702.147,0.23407
2401.82,703.147,0.23954
2407.83,704.147,0.24298
2413.85,705.147,0.24559
2419.87,706.147,0.24563
2425.9,707.147,0.24394
2431.93,708.147,0.24001
2437.97,709.147,0.2347
2444.01,710.147,0.22925
2450.04,711.147,0.21822
2456.09,712.147,0.19929
2462.154,713.147,0.18112
2468.21,714.147,0.17107
2474.25,715.147,0.16728
2480.29,716.147,0.16692
2486.319,717.147,0.16611
2492.34,718.147,0.16469
2498.35,719.147,0.16459
2504.36,720.147,0.16529
2510.36,721.147,0.16573
2516.36,722.147,0.16619
2522.36,723.147,0.16671
2528.36,724.147,0.16712
2534.36,725.147,0.1674
2540.35,726.147,0.16767
2546.34,727.147,0.16776
2552.33,728.147,0.16807
2558.33,729.147,0.1682
2564.33,730.147,0.16821
2570.33,731.147,0.16822
2576.328,732.147,0.16861
2582.32,733.147,0.16867
2588.31,734.147,0.1695
2594.31,735.147,0.16957
2600.3,736.147,0.17028
2606.3,737.147,0.17022
2612.29,738.147,0.17091
2618.29,739.147,0.17143
2624.28,740.147,0.17196
2630.27,741.147,0.17244
2636.27,742.147,0.17281
2642.27,743.147,0.1737
2648.27,744.147,0.1736
2654.27,745.147,0.17408
2660.26,746.147,0.17473
2666.26,747.147,0.17559
2672.26,748.147,0.17712
2678.259,749.147,0.17831
2684.262,750.147,0.18082
2690.27,751.147,0.18157
2696.271,752.147,0.18295
2702.277,753.147,0.18382
2708.28,754.147,0.18509
2714.292,755.147,0.18553
2720.298,756.147,0.18611
2726.31,757.147,0.18703
2732.33,758.147,0.18739
2738.337,759.147,0.18757
2744.34,760.147,0.18841
2750.34,761.147,0.18868
2756.33,762.147,0.18868
2762.33,763.147,0.18896
2768.32,764.147,0.18936
2774.313,765.147,0.18943
2780.31,766.147,0.18964
2786.3,767.147,0.19037
2792.3,768.147,0.19057
2798.3,769.147,0.19118
2804.3,770.147,0.19142
2810.29,771.147,0.19168
2816.29,772.147,0.19153
2822.289,773.147,0.19203
2828.28,774.147,0.19259
2834.28,775.147,0.19302
2840.274,776.147,0.19306
2846.27,777.147,0.1934
2852.27,778.147,0.19325
2858.26,779.147,0.19404
2864.26,780.147,0.19403
2870.25,781.147,0.19464
2876.247,782.147,0.19535
2882.238,783.147,0.19545
2888.23,784.147,0.19581
2894.226,785.147,0.19664
2900.229,786.147,0.19675
2906.235,787.147,0.19756
2912.24,788.147,0.19825
2918.25,789.147,0.19818
2924.26,790.147,0.19916
2930.26,791.147,0.19952
2936.26,792.147,0.20022
2942.274,793.147,0.20082
2948.28,794.147,0.20132
2954.28,795.147,0.20173
2960.28,796.147,0.20191
2966.271,797.147,0.20272
2972.271,798.147,0.20333
2978.26,799.147,0.20343
2984.25,800.147,0.20449
2990.24,801.147,0.20503
2996.23,802.147,0.2054
3002.21,803.147,0.20598
3008.19,804.147,0.20612
3014.17,805.147,0.20718
3020.15,806.147,0.20725
3026.142,807.147,0.20799
3032.133,808.147,0.20826
3038.13,809.147,0.20892
3044.13,810.147,0.20932
3050.118,811.147,0.20988
3056.12,812.147,0.21004
3062.11,813.147,0.21028
3068.11,814.147,0.21002
3074.106,815.147,0.21003
3080.11,816.147,0.21019
3086.11,817.147,0.21093
3092.12,818.147,0.21086
3098.13,819.147,0.21179
3104.15,820.147,0.2126
3110.16,821.147,0.21313
3116.17,822.147,0.21314
3122.18,823.147,0.21408
3128.19,824.147,0.21467
3134.199,825.147,0.21538
3140.21,826.147,0.21627
3146.23,827.147,0.21733
3152.26,828.147,0.21771
3158.28,829.147,0.21885
3164.29,830.147,0.22005
3170.3,831.147,0.22059
3176.32,832.147,0.22183
3182.337,833.147,0.22281
3188.34,834.147,0.22345
3194.35,835.147,0.22413
3200.36,836.147,0.22527
3206.37,837.147,0.22623
3212.37,838.147,0.22621
3218.37,839.147,0.22706
3224.376,840.147,0.22777
3230.38,841.147,0.2285
3236.39,842.147,0.22828
3242.4,843.147,0.22862
3248.41,844.147,0.22929
3254.42,845.147,0.22991
3260.43,846.147,0.23074
3266.44,847.147,0.23129
3272.44,848.147,0.23188
3278.45,849.147,0.23265
3284.45,850.147,0.2334
3290.45,851.147,0.23437
3296.451,852.147,0.23532
3302.45,853.147,0.23605
3308.44,854.147,0.23697
3314.44,855.147,0.23782
3320.44,856.147,0.23876
3326.43,857.147,0.23952
3332.43,858.147,0.24099
3338.44,859.147,0.24197
3344.44,860.147,0.24283
3350.46,861.147,0.2436
3356.47,862.147,0.24517
3362.481,863.147,0.24617
3368.496,864.147,0.24642
3374.51,865.147,0.24715
3380.52,866.147,0.24859
3386.5,867.147,0.25716
3392.46,868.147,0.26306
3398.45,869.147,0.26628
3404.45,870.147,0.26803
3410.46,871.147,0.2695
3416.47,872.147,0.27039
3422.475,873.147,0.27159
3428.49,874.147,0.27268
3434.51,875.147,0.2741
3440.52,876.147,0.27473
3446.54,877.147,0.27569
3452.56,878.147,0.27716
3458.574,879.147,0.27805
3464.59,880.147,0.2793
3470.61,881.147,0.27982
3476.62,882.147,0.28117
3482.64,883.147,0.2728
3488.652,884.147,0.26766
3494.66,885.147,0.26659
3500.67,886.147,0.26751
3506.68,887.147,0.26838
3512.69,888.147,0.26969
3518.7,889.147,0.27029
3524.7,890.147,0.27153
3530.71,891.147,0.27228
3536.7,892.147,0.27324
3542.7,893.147,0.27478
3548.7,894.147,0.27589
3554.691,895.147,0.27655
3560.685,896.147,0.27723
3566.67,897.147,0.27837
3572.67,898.147,0.27932
3578.66,899.147,0.28103
3584.65,900.147,0.28192
3590.631,901.147,0.283
3596.61,902.147,0.28447
3602.56,903.147,0.28586
3608.51,904.147,0.28624
3614.5,905.147,0.28664
3620.5,906.147,0.28733
3626.51,907.147,0.28814
3632.52,908.147,0.2897
3638.54,909.147,0.28979
3644.55,910.147,0.2907
3650.55,911.147,0.29154
3656.559,912.147,0.29228
3662.57,913.147,0.29363
3668.58,914.147,0.29413
3674.59,915.147,0.29544
3680.59,916.147,0.29594
3686.58,917.147,0.29742
3692.57,918.147,0.29791
3698.57,919.147,0.30125
3704.57,920.147,0.30259
3710.56,921.147,0.303
3716.56,922.147,0.30403
3722.565,923.147,0.30552
3728.571,924.147,0.30638
3734.565,925.147,0.3074
3740.56,926.147,0.30918
3746.55,927.147,0.30934
3752.55,928.147,0.31085
3758.55,929.147,0.31214
3764.55,930.147,0.31294
3770.56,931.147,0.31334
3776.57,932.147,0.31489
3782.57,933.147,0.31591
3788.58,934.147,0.31686
3794.574,935.147,0.31775
3800.58,936.147,0.31911
3806.59,937.147,0.31972
3812.6,938.147,0.3204
3818.61,939.147,0.32108
3824.62,940.147,0.32241
3830.63,941.147,0.32277
3836.637,942.147,0.32349
3842.64,943.147,0.32399
3848.63,944.147,0.32448
3854.63,945.147,0.32551
3860.61,946.147,0.3264
3866.6,947.147,0.32692
3872.59,948.147,0.3272
3878.59,949.147,0.32842
3884.6,950.147,0.32964
3890.6,951.147,0.33014
3896.598,952.147,0.33112
3902.595,953.147,0.33137
3908.59,954.147,0.33236
3914.58,955.147,0.33332
3920.571,956.147,0.33447
3926.57,957.147,0.33479
3932.57,958.147,0.33526
3938.577,959.147,0.33652
3944.58,960.147,0.3373
3950.586,961.147,0.33809
3956.59,962.147,0.33884
3962.583,963.147,0.33956
3968.583,964.147,0.33994
3974.58,965.147,0.341
3980.59,966.147,0.34187
3986.589,967.147,0.3434
3992.59,968.147,0.3439
3998.58,969.147,0.34469
4004.57,970.147,0.34612
4010.562,971.147,0.3466
4016.55,972.147,0.34681
4022.55,973.147,0.34759
4028.55,974.147,0.34929
4034.55,975.147,0.34948
4040.56,976.147,0.34981
4046.57,977.147,0.35065
4052.59,978.147,0.35121
4058.6,979.147,0.35289
4064.61,980.147,0.35384
4070.62,981.147,0.35459
4076.63,982.147,0.35549
4082.63,983.147,0.35686
4088.63,984.147,0.35774
4094.63,985.147,0.35861
4100.61,986.147,0.35952
4106.6,987.147,0.36028
4112.58,988.147,0.36109
4118.57,989.147,0.36189
4124.56,990.147,0.36325
4130.553,991.147,0.36337
4136.55,992.147,0.36441
4142.54,993.147,0.36516
4148.53,994.147,0.36573
4154.511,995.147,0.36697
4160.5,996.147,0.36789
4166.53,997.147,0.36842