File: PMMA/Calibration_Data/NIST/NIST_DSC_N2_10K_4.csv
Time,Temperature,Heat Flow
[s],[K],[mW/mg]
0,301.925,-0.001045311
56.1948,302.925,0.04943483
68.3766,303.925,0.0811716
77.0814,304.925,0.10858
84.1734,305.925,0.13487
90.3318,306.925,0.16094
95.8746,307.925,0.18584
100.983,308.925,0.20949
105.7758,309.925,0.23164
110.3316,310.925,0.25253
114.699,311.925,0.27198
118.9188,312.925,0.28995
123.0258,313.925,0.30664
127.0452,314.925,0.32156
130.9962,315.925,0.33493
134.8986,316.925,0.34687
138.7668,317.925,0.35774
142.6128,318.925,0.36676
146.445,319.925,0.37442
150.2712,320.925,0.38085
154.1052,321.925,0.38602
157.9584,322.925,0.38993
161.8374,323.925,0.39266
165.747,324.925,0.39446
169.6932,325.925,0.39475
173.6862,326.925,0.39459
177.7302,327.925,0.39336
181.8324,328.925,0.3912
185.9964,329.925,0.38853
190.227,330.925,0.38503
194.5326,331.925,0.3811
198.9144,332.925,0.37642
203.3778,333.925,0.3718
207.9216,334.925,0.36672
212.5542,335.925,0.3615
217.2732,336.925,0.35599
222.081,337.925,0.3507
226.9746,338.925,0.34577
231.9486,339.925,0.33985
237.003,340.925,0.33429
242.1342,341.925,0.32836
247.3374,342.925,0.32184
252.6072,343.925,0.31502
257.9406,344.925,0.30799
263.3286,345.925,0.30133
268.7598,346.925,0.29484
274.2348,347.925,0.28895
279.7404,348.925,0.28387
285.2742,349.925,0.27962
290.8314,350.925,0.27621
296.4126,351.925,0.27348
302.0046,352.925,0.27146
307.6152,353.925,0.26974
313.2414,354.925,0.26854
318.8772,355.925,0.26749
324.5268,356.925,0.26694
330.186,357.925,0.2666
335.853,358.925,0.26605
341.5314,359.925,0.26598
347.2248,360.925,0.26592
352.9254,361.925,0.26581
358.6452,362.925,0.26589
364.3842,363.925,0.26608
370.137,364.925,0.266
375.9084,365.925,0.26626
381.6996,366.925,0.26628
387.5154,367.925,0.26646
393.3552,368.925,0.26623
399.2214,369.925,0.26638
405.1104,370.925,0.2661
411.0174,371.925,0.26589
416.9514,372.925,0.26576
422.91,373.925,0.26528
428.8878,374.925,0.26503
434.8824,375.925,0.26489
440.8992,376.925,0.265
446.9292,377.925,0.26495
452.9736,378.925,0.26537
459.0306,379.925,0.26571
465.0948,380.925,0.26634
471.1638,381.925,0.2672
477.2442,382.925,0.26814
483.3264,383.925,0.26941
489.411,384.925,0.27041
495.5046,385.925,0.27182
501.594,386.925,0.27368
507.6768,387.925,0.27556
513.7578,388.925,0.27785
519.8328,389.925,0.28071
525.897,390.925,0.28336
531.9552,391.925,0.28699
538.0086,392.925,0.29045
544.0494,393.925,0.29449
550.0848,394.925,0.29868
556.1172,395.925,0.30274
562.1448,396.925,0.30693
568.164,397.925,0.31078
574.1724,398.925,0.31458
580.1724,399.925,0.31759
586.1658,400.925,0.32022
592.1562,401.925,0.32231
598.1448,402.925,0.32406
604.1232,403.925,0.32527
610.0986,404.925,0.32618
616.071,405.925,0.3268
622.0398,406.925,0.32761
628.0056,407.925,0.32833
633.9756,408.925,0.32911
639.948,409.925,0.32944
645.9138,410.925,0.33043
651.8844,411.925,0.33088
657.8538,412.925,0.33158
663.8184,413.925,0.33244
669.783,414.925,0.3331
675.7476,415.925,0.33392
681.7086,416.925,0.33463
687.6708,417.925,0.33542
693.639,418.925,0.3363
699.603,419.925,0.33689
705.5676,420.925,0.33797
711.5376,421.925,0.33879
717.5028,422.925,0.33962
723.4656,423.925,0.34056
729.4398,424.925,0.34164
735.4146,425.925,0.34263
741.387,426.925,0.34378
747.3594,427.925,0.34502
753.3336,428.925,0.34614
759.3138,429.925,0.34775
765.2958,430.925,0.34912
771.2814,431.925,0.35063
777.27,432.925,0.35221
783.261,433.925,0.35372
789.2574,434.925,0.35565
795.2556,435.925,0.35771
801.2556,436.925,0.35988
807.258,437.925,0.36219
813.261,438.925,0.36493
819.2682,439.925,0.36757
825.2796,440.925,0.37029
831.294,441.925,0.37342
837.309,442.925,0.37689
843.3282,443.925,0.37991
849.3462,444.925,0.38317
855.3654,445.925,0.38637
861.3846,446.925,0.38839
867.4038,447.925,0.3911
873.426,448.925,0.39309
879.4446,449.925,0.39572
885.4626,450.925,0.3983
891.4794,451.925,0.40063
897.4968,452.925,0.40348
903.516,453.925,0.40568
909.5274,454.925,0.40765
915.5412,455.925,0.4094
921.558,456.925,0.41089
927.57,457.925,0.41175
933.5784,458.925,0.41267
939.5892,459.925,0.41299
945.597,460.925,0.41277
951.6126,461.925,0.41216
957.6312,462.925,0.4118
963.651,463.925,0.41054
969.6696,464.925,0.40924
975.6858,465.925,0.4074
981.7098,466.925,0.4055
987.738,467.925,0.40347
993.765,468.925,0.40149
999.7872,469.925,0.39942
1005.8,470.925,0.39762
1011.81,471.925,0.39651
1017.82,472.925,0.39508
1023.84,473.925,0.39397
1029.84,474.925,0.39341
1035.85,475.925,0.39343
1041.85,476.925,0.39342
1047.86,477.925,0.39354
1053.86,478.925,0.394
1059.87,479.925,0.39407
1065.88,480.925,0.3938
1071.888,481.925,0.39351
1077.9,482.925,0.39268
1083.92,483.925,0.39166
1089.93,484.925,0.39022
1095.95,485.925,0.38867
1101.969,486.925,0.38665
1107.993,487.925,0.38498
1114.011,488.925,0.38284
1120.03,489.925,0.3809
1126.05,490.925,0.37906
1132.08,491.925,0.37714
1138.1,492.925,0.37591
1144.13,493.925,0.3749
1150.15,494.925,0.37385
1156.17,495.925,0.37303
1162.197,496.925,0.37291
1168.22,497.925,0.37282
1174.24,498.925,0.37274
1180.27,499.925,0.37261
1186.3,500.925,0.37287
1192.32,501.925,0.37303
1198.34,502.925,0.37324
1204.36,503.925,0.37371
1210.389,504.925,0.37417
1216.41,505.925,0.37538
1222.44,506.925,0.37677
1228.47,507.925,0.37728
1234.49,508.925,0.3777
1240.52,509.925,0.37789
1246.55,510.925,0.37856
1252.58,511.925,0.37907
1258.608,512.925,0.37945
1264.64,513.925,0.37997
1270.67,514.925,0.38068
1276.7,515.925,0.38134
1282.72,516.925,0.38216
1288.75,517.925,0.38293
1294.77,518.925,0.38344
1300.79,519.925,0.38438
1306.809,520.925,0.38553
1312.83,521.925,0.38635
1318.854,522.925,0.3873
1324.87,523.925,0.38901
1330.9,524.925,0.38992
1336.92,525.925,0.39126
1342.95,526.925,0.39281
1348.971,527.925,0.3941
1354.99,528.925,0.39535
1361.01,529.925,0.39675
1367.03,530.925,0.39848
1373.055,531.925,0.40013
1379.08,532.925,0.40161
1385.09,533.925,0.40343
1391.11,534.925,0.40447
1397.14,535.925,0.40651
1403.16,536.925,0.40849
1409.18,537.925,0.41073
1415.2,538.925,0.41293
1421.214,539.925,0.41502
1427.23,540.925,0.41763
1433.24,541.925,0.41982
1439.25,542.925,0.42204
1445.26,543.925,0.42502
1451.283,544.925,0.42796
1457.3,545.925,0.43046
1463.31,546.925,0.43323
1469.32,547.925,0.43645
1475.32,548.925,0.43996
1481.33,549.925,0.44355
1487.34,550.925,0.44718
1493.35,551.925,0.45064
1499.36,552.925,0.45447
1505.37,553.925,0.45851
1511.39,554.925,0.46244
1517.397,555.925,0.46627
1523.406,556.925,0.47051
1529.42,557.925,0.47495
1535.43,558.925,0.47897
1541.43,559.925,0.48287
1547.442,560.925,0.48702
1553.45,561.925,0.4912
1559.47,562.925,0.49498
1565.47,563.925,0.49897
1571.481,564.925,0.5031
1577.49,565.925,0.50693
1583.51,566.925,0.51056
1589.52,567.925,0.51439
1595.54,568.925,0.51759
1601.55,569.925,0.52091
1607.57,570.925,0.52473
1613.59,571.925,0.52797
1619.61,572.925,0.53121
1625.63,573.925,0.53451
1631.65,574.925,0.53829
1637.66,575.925,0.542
1643.67,576.925,0.54559
1649.69,577.925,0.55004
1655.69,578.925,0.55443
1661.7,579.925,0.55938
1667.709,580.925,0.56426
1673.72,581.925,0.56992
1679.73,582.925,0.57594
1685.74,583.925,0.58294
1691.74,584.925,0.5909
1697.745,585.925,0.59971
1703.76,586.925,0.60968
1709.77,587.925,0.62052
1715.78,588.925,0.63241
1721.784,589.925,0.64538
1727.793,590.925,0.65954
1733.805,591.925,0.67421
1739.82,592.925,0.69007
1745.83,593.925,0.70706
1751.85,594.925,0.72503
1757.86,595.925,0.74415
1763.87,596.925,0.76422
1769.895,597.925,0.78585
1775.92,598.925,0.80823
1781.94,599.925,0.83244
1787.97,600.925,0.85786
1794,601.925,0.88507
1800.033,602.925,0.91419
1806.06,603.925,0.94532
1812.1,604.925,0.97799
1818.14,605.925,1.01321
1824.18,606.925,1.0503
1830.22,607.925,1.08969
1836.25,608.925,1.13127
1842.29,609.925,1.17544
1848.33,610.925,1.2222
1854.36,611.925,1.27114
1860.4,612.925,1.32275
1866.432,613.925,1.37704
1872.47,614.925,1.43339
1878.5,615.925,1.49196
1884.53,616.925,1.55313
1890.57,617.925,1.61673
1896.6,618.925,1.68263
1902.64,619.925,1.75049
1908.67,620.925,1.8193
1914.71,621.925,1.88713
1920.74,622.925,1.95519
1926.765,623.925,2.02628
1932.789,624.925,2.09585
1938.816,625.925,2.16491
1944.84,626.925,2.23191
1950.86,627.925,2.29752
1956.89,628.925,2.36392
1962.9,629.925,2.42925
1968.92,630.925,2.48835
1974.93,631.925,2.54518
1980.93,632.925,2.59532
1986.927,633.925,2.64611
1992.924,634.925,2.68815
1998.92,635.925,2.71469
2004.9,636.925,2.73672
2010.879,637.925,2.75644
2016.85,638.925,2.75651
2022.807,639.925,2.75268
2028.77,640.925,2.77629
2034.73,641.925,2.77007
2040.68,642.925,2.74825
2046.64,643.925,2.71625
2052.6,644.925,2.71035
2058.55,645.925,2.72208
2064.51,646.925,2.7215
2070.47,647.925,2.70065
2076.42,648.925,2.66979
2082.366,649.925,2.6191
2088.3,650.925,2.55903
2094.234,651.925,2.49046
2100.162,652.925,2.4122
2106.084,653.925,2.32775
2112,654.925,2.23871
2117.92,655.925,2.15328
2123.84,656.925,2.06133
2129.76,657.925,1.9702
2135.69,658.925,1.87522
2141.613,659.925,1.78425
2147.547,660.925,1.69067
2153.49,661.925,1.5921
2159.44,662.925,1.50452
2165.38,663.925,1.4104
2171.34,664.925,1.32527
2177.313,665.925,1.2402
2183.29,666.925,1.15412
2189.28,667.925,1.07896
2195.271,668.925,1.00475
2201.28,669.925,0.93159
2207.29,670.925,0.86457
2213.31,671.925,0.79768
2219.331,672.925,0.73315
2225.36,673.925,0.6717
2231.403,674.925,0.61425
2237.44,675.925,0.56075
2243.49,676.925,0.511
2249.54,677.925,0.46481
2255.6,678.925,0.42207
2261.66,679.925,0.38312
2267.72,680.925,0.34687
2273.78,681.925,0.31436
2279.85,682.925,0.28409
2285.9,683.925,0.25684
2291.96,684.925,0.23241
2298.018,685.925,0.20935
2304.078,686.925,0.18846
2310.141,687.925,0.16918
2316.2,688.925,0.15205
2322.26,689.925,0.13639
2328.306,690.925,0.12251
2334.35,691.925,0.10962
2340.4,692.925,0.09805182
2346.44,693.925,0.08804195
2352.47,694.925,0.07874025
2358.49,695.925,0.07099688
2364.52,696.925,0.06424596
2370.54,697.925,0.05799683
2376.564,698.925,0.05201466
2382.588,699.925,0.04679472
2388.61,700.925,0.04252028
2394.63,701.925,0.03832508
2400.654,702.925,0.03445785
2406.68,703.925,0.03163154
2412.7,704.925,0.02860048
2418.71,705.925,0.0256687
2424.72,706.925,0.02291766
2430.741,707.925,0.02006889
2436.75,708.925,0.01759326
2442.73,709.925,0.01699658
2448.69,710.925,0.02701612
2454.64,711.925,0.03519931
2460.62,712.925,0.0368869
2466.63,713.925,0.01428718
2472.68,714.925,-0.009418743
2478.72,715.925,-0.01782858
2484.76,716.925,-0.01798717
2490.79,717.925,-0.01569156
2496.813,718.925,-0.01298551
2502.84,719.925,-0.01064373
2508.86,720.925,-0.009595582
2514.87,721.925,-0.009329762
2520.882,722.925,-0.008704371
2526.9,723.925,-0.007217004
2532.906,724.925,-0.006014509
2538.91,725.925,-0.005259313
2544.91,726.925,-0.0044886
2550.92,727.925,-0.003851476
2556.92,728.925,-0.003480404
2562.91,729.925,-0.00375401
2568.91,730.925,-0.003383141
2574.91,731.925,-0.003330281
2580.9,732.925,-0.003335683
2586.9,733.925,-0.003488919
2592.9,734.925,-0.003572406
2598.89,735.925,-0.003374062
2604.89,736.925,-0.004013688
2610.888,737.925,-0.004313447
2616.885,738.925,-0.004504951
2622.89,739.925,-0.004849335
2628.89,740.925,-0.004865018
2634.88,741.925,-0.004561197
2640.88,742.925,-0.004760941
2646.88,743.925,-0.004981024
2652.88,744.925,-0.004981209
2658.88,745.925,-0.005226009
2664.88,746.925,-0.004781669
2670.88,747.925,-0.004558227
2676.88,748.925,-0.004205242
2682.88,749.925,-0.003948772
2688.89,750.925,-0.003766839
2694.9,751.925,-0.0031197
2700.91,752.925,-0.003153718
2706.91,753.925,-0.00346741
2712.91,754.925,-0.00390914
2718.92,755.925,-0.004178555
2724.93,756.925,-0.00444387
2730.93,757.925,-0.005339628
2736.93,758.925,-0.005670401
2742.93,759.925,-0.005909836
2748.921,760.925,-0.00636321
2754.92,761.925,-0.006597741
2760.91,762.925,-0.006974746
2766.9,763.925,-0.007354228
2772.9,764.925,-0.00714921
2778.9,765.925,-0.007553524
2784.89,766.925,-0.007469592
2790.88,767.925,-0.007778187
2796.89,768.925,-0.007983326
2802.888,769.925,-0.007938892
2808.888,770.925,-0.008335261
2814.89,771.925,-0.008683474
2820.88,772.925,-0.008636622
2826.88,773.925,-0.008364651
2832.882,774.925,-0.007953004
2838.89,775.925,-0.007346851
2844.894,776.925,-0.006470469
2850.91,777.925,-0.005865304
2856.92,778.925,-0.005352173
2862.92,779.925,-0.004850705
2868.92,780.925,-0.004419642
2874.92,781.925,-0.003817854
2880.92,782.925,-0.004147877
2886.92,783.925,-0.00429554
2892.91,784.925,-0.004071732
2898.9,785.925,-0.004352096
2904.89,786.925,-0.004128201
2910.88,787.925,-0.004349616
2916.88,788.925,-0.004653087
2922.88,789.925,-0.00457101
2928.876,790.925,-0.005015959
2934.87,791.925,-0.004909447
2940.87,792.925,-0.005210037
2946.86,793.925,-0.005271841
2952.86,794.925,-0.005319373
2958.86,795.925,-0.00575706
2964.85,796.925,-0.005717471
2970.849,797.925,-0.005904841
2976.846,798.925,-0.006054945
2982.84,799.925,-0.006025186
2988.84,800.925,-0.006371994
2994.84,801.925,-0.00634966
3000.84,802.925,-0.00685656
3006.84,803.925,-0.006478483
3012.84,804.925,-0.00680289
3018.84,805.925,-0.007263149
3024.85,806.925,-0.007154411
3030.85,807.925,-0.006923443
3036.849,808.925,-0.007327166
3042.85,809.925,-0.007202458
3048.861,810.925,-0.007658811
3054.87,811.925,-0.007487216
3060.873,812.925,-0.007999726
3066.88,813.925,-0.008379591
3072.89,814.925,-0.008474004
3078.89,815.925,-0.008742377
3084.88,816.925,-0.008865719
3090.88,817.925,-0.008728601
3096.88,818.925,-0.008750073
3102.88,819.925,-0.008729657
3108.88,820.925,-0.008695096
3114.89,821.925,-0.00873824
3120.89,822.925,-0.008669193
3126.882,823.925,-0.008682828
3132.88,824.925,-0.008643482
3138.888,825.925,-0.008610515
3144.9,826.925,-0.008539782
3150.9,827.925,-0.008654954
3156.91,828.925,-0.008723339
3162.91,829.925,-0.008505151
3168.918,830.925,-0.008757154
3174.93,831.925,-0.008952551
3180.948,832.925,-0.009011708
3186.957,833.925,-0.008696077
3192.97,834.925,-0.008952692
3198.98,835.925,-0.008580567
3204.99,836.925,-0.008704672
3211,837.925,-0.008515847
3217.017,838.925,-0.008585253
3223.03,839.925,-0.008590608
3229.04,840.925,-0.008358173
3235.04,841.925,-0.008808446
3241.05,842.925,-0.008810442
3247.056,843.925,-0.008727928
3253.071,844.925,-0.008568062
3259.089,845.925,-0.008546805
3265.101,846.925,-0.008230165
3271.12,847.925,-0.008235903
3277.13,848.925,-0.008117149
3283.15,849.925,-0.008325908
3289.16,850.925,-0.008146728
3295.17,851.925,-0.007651781
3301.176,852.925,-0.007834281
3307.18,853.925,-0.008331892
3313.18,854.925,-0.008282715
3319.18,855.925,-0.00852427
3325.18,856.925,-0.008545387
3331.176,857.925,-0.009106935
3337.17,858.925,-0.008725843
3343.17,859.925,-0.008611954
3349.179,860.925,-0.008564688
3355.19,861.925,-0.008873478
3361.194,862.925,-0.008921446
3367.203,863.925,-0.009001735
3373.21,864.925,-0.008953234
3379.22,865.925,-0.009166318
3385.24,866.925,-0.009243807
3391.25,867.925,-0.009301047
3397.25,868.925,-0.009348507
3403.25,869.925,-0.009384991
3409.25,870.925,-0.009122853
3415.25,871.925,-0.009560682
3421.25,872.925,-0.009699468
3427.26,873.925,-0.009269556
3433.27,874.925,-0.009261254
3439.27,875.925,-0.009059353
3445.278,876.925,-0.009412853
3451.28,877.925,-0.009163681
3457.293,878.925,-0.009296997
3463.302,879.925,-0.009324588
3469.31,880.925,-0.009218303
3475.32,881.925,-0.009298277
3481.323,882.925,-0.009357464
3487.323,883.925,-0.009261984
3493.32,884.925,-0.009316908
3499.31,885.925,-0.009014875
3505.29,886.925,-0.008703469
3511.233,887.925,-0.00081457
3517.16,888.925,0.004314946
3523.13,889.925,0.005482463
3529.12,890.925,0.006609973
3535.116,891.925,0.006694715
3541.12,892.925,0.008523636
3547.13,893.925,0.009549601
3553.15,894.925,0.008961162
3559.16,895.925,0.00106851
3565.17,896.925,-0.001655262
3571.18,897.925,-0.002195494
3577.19,898.925,-0.002269379
3583.19,899.925,-0.002063077
3589.2,900.925,-0.002137656
3595.21,901.925,-0.002105448
3601.21,902.925,-0.001828201
3607.2,903.925,-0.001619087
3613.2,904.925,-0.002471329
3619.2,905.925,-0.00254576
3625.19,906.925,-0.002798408
3631.18,907.925,-0.003086388
3637.17,908.925,-0.003128184
3643.16,909.925,-0.003010328
3649.15,910.925,-0.002255666
3655.15,911.925,-0.002321781
3661.15,912.925,-0.002128088
3667.15,913.925,-0.00222627
3673.16,914.925,-0.00212464
3679.16,915.925,-0.002387001
3685.17,916.925,-0.001995069
3691.18,917.925,-0.002132486
3697.19,918.925,-0.001811679
3703.22,919.925,-0.001021159
3709.24,920.925,-0.0008964621
3715.257,921.925,-0.0008329983
3721.27,922.925,-0.0004296193
3727.29,923.925,-0.0005846241
3733.296,924.925,-0.0006743401
3739.302,925.925,-0.0001924159
3745.3,926.925,-0.0002876657
3751.29,927.925,-3.698663e-05
3757.29,928.925,-0.0001556123
3763.29,929.925,0.0006775057
3769.284,930.925,0.0006042478
3775.278,931.925,0.0006573316
3781.26,932.925,0.0003749915
3787.24,933.925,0.001265567
3793.23,934.925,0.003553163
3799.21,935.925,0.005081704
3805.2,936.925,0.005724887
3811.2,937.925,0.005998261
3817.21,938.925,0.006008597
3823.22,939.925,0.006544522
3829.239,940.925,0.007227331
3835.25,941.925,0.007363002
3841.26,942.925,0.007441086
3847.269,943.925,0.007166257
3853.28,944.925,0.00780269
3859.299,945.925,0.007539109
3865.31,946.925,0.007654586
3871.33,947.925,0.007995622
3877.34,948.925,0.008293777
3883.362,949.925,0.008542538
3889.365,950.925,0.008813308
3895.362,951.925,0.00894991
3901.36,952.925,0.008364921
3907.36,953.925,0.009189071
3913.36,954.925,0.009071783
3919.374,955.925,0.008906022
3925.38,956.925,0.008536837
3931.38,957.925,0.008897314
3937.38,958.925,0.009121242
3943.374,959.925,0.009427197
3949.37,960.925,0.009227152
3955.36,961.925,0.009518556
3961.34,962.925,0.01018403
3967.329,963.925,0.01108801
3973.32,964.925,0.01052703
3979.33,965.925,0.01042996
3985.33,966.925,0.01066271
3991.33,967.925,0.01081797
3997.32,968.925,0.01127586
4003.32,969.925,0.01139162
4009.31,970.925,0.01207277
4015.3,971.925,0.01224422
4021.29,972.925,0.01266802
4027.28,973.925,0.01213565
4033.26,974.925,0.01245028
4039.25,975.925,0.01272713
4045.24,976.925,0.01284235
4051.227,977.925,0.01340012
4057.21,978.925,0.01366691
4063.2,979.925,0.01381399
4069.18,980.925,0.0139233
4075.18,981.925,0.01411299
4081.18,982.925,0.01483907
4087.18,983.925,0.01510727
4093.19,984.925,0.01558968
4099.2,985.925,0.01603442
4105.21,986.925,0.01631364
4111.22,987.925,0.01766473
4117.23,988.925,0.01812085
4123.24,989.925,0.01882031
4129.25,990.925,0.02003354
4135.27,991.925,0.02034525
4141.284,992.925,0.02045483
4147.299,993.925,0.02163729
4153.32,994.925,0.02203057
4159.344,995.925,0.02180227
4165.36,996.925,0.02260595
4171.37,997.925,0.02243957
4177.38,998.925,0.02230289
4183.38,999.925,0.02313785
4189.38,1000.925,0.02334735
4195.38,1001.925,0.02392038
4201.37,1002.925,0.0240024
4207.36,1003.925,0.02499741
4213.36,1004.925,0.02596385
4219.37,1005.925,0.02629895
4225.37,1006.925,0.02698151
4231.362,1007.925,0.02766272
4237.35,1008.925,0.02807574
4243.34,1009.925,0.02875013
4249.326,1010.925,0.02877992
4255.32,1011.925,0.02920073
4261.31,1012.925,0.02915381
4267.308,1013.925,0.02931204
4273.302,1014.925,0.02989146
4279.29,1015.925,0.03090447
4285.29,1016.925,0.03060322
4291.29,1017.925,0.03109582
4297.287,1018.925,0.03204198
4303.281,1019.925,0.0320965
4309.26,1020.925,0.03252931
4315.25,1021.925,0.03161593
4321.242,1022.925,0.03222945
4327.239,1023.925,0.0322739
4333.23,1024.925,0.03324262
4339.23,1025.925,0.03385002
4345.21,1026.925,0.03379544
4351.2,1027.925,0.03426644
4357.2,1028.925,0.03420605
4363.19,1029.925,0.03436329
4369.18,1030.925,0.03421954
4375.18,1031.925,0.03459999
4381.18,1032.925,0.0351711
4387.19,1033.925,0.03488681
4393.21,1034.925,0.03464822
4399.23,1035.925,0.03479152
4405.25,1036.925,0.03473633
4411.25,1037.925,0.03480009
4417.26,1038.925,0.0341913
4423.25,1039.925,0.03386576
4429.25,1040.925,0.03389211
4435.24,1041.925,0.03312817
4441.236,1042.925,0.0348686
4447.23,1043.925,0.03518209
4453.215,1044.925,0.03538981
4459.203,1045.925,0.03551163
4465.19,1046.925,0.03568772
4471.18,1047.925,0.03583757
4477.17,1048.925,0.03602113
4483.15,1049.925,0.03617806
4489.15,1050.925,0.03624503
4495.15,1051.925,0.03683452
4501.14,1052.925,0.03750925
4507.14,1053.925,0.03785814
4513.137,1054.925,0.03836545
4519.12,1055.925,0.03798371
4525.119,1056.925,0.03874287
4531.11,1057.925,0.03939488
4537.1,1058.925,0.03906444
4543.09,1059.925,0.03988528
4549.101,1060.925,0.03966091
4555.11,1061.925,0.03989209
4561.11,1062.925,0.0406945
4567.11,1063.925,0.04067542
4573.1,1064.925,0.04252497
4579.1,1065.925,0.04302852
4585.083,1066.925,0.04250005
4591.062,1067.925,0.04252741
4597.04,1068.925,0.04269013
4603.029,1069.925,0.0423502
4609.03,1070.925,0.04172528
4615.06,1071.925,0.04142606