File: PMMA/Calibration_Data/NIST/NIST_TGA_N2_10K_3.csv
Time,Temperature,Mass
[s],[K],[mg]
0,303.136,6.10978
50.91,304.136,6.09769
63.2112,305.136,6.09721
72.0462,306.136,6.0945
79.299,307.136,6.09582
85.629,308.136,6.0959
91.3458,309.136,6.09661
96.6396,310.136,6.09572
101.628,311.136,6.09696
106.3824,312.136,6.09687
110.961,313.136,6.09516
115.4022,314.136,6.09601
119.7414,315.136,6.09604
124.002,316.136,6.09373
128.211,317.136,6.09174
132.3786,318.136,6.09294
136.521,319.136,6.09309
140.6478,320.136,6.09411
144.7752,321.136,6.09374
148.9134,322.136,6.094
153.0696,323.136,6.09619
157.2534,324.136,6.09801
161.475,325.136,6.09951
165.7446,326.136,6.10094
170.0628,327.136,6.09848
174.4404,328.136,6.09816
178.8786,329.136,6.09685
183.3894,330.136,6.09818
187.9692,331.136,6.10094
192.6258,332.136,6.09951
197.3616,333.136,6.10012
202.1772,334.136,6.10085
207.0708,335.136,6.09951
212.0508,336.136,6.10083
217.1088,337.136,6.10016
222.2442,338.136,6.10018
227.4492,339.136,6.10118
232.7148,340.136,6.10118
238.0392,341.136,6.10124
243.4164,342.136,6.10051
248.8416,343.136,6.10057
254.3082,344.136,6.09863
259.8054,345.136,6.09917
265.3302,346.136,6.10051
270.8748,347.136,6.10051
276.435,348.136,6.10051
282.0102,349.136,6.09783
287.6004,350.136,6.09921
293.1984,351.136,6.09783
298.7958,352.136,6.09917
304.398,353.136,6.1005
310.0056,354.136,6.10051
315.6204,355.136,6.1005
321.2406,356.136,6.09917
326.8656,357.136,6.10055
332.4978,358.136,6.1005
338.1396,359.136,6.09783
343.7898,360.136,6.09783
349.4544,361.136,6.09814
355.1364,362.136,6.09784
360.8358,363.136,6.09749
366.5574,364.136,6.09689
372.2934,365.136,6.09563
378.054,366.136,6.09516
383.835,367.136,6.0937
389.637,368.136,6.09629
395.4672,369.136,6.09772
401.3208,370.136,6.09872
407.1954,371.136,6.09877
413.0958,372.136,6.09604
419.0214,373.136,6.0947
424.9626,374.136,6.09502
430.9236,375.136,6.09506
436.9032,376.136,6.09639
442.8984,377.136,6.09505
448.9104,378.136,6.0937
454.9332,379.136,6.09638
460.9638,380.136,6.09504
467.0076,381.136,6.09436
473.0562,382.136,6.09426
479.106,383.136,6.09371
485.16,384.136,6.09271
491.217,385.136,6.09371
497.277,386.136,6.09504
503.3262,387.136,6.09371
509.3694,388.136,6.09237
515.412,389.136,6.09002
521.4498,390.136,6.09031
527.4846,391.136,6.09283
533.508,392.136,6.09249
539.5236,393.136,6.09315
545.5362,394.136,6.09248
551.5374,395.136,6.09248
557.5308,396.136,6.09115
563.5182,397.136,6.09248
569.5092,398.136,6.09214
575.5002,399.136,6.09113
581.4852,400.136,6.09214
587.4612,401.136,6.09248
593.43,402.136,6.091144
599.403,403.136,6.08879
605.373,404.136,6.08776
611.3394,405.136,6.08879
617.3028,406.136,6.08845
623.2644,407.136,6.08845
629.2248,408.136,6.0872
635.1858,409.136,6.08609
641.1474,410.136,6.08742
647.1102,411.136,6.08508
653.0748,412.136,6.0851
659.0346,413.136,6.0851
664.9932,414.136,6.08244
670.9578,415.136,6.08168
676.9254,416.136,6.08375
682.8906,417.136,6.08209
688.86,418.136,6.08076
694.8342,419.136,6.0818
700.8126,420.136,6.0821
706.7862,421.136,6.08075
712.7556,422.136,6.08075
718.7304,423.136,6.07808
724.71,424.136,6.07674
730.695,425.136,6.07674
736.6764,426.136,6.07674
742.6608,427.136,6.07683
748.6488,428.136,6.07551
754.635,429.136,6.0754
760.6218,430.136,6.07406
766.6164,431.136,6.07272
772.6104,432.136,6.07138
778.605,433.136,6.07019
784.6026,434.136,6.07004
790.6008,435.136,6.06804
796.6014,436.136,6.06782
802.6068,437.136,6.06803
808.611,438.136,6.06803
814.6092,439.136,6.06702
820.6128,440.136,6.06427
826.6254,441.136,6.06358
832.6338,442.136,6.06133
838.6368,443.136,6.05862
844.6422,444.136,6.05997
850.6488,445.136,6.05595
856.6566,446.136,6.05337
862.6716,447.136,6.05195
868.6902,448.136,6.04923
874.7112,449.136,6.04793
880.7298,450.136,6.04559
886.7484,451.136,6.04216
892.776,452.136,6.04079
898.7976,453.136,6.03911
904.8102,454.136,6.03677
910.8264,455.136,6.03561
916.848,456.136,6.0326
922.8654,457.136,6.03085
928.884,458.136,6.02605
934.9062,459.136,6.02173
940.932,460.136,6.01991
946.9524,461.136,6.01644
952.9686,462.136,6.01284
958.9836,463.136,6.00822
964.9956,464.136,6.00513
971.0064,465.136,6.00263
977.0148,466.136,5.99862
983.0226,467.136,5.99589
989.0328,468.136,5.99236
995.04,469.136,5.98831
1001.04,470.136,5.98632
1007.05,471.136,5.98326
1013.05,472.136,5.97929
1019.06,473.136,5.97671
1025.07,474.136,5.97394
1031.07,475.136,5.97321
1037.08,476.136,5.97093
1043.09,477.136,5.96762
1049.1,478.136,5.96468
1055.11,479.136,5.9637
1061.13,480.136,5.96134
1067.14,481.136,5.95769
1073.157,482.136,5.95571
1079.172,483.136,5.95111
1085.18,484.136,5.94777
1091.2,485.136,5.94508
1097.22,486.136,5.94244
1103.25,487.136,5.94109
1109.27,488.136,5.94058
1115.29,489.136,5.93849
1121.32,490.136,5.93472
1127.34,491.136,5.93339
1133.37,492.136,5.93239
1139.4,493.136,5.93239
1145.43,494.136,5.93205
1151.46,495.136,5.93038
1157.48,496.136,5.9277
1163.49,497.136,5.92638
1169.51,498.136,5.92671
1175.53,499.136,5.92502
1181.56,500.136,5.92369
1187.58,501.136,5.92369
1193.61,502.136,5.92203
1199.65,503.136,5.92201
1205.68,504.136,5.92193
1211.71,505.136,5.923
1217.74,506.136,5.92167
1223.77,507.136,5.922
1229.79,508.136,5.92029
1235.811,509.136,5.919
1241.83,510.136,5.919
1247.86,511.136,5.91901
1253.88,512.136,5.92033
1259.9,513.136,5.91903
1265.92,514.136,5.91632
1271.946,515.136,5.91773
1277.979,516.136,5.91665
1284.006,517.136,5.91531
1290.04,518.136,5.9153
1296.063,519.136,5.91263
1302.09,520.136,5.91237
1308.11,521.136,5.91223
1314.135,522.136,5.91219
1320.17,523.136,5.91339
1326.19,524.136,5.91097
1332.21,525.136,5.91084
1338.23,526.136,5.91088
1344.25,527.136,5.90951
1350.27,528.136,5.90817
1356.29,529.136,5.90682
1362.32,530.136,5.90549
1368.333,531.136,5.90549
1374.34,532.136,5.90415
1380.36,533.136,5.90282
1386.37,534.136,5.9015
1392.378,535.136,5.90084
1398.387,536.136,5.89879
1404.39,537.136,5.89744
1410.4,538.136,5.89712
1416.42,539.136,5.89459
1422.43,540.136,5.89341
1428.45,541.136,5.89018
1434.47,542.136,5.88927
1440.48,543.136,5.88791
1446.49,544.136,5.88539
1452.51,545.136,5.88154
1458.516,546.136,5.87858
1464.53,547.136,5.87667
1470.54,548.136,5.87455
1476.55,549.136,5.87262
1482.56,550.136,5.86869
1488.56,551.136,5.86631
1494.57,552.136,5.86231
1500.58,553.136,5.85695
1506.58,554.136,5.85658
1512.6,555.136,5.8538
1518.615,556.136,5.85176
1524.63,557.136,5.84979
1530.65,558.136,5.84531
1536.68,559.136,5.84227
1542.7,560.136,5.83745
1548.72,561.136,5.83317
1554.738,562.136,5.82826
1560.76,563.136,5.82323
1566.77,564.136,5.81587
1572.79,565.136,5.81301
1578.8,566.136,5.80869
1584.81,567.136,5.80306
1590.82,568.136,5.79843
1596.83,569.136,5.79351
1602.85,570.136,5.78684
1608.86,571.136,5.78213
1614.88,572.136,5.77546
1620.897,573.136,5.76878
1626.909,574.136,5.76202
1632.924,575.136,5.75755
1638.94,576.136,5.75269
1644.95,577.136,5.74531
1650.96,578.136,5.73886
1656.96,579.136,5.73093
1662.97,580.136,5.72417
1668.98,581.136,5.71863
1674.98,582.136,5.71007
1680.99,583.136,5.70213
1687,584.136,5.69372
1693.01,585.136,5.68743
1699.02,586.136,5.68012
1705.03,587.136,5.67106
1711.04,588.136,5.6622
1717.053,589.136,5.65104
1723.059,590.136,5.64076
1729.068,591.136,5.63199
1735.08,592.136,5.6193
1741.08,593.136,5.60608
1747.09,594.136,5.59411
1753.1,595.136,5.5823
1759.107,596.136,5.57071
1765.119,597.136,5.5552
1771.13,598.136,5.53809
1777.15,599.136,5.52149
1783.17,600.136,5.50806
1789.182,601.136,5.48692
1795.21,602.136,5.46539
1801.242,603.136,5.44626
1807.28,604.136,5.42349
1813.31,605.136,5.40046
1819.34,606.136,5.3733
1825.38,607.136,5.34634
1831.416,608.136,5.31769
1837.452,609.136,5.28414
1843.491,610.136,5.25295
1849.53,611.136,5.21682
1855.58,612.136,5.17917
1861.62,613.136,5.13953
1867.67,614.136,5.09971
1873.72,615.136,5.05385
1879.76,616.136,5.00571
1885.81,617.136,4.95274
1891.84,618.136,4.90217
1897.88,619.136,4.84545
1903.93,620.136,4.78974
1909.98,621.136,4.72447
1916.02,622.136,4.66231
1922.06,623.136,4.59374
1928.09,624.136,4.52362
1934.13,625.136,4.44774
1940.16,626.136,4.37422
1946.19,627.136,4.29433
1952.22,628.136,4.20889
1958.24,629.136,4.12188
1964.26,630.136,4.03358
1970.27,631.136,3.93944
1976.28,632.136,3.84545
1982.28,633.136,3.74756
1988.27,634.136,3.64678
1994.25,635.136,3.54492
2000.24,636.136,3.44432
2006.21,637.136,3.3381
2012.184,638.136,3.23416
2018.14,639.136,3.12629
2024.1,640.136,3.02312
2030.05,641.136,2.91294
2035.99,642.136,2.80884
2041.92,643.136,2.70147
2047.86,644.136,2.59497
2053.79,645.136,2.48936
2059.73,646.136,2.3901
2065.67,647.136,2.27578
2071.62,648.136,2.17595
2077.57,649.136,2.06914
2083.515,650.136,1.96759
2089.461,651.136,1.86473
2095.398,652.136,1.76564
2101.33,653.136,1.66618
2107.26,654.136,1.57001
2113.2,655.136,1.47424
2119.14,656.136,1.3841
2125.08,657.136,1.2974
2131.02,658.136,1.21257
2136.97,659.136,1.13263
2142.915,660.136,1.0524
2148.86,661.136,0.977301
2154.79,662.136,0.907103
2160.73,663.136,0.841267
2166.68,664.136,0.77739
2172.63,665.136,0.718604
2178.59,666.136,0.665223
2184.55,667.136,0.616391
2190.519,668.136,0.567382
2196.49,669.136,0.5206254
2202.47,670.136,0.4771
2208.47,671.136,0.442442
2214.47,672.136,0.403769
2220.49,673.136,0.373072
2226.51,674.136,0.342486
2232.53,675.136,0.313692
2238.56,676.136,0.2852595
2244.6,677.136,0.261775
2250.64,678.136,0.240961
2256.69,679.136,0.222881
2262.75,680.136,0.206406
2268.81,681.136,0.190551
2274.88,682.136,0.177777
2280.95,683.136,0.164947
2287.03,684.136,0.154498
2293.11,685.136,0.143633
2299.18,686.136,0.131868
2305.25,687.136,0.12082
2311.32,688.136,0.113564
2317.4,689.136,0.110075
2323.479,690.136,0.102584
2329.56,691.136,0.0989015
2335.63,692.136,0.0929977
2341.7,693.136,0.0881252
2347.76,694.136,0.0845402
2353.815,695.136,0.0815681
2359.863,696.136,0.0753764
2365.9,697.136,0.0710846
2371.93,698.136,0.0676887
2377.95,699.136,0.0660401
2383.97,700.136,0.0639555
2389.98,701.136,0.0648215
2396,702.136,0.0626301
2401.99,703.136,0.0599289
2407.98,704.136,0.0585865
2413.98,705.136,0.056561
2419.97,706.136,0.0566062
2425.96,707.136,0.0546234
2431.96,708.136,0.0531846
2437.95,709.136,0.0545758
2443.92,710.136,0.0545758
2449.87,711.136,0.0545758
2455.8,712.136,0.05423426
2461.77,713.136,0.05056998
2467.79,714.136,0.049216
2473.82,715.136,0.0492154
2479.86,716.136,0.0515562
2485.884,717.136,0.0508822
2491.91,718.136,0.0522313
2497.92,719.136,0.0512256
2503.94,720.136,0.051225
2509.96,721.136,0.0500918
2515.974,722.136,0.0512256
2521.99,723.136,0.0511738
2528.01,724.136,0.0502278
2534.04,725.136,0.0496777
2540.06,726.136,0.0502156
2546.07,727.136,0.0508859
2552.097,728.136,0.0508859
2558.12,729.136,0.0512689
2564.13,730.136,0.05020831
2570.15,731.136,0.0505456
2576.166,732.136,0.0505456
2582.17,733.136,0.0505486
2588.18,734.136,0.0502156
2594.18,735.136,0.05093897
2600.19,736.136,0.0498759
2606.19,737.136,0.0512153
2612.196,738.136,0.0499095
2618.2,739.136,0.0502821
2624.193,740.136,0.0498759
2630.187,741.136,0.0498759
2636.19,742.136,0.0511884
2642.18,743.136,0.0498765
2648.17,744.136,0.0497631
2654.17,745.136,0.0484829
2660.17,746.136,0.0495258
2666.166,747.136,0.0485354
2672.17,748.136,0.0498662
2678.18,749.136,0.0489635
2684.18,750.136,0.0488952
2690.18,751.136,0.049546
2696.17,752.136,0.049546
2702.17,753.136,0.049546
2708.17,754.136,0.0491855
2714.17,755.136,0.0479889
2720.16,756.136,0.0484841
2726.16,757.136,0.0488757
2732.157,758.136,0.0498698
2738.154,759.136,0.0502016
2744.151,760.136,0.0488757
2750.15,761.136,0.0485963
2756.14,762.136,0.048536
2762.133,763.136,0.048844
2768.12,764.136,0.0498759
2774.106,765.136,0.0498759
2780.097,766.136,0.0498759
2786.09,767.136,0.0498753
2792.08,768.136,0.0492117
2798.08,769.136,0.049302
2804.08,770.136,0.0505456
2810.08,771.136,0.0505462
2816.08,772.136,0.0479102
2822.088,773.136,0.046527
2828.09,774.136,0.0492563
2834.1,775.136,0.0492056
2840.11,776.136,0.0492056
2846.11,777.136,0.0492062
2852.12,778.136,0.0478663
2858.13,779.136,0.049205
2864.14,780.136,0.0492062
2870.16,781.136,0.0480968
2876.17,782.136,0.049216
2882.18,783.136,0.049216
2888.2,784.136,0.0502162
2894.21,785.136,0.0505456
2900.22,786.136,0.0505322
2906.23,787.136,0.0503175
2912.226,788.136,0.0506023
2918.22,789.136,0.0478657
2924.21,790.136,0.0478706
2930.21,791.136,0.0490135
2936.205,792.136,0.0502144
2942.19,793.136,0.049216
2948.18,794.136,0.049216
2954.17,795.136,0.04953864
2960.15,796.136,0.049546
2966.136,797.136,0.0481999
2972.12,798.136,0.0492062
2978.1,799.136,0.0496746
2984.085,800.136,0.0491556
2990.07,801.136,0.0492008
2996.06,802.136,0.049546
3002.06,803.136,0.0488708
3008.06,804.136,0.0488757
3014.06,805.136,0.04886775
3020.07,806.136,0.0485427
3026.07,807.136,0.0498857
3032.082,808.136,0.0502162
3038.1,809.136,0.0512262
3044.115,810.136,0.0499454
3050.14,811.136,0.0477175
3056.157,812.136,0.0476046
3062.17,813.136,0.0500314
3068.18,814.136,0.0487659
3074.19,815.136,0.0487659
3080.2,816.136,0.0487659
3086.21,817.136,0.0475766
3092.21,818.136,0.0474259
3098.22,819.136,0.0474259
3104.223,820.136,0.0474259
3110.226,821.136,0.0474198
3116.23,822.136,0.0487665
3122.23,823.136,0.0483274
3128.23,824.136,0.0474278
3134.23,825.136,0.0487659
3140.23,826.136,0.0487677
3146.232,827.136,0.048242
3152.24,828.136,0.0494356
3158.238,829.136,0.0500442
3164.23,830.136,0.0501058
3170.22,831.136,0.0474241
3176.2,832.136,0.0474259
3182.2,833.136,0.0480926
3188.19,834.136,0.0494356
3194.19,835.136,0.0494356
3200.193,836.136,0.0481139
3206.2,837.136,0.0494441
3212.2,838.136,0.0484896
3218.21,839.136,0.0480621
3224.217,840.136,0.0491007
3230.23,841.136,0.0490965
3236.25,842.136,0.0467581
3242.28,843.136,0.0467557
3248.31,844.136,0.0474272
3254.33,845.136,0.0474259
3260.34,846.136,0.0477571
3266.35,847.136,0.0497661
3272.36,848.136,0.048425
3278.38,849.136,0.0470759
3284.39,850.136,0.0484256
3290.4,851.136,0.0497667
3296.41,852.136,0.0497655
3302.41,853.136,0.0497655
3308.41,854.136,0.0497655
3314.42,855.136,0.0490959
3320.42,856.136,0.0490959
3326.42,857.136,0.0490751
3332.42,858.136,0.0477559
3338.42,859.136,0.0487531
3344.41,860.136,0.0487555
3350.4,861.136,0.0474259
3356.4,862.136,0.04776566
3362.39,863.136,0.0487659
3368.376,864.136,0.0487659
3374.367,865.136,0.0474272
3380.36,866.136,0.04874516
3386.37,867.136,0.0491532
3392.38,868.136,0.0480993
3398.39,869.136,0.0494356
3404.4,870.136,0.0480956
3410.41,871.136,0.0480956
3416.43,872.136,0.0480871
3422.45,873.136,0.0474259
3428.48,874.136,0.0487574
3434.49,875.136,0.0501058
3440.51,876.136,0.0487671
3446.52,877.136,0.0498241
3452.54,878.136,0.0491184
3458.55,879.136,0.0487659
3464.56,880.136,0.0501046
3470.58,881.136,0.0487659
3476.59,882.136,0.0501089
3482.6,883.136,0.0487659
3488.62,884.136,0.0487763
3494.637,885.136,0.0501058
3500.65,886.136,0.0495142
3506.62,887.136,0.0487659
3512.56,888.136,0.0487659
3518.5,889.136,0.0491056
3524.475,890.136,0.0490904
3530.46,891.136,0.0480956
3536.45,892.136,0.0480926
3542.45,893.136,0.0480846
3548.45,894.136,0.0487659
3554.45,895.136,0.0487659
3560.45,896.136,0.04740277
3566.45,897.136,0.046036
3572.45,898.136,0.0447454
3578.45,899.136,0.0448015
3584.45,900.136,0.0447271
3590.45,901.136,0.0461025
3596.457,902.136,0.0460768
3602.47,903.136,0.0474314
3608.48,904.136,0.0474339
3614.49,905.136,0.0491013
3620.499,906.136,0.0501058
3626.5,907.136,0.0487854
3632.51,908.136,0.04977955
3638.51,909.136,0.0497631
3644.493,910.136,0.04843594
3650.47,911.136,0.04843594
3656.45,912.136,0.04837617
3662.44,913.136,0.04770345
3668.44,914.136,0.04843716
3674.44,915.136,0.049768
3680.45,916.136,0.0487659
3686.46,917.136,0.0487653
3692.466,918.136,0.0501058
3698.48,919.136,0.0470307
3704.49,920.136,0.0468679
3710.5,921.136,0.04709599
3716.5,922.136,0.04709599
3722.511,923.136,0.0484695
3728.52,924.136,0.0472643
3734.53,925.136,0.0484487
3740.53,926.136,0.04843533
3746.54,927.136,0.0465117
3752.54,928.136,0.0474302
3758.55,929.136,0.0487659
3764.55,930.136,0.0487677
3770.55,931.136,0.0474259
3776.55,932.136,0.0487476
3782.55,933.136,0.0489037
3788.55,934.136,0.0487702
3794.56,935.136,0.0501083
3800.55,936.136,0.0487525
3806.55,937.136,0.0460823
3812.56,938.136,0.045073
3818.57,939.136,0.0466294
3824.57,940.136,0.04849815
3830.58,941.136,0.0492056
3836.6,942.136,0.0492191
3842.61,943.136,0.0498771
3848.619,944.136,0.0478925
3854.63,945.136,0.0478657
3860.637,946.136,0.048861
3866.646,947.136,0.0481993
3872.65,948.136,0.0478657
3878.652,949.136,0.0478657
3884.65,950.136,0.0478663
3890.64,951.136,0.0465257
3896.63,952.136,0.0465684
3902.63,953.136,0.0465526
3908.63,954.136,0.0451858
3914.62,955.136,0.0465233
3920.613,956.136,0.0475333
3926.6,957.136,0.0489141
3932.59,958.136,0.04654464
3938.58,959.136,0.0478712
3944.56,960.136,0.0488757
3950.544,961.136,0.0475376
3956.53,962.136,0.0468642
3962.53,963.136,0.0476577
3968.53,964.136,0.0478687
3974.55,965.136,0.0468612
3980.56,966.136,0.045209
3986.56,967.136,0.0451955
3992.57,968.136,0.04520347
3998.57,969.136,0.0465361
4004.58,970.136,0.0454529
4010.592,971.136,0.0465361
4016.59,972.136,0.0468319
4022.59,973.136,0.0488751
4028.586,974.136,0.0474808
4034.58,975.136,0.044746
4040.577,976.136,0.0463104
4046.57,977.136,0.0476254
4052.57,978.136,0.0485311
4058.56,979.136,0.0472576
4064.55,980.136,0.0484866
4070.535,981.136,0.0486561
4076.53,982.136,0.049635
4082.52,983.136,0.04831579
4088.514,984.136,0.04831579
4094.517,985.136,0.04831579
4100.52,986.136,0.04831579
4106.52,987.136,0.0486579
4112.52,988.136,0.0500022
4118.523,989.136,0.0488409
4124.52,990.136,0.0486561
4130.53,991.136,0.0486561
4136.53,992.136,0.0473174
4142.53,993.136,0.0473156
4148.53,994.136,0.0473156
4154.523,995.136,0.0483121
4160.52,996.136,0.0483255
4166.52,997.136,0.0476345
4172.52,998.136,0.0483097
4178.52,999.136,0.0476175
4184.53,1000.136,0.0489958
4190.54,1001.136,0.0489794
4196.55,1002.136,0.0499961
4202.56,1003.136,0.0499948
4208.55,1004.136,0.0486561
4214.559,1005.136,0.0476486
4220.57,1006.136,0.0490025
4226.57,1007.136,0.0476681
4232.57,1008.136,0.0463159
4238.57,1009.136,0.0463159
4244.577,1010.136,0.0476547
4250.58,1011.136,0.0483286
4256.58,1012.136,0.0483255
4262.57,1013.136,0.0483255
4268.58,1014.136,0.0469856
4274.58,1015.136,0.0469856
4280.58,1016.136,0.0481816
4286.58,1017.136,0.04697645
4292.57,1018.136,0.0476516
4298.57,1019.136,0.048869
4304.56,1020.136,0.0488373
4310.56,1021.136,0.047801
4316.56,1022.136,0.0463165
4322.56,1023.136,0.0486543
4328.56,1024.136,0.0486366
4334.56,1025.136,0.0489958
4340.56,1026.136,0.0489958
4346.56,1027.136,0.0476553
4352.55,1028.136,0.048983
4358.54,1029.136,0.0489958
4364.52,1030.136,0.0476498
4370.51,1031.136,0.0476559
4376.5,1032.136,0.0489983
4382.48,1033.136,0.0503675
4388.46,1034.136,0.049327
4394.45,1035.136,0.047751
4400.427,1036.136,0.0450748
4406.412,1037.136,0.0450754
4412.4,1038.136,0.0440758
4418.4,1039.136,0.04508149
4424.41,1040.136,0.0477559
4430.4,1041.136,0.0454133
4436.39,1042.136,0.0467563
4442.39,1043.136,0.0480974
4448.37,1044.136,0.0480926
4454.37,1045.136,0.0454182
4460.37,1046.136,0.0467557
4466.36,1047.136,0.0467557
4472.35,1048.136,0.0480871
4478.34,1049.136,0.0480859
4484.33,1050.136,0.0487519
4490.33,1051.136,0.0478584
4496.34,1052.136,0.0460768
4502.34,1053.136,0.0447454
4508.352,1054.136,0.0466782
4514.37,1055.136,0.0490946
4520.38,1056.136,0.0477559
4526.37,1057.136,0.0477577
4532.37,1058.136,0.046416
4538.379,1059.136,0.046416
4544.385,1060.136,0.0474162
4550.39,1061.136,0.04575604
4556.391,1062.136,0.04575726
4562.39,1063.136,0.04709599
4568.37,1064.136,0.0470966
4574.358,1065.136,0.0467557
4580.35,1066.136,0.0480859
4586.34,1067.136,0.0467563
4592.33,1068.136,0.0454157
4598.313,1069.136,0.0467569
4604.29,1070.136,0.0467532
4610.28,1071.136,0.0467557
4616.32,1072.136,0.0481078