File: PMMA/Calibration_Data/NIST/NIST_TGA_N2_10K_4.csv
Time,Temperature,Mass
[s],[K],[mg]
0,301.925,6.34042
56.1948,302.925,6.3297
68.3766,303.925,6.33197
77.0814,304.925,6.33327
84.1734,305.925,6.33464
90.3318,306.925,6.33626
95.8746,307.925,6.33812
100.983,308.925,6.34133
105.7758,309.925,6.34186
110.3316,310.925,6.34349
114.699,311.925,6.34538
118.9188,312.925,6.3463
123.0258,313.925,6.34902
127.0452,314.925,6.34885
130.9962,315.925,6.35088
134.8986,316.925,6.35312
138.7668,317.925,6.35283
142.6128,318.925,6.35479
146.445,319.925,6.35593
150.2712,320.925,6.35615
154.1052,321.925,6.358
157.9584,322.925,6.35808
161.8374,323.925,6.35932
165.747,324.925,6.35986
169.6932,325.925,6.36117
173.6862,326.925,6.36113
177.7302,327.925,6.36245
181.8324,328.925,6.36264
185.9964,329.925,6.36264
190.227,330.925,6.3613
194.5326,331.925,6.36264
198.9144,332.925,6.36262
203.3778,333.925,6.3613
207.9216,334.925,6.3613
212.5542,335.925,6.36131
217.2732,336.925,6.36074
222.081,337.925,6.36164
226.9746,338.925,6.36136
231.9486,339.925,6.3613
237.003,340.925,6.3613
242.1342,341.925,6.35862
247.3374,342.925,6.35862
252.6072,343.925,6.35895
257.9406,344.925,6.35863
263.3286,345.925,6.35761
268.7598,346.925,6.35627
274.2348,347.925,6.35627
279.7404,348.925,6.35595
285.2742,349.925,6.35461
290.8314,350.925,6.35426
296.4126,351.925,6.35561
302.0046,352.925,6.35426
307.6152,353.925,6.35293
313.2414,354.925,6.35292
318.8772,355.925,6.3524
324.5268,356.925,6.35221
330.186,357.925,6.35223
335.853,358.925,6.35091
341.5314,359.925,6.35225
347.2248,360.925,6.35091
352.9254,361.925,6.35225
358.6452,362.925,6.3518
364.3842,363.925,6.35091
370.137,364.925,6.35225
375.9084,365.925,6.35178
381.6996,366.925,6.35225
387.5154,367.925,6.35091
393.3552,368.925,6.35091
399.2214,369.925,6.35081
405.1104,370.925,6.3495
411.0174,371.925,6.34957
416.9514,372.925,6.34958
422.91,373.925,6.35091
428.8878,374.925,6.34965
434.8824,375.925,6.34966
440.8992,376.925,6.34991
446.9292,377.925,6.35094
452.9736,378.925,6.34957
459.0306,379.925,6.34821
465.0948,380.925,6.34692
471.1638,381.925,6.34823
477.2442,382.925,6.34817
483.3264,383.925,6.34834
489.411,384.925,6.34824
495.5046,385.925,6.3469
501.594,386.925,6.34824
507.6768,387.925,6.34958
513.7578,388.925,6.34824
519.8328,389.925,6.34822
525.897,390.925,6.34656
531.9552,391.925,6.34652
538.0086,392.925,6.34556
544.0494,393.925,6.34644
550.0848,394.925,6.34676
556.1172,395.925,6.34714
562.1448,396.925,6.34552
568.164,397.925,6.34557
574.1724,398.925,6.34485
580.1724,399.925,6.34556
586.1658,400.925,6.34422
592.1562,401.925,6.34395
598.1448,402.925,6.34422
604.1232,403.925,6.34422
610.0986,404.925,6.34422
616.071,405.925,6.3443
622.0398,406.925,6.34288
628.0056,407.925,6.34248
633.9756,408.925,6.34154
639.948,409.925,6.34152
645.9138,410.925,6.34087
651.8844,411.925,6.34165
657.8538,412.925,6.34087
663.8184,413.925,6.34087
669.783,414.925,6.34087
675.7476,415.925,6.33942
681.7086,416.925,6.3386
687.6708,417.925,6.33808
693.639,418.925,6.33741
699.603,419.925,6.33741
705.5676,420.925,6.33713
711.5376,421.925,6.33607
717.5028,422.925,6.33473
723.4656,423.925,6.33473
729.4398,424.925,6.33425
735.4146,425.925,6.33373
741.387,426.925,6.33372
747.3594,427.925,6.33238
753.3336,428.925,6.33104
759.3138,429.925,6.32933
765.2958,430.925,6.32831
771.2814,431.925,6.32702
777.27,432.925,6.32697
783.261,433.925,6.32568
789.2574,434.925,6.32503
795.2556,435.925,6.32369
801.2556,436.925,6.32378
807.258,437.925,6.32167
813.261,438.925,6.32148
819.2682,439.925,6.32
825.2796,440.925,6.31865
831.294,441.925,6.31726
837.309,442.925,6.31485
843.3282,443.925,6.3133
849.3462,444.925,6.31195
855.3654,445.925,6.31062
861.3846,446.925,6.30871
867.4038,447.925,6.30728
873.426,448.925,6.30603
879.4446,449.925,6.30396
885.4626,450.925,6.30047
891.4794,451.925,6.29854
897.4968,452.925,6.29589
903.516,453.925,6.29261
909.5274,454.925,6.28986
915.5412,455.925,6.28857
921.558,456.925,6.28451
927.57,457.925,6.28024
933.5784,458.925,6.27758
939.5892,459.925,6.27301
945.597,460.925,6.27098
951.6126,461.925,6.26752
957.6312,462.925,6.26382
963.651,463.925,6.26076
969.6696,464.925,6.257
975.6858,465.925,6.25295
981.7098,466.925,6.25154
987.738,467.925,6.24626
993.765,468.925,6.24356
999.7872,469.925,6.24031
1005.8,470.925,6.23645
1011.81,471.925,6.23424
1017.82,472.925,6.23296
1023.84,473.925,6.22888
1029.84,474.925,6.22623
1035.85,475.925,6.22467
1041.85,476.925,6.22229
1047.86,477.925,6.21957
1053.86,478.925,6.2155
1059.87,479.925,6.21426
1065.88,480.925,6.21149
1071.888,481.925,6.20908
1077.9,482.925,6.20742
1083.92,483.925,6.20584
1089.93,484.925,6.2021
1095.95,485.925,6.20109
1101.969,486.925,6.19976
1107.993,487.925,6.19709
1114.011,488.925,6.19575
1120.03,489.925,6.19719
1126.05,490.925,6.19575
1132.08,491.925,6.19307
1138.1,492.925,6.19307
1144.13,493.925,6.19039
1150.15,494.925,6.19036
1156.17,495.925,6.19106
1162.197,496.925,6.18771
1168.22,497.925,6.18838
1174.24,498.925,6.18838
1180.27,499.925,6.18838
1186.3,500.925,6.18736
1192.32,501.925,6.18704
1198.34,502.925,6.18704
1204.36,503.925,6.1857
1210.389,504.925,6.1857
1216.41,505.925,6.18439
1222.44,506.925,6.18369
1228.47,507.925,6.18335
1234.49,508.925,6.18235
1240.52,509.925,6.18235
1246.55,510.925,6.18235
1252.58,511.925,6.18235
1258.608,512.925,6.18214
1264.64,513.925,6.18101
1270.67,514.925,6.18235
1276.7,515.925,6.18105
1282.72,516.925,6.17832
1288.75,517.925,6.17833
1294.77,518.925,6.17833
1300.79,519.925,6.17899
1306.809,520.925,6.17732
1312.83,521.925,6.17732
1318.854,522.925,6.17598
1324.87,523.925,6.17595
1330.9,524.925,6.17363
1336.92,525.925,6.17291
1342.95,526.925,6.17299
1348.971,527.925,6.17096
1354.99,528.925,6.17096
1361.01,529.925,6.17092
1367.03,530.925,6.16962
1373.055,531.925,6.16837
1379.08,532.925,6.1659
1385.09,533.925,6.16627
1391.11,534.925,6.16578
1397.14,535.925,6.16359
1403.16,536.925,6.16225
1409.18,537.925,6.16029
1415.2,538.925,6.15824
1421.214,539.925,6.15586
1427.23,540.925,6.15427
1433.24,541.925,6.1515
1439.25,542.925,6.15137
1445.26,543.925,6.14886
1451.283,544.925,6.1489
1457.3,545.925,6.14463
1463.31,546.925,6.14193
1469.32,547.925,6.14055
1475.32,548.925,6.13634
1481.33,549.925,6.13465
1487.34,550.925,6.13226
1493.35,551.925,6.12943
1499.36,552.925,6.1278
1505.37,553.925,6.12396
1511.39,554.925,6.11918
1517.397,555.925,6.11547
1523.406,556.925,6.11211
1529.42,557.925,6.1082
1535.43,558.925,6.10365
1541.43,559.925,6.0977
1547.442,560.925,6.09334
1553.45,561.925,6.08916
1559.47,562.925,6.08438
1565.47,563.925,6.07889
1571.481,564.925,6.0741
1577.49,565.925,6.06958
1583.51,566.925,6.06308
1589.52,567.925,6.05764
1595.54,568.925,6.05136
1601.55,569.925,6.0449
1607.57,570.925,6.03859
1613.59,571.925,6.03195
1619.61,572.925,6.02578
1625.63,573.925,6.01941
1631.65,574.925,6.01314
1637.66,575.925,6.00663
1643.67,576.925,5.99765
1649.69,577.925,5.99116
1655.69,578.925,5.98374
1661.7,579.925,5.97532
1667.709,580.925,5.96937
1673.72,581.925,5.95957
1679.73,582.925,5.95194
1685.74,583.925,5.94285
1691.74,584.925,5.93408
1697.745,585.925,5.92518
1703.76,586.925,5.91369
1709.77,587.925,5.90442
1715.78,588.925,5.89336
1721.784,589.925,5.88177
1727.793,590.925,5.86936
1733.805,591.925,5.85753
1739.82,592.925,5.84477
1745.83,593.925,5.83051
1751.85,594.925,5.81607
1757.86,595.925,5.8009
1763.87,596.925,5.78499
1769.895,597.925,5.76645
1775.92,598.925,5.74823
1781.94,599.925,5.72775
1787.97,600.925,5.70542
1794,601.925,5.68646
1800.033,602.925,5.66201
1806.06,603.925,5.63775
1812.1,604.925,5.61055
1818.14,605.925,5.58331
1824.18,606.925,5.55476
1830.22,607.925,5.52379
1836.25,608.925,5.48752
1842.29,609.925,5.45412
1848.33,610.925,5.41282
1854.36,611.925,5.37575
1860.4,612.925,5.33336
1866.432,613.925,5.28791
1872.47,614.925,5.2408
1878.5,615.925,5.19197
1884.53,616.925,5.13759
1890.57,617.925,5.08313
1896.6,618.925,5.02469
1902.64,619.925,4.96317
1908.67,620.925,4.89796
1914.71,621.925,4.83055
1920.74,622.925,4.76003
1926.765,623.925,4.68451
1932.789,624.925,4.61002
1938.816,625.925,4.53001
1944.84,626.925,4.44623
1950.86,627.925,4.35905
1956.89,628.925,4.27165
1962.9,629.925,4.17761
1968.92,630.925,4.08668
1974.93,631.925,3.9877
1980.93,632.925,3.88959
1986.927,633.925,3.78496
1992.924,634.925,3.68169
1998.92,635.925,3.57448
2004.9,636.925,3.46715
2010.879,637.925,3.35847
2016.85,638.925,3.24972
2022.807,639.925,3.14056
2028.77,640.925,3.03016
2034.73,641.925,2.91935
2040.68,642.925,2.80932
2046.64,643.925,2.70098
2052.6,644.925,2.5929
2058.55,645.925,2.47999
2064.51,646.925,2.36107
2070.47,647.925,2.2485
2076.42,648.925,2.13574
2082.366,649.925,2.02643
2088.3,650.925,1.91408
2094.234,651.925,1.81054
2100.162,652.925,1.70668
2106.084,653.925,1.60937
2112,654.925,1.50982
2117.92,655.925,1.41962
2123.84,656.925,1.32761
2129.76,657.925,1.24352
2135.69,658.925,1.16104
2141.613,659.925,1.0844
2147.547,660.925,1.0113
2153.49,661.925,0.9421
2159.44,662.925,0.875745
2165.38,663.925,0.811926
2171.34,664.925,0.752692
2177.313,665.925,0.697003
2183.29,666.925,0.645542
2189.28,667.925,0.596633
2195.271,668.925,0.551959
2201.28,669.925,0.508752
2207.29,670.925,0.46928
2213.31,671.925,0.433214
2219.331,672.925,0.398877
2225.36,673.925,0.368623
2231.403,674.925,0.339001
2237.44,675.925,0.312406
2243.49,676.925,0.288838
2249.54,677.925,0.266767
2255.6,678.925,0.247758
2261.66,679.925,0.230739
2267.72,680.925,0.21506
2273.78,681.925,0.199653
2279.85,682.925,0.18792
2285.9,683.925,0.174609
2291.96,684.925,0.164366
2298.018,685.925,0.155695
2304.078,686.925,0.146227
2310.141,687.925,0.139329
2316.2,688.925,0.13282
2322.26,689.925,0.127461
2328.306,690.925,0.122058
2334.35,691.925,0.117341
2340.4,692.925,0.110492
2346.44,693.925,0.108923
2352.47,694.925,0.104419
2358.49,695.925,0.100229
2364.52,696.925,0.096266
2370.54,697.925,0.0942886
2376.564,698.925,0.0935348
2382.588,699.925,0.09086503
2388.61,700.925,0.0881699
2394.63,701.925,0.0854906
2400.654,702.925,0.0854913
2406.68,703.925,0.0851619
2412.7,704.925,0.0824927
2418.71,705.925,0.0823559
2424.72,706.925,0.0812538
2430.741,707.925,0.080813
2436.75,708.925,0.0798122
2442.73,709.925,0.0798122
2448.69,710.925,0.0781286
2454.64,711.925,0.0767934
2460.62,712.925,0.07746292
2466.63,713.925,0.0781502
2472.68,714.925,0.0794727
2478.72,715.925,0.0794999
2484.76,716.925,0.0777923
2490.79,717.925,0.07746292
2496.813,718.925,0.0781147
2502.84,719.925,0.0801162
2508.86,720.925,0.0788292
2514.87,721.925,0.0788038
2520.882,722.925,0.0777929
2526.9,723.925,0.0777929
2532.906,724.925,0.0791091
2538.91,725.925,0.0788602
2544.91,726.925,0.0787525
2550.92,727.925,0.0791034
2556.92,728.925,0.0778088
2562.91,729.925,0.0784814
2568.91,730.925,0.0784707
2574.91,731.925,0.0771329
2580.9,732.925,0.07844659
2586.9,733.925,0.0791427
2592.9,734.925,0.0791427
2598.89,735.925,0.0791427
2604.89,736.925,0.0786885
2610.888,737.925,0.0778031
2616.885,738.925,0.0778031
2622.89,739.925,0.0778031
2628.89,740.925,0.0791174
2634.88,741.925,0.0780279
2640.88,742.925,0.0781331
2646.88,743.925,0.0781331
2652.88,744.925,0.0781331
2658.88,745.925,0.0781331
2664.88,746.925,0.0778537
2670.88,747.925,0.0771329
2676.88,748.925,0.0771329
2682.88,749.925,0.0771329
2688.89,750.925,0.0775871
2694.9,751.925,0.0771982
2700.91,752.925,0.0782008
2706.91,753.925,0.0784631
2712.91,754.925,0.077145
2718.92,755.925,0.0778031
2724.93,756.925,0.0778031
2730.93,757.925,0.0778031
2736.93,758.925,0.0781641
2742.93,759.925,0.07842
2748.921,760.925,0.0778069
2754.92,761.925,0.0781901
2760.91,762.925,0.0781426
2766.9,763.925,0.07714432
2772.9,764.925,0.0767928
2778.9,765.925,0.0781818
2784.89,766.925,0.0781331
2790.88,767.925,0.0767947
2796.89,768.925,0.07723933
2802.888,769.925,0.0781312
2808.888,770.925,0.0767947
2814.89,771.925,0.078159
2820.88,772.925,0.0788836
2826.88,773.925,0.07680355
2832.882,774.925,0.0777898
2838.89,775.925,0.0777929
2844.894,776.925,0.0777923
2850.91,777.925,0.0791319
2856.92,778.925,0.0791326
2862.92,779.925,0.0791326
2868.92,780.925,0.0778157
2874.92,781.925,0.0778031
2880.92,782.925,0.0791389
2886.92,783.925,0.0791326
2892.91,784.925,0.0791326
2898.9,785.925,0.0791326
2904.89,786.925,0.0791326
2910.88,787.925,0.0791345
2916.88,788.925,0.0784643
2922.88,789.925,0.0781426
2928.876,790.925,0.0774914
2934.87,791.925,0.0774731
2940.87,792.925,0.0784707
2946.86,793.925,0.0784732
2952.86,794.925,0.0778265
2958.86,795.925,0.0791427
2964.85,796.925,0.0791351
2970.849,797.925,0.080813
2976.846,798.925,0.0795639
2982.84,799.925,0.0794727
2988.84,800.925,0.0781293
2994.84,801.925,0.078154
3000.84,802.925,0.0794733
3006.84,803.925,0.0784719
3012.84,804.925,0.0784726
3018.84,805.925,0.0798109
3024.85,806.925,0.078477
3030.85,807.925,0.0801504
3036.849,808.925,0.0794797
3042.85,809.925,0.0788013
3048.861,810.925,0.0791319
3054.87,811.925,0.0791326
3060.873,812.925,0.0791389
3066.88,813.925,0.0778031
3072.89,814.925,0.0777967
3078.89,815.925,0.0791326
3084.88,816.925,0.0791965
3090.88,817.925,0.0784726
3096.88,818.925,0.0784726
3102.88,819.925,0.078496
3108.88,820.925,0.0799439
3114.89,821.925,0.0794828
3120.89,822.925,0.0793853
3126.882,823.925,0.081136
3132.88,824.925,0.081143
3138.888,825.925,0.0802904
3144.9,826.925,0.0798078
3150.9,827.925,0.0791427
3156.91,828.925,0.0791427
3162.91,829.925,0.0790908
3168.918,830.925,0.0807091
3174.93,831.925,0.0818125
3180.948,832.925,0.081796
3186.957,833.925,0.080813
3192.97,834.925,0.0793308
3198.98,835.925,0.0791427
3204.99,836.925,0.077734
3211,837.925,0.0778031
3217.017,838.925,0.0778031
3223.03,839.925,0.0798021
3229.04,840.925,0.079804
3235.04,841.925,0.081143
3241.05,842.925,0.0798052
3247.056,843.925,0.0791326
3253.071,844.925,0.0791326
3259.089,845.925,0.0791047
3265.101,846.925,0.0794727
3271.12,847.925,0.0794727
3277.13,848.925,0.0794727
3283.15,849.925,0.0794727
3289.16,850.925,0.078522
3295.17,851.925,0.0781331
3301.176,852.925,0.0794727
3307.18,853.925,0.07813369
3313.18,854.925,0.0781331
3319.18,855.925,0.0801207
3325.18,856.925,0.0788045
3331.176,857.925,0.0781356
3337.17,858.925,0.0801428
3343.17,859.925,0.0801428
3349.179,860.925,0.079163
3355.19,861.925,0.0788032
3361.194,862.925,0.0801428
3367.203,863.925,0.0801428
3373.21,864.925,0.0801428
3379.22,865.925,0.0804811
3385.24,866.925,0.079163
3391.25,867.925,0.0804823
3397.25,868.925,0.0791427
3403.25,869.925,0.0791294
3409.25,870.925,0.080483
3415.25,871.925,0.0804728
3421.25,872.925,0.0794727
3427.26,873.925,0.0802271
3433.27,874.925,0.080813
3439.27,875.925,0.080813
3445.278,876.925,0.0807788
3451.28,877.925,0.0790692
3457.293,878.925,0.0791326
3463.302,879.925,0.0791326
3469.31,880.925,0.0797875
3475.32,881.925,0.078826
3481.323,882.925,0.0788032
3487.323,883.925,0.0794727
3493.32,884.925,0.0794727
3499.31,885.925,0.0784567
3505.29,886.925,0.07847
3511.233,887.925,0.0798027
3517.16,888.925,0.0784523
3523.13,889.925,0.0784586
3529.12,890.925,0.0794727
3535.116,891.925,0.0794727
3541.12,892.925,0.0794727
3547.13,893.925,0.0801416
3553.15,894.925,0.0801428
3559.16,895.925,0.081516
3565.17,896.925,0.080813
3571.18,897.925,0.080813
3577.19,898.925,0.080813
3583.19,899.925,0.0798128
3589.2,900.925,0.0798128
3595.21,901.925,0.0798128
3601.21,902.925,0.0798128
3607.2,903.925,0.0791427
3613.2,904.925,0.0778031
3619.2,905.925,0.0778031
3625.19,906.925,0.0791364
3631.18,907.925,0.0798128
3637.17,908.925,0.0784726
3643.16,909.925,0.0784726
3649.15,910.925,0.0784707
3655.15,911.925,0.07746292
3661.15,912.925,0.0781331
3667.15,913.925,0.0794879
3673.16,914.925,0.0794727
3679.16,915.925,0.07907809
3685.17,916.925,0.0794676
3691.18,917.925,0.0787994
3697.19,918.925,0.0781331
3703.22,919.925,0.0781331
3709.24,920.925,0.0791459
3715.257,921.925,0.0777315
3721.27,922.925,0.0778031
3727.29,923.925,0.0781324
3733.296,924.925,0.0781331
3739.302,925.925,0.079144
3745.3,926.925,0.0790559
3751.29,927.925,0.0785308
3757.29,928.925,0.0798128
3763.29,929.925,0.0798268
3769.284,930.925,0.0797957
3775.278,931.925,0.08069516
3781.26,932.925,0.0784726
3787.24,933.925,0.0784726
3793.23,934.925,0.077131
3799.21,935.925,0.0794803
3805.2,936.925,0.0794727
3811.2,937.925,0.0788032
3817.21,938.925,0.0801416
3823.22,939.925,0.0787829
3829.239,940.925,0.0798046
3835.25,941.925,0.0798027
3841.26,942.925,0.0798027
3847.269,943.925,0.0784624
3853.28,944.925,0.0811468
3859.299,945.925,0.08113854
3865.31,946.925,0.0798021
3871.33,947.925,0.0801428
3877.34,948.925,0.0801428
3883.362,949.925,0.0788045
3889.365,950.925,0.0788026
3895.362,951.925,0.0788
3901.36,952.925,0.0794727
3907.36,953.925,0.0794733
3913.36,954.925,0.0808155
3919.374,955.925,0.0806819
3925.38,956.925,0.0794727
3931.38,957.925,0.0804722
3937.38,958.925,0.0804728
3943.374,959.925,0.0801428
3949.37,960.925,0.0801473
3955.36,961.925,0.0791421
3961.34,962.925,0.0788026
3967.329,963.925,0.0788026
3973.32,964.925,0.0788032
3979.33,965.925,0.0794727
3985.33,966.925,0.0794727
3991.33,967.925,0.0798914
3997.32,968.925,0.0801428
4003.32,969.925,0.0801428
4009.31,970.925,0.0801428
4015.3,971.925,0.0801428
4021.29,972.925,0.0801428
4027.28,973.925,0.0788026
4033.26,974.925,0.0788007
4039.25,975.925,0.0788045
4045.24,976.925,0.0791427
4051.227,977.925,0.0804849
4057.21,978.925,0.0791459
4063.2,979.925,0.0791427
4069.18,980.925,0.0804861
4075.18,981.925,0.0814837
4081.18,982.925,0.0788026
4087.18,983.925,0.0801428
4093.19,984.925,0.0801416
4099.2,985.925,0.0798027
4105.21,986.925,0.0788026
4111.22,987.925,0.0801428
4117.23,988.925,0.0801428
4123.24,989.925,0.0811544
4129.25,990.925,0.0808136
4135.27,991.925,0.0794727
4141.284,992.925,0.0794727
4147.299,993.925,0.0794417
4153.32,994.925,0.0808339
4159.344,995.925,0.0794651
4165.36,996.925,0.0778031
4171.37,997.925,0.0778107
4177.38,998.925,0.07755793
4183.38,999.925,0.0771342
4189.38,1000.925,0.079474
4195.38,1001.925,0.0794727
4201.37,1002.925,0.0795031
4207.36,1003.925,0.0781331
4213.36,1004.925,0.0781331
4219.37,1005.925,0.0781331
4225.37,1006.925,0.0781331
4231.362,1007.925,0.0794797
4237.35,1008.925,0.07866
4243.34,1009.925,0.0781426
4249.326,1010.925,0.0781445
4255.32,1011.925,0.0768131
4261.31,1012.925,0.0781166
4267.308,1013.925,0.0781476
4273.302,1014.925,0.0781331
4279.29,1015.925,0.0781046
4285.29,1016.925,0.0781426
4291.29,1017.925,0.0781426
4297.287,1018.925,0.0781426
4303.281,1019.925,0.07680355
4309.26,1020.925,0.0768029
4315.25,1021.925,0.0781432
4321.242,1022.925,0.0781426
4327.239,1023.925,0.0781736
4333.23,1024.925,0.0784257
4339.23,1025.925,0.0778031
4345.21,1026.925,0.0778031
4351.2,1027.925,0.0767928
4357.2,1028.925,0.0771228
4363.19,1029.925,0.0771228
4369.18,1030.925,0.0771228
4375.18,1031.925,0.0771082
4381.18,1032.925,0.0777929
4387.19,1033.925,0.0777929
4393.21,1034.925,0.0791326
4399.23,1035.925,0.0764374
4405.25,1036.925,0.0764526
4411.25,1037.925,0.0771982
4417.26,1038.925,0.0777929
4423.25,1039.925,0.0782129
4429.25,1040.925,0.0791338
4435.24,1041.925,0.0777929
4441.236,1042.925,0.0777929
4447.23,1043.925,0.0777929
4453.215,1044.925,0.0774534
4459.203,1045.925,0.07746292
4465.19,1046.925,0.0778056
4471.18,1047.925,0.07644948
4477.17,1048.925,0.0764526
4483.15,1049.925,0.0777441
4489.15,1050.925,0.0777904
4495.15,1051.925,0.0777929
4501.14,1052.925,0.0764539
4507.14,1053.925,0.0777929
4513.137,1054.925,0.0781432
4519.12,1055.925,0.07746292
4525.119,1056.925,0.0774674
4531.11,1057.925,0.0761226
4537.1,1058.925,0.0774623
4543.09,1059.925,0.0753531
4549.101,1060.925,0.0753423
4555.11,1061.925,0.0779627
4561.11,1062.925,0.0780184
4567.11,1063.925,0.07667497
4573.1,1064.925,0.0766826
4579.1,1065.925,0.0766838
4585.083,1066.925,0.0780228
4591.062,1067.925,0.0780228
4597.04,1068.925,0.0780228
4603.029,1069.925,0.0780228
4609.03,1070.925,0.0780361
4615.06,1071.925,0.0793625