File: PMMA/Calibration_Data/NIST/NIST_TGA_N2_10K_1.csv
Time,Temperature,Mass
[s],[K],[mg]
0,303.147,4.99457
50.907,304.147,4.98924
63.1962,305.147,4.9885
72.054,306.147,4.98862
79.3158,307.147,4.98906
85.6476,308.147,4.98795
91.3692,309.147,4.98871
96.6696,310.147,4.9903
101.6652,311.147,4.99039
106.4256,312.147,4.99047
111.0048,313.147,4.99356
115.4478,314.147,4.99219
119.7894,315.147,4.99398
124.0524,316.147,4.99264
128.2572,317.147,4.99386
132.4218,318.147,4.99391
136.5618,319.147,4.99476
140.6892,320.147,4.99523
144.8148,321.147,4.997
148.9506,322.147,4.99468
153.1086,323.147,4.99642
157.2972,324.147,4.99756
161.5236,325.147,4.99811
165.7926,326.147,4.99934
170.1138,327.147,4.99961
174.4926,328.147,4.99942
178.935,329.147,4.99949
183.4434,330.147,4.99948
188.0226,331.147,5.00079
192.6768,332.147,5.00082
197.4132,333.147,5.00082
202.2294,334.147,4.99948
207.1254,335.147,4.99948
212.0958,336.147,4.99948
217.1466,337.147,5.00082
222.2736,338.147,5.00082
227.4702,339.147,5.00082
232.731,340.147,4.99814
238.0494,341.147,4.99814
243.423,342.147,4.99948
248.8476,343.147,4.99948
254.31,344.147,4.99948
259.8042,345.147,4.99948
265.3284,346.147,4.99948
270.8682,347.147,4.99956
276.4308,348.147,5.00048
282.0096,349.147,5.00048
287.5974,350.147,5.00048
293.199,351.147,5.00048
298.8054,352.147,5.00048
304.4148,353.147,5.00044
310.0296,354.147,5.00149
315.6534,355.147,5.00049
321.2844,356.147,5.00116
326.9184,357.147,5.00047
332.5608,358.147,4.99937
338.2164,359.147,5.00049
343.8792,360.147,5.00183
349.551,361.147,5.00184
355.2372,362.147,5.00154
360.9438,363.147,5.00006
366.6684,364.147,4.99948
372.4098,365.147,4.9997
378.1668,366.147,5.00038
383.9472,367.147,5.00064
389.7486,368.147,5.00177
395.5698,369.147,5.00038
401.4192,370.147,5.00038
407.2866,371.147,5.00058
413.178,372.147,5.00039
419.0946,373.147,4.99904
425.0322,374.147,4.99903
430.9932,375.147,4.99904
436.9692,376.147,4.99771
442.9596,377.147,4.99978
448.9692,378.147,4.99837
454.9932,379.147,4.99905
461.0214,380.147,4.99904
467.0628,381.147,4.99904
473.103,382.147,4.99907
479.1462,383.147,5.00038
485.199,384.147,4.99895
491.2584,385.147,4.99914
497.3154,386.147,4.99937
503.3676,387.147,4.99904
509.4204,388.147,4.9977
515.469,389.147,4.99636
521.5104,390.147,4.99636
527.5428,391.147,4.99778
533.5674,392.147,4.99769
539.5872,393.147,4.99635
545.6034,394.147,4.99635
551.6082,395.147,4.99757
557.6046,396.147,4.99637
563.5956,397.147,4.99635
569.5764,398.147,4.9957
575.5554,399.147,4.99496
581.5362,400.147,4.99634
587.5158,401.147,4.99501
593.4966,402.147,4.99489
599.4702,403.147,4.99423
605.436,404.147,4.99367
611.4018,405.147,4.99367
617.364,406.147,4.99367
623.3256,407.147,4.99468
629.2914,408.147,4.99414
635.256,409.147,4.99292
641.22,410.147,4.99367
647.1792,411.147,4.99164
653.1396,412.147,4.99031
659.1042,413.147,4.99166
665.0646,414.147,4.99166
671.0238,415.147,4.98898
676.9842,416.147,4.98898
682.9476,417.147,4.98898
688.9128,418.147,4.98898
694.8786,419.147,4.98765
700.8462,420.147,4.98764
706.8168,421.147,4.98764
712.788,422.147,4.98764
718.7604,423.147,4.98764
724.7418,424.147,4.98901
730.725,425.147,4.98764
736.7148,426.147,4.98631
742.704,427.147,4.9853
748.6926,428.147,4.98533
754.6884,429.147,4.98497
760.6884,430.147,4.98462
766.6848,431.147,4.98363
772.6818,432.147,4.98225
778.6806,433.147,4.98162
784.6806,434.147,4.98139
790.6794,435.147,4.98061
796.6764,436.147,4.979
802.6764,437.147,4.97827
808.6722,438.147,4.97742
814.6716,439.147,4.97834
820.6734,440.147,4.97649
826.6734,441.147,4.97521
832.683,442.147,4.97381
838.6974,443.147,4.97328
844.7082,444.147,4.97384
850.7184,445.147,4.97252
856.7316,446.147,4.97307
862.7508,447.147,4.97046
868.7706,448.147,4.96912
874.791,449.147,4.96646
880.8102,450.147,4.9651
886.8288,451.147,4.96376
892.8486,452.147,4.96108
898.8684,453.147,4.95974
904.8876,454.147,4.95832
910.9026,455.147,4.95695
916.9158,456.147,4.95565
922.9314,457.147,4.95158
928.9428,458.147,4.95016
934.9542,459.147,4.94891
940.9674,460.147,4.94606
946.9854,461.147,4.9432
952.9998,462.147,4.93931
959.0094,463.147,4.93518
965.0184,464.147,4.93361
971.0262,465.147,4.92968
977.0376,466.147,4.92559
983.0484,467.147,4.9243
989.0586,468.147,4.92039
995.0712,469.147,4.91799
1001.08,470.147,4.91655
1007.088,471.147,4.91343
1013.1,472.147,4.91083
1019.11,473.147,4.90813
1025.12,474.147,4.90691
1031.13,475.147,4.90548
1037.14,476.147,4.90249
1043.16,477.147,4.89879
1049.18,478.147,4.89776
1055.21,479.147,4.89481
1061.24,480.147,4.89342
1067.268,481.147,4.89052
1073.29,482.147,4.88837
1079.319,483.147,4.88789
1085.34,484.147,4.88458
1091.36,485.147,4.88114
1097.39,486.147,4.87981
1103.412,487.147,4.87747
1109.43,488.147,4.8768
1115.46,489.147,4.87407
1121.48,490.147,4.87281
1127.49,491.147,4.86943
1133.51,492.147,4.86742
1139.535,493.147,4.866
1145.56,494.147,4.86474
1151.57,495.147,4.86208
1157.59,496.147,4.8614
1163.61,497.147,4.8596
1169.63,498.147,4.85836
1175.66,499.147,4.85971
1181.68,500.147,4.85971
1187.703,501.147,4.85972
1193.73,502.147,4.85837
1199.75,503.147,4.85703
1205.77,504.147,4.85705
1211.79,505.147,4.85703
1217.81,506.147,4.8568
1223.83,507.147,4.8557
1229.85,508.147,4.85569
1235.87,509.147,4.85477
1241.883,510.147,4.85335
1247.9,511.147,4.85436
1253.92,512.147,4.85436
1259.943,513.147,4.85343
1265.96,514.147,4.85136
1271.982,515.147,4.85268
1278.006,516.147,4.85168
1284.03,517.147,4.85201
1290.05,518.147,4.85201
1296.07,519.147,4.85167
1302.09,520.147,4.85061
1308.11,521.147,4.84933
1314.123,522.147,4.84896
1320.14,523.147,4.84765
1326.17,524.147,4.84765
1332.19,525.147,4.84899
1338.21,526.147,4.84765
1344.23,527.147,4.84631
1350.25,528.147,4.84531
1356.27,529.147,4.845
1362.29,530.147,4.84397
1368.31,531.147,4.84397
1374.33,532.147,4.84264
1380.35,533.147,4.84129
1386.37,534.147,4.841
1392.39,535.147,4.83832
1398.41,536.147,4.83796
1404.43,537.147,4.83661
1410.45,538.147,4.83661
1416.47,539.147,4.83526
1422.49,540.147,4.83392
1428.51,541.147,4.8327
1434.53,542.147,4.83024
1440.54,543.147,4.82889
1446.56,544.147,4.82626
1452.579,545.147,4.82622
1458.6,546.147,4.82488
1464.62,547.147,4.8222
1470.63,548.147,4.81988
1476.65,549.147,4.81919
1482.666,550.147,4.81608
1488.68,551.147,4.8138
1494.69,552.147,4.81248
1500.7,553.147,4.80982
1506.72,554.147,4.80733
1512.73,555.147,4.8036
1518.74,556.147,4.80024
1524.75,557.147,4.79755
1530.76,558.147,4.79484
1536.762,559.147,4.79108
1542.76,560.147,4.78964
1548.76,561.147,4.78697
1554.76,562.147,4.78316
1560.76,563.147,4.77891
1566.75,564.147,4.77429
1572.747,565.147,4.76922
1578.75,566.147,4.76418
1584.75,567.147,4.75926
1590.76,568.147,4.75639
1596.78,569.147,4.7519
1602.79,570.147,4.74628
1608.801,571.147,4.74188
1614.82,572.147,4.7382
1620.84,573.147,4.73144
1626.87,574.147,4.72547
1632.89,575.147,4.72056
1638.909,576.147,4.71508
1644.924,577.147,4.71028
1650.94,578.147,4.7038
1656.96,579.147,4.69762
1662.97,580.147,4.69199
1668.98,581.147,4.68376
1674.987,582.147,4.67916
1681,583.147,4.67063
1687.01,584.147,4.66351
1693.02,585.147,4.65436
1699.023,586.147,4.64646
1705.03,587.147,4.64046
1711.04,588.147,4.63303
1717.04,589.147,4.62153
1723.053,590.147,4.61316
1729.062,591.147,4.60408
1735.06,592.147,4.59433
1741.068,593.147,4.58261
1747.08,594.147,4.57078
1753.08,595.147,4.557
1759.089,596.147,4.54516
1765.1,597.147,4.5323
1771.12,598.147,4.5181
1777.13,599.147,4.50325
1783.15,600.147,4.48635
1789.18,601.147,4.4686
1795.21,602.147,4.44974
1801.25,603.147,4.43105
1807.29,604.147,4.41007
1813.338,605.147,4.38837
1819.39,606.147,4.36379
1825.431,607.147,4.33892
1831.476,608.147,4.31195
1837.52,609.147,4.28284
1843.58,610.147,4.25262
1849.623,611.147,4.22136
1855.67,612.147,4.18813
1861.716,613.147,4.15409
1867.76,614.147,4.11524
1873.82,615.147,4.07726
1879.87,616.147,4.03436
1885.92,617.147,3.99158
1891.96,618.147,3.9425
1898.01,619.147,3.89632
1904.05,620.147,3.8411
1910.1,621.147,3.78883
1916.127,622.147,3.73244
1922.16,623.147,3.67633
1928.19,624.147,3.6137
1934.21,625.147,3.5486
1940.235,626.147,3.48139
1946.25,627.147,3.41588
1952.27,628.147,3.34311
1958.28,629.147,3.27131
1964.27,630.147,3.19462
1970.27,631.147,3.11934
1976.25,632.147,3.03852
1982.235,633.147,2.95769
1988.22,634.147,2.87264
1994.19,635.147,2.78994
2000.16,636.147,2.70075
2006.121,637.147,2.61716
2012.085,638.147,2.52588
2018.04,639.147,2.43992
2023.99,640.147,2.34871
2029.93,641.147,2.26151
2035.88,642.147,2.17009
2041.83,643.147,2.0831
2047.76,644.147,1.99488
2053.7,645.147,1.91064
2059.64,646.147,1.82038
2065.58,647.147,1.7352
2071.515,648.147,1.6466
2077.455,649.147,1.56482
2083.4,650.147,1.48172
2089.34,651.147,1.40032
2095.29,652.147,1.32081
2101.233,653.147,1.24204
2107.18,654.147,1.16667
2113.13,655.147,1.09619
2119.071,656.147,1.0263
2125.02,657.147,0.960903
2130.96,658.147,0.897829
2136.91,659.147,0.836602
2142.87,660.147,0.778733
2148.84,661.147,0.721129
2154.8,662.147,0.672077
2160.78,663.147,0.621085
2166.75,664.147,0.577702
2172.735,665.147,0.534701
2178.72,666.147,0.495246
2184.72,667.147,0.455478
2190.72,668.147,0.421431
2196.73,669.147,0.388068
2202.74,670.147,0.359552
2208.75,671.147,0.332283
2214.77,672.147,0.306822
2220.795,673.147,0.280993
2226.83,674.147,0.257656
2232.87,675.147,0.237364
2238.91,676.147,0.219149
2244.96,677.147,0.2033
2251.01,678.147,0.188795
2257.07,679.147,0.175431
2263.125,680.147,0.16305
2269.176,681.147,0.151981
2275.23,682.147,0.140954
2281.296,683.147,0.130497
2287.35,684.147,0.123377
2293.41,685.147,0.115473
2299.47,686.147,0.107407
2305.512,687.147,0.101263
2311.56,688.147,0.0968412
2317.6,689.147,0.0937584
2323.638,690.147,0.0882345
2329.67,691.147,0.0864775
2335.7,692.147,0.0827195
2341.74,693.147,0.0784516
2347.76,694.147,0.0748419
2353.78,695.147,0.07348318
2359.81,696.147,0.0707723
2365.821,697.147,0.0691104
2371.83,698.147,0.0691085
2377.84,699.147,0.066026
2383.84,700.147,0.06377
2389.83,701.147,0.063758
2395.82,702.147,0.0624102
2401.82,703.147,0.0613748
2407.83,704.147,0.0610689
2413.85,705.147,0.0597306
2419.87,706.147,0.0597306
2425.9,707.147,0.0583848
2431.93,708.147,0.0583903
2437.97,709.147,0.0583903
2444.01,710.147,0.0583933
2450.04,711.147,0.0573903
2456.09,712.147,0.0573903
2462.154,713.147,0.0573903
2468.21,714.147,0.05731993
2474.25,715.147,0.0580599
2480.29,716.147,0.0600634
2486.319,717.147,0.0600604
2492.34,718.147,0.0573838
2498.35,719.147,0.0573903
2504.36,720.147,0.0587301
2510.36,721.147,0.0587531
2516.36,722.147,0.0580604
2522.36,723.147,0.0580604
2528.36,724.147,0.0580664
2534.36,725.147,0.0590604
2540.35,726.147,0.0590604
2546.34,727.147,0.0590604
2552.33,728.147,0.0590604
2558.33,729.147,0.0593983
2564.33,730.147,0.0594003
2570.33,731.147,0.0594003
2576.328,732.147,0.0607416
2582.32,733.147,0.0594003
2588.31,734.147,0.0594003
2594.31,735.147,0.060796
2600.3,736.147,0.0583903
2606.3,737.147,0.0583873
2612.29,738.147,0.0594003
2618.29,739.147,0.0577346
2624.28,740.147,0.0577306
2630.27,741.147,0.0577306
2636.27,742.147,0.0577306
2642.27,743.147,0.0577306
2648.27,744.147,0.0577306
2654.27,745.147,0.0577306
2660.26,746.147,0.0577306
2666.26,747.147,0.057058
2672.26,748.147,0.0584462
2678.259,749.147,0.0584013
2684.262,750.147,0.0587181
2690.27,751.147,0.0587306
2696.271,752.147,0.0587306
2702.277,753.147,0.0600699
2708.28,754.147,0.0600505
2714.292,755.147,0.0590679
2720.298,756.147,0.0590704
2726.31,757.147,0.0590704
2732.33,758.147,0.0590704
2738.337,759.147,0.0590704
2744.34,760.147,0.0604102
2750.34,761.147,0.0604102
2756.33,762.147,0.0600819
2762.33,763.147,0.0594023
2768.32,764.147,0.0590604
2774.313,765.147,0.0590599
2780.31,766.147,0.0587306
2786.3,767.147,0.05739478
2792.3,768.147,0.0573953
2798.3,769.147,0.0560505
2804.3,770.147,0.05471016
2810.29,771.147,0.0560515
2816.29,772.147,0.0573918
2822.289,773.147,0.0587306
2828.28,774.147,0.0587291
2834.28,775.147,0.0592506
2840.274,776.147,0.0594003
2846.27,777.147,0.0594003
2852.27,778.147,0.0599666
2858.26,779.147,0.0594003
2864.26,780.147,0.0594003
2870.25,781.147,0.0594003
2876.247,782.147,0.058521
2882.238,783.147,0.0603848
2888.23,784.147,0.0593998
2894.226,785.147,0.0590604
2900.229,786.147,0.0583134
2906.235,787.147,0.0585011
2912.24,788.147,0.0594003
2918.25,789.147,0.0583888
2924.26,790.147,0.0584362
2930.26,791.147,0.0597181
2936.26,792.147,0.0597301
2942.274,793.147,0.0578823
2948.28,794.147,0.0590814
2954.28,795.147,0.0600929
2960.28,796.147,0.0604107
2966.271,797.147,0.0589806
2972.271,798.147,0.0600704
2978.26,799.147,0.06006942
2984.25,800.147,0.0594886
2990.24,801.147,0.0580604
2996.23,802.147,0.0590555
3002.21,803.147,0.0578015
3008.19,804.147,0.05772412
3014.17,805.147,0.0590704
3020.15,806.147,0.0603633
3026.142,807.147,0.0604102
3032.133,808.147,0.0604057
3038.13,809.147,0.0603
3044.13,810.147,0.0584302
3050.118,811.147,0.0564367
3056.12,812.147,0.056051
3062.11,813.147,0.0567291
3068.11,814.147,0.0574043
3074.106,815.147,0.0587301
3080.11,816.147,0.0587306
3086.11,817.147,0.0587306
3092.12,818.147,0.06006942
3098.13,819.147,0.0594003
3104.15,820.147,0.0594003
3110.16,821.147,0.0580575
3116.17,822.147,0.0580604
3122.18,823.147,0.058046
3128.19,824.147,0.0560515
3134.199,825.147,0.0560644
3140.21,826.147,0.0573868
3146.23,827.147,0.0587306
3152.26,828.147,0.056048
3158.28,829.147,0.0574112
3164.29,830.147,0.0568693
3170.3,831.147,0.0560689
3176.32,832.147,0.0573314
3182.337,833.147,0.0587306
3188.34,834.147,0.0587231
3194.35,835.147,0.0610714
3200.36,836.147,0.0584152
3206.37,837.147,0.0594003
3212.37,838.147,0.0580614
3218.37,839.147,0.0587301
3224.376,840.147,0.0573903
3230.38,841.147,0.0573903
3236.39,842.147,0.0557196
3242.4,843.147,0.0575031
3248.41,844.147,0.0575006
3254.42,845.147,0.0585001
3260.43,846.147,0.0585006
3266.44,847.147,0.0585006
3272.44,848.147,0.0588449
3278.45,849.147,0.0601802
3284.45,850.147,0.06118219
3290.45,851.147,0.06219017
3296.451,852.147,0.0597411
3302.45,853.147,0.05951054
3308.44,854.147,0.05951054
3314.44,855.147,0.05951054
3320.44,856.147,0.0608573
3326.43,857.147,0.05851
3332.43,858.147,0.0598404
3338.44,859.147,0.05951
3344.44,860.147,0.0608504
3350.46,861.147,0.0608504
3356.47,862.147,0.0608504
3362.481,863.147,0.06219017
3368.496,864.147,0.0608583
3374.51,865.147,0.06218518
3380.52,866.147,0.0608504
3386.5,867.147,0.0608504
3392.46,868.147,0.0595235
3398.45,869.147,0.0601797
3404.45,870.147,0.0601802
3410.46,871.147,0.06013429
3416.47,872.147,0.0591802
3422.475,873.147,0.0598928
3428.49,874.147,0.0598504
3434.51,875.147,0.0598853
3440.52,876.147,0.0601812
3446.54,877.147,0.0601802
3452.56,878.147,0.05883689
3458.574,879.147,0.0588404
3464.59,880.147,0.0574936
3470.61,881.147,0.0574961
3476.62,882.147,0.0594851
3482.64,883.147,0.0596388
3488.652,884.147,0.0598409
3494.66,885.147,0.0598089
3500.67,886.147,0.0601802
3506.68,887.147,0.0601802
3512.69,888.147,0.0601802
3518.7,889.147,0.0601802
3524.7,890.147,0.0601802
3530.71,891.147,0.0601802
3536.7,892.147,0.0601797
3542.7,893.147,0.0575021
3548.7,894.147,0.0591752
3554.691,895.147,0.05951054
3560.685,896.147,0.059512
3566.67,897.147,0.0608504
3572.67,898.147,0.0608504
3578.66,899.147,0.0608623
3584.65,900.147,0.0621962
3590.631,901.147,0.0609157
3596.61,902.147,0.0618504
3602.56,903.147,0.0618504
3608.51,904.147,0.061775
3614.5,905.147,0.0605405
3620.5,906.147,0.0578299
3626.51,907.147,0.0605505
3632.52,908.147,0.0618504
3638.54,909.147,0.05917122
3644.55,910.147,0.0616927
3650.55,911.147,0.0618504
3656.559,912.147,0.0618364
3662.57,913.147,0.0605105
3668.58,914.147,0.0605105
3674.59,915.147,0.06191572
3680.59,916.147,0.0606587
3686.58,917.147,0.0618504
3692.57,918.147,0.0618533
3698.57,919.147,0.060504
3704.57,920.147,0.0591747
3710.56,921.147,0.0577775
3716.56,922.147,0.0605105
3722.565,923.147,0.0590774
3728.571,924.147,0.0591702
3734.565,925.147,0.0591717
3740.56,926.147,0.0618568
3746.55,927.147,0.0611787
3752.55,928.147,0.0611802
3758.55,929.147,0.0611802
3764.55,930.147,0.0623718
3770.56,931.147,0.0618504
3776.57,932.147,0.0618504
3782.57,933.147,0.0618494
3788.58,934.147,0.0608509
3794.574,935.147,0.0595065
3800.58,936.147,0.0609397
3806.59,937.147,0.0612396
3812.6,938.147,0.0621907
3818.61,939.147,0.0618224
3824.62,940.147,0.0622271
3830.63,941.147,0.0621622
3836.637,942.147,0.0626253
3842.64,943.147,0.0638743
3848.63,944.147,0.0638703
3854.63,945.147,0.0625235
3860.61,946.147,0.062529
3866.6,947.147,0.0611902
3872.59,948.147,0.0625375
3878.59,949.147,0.0625305
3884.6,950.147,0.0625305
3890.6,951.147,0.0627221
3896.598,952.147,0.0628603
3902.595,953.147,0.0628603
3908.59,954.147,0.06152
3914.58,955.147,0.0621892
3920.571,956.147,0.0621662
3926.57,957.147,0.06224007
3932.57,958.147,0.0617021
3938.577,959.147,0.0618678
3944.58,960.147,0.0631822
3950.586,961.147,0.06219017
3956.59,962.147,0.0618603
3962.583,963.147,0.0631747
3968.583,964.147,0.0645484
3974.58,965.147,0.0632006
3980.59,966.147,0.0632006
3986.589,967.147,0.062531
3992.59,968.147,0.0624691
3998.58,969.147,0.062532
4004.57,970.147,0.0638628
4010.562,971.147,0.0612061
4016.55,972.147,0.0638573
4022.55,973.147,0.0638703
4028.55,974.147,0.0638693
4034.55,975.147,0.0638703
4040.56,976.147,0.0638708
4046.57,977.147,0.0638703
4052.59,978.147,0.0645215
4058.6,979.147,0.0624312
4064.61,980.147,0.0638703
4070.62,981.147,0.0613015
4076.63,982.147,0.062529
4082.63,983.147,0.0638723
4088.63,984.147,0.0638703
4094.63,985.147,0.0648468
4100.61,986.147,0.0652001
4106.6,987.147,0.0639756
4112.58,988.147,0.06384685
4118.57,989.147,0.0638603
4124.56,990.147,0.0638603
4130.553,991.147,0.0638603
4136.55,992.147,0.0638603
4142.54,993.147,0.0629921
4148.53,994.147,0.0625205
4154.511,995.147,0.0628603
4160.5,996.147,0.0638938
4166.53,997.147,0.065531