File: PMMA/Calibration_Data/NIST/NIST_DSC_N2_10K_3.csv
Time,Temperature,Heat Flow
[s],[K],[mW/mg]
0,303.136,-0.001471111
50.91,304.136,0.0490123
63.2112,305.136,0.08474204
72.0462,306.136,0.11312
79.299,307.136,0.13853
85.629,308.136,0.16149
91.3458,309.136,0.18259
96.6396,310.136,0.20221
101.628,311.136,0.22039
106.3824,312.136,0.2372
110.961,313.136,0.25223
115.4022,314.136,0.26635
119.7414,315.136,0.27859
124.002,316.136,0.2902
128.211,317.136,0.30021
132.3786,318.136,0.30888
136.521,319.136,0.31658
140.6478,320.136,0.32311
144.7752,321.136,0.32853
148.9134,322.136,0.33293
153.0696,323.136,0.3362
157.2534,324.136,0.33848
161.475,325.136,0.3397
165.7446,326.136,0.34021
170.0628,327.136,0.33975
174.4404,328.136,0.33839
178.8786,329.136,0.33667
183.3894,330.136,0.33441
187.9692,331.136,0.33131
192.6258,332.136,0.32763
197.3616,333.136,0.32455
202.1772,334.136,0.32064
207.0708,335.136,0.31683
212.0508,336.136,0.31301
217.1088,337.136,0.30934
222.2442,338.136,0.30572
227.4492,339.136,0.30197
232.7148,340.136,0.29854
238.0392,341.136,0.2948
243.4164,342.136,0.29098
248.8416,343.136,0.28669
254.3082,344.136,0.28227
259.8054,345.136,0.27799
265.3302,346.136,0.27366
270.8748,347.136,0.2695
276.435,348.136,0.26604
282.0102,349.136,0.26343
287.6004,350.136,0.26115
293.1984,351.136,0.25965
298.7958,352.136,0.25858
304.398,353.136,0.25752
310.0056,354.136,0.25697
315.6204,355.136,0.25681
321.2406,356.136,0.25643
326.8656,357.136,0.2564
332.4978,358.136,0.25635
338.1396,359.136,0.25613
343.7898,360.136,0.2563
349.4544,361.136,0.25633
355.1364,362.136,0.25638
360.8358,363.136,0.25654
366.5574,364.136,0.25625
372.2934,365.136,0.25638
378.054,366.136,0.25599
383.835,367.136,0.25539
389.637,368.136,0.25531
395.4672,369.136,0.25463
401.3208,370.136,0.25404
407.1954,371.136,0.25408
413.0958,372.136,0.25376
419.0214,373.136,0.25342
424.9626,374.136,0.2533
430.9236,375.136,0.2534
436.9032,376.136,0.25314
442.8984,377.136,0.25315
448.9104,378.136,0.25324
454.9332,379.136,0.25369
460.9638,380.136,0.2544
467.0076,381.136,0.255
473.0562,382.136,0.25599
479.106,383.136,0.25687
485.16,384.136,0.25811
491.217,385.136,0.25954
497.277,386.136,0.26114
503.3262,387.136,0.26319
509.3694,388.136,0.2652
515.412,389.136,0.2678
521.4498,390.136,0.27068
527.4846,391.136,0.27367
533.508,392.136,0.27705
539.5236,393.136,0.28074
545.5362,394.136,0.28479
551.5374,395.136,0.28893
557.5308,396.136,0.29304
563.5182,397.136,0.29683
569.5092,398.136,0.30027
575.5002,399.136,0.30359
581.4852,400.136,0.30643
587.4612,401.136,0.30868
593.43,402.136,0.31072
599.403,403.136,0.31281
605.373,404.136,0.31449
611.3394,405.136,0.31586
617.3028,406.136,0.31691
623.2644,407.136,0.31799
629.2248,408.136,0.31895
635.1858,409.136,0.31966
641.1474,410.136,0.32051
647.1102,411.136,0.32114
653.0748,412.136,0.3216
659.0346,413.136,0.32221
664.9932,414.136,0.32317
670.9578,415.136,0.32379
676.9254,416.136,0.32424
682.8906,417.136,0.32471
688.86,418.136,0.32548
694.8342,419.136,0.32624
700.8126,420.136,0.32707
706.7862,421.136,0.32792
712.7556,422.136,0.32896
718.7304,423.136,0.32967
724.71,424.136,0.33079
730.695,425.136,0.33169
736.6764,426.136,0.33301
742.6608,427.136,0.33382
748.6488,428.136,0.33526
754.635,429.136,0.33648
760.6218,430.136,0.338
766.6164,431.136,0.33926
772.6104,432.136,0.3409
778.605,433.136,0.34259
784.6026,434.136,0.34429
790.6008,435.136,0.34625
796.6014,436.136,0.34857
802.6068,437.136,0.35094
808.611,438.136,0.35352
814.6092,439.136,0.35634
820.6128,440.136,0.35948
826.6254,441.136,0.36256
832.6338,442.136,0.36556
838.6368,443.136,0.36894
844.6422,444.136,0.37246
850.6488,445.136,0.37588
856.6566,446.136,0.37919
862.6716,447.136,0.38245
868.6902,448.136,0.38564
874.7112,449.136,0.38876
880.7298,450.136,0.39188
886.7484,451.136,0.39493
892.776,452.136,0.39765
898.7976,453.136,0.40027
904.8102,454.136,0.40272
910.8264,455.136,0.40457
916.848,456.136,0.40664
922.8654,457.136,0.40824
928.884,458.136,0.40916
934.9062,459.136,0.40996
940.932,460.136,0.41018
946.9524,461.136,0.41015
952.9686,462.136,0.40963
958.9836,463.136,0.40905
964.9956,464.136,0.40812
971.0064,465.136,0.40656
977.0148,466.136,0.40465
983.0226,467.136,0.40282
989.0328,468.136,0.40119
995.04,469.136,0.3992
1001.04,470.136,0.39731
1007.05,471.136,0.39556
1013.05,472.136,0.39446
1019.06,473.136,0.39356
1025.07,474.136,0.39284
1031.07,475.136,0.39255
1037.08,476.136,0.39291
1043.09,477.136,0.39331
1049.1,478.136,0.39368
1055.11,479.136,0.39453
1061.13,480.136,0.3952
1067.14,481.136,0.3961
1073.157,482.136,0.39641
1079.172,483.136,0.39683
1085.18,484.136,0.39715
1091.2,485.136,0.39632
1097.22,486.136,0.39516
1103.25,487.136,0.39334
1109.27,488.136,0.3911
1115.29,489.136,0.38846
1121.32,490.136,0.38561
1127.34,491.136,0.38251
1133.37,492.136,0.37946
1139.4,493.136,0.37641
1145.43,494.136,0.3735
1151.46,495.136,0.37153
1157.48,496.136,0.36903
1163.49,497.136,0.36774
1169.51,498.136,0.3664
1175.53,499.136,0.36547
1181.56,500.136,0.36464
1187.58,501.136,0.36387
1193.61,502.136,0.36339
1199.65,503.136,0.3631
1205.68,504.136,0.36274
1211.71,505.136,0.36265
1217.74,506.136,0.36276
1223.77,507.136,0.36289
1229.79,508.136,0.3631
1235.811,509.136,0.3635
1241.83,510.136,0.36388
1247.86,511.136,0.36442
1253.88,512.136,0.36472
1259.9,513.136,0.3653
1265.92,514.136,0.36588
1271.946,515.136,0.3665
1277.979,516.136,0.3669
1284.006,517.136,0.36746
1290.04,518.136,0.36836
1296.063,519.136,0.36928
1302.09,520.136,0.37015
1308.11,521.136,0.37125
1314.135,522.136,0.37191
1320.17,523.136,0.37294
1326.19,524.136,0.37407
1332.21,525.136,0.3751
1338.23,526.136,0.37635
1344.25,527.136,0.37756
1350.27,528.136,0.37886
1356.29,529.136,0.38009
1362.32,530.136,0.38137
1368.333,531.136,0.38292
1374.34,532.136,0.38456
1380.36,533.136,0.38621
1386.37,534.136,0.38804
1392.378,535.136,0.38982
1398.387,536.136,0.39191
1404.39,537.136,0.39383
1410.4,538.136,0.39556
1416.42,539.136,0.39735
1422.43,540.136,0.3994
1428.45,541.136,0.40156
1434.47,542.136,0.40438
1440.48,543.136,0.40752
1446.49,544.136,0.41094
1452.51,545.136,0.4144
1458.516,546.136,0.41791
1464.53,547.136,0.42152
1470.54,548.136,0.42515
1476.55,549.136,0.42853
1482.56,550.136,0.43225
1488.56,551.136,0.43605
1494.57,552.136,0.43966
1500.58,553.136,0.4436
1506.58,554.136,0.44714
1512.6,555.136,0.45063
1518.615,556.136,0.45447
1524.63,557.136,0.45782
1530.65,558.136,0.46148
1536.68,559.136,0.4652
1542.7,560.136,0.46893
1548.72,561.136,0.47263
1554.738,562.136,0.47606
1560.76,563.136,0.48002
1566.77,564.136,0.48383
1572.79,565.136,0.48712
1578.8,566.136,0.49036
1584.81,567.136,0.4939
1590.82,568.136,0.49706
1596.83,569.136,0.50012
1602.85,570.136,0.50303
1608.86,571.136,0.50558
1614.88,572.136,0.50837
1620.897,573.136,0.51125
1626.909,574.136,0.51395
1632.924,575.136,0.51737
1638.94,576.136,0.52016
1644.95,577.136,0.52358
1650.96,578.136,0.52693
1656.96,579.136,0.53041
1662.97,580.136,0.53435
1668.98,581.136,0.53889
1674.98,582.136,0.54388
1680.99,583.136,0.54907
1687,584.136,0.55519
1693.01,585.136,0.56183
1699.02,586.136,0.56866
1705.03,587.136,0.57705
1711.04,588.136,0.58616
1717.053,589.136,0.59656
1723.059,590.136,0.60765
1729.068,591.136,0.61987
1735.08,592.136,0.63366
1741.08,593.136,0.64802
1747.09,594.136,0.66389
1753.1,595.136,0.681
1759.107,596.136,0.69888
1765.119,597.136,0.71811
1771.13,598.136,0.73907
1777.15,599.136,0.76168
1783.17,600.136,0.78503
1789.182,601.136,0.81068
1795.21,602.136,0.83777
1801.242,603.136,0.86676
1807.28,604.136,0.89737
1813.31,605.136,0.93075
1819.34,606.136,0.96616
1825.38,607.136,1.00361
1831.416,608.136,1.04357
1837.452,609.136,1.08625
1843.491,610.136,1.13079
1849.53,611.136,1.17774
1855.58,612.136,1.22799
1861.62,613.136,1.28076
1867.67,614.136,1.33573
1873.72,615.136,1.39335
1879.76,616.136,1.453
1885.81,617.136,1.51552
1891.84,618.136,1.57992
1897.88,619.136,1.64644
1903.93,620.136,1.71441
1909.98,621.136,1.78448
1916.02,622.136,1.85579
1922.06,623.136,1.92789
1928.09,624.136,2.00028
1934.13,625.136,2.07346
1940.16,626.136,2.14551
1946.19,627.136,2.21784
1952.22,628.136,2.28801
1958.24,629.136,2.35632
1964.26,630.136,2.42174
1970.27,631.136,2.48403
1976.28,632.136,2.54175
1982.28,633.136,2.59395
1988.27,634.136,2.63469
1994.25,635.136,2.6745
2000.24,636.136,2.70489
2006.21,637.136,2.72363
2012.184,638.136,2.72868
2018.14,639.136,2.7164
2024.1,640.136,2.71019
2030.05,641.136,2.718
2035.99,642.136,2.65683
2041.92,643.136,2.72673
2047.86,644.136,2.68629
2053.79,645.136,2.61269
2059.73,646.136,2.65718
2065.67,647.136,2.63442
2071.62,648.136,2.65376
2077.57,649.136,2.61708
2083.515,650.136,2.57961
2089.461,651.136,2.49023
2095.398,652.136,2.44125
2101.33,653.136,2.39466
2107.26,654.136,2.34013
2113.2,655.136,2.26888
2119.14,656.136,2.18379
2125.08,657.136,2.10894
2131.02,658.136,2.01472
2136.97,659.136,1.91422
2142.915,660.136,1.82401
2148.86,661.136,1.73827
2154.79,662.136,1.63981
2160.73,663.136,1.54455
2166.68,664.136,1.44603
2172.63,665.136,1.34807
2178.59,666.136,1.24947
2184.55,667.136,1.15804
2190.519,668.136,1.07385
2196.49,669.136,0.98496
2202.47,670.136,0.9081
2208.47,671.136,0.83326
2214.47,672.136,0.75998
2220.49,673.136,0.6905
2226.51,674.136,0.6256
2232.53,675.136,0.56562
2238.56,676.136,0.50758
2244.6,677.136,0.45438
2250.64,678.136,0.40504
2256.69,679.136,0.35934
2262.75,680.136,0.31725
2268.81,681.136,0.27945
2274.88,682.136,0.2452
2280.95,683.136,0.21416
2287.03,684.136,0.18615
2293.11,685.136,0.16087
2299.18,686.136,0.13761
2305.25,687.136,0.11743
2311.32,688.136,0.09845927
2317.4,689.136,0.08137002
2323.479,690.136,0.06606271
2329.56,691.136,0.05229856
2335.63,692.136,0.03952442
2341.7,693.136,0.02823055
2347.76,694.136,0.01819835
2353.815,695.136,0.009262409
2359.863,696.136,0.000819896
2365.9,697.136,-0.006953228
2371.93,698.136,-0.01417884
2377.95,699.136,-0.02087996
2383.97,700.136,-0.02736864
2389.98,701.136,-0.03318212
2396,702.136,-0.03865025
2401.99,703.136,-0.04307101
2407.98,704.136,-0.04755343
2413.98,705.136,-0.05103413
2419.97,706.136,-0.05447656
2425.96,707.136,-0.05635627
2431.96,708.136,-0.05785124
2437.95,709.136,-0.05978839
2443.92,710.136,-0.06141551
2449.87,711.136,-0.04685213
2455.8,712.136,-0.03152763
2461.77,713.136,-0.03254957
2467.79,714.136,-0.046675
2473.82,715.136,-0.06860976
2479.86,716.136,-0.08098517
2485.884,717.136,-0.08567742
2491.91,718.136,-0.0869588
2497.92,719.136,-0.08583506
2503.94,720.136,-0.08399118
2509.96,721.136,-0.08209716
2515.974,722.136,-0.08155772
2521.99,723.136,-0.08159257
2528.01,724.136,-0.08104135
2534.04,725.136,-0.0800516
2540.06,726.136,-0.07964419
2546.07,727.136,-0.07931323
2552.097,728.136,-0.07897913
2558.12,729.136,-0.07843456
2564.13,730.136,-0.07834662
2570.15,731.136,-0.07833548
2576.166,732.136,-0.07811353
2582.17,733.136,-0.07774266
2588.18,734.136,-0.0779708
2594.18,735.136,-0.07815949
2600.19,736.136,-0.07787452
2606.19,737.136,-0.0780342
2612.196,738.136,-0.0779766
2618.2,739.136,-0.077777
2624.193,740.136,-0.07798626
2630.187,741.136,-0.07842405
2636.19,742.136,-0.07882737
2642.18,743.136,-0.07921982
2648.17,744.136,-0.07987428
2654.17,745.136,-0.08030739
2660.17,746.136,-0.0807771
2666.166,747.136,-0.0811219
2672.17,748.136,-0.08137982
2678.18,749.136,-0.08176846
2684.18,750.136,-0.08203832
2690.18,751.136,-0.08246107
2696.17,752.136,-0.08319019
2702.17,753.136,-0.08325365
2708.17,754.136,-0.08365871
2714.17,755.136,-0.08381547
2720.16,756.136,-0.0841594
2726.16,757.136,-0.08448572
2732.157,758.136,-0.08485497
2738.154,759.136,-0.08495854
2744.151,760.136,-0.08506769
2750.15,761.136,-0.08561085
2756.14,762.136,-0.08586192
2762.133,763.136,-0.08592363
2768.12,764.136,-0.08648638
2774.106,765.136,-0.08672092
2780.097,766.136,-0.08724794
2786.09,767.136,-0.08718053
2792.08,768.136,-0.08704633
2798.08,769.136,-0.08747065
2804.08,770.136,-0.08740047
2810.08,771.136,-0.0878043
2816.08,772.136,-0.08810668
2822.088,773.136,-0.08819871
2828.09,774.136,-0.08869318
2834.1,775.136,-0.08896173
2840.11,776.136,-0.08921528
2846.11,777.136,-0.08950873
2852.12,778.136,-0.09008082
2858.13,779.136,-0.09006908
2864.14,780.136,-0.09044902
2870.16,781.136,-0.0910389
2876.17,782.136,-0.09119314
2882.18,783.136,-0.09162952
2888.2,784.136,-0.09195896
2894.21,785.136,-0.09260497
2900.22,786.136,-0.09283022
2906.23,787.136,-0.09316923
2912.226,788.136,-0.0935557
2918.22,789.136,-0.09416075
2924.21,790.136,-0.09431728
2930.21,791.136,-0.0943077
2936.205,792.136,-0.09505493
2942.19,793.136,-0.09567467
2948.18,794.136,-0.09577749
2954.17,795.136,-0.09653702
2960.15,796.136,-0.09707038
2966.136,797.136,-0.09712137
2972.12,798.136,-0.09792643
2978.1,799.136,-0.09820846
2984.085,800.136,-0.09844983
2990.07,801.136,-0.09869208
2996.06,802.136,-0.09911443
3002.06,803.136,-0.09893032
3008.06,804.136,-0.09965993
3014.06,805.136,-0.0996365
3020.07,806.136,-0.10025
3026.07,807.136,-0.10003
3032.082,808.136,-0.10017
3038.1,809.136,-0.10025
3044.115,810.136,-0.10055
3050.14,811.136,-0.10064
3056.157,812.136,-0.10091
3062.17,813.136,-0.10135
3068.18,814.136,-0.10181
3074.19,815.136,-0.10229
3080.2,816.136,-0.1027
3086.21,817.136,-0.10335
3092.21,818.136,-0.10369
3098.22,819.136,-0.10409
3104.223,820.136,-0.10475
3110.226,821.136,-0.10523
3116.23,822.136,-0.10568
3122.23,823.136,-0.10633
3128.23,824.136,-0.10666
3134.23,825.136,-0.10702
3140.23,826.136,-0.10755
3146.232,827.136,-0.10741
3152.24,828.136,-0.10761
3158.238,829.136,-0.10818
3164.23,830.136,-0.10847
3170.22,831.136,-0.10849
3176.2,832.136,-0.10925
3182.2,833.136,-0.10952
3188.19,834.136,-0.10986
3194.19,835.136,-0.10988
3200.193,836.136,-0.11022
3206.2,837.136,-0.11048
3212.2,838.136,-0.11077
3218.21,839.136,-0.11111
3224.217,840.136,-0.11114
3230.23,841.136,-0.11162
3236.25,842.136,-0.1117
3242.28,843.136,-0.11181
3248.31,844.136,-0.11213
3254.33,845.136,-0.1122
3260.34,846.136,-0.11234
3266.35,847.136,-0.11289
3272.36,848.136,-0.11323
3278.38,849.136,-0.11359
3284.39,850.136,-0.11357
3290.4,851.136,-0.1137
3296.41,852.136,-0.11362
3302.41,853.136,-0.11412
3308.41,854.136,-0.11431
3314.42,855.136,-0.1144
3320.42,856.136,-0.11479
3326.42,857.136,-0.11482
3332.42,858.136,-0.1155
3338.42,859.136,-0.11623
3344.41,860.136,-0.11601
3350.4,861.136,-0.11611
3356.4,862.136,-0.11685
3362.39,863.136,-0.11712
3368.376,864.136,-0.11752
3374.367,865.136,-0.11793
3380.36,866.136,-0.11796
3386.37,867.136,-0.11867
3392.38,868.136,-0.11861
3398.39,869.136,-0.11857
3404.4,870.136,-0.11939
3410.41,871.136,-0.11926
3416.43,872.136,-0.11977
3422.45,873.136,-0.11996
3428.48,874.136,-0.12036
3434.49,875.136,-0.12031
3440.51,876.136,-0.12038
3446.52,877.136,-0.12086
3452.54,878.136,-0.12142
3458.55,879.136,-0.12185
3464.56,880.136,-0.12221
3470.58,881.136,-0.12219
3476.59,882.136,-0.12294
3482.6,883.136,-0.12398
3488.62,884.136,-0.1242
3494.637,885.136,-0.13186
3500.65,886.136,-0.13616
3506.62,887.136,-0.13715
3512.56,888.136,-0.12872
3518.5,889.136,-0.12685
3524.475,890.136,-0.12598
3530.46,891.136,-0.12603
3536.45,892.136,-0.12659
3542.45,893.136,-0.12713
3548.45,894.136,-0.12699
3554.45,895.136,-0.1272
3560.45,896.136,-0.12776
3566.45,897.136,-0.12786
3572.45,898.136,-0.12816
3578.45,899.136,-0.12813
3584.45,900.136,-0.12856
3590.45,901.136,-0.1288
3596.457,902.136,-0.12866
3602.47,903.136,-0.12909
3608.48,904.136,-0.12937
3614.49,905.136,-0.12973
3620.499,906.136,-0.1297
3626.5,907.136,-0.12981
3632.51,908.136,-0.13003
3638.51,909.136,-0.13035
3644.493,910.136,-0.1303
3650.47,911.136,-0.13152
3656.45,912.136,-0.13146
3662.44,913.136,-0.13195
3668.44,914.136,-0.13244
3674.44,915.136,-0.13295
3680.45,916.136,-0.13313
3686.46,917.136,-0.13379
3692.466,918.136,-0.13416
3698.48,919.136,-0.13438
3704.49,920.136,-0.13489
3710.5,921.136,-0.13461
3716.5,922.136,-0.13531
3722.511,923.136,-0.13567
3728.52,924.136,-0.13664
3734.53,925.136,-0.13659
3740.53,926.136,-0.13734
3746.54,927.136,-0.13782
3752.54,928.136,-0.13737
3758.55,929.136,-0.13776
3764.55,930.136,-0.13843
3770.55,931.136,-0.13838
3776.55,932.136,-0.13889
3782.55,933.136,-0.13909
3788.55,934.136,-0.13947
3794.56,935.136,-0.13919
3800.55,936.136,-0.13914
3806.55,937.136,-0.1402
3812.56,938.136,-0.14013
3818.57,939.136,-0.14019
3824.57,940.136,-0.14048
3830.58,941.136,-0.14077
3836.6,942.136,-0.14157
3842.61,943.136,-0.14168
3848.619,944.136,-0.14229
3854.63,945.136,-0.14268
3860.637,946.136,-0.14292
3866.646,947.136,-0.14341
3872.65,948.136,-0.14426
3878.652,949.136,-0.14431
3884.65,950.136,-0.14439
3890.64,951.136,-0.14504
3896.63,952.136,-0.14574
3902.63,953.136,-0.14645
3908.63,954.136,-0.14653
3914.62,955.136,-0.14641
3920.613,956.136,-0.14727
3926.6,957.136,-0.14781
3932.59,958.136,-0.14818
3938.58,959.136,-0.14893
3944.56,960.136,-0.14818
3950.544,961.136,-0.1483
3956.53,962.136,-0.14893
3962.53,963.136,-0.14925
3968.53,964.136,-0.14927
3974.55,965.136,-0.14931
3980.56,966.136,-0.14933
3986.56,967.136,-0.14982
3992.57,968.136,-0.15041
3998.57,969.136,-0.15009
4004.58,970.136,-0.15099
4010.592,971.136,-0.15105
4016.59,972.136,-0.15166
4022.59,973.136,-0.15206
4028.586,974.136,-0.15269
4034.58,975.136,-0.15215
4040.577,976.136,-0.15238
4046.57,977.136,-0.15307
4052.57,978.136,-0.15372
4058.56,979.136,-0.15407
4064.55,980.136,-0.1546
4070.535,981.136,-0.15523
4076.53,982.136,-0.155
4082.52,983.136,-0.15506
4088.514,984.136,-0.15494
4094.517,985.136,-0.15514
4100.52,986.136,-0.15505
4106.52,987.136,-0.15486
4112.52,988.136,-0.15499
4118.523,989.136,-0.15438
4124.52,990.136,-0.15475
4130.53,991.136,-0.15479
4136.53,992.136,-0.15489
4142.53,993.136,-0.15594
4148.53,994.136,-0.15564
4154.523,995.136,-0.15538
4160.52,996.136,-0.15622
4166.52,997.136,-0.15627
4172.52,998.136,-0.15654
4178.52,999.136,-0.15643
4184.53,1000.136,-0.15715
4190.54,1001.136,-0.15639
4196.55,1002.136,-0.1571
4202.56,1003.136,-0.15671
4208.55,1004.136,-0.15656
4214.559,1005.136,-0.15602
4220.57,1006.136,-0.15632
4226.57,1007.136,-0.15615
4232.57,1008.136,-0.15681
4238.57,1009.136,-0.15684
4244.577,1010.136,-0.15851
4250.58,1011.136,-0.15859
4256.58,1012.136,-0.15825
4262.57,1013.136,-0.15841
4268.58,1014.136,-0.15844
4274.58,1015.136,-0.15836
4280.58,1016.136,-0.15926
4286.58,1017.136,-0.15956
4292.57,1018.136,-0.15996
4298.57,1019.136,-0.16024
4304.56,1020.136,-0.16143
4310.56,1021.136,-0.16203
4316.56,1022.136,-0.16225
4322.56,1023.136,-0.16299
4328.56,1024.136,-0.16258
4334.56,1025.136,-0.16336
4340.56,1026.136,-0.16368
4346.56,1027.136,-0.16432
4352.55,1028.136,-0.16439
4358.54,1029.136,-0.16544
4364.52,1030.136,-0.16555
4370.51,1031.136,-0.1669
4376.5,1032.136,-0.16668
4382.48,1033.136,-0.16658
4388.46,1034.136,-0.1671
4394.45,1035.136,-0.16821
4400.427,1036.136,-0.1688
4406.412,1037.136,-0.16935
4412.4,1038.136,-0.17089
4418.4,1039.136,-0.17064
4424.41,1040.136,-0.17234
4430.4,1041.136,-0.17228
4436.39,1042.136,-0.17212
4442.39,1043.136,-0.17196
4448.37,1044.136,-0.17238
4454.37,1045.136,-0.17342
4460.37,1046.136,-0.17419
4466.36,1047.136,-0.17481
4472.35,1048.136,-0.17543
4478.34,1049.136,-0.17628
4484.33,1050.136,-0.17717
4490.33,1051.136,-0.17798
4496.34,1052.136,-0.1791
4502.34,1053.136,-0.18027
4508.352,1054.136,-0.1814
4514.37,1055.136,-0.18288
4520.38,1056.136,-0.18333
4526.37,1057.136,-0.18439
4532.37,1058.136,-0.18577
4538.379,1059.136,-0.18659
4544.385,1060.136,-0.18655
4550.39,1061.136,-0.18736
4556.391,1062.136,-0.18672
4562.39,1063.136,-0.18768
4568.37,1064.136,-0.18871
4574.358,1065.136,-0.18928
4580.35,1066.136,-0.1898
4586.34,1067.136,-0.19121
4592.33,1068.136,-0.19324
4598.313,1069.136,-0.19448
4604.29,1070.136,-0.1952
4610.28,1071.136,-0.19568
4616.32,1072.136,-0.19629