File: PMMA/Validation_Results/NIST-FSRI/NIST-FSRI_Gasification_q50_MLR_R4.csv
Time,MLR
[s],[g/m2/s]
0,0
0.5,1.11E-16
1,7.19E-15
1.5,1.65E-13
2,1.86E-12
2.51,1.38E-11
3.01,7.36E-11
3.51,3.10E-10
4.01,1.10E-09
4.51,3.40E-09
5.01,9.41E-09
5.51,2.37E-08
6.01,5.54E-08
6.51,1.21E-07
7.01,2.50E-07
7.51,4.91E-07
8.01,9.21E-07
8.51,1.66E-06
9.01,2.90E-06
9.51,4.91E-06
10.01,8.06E-06
10.51,1.29E-05
11.01,2.02E-05
11.51,3.09E-05
12.01,4.64E-05
12.51,6.84E-05
13.01,9.91E-05
13.51,0.000141379
14.01,0.000198833
14.51,0.000275885
15.01,0.000377999
15.51,0.000511833
16.01,0.000685424
16.51,0.000908394
17.01,0.001192173
17.51,0.001550233
18,0.001993295
18.5,0.002542549
19,0.003225816
19.5,0.00406248
20,0.005080259
20.5,0.006310639
21,0.007789192
21.5,0.009555908
22,0.0116555
22.5,0.0141379
23,0.0170581
23.5,0.0204772
24,0.024462
24.5,0.0290857
25,0.034428
25.5,0.0405754
26,0.04762098
26.5,0.0556652
27,0.0648153
27.5,0.0751857
28,0.0868976
28.5,0.100079
29,0.114864
29.5,0.131394
30,0.149815
30.5,0.170276
31,0.192934
31.5,0.217946
32,0.245472
32.5,0.275673
33,0.30871
33.5,0.34474
34,0.383918
34.5,0.426395
35,0.472309
35.5,0.521797
36,0.574978
36.5,0.631959
37,0.692838
37.5,0.757688
38,0.826571
38.5,0.899524
39,0.976565
39.5,1.05769
40,1.14287
40.5,1.23206
41,1.32519
41.5,1.42215
42,1.52283
42.5,1.62709
43,1.73477
43.51,1.8468
44.01,1.96198
44.51,2.07885
45.01,2.19834
45.51,2.32021
46.01,2.444238
46.51,2.57018
47.01,2.69779
47.51,2.82684
48.01,2.95706
48.51,3.08823
49.01,3.22012
49.51,3.35254
50.01,3.48521
50.51,3.61796
51.01,3.75068
51.51,3.883
52.01,4.01493
52.51,4.146276
53.01,4.27678
53.51,4.406552
54.01,4.53513
54.51,4.66284
55.01,4.789101
55.51,4.91432
56.01,5.038041
56.51,5.16028
57.01,5.28134
57.51,5.4004
58.01,5.51846
58.51,5.63464
59.01,5.74898
59.51,5.86235
60.01,5.97361
60.51,6.083
61.01,6.19156
61.51,6.298
62.01,6.40237
62.51,6.50592
63.01,6.60782
63.51,6.70759
64.01,6.80555
64.51,6.903019
65.01,6.99866
65.51,7.09225
66.01,7.18401
66.51,7.27537
67.01,7.365415
67.51,7.45336
68.01,7.539607
68.51,7.62433
69.01,7.70905
69.51,7.79227
70.01,7.87365
70.51,7.95338
71.01,8.0316
71.51,8.10909
72.01,8.18682
72.5,8.26185
73,8.33519
73.5,8.40795
74,8.47948
74.5,8.54981
75,8.62075
75.5,8.69066
76,8.75894
76.5,8.825825
77,8.89147
77.5,8.95597
78,9.01952
78.5,9.08292
79,9.147098
79.5,9.209456
80,9.27036
80.5,9.33018
81,9.38915
81.5,9.447161
82,9.50426
82.5,9.5605
83,9.61712
83.5,9.67456
84,9.73033
84.5,9.78482
85,9.83828
85.5,9.89083
86,9.94258
86.5,9.99372
87,10.0443
87.5,10.0943
88,10.1438
88.5,10.1952
89,10.2453
89.5,10.294
90,10.342
90.5,10.3892
91,10.4358
91.5,10.4816
92,10.5269
92.5,10.5716
93,10.6157
93.5,10.6594
94,10.7029
94.5,10.7478
95,10.7932
95.5,10.8369
96,10.8795
96.5,10.9214
97,10.9626
97.5,11.0035
98,11.044
98.5,11.0841
99,11.1237
99.5,11.1629
100,11.2017
100.5,11.24
101,11.278
101.5,11.3158
102,11.35646
102.5,11.3964
103,11.4349
103.5,11.4726
104,11.5095
104.5,11.5459
105,11.582
105.5,11.6176
106,11.6529
106.5,11.688
107,11.7231
107.5,11.7578
108,11.7921
108.5,11.8262
109,11.86
109.5,11.8934
110,11.9267
110.5,11.9628
111,11.99842
111.5,12.03281
112,12.0667
112.5,12.1
113,12.1328
113.5,12.1652
114,12.19715
114.5,12.2288
115,12.2603
115.5,12.2915
116,12.3225
116.5,12.3533
117,12.38423
117.5,12.4151
118,12.4457
118.5,12.4761
119,12.50621
119.5,12.5361
120,12.5665
120.5,12.5999
121,12.6319
121.5,12.6627
122,12.6929
122.5,12.7228
123,12.7528
123.5,12.7823
124,12.8116
124.5,12.8405
125,12.8692
125.5,12.8977
126,12.926
126.5,12.9542
127,12.98227
127.5,13.01019
128,13.03797
128.5,13.06599
129,13.0941
129.5,13.12199
130,13.14968
130.5,13.1772
131,13.205
131.5,13.2362
132,13.2663
132.5,13.295
133,13.3231
133.5,13.35062
134,13.3779
134.5,13.4052
135,13.4328
135.5,13.4601
136,13.4871
136.5,13.5139
137,13.5405
137.5,13.5669
138,13.5933
138.5,13.6195
139,13.64575
139.5,13.6719
140,13.6979
140.5,13.7238
141,13.75
141.5,13.7764
142,13.8027
142.5,13.82878
143,13.8549
143.5,13.8845
144,13.9137
144.5,13.9413
145,13.9681
145.5,13.9945
146,14.0205
146.5,14.0463
147,14.072
147.5,14.0979
148,14.1242
148.5,14.1502
149,14.1759
149.5,14.2015
150,14.2268
150.5,14.2521
151,14.2773
151.5,14.3026
152,14.3278
152.5,14.3529
153,14.3779
153.5,14.4028
154,14.4278
154.5,14.4534
155,14.479
155.5,14.50438
156,14.5305
156.5,14.5604
157,14.5884
157.5,14.61515
158,14.6412
158.5,14.6668
159,14.6921
159.51,14.7175
160.01,14.7428
160.51,14.76781
161.01,14.7932
161.51,14.8189
162.01,14.8444
162.51,14.8697
163.01,14.8947
163.51,14.9196
164.01,14.9444
164.51,14.9692
165.01,14.9941
165.51,15.0189
166.01,15.0436
166.51,15.0683
167.01,15.093
167.51,15.1176
168.01,15.1426
168.51,15.1681
169.01,15.1934
169.51,15.2206
170.01,15.2505
170.51,15.2781
171.01,15.3046
171.51,15.3304
172.01,15.35583
172.51,15.381
173.01,15.406
173.51,15.4309
174.01,15.4559
174.51,15.4808
175.01,15.5062
175.51,15.532
176.01,15.5575
176.51,15.5828
177.01,15.6078
177.51,15.63276
178.01,15.6576
178.51,15.6825
179.01,15.7075
179.51,15.7324
180.01,15.7573
180.51,15.7821
181.01,15.8069
181.51,15.8317
182.01,15.8567
182.51,15.8825
183.01,15.9086
183.51,15.9392
184.01,15.9681
184.51,15.9953
185.01,16.0217
185.51,16.0476
186.01,16.0732
186.51,16.0986
187.01,16.1238
187.51,16.149
188.01,16.1742
188.51,16.1995
189.01,16.225
189.51,16.2513
190.01,16.2774
190.51,16.3031
191.01,16.3287
191.51,16.3541
192.01,16.3794
192.51,16.40471
193.01,16.4302
193.51,16.4556
194.01,16.481
194.51,16.5063
195.01,16.5316
195.51,16.5569
196.01,16.5822
196.51,16.6082
197.01,16.6362
197.51,16.6678
198.01,16.697
198.51,16.7247
199.01,16.7517
199.51,16.7783
200.01,16.8045
200.51,16.8305
201.01,16.8564
201.51,16.8822
202.01,16.90788
202.51,16.9338
203.01,16.9598
203.51,16.9862
204.01,17.0135
204.51,17.0403
205.01,17.0667
205.51,17.0929
206.01,17.1191
206.51,17.1451
207.01,17.1712
207.51,17.1975
208.01,17.2238
208.51,17.25
209.01,17.2761
209.51,17.30222
210.01,17.3284
210.51,17.3546
211.01,17.3842
211.51,17.4171
212.01,17.4469
212.51,17.4756
213.01,17.5036
213.51,17.5311
214.01,17.5583
214.51,17.5853
215.01,17.6122
215.51,17.6389
216.01,17.6656
216.51,17.6922
217.01,17.719
217.51,17.746
218.01,17.7739
218.51,17.8023
219.01,17.8301
219.51,17.8576
220.01,17.8849
220.51,17.912
221.01,17.93916
221.51,17.9663
222.01,17.9935
222.51,18.021
223.01,18.0484
223.51,18.0757
224.01,18.103
224.51,18.1302
225.01,18.1616
225.51,18.19551
226.01,18.2266
226.51,18.2563
227.01,18.28544
227.51,18.3143
228.01,18.3428
228.51,18.3711
229.01,18.39933
229.51,18.4274
230.01,18.4554
230.51,18.4832
231.01,18.5111
231.51,18.539
232.01,18.5674
232.51,18.5973
233.01,18.62711
233.51,18.6563
234.01,18.68513
234.51,18.71376
235.01,18.7423
235.51,18.7707
236.01,18.7993
236.51,18.8278
237.01,18.85673
237.51,18.8857
238.01,18.9146
238.51,18.9441
239.01,18.9788
239.51,19.0124
240.01,19.0449
240.51,19.0761
241.01,19.1066
241.51,19.1366
242.01,19.1668
242.51,19.1968
243.01,19.2265
243.51,19.2563
244.01,19.28601
244.51,19.3156
245.01,19.3452
245.51,19.3747
246.01,19.4041
246.51,19.4346
247.01,19.4667
247.51,19.49816
248.01,19.5291
248.51,19.5597
249.01,19.59
249.51,19.6203
250.01,19.6505
250.51,19.6807
251.01,19.711
251.51,19.7416
252.01,19.77269
252.51,19.8089
253.01,19.8441
253.51,19.8779
254.01,19.9119
254.51,19.9448
255.01,19.9771
255.51,20.009
256.01,20.0406
256.51,20.07237
257.01,20.1044
257.51,20.1362
258.01,20.1678
258.51,20.1995
259.01,20.2312
259.51,20.26293
260.01,20.2946
260.51,20.327
261.01,20.3607
261.51,20.39405
262.01,20.4273
262.51,20.46043
263.01,20.4933
263.51,20.526
264.01,20.5585
264.51,20.5908
265.01,20.6232
265.51,20.65633
266.01,20.695
266.51,20.7322
267.01,20.76771
267.51,20.8035
268.01,20.8395
268.51,20.8745
269.01,20.9088
269.51,20.94269
270.01,20.9766
270.51,21.0105
271.01,21.0443
271.51,21.0788
272.01,21.1133
272.51,21.1475
273.01,21.1816
273.51,21.2157
274.01,21.25
274.51,21.2862
275.01,21.3224
275.51,21.3578
276.01,21.3931
276.51,21.4288
277.01,21.46418
277.51,21.4995
278.01,21.5349
278.51,21.5703
279.01,21.6106
279.51,21.6505
280.01,21.688
280.51,21.7245
281.01,21.7618
281.51,21.8013
282.01,21.8397
282.51,21.8771
283.01,21.9139
283.51,21.9504
284.01,21.9867
284.51,22.0231
285.01,22.0595
285.51,22.0961
286.01,22.1335
286.51,22.171
287.01,22.2081
287.51,22.2454
288.01,22.2846
288.51,22.3234
289.01,22.3614
289.51,22.3994
290.01,22.4372
290.51,22.475
291.01,22.5136
291.51,22.5524
292.01,22.5963
292.51,22.63818
293.01,22.6783
293.51,22.7176
294.01,22.7566
294.51,22.79728
295.01,22.8379
295.51,22.8781
296.01,22.9181
296.51,22.9575
297.01,22.997
297.51,23.0364
298.01,23.0756
298.51,23.1146
299.01,23.1534
299.51,23.1921
300.01,23.231
300.51,23.2711
301.01,23.3133
301.51,23.3557
302.01,23.3966
302.51,23.4368
303.01,23.4765
303.51,23.5162
304.01,23.556
304.51,23.5997
305.01,23.6459
305.51,23.6893
306.01,23.7311
306.51,23.77211
307.01,23.813
307.51,23.8558
308.01,23.898
308.51,23.9395
309.01,23.9806
309.51,24.0218
310.01,24.0635
310.51,24.1047
311.01,24.1454
311.51,24.1857
312.01,24.2262
312.51,24.2669
313.01,24.3073
313.51,24.3483
314.01,24.3915
314.51,24.4346
315.01,24.47667
315.51,24.5179
316.01,24.559
316.51,24.6
317.01,24.6457
317.51,24.6906
318.01,24.733
318.51,24.7743
319.01,24.816
319.51,24.8578
320.01,24.9018
320.51,24.945
321.01,24.98665
321.51,25.0274
322.01,25.0675
322.51,25.1072
323.01,25.1472
323.51,25.1889
324.01,25.2302
324.51,25.2705
325.01,25.3102
325.51,25.3494
326.01,25.3899
326.51,25.4318
327.01,25.4727
327.51,25.5131
328.01,25.5538
328.51,25.5936
329.01,25.6343
329.51,25.67912
330.01,25.7206
330.51,25.7605
331.01,25.7998
331.51,25.8383
332.01,25.8784
332.51,25.9206
333.01,25.9607
333.51,25.9991
334.01,26.03683
334.51,26.0748
335.01,26.1122
335.51,26.1491
336.01,26.1857
336.51,26.2225
337.01,26.2597
337.51,26.2962
338.01,26.335
338.51,26.3736
339.01,26.4105
339.51,26.4463
340.01,26.4814
340.51,26.5162
341.01,26.5528
341.51,26.5941
342.01,26.6324
342.51,26.6683
343.01,26.7032
343.51,26.7378
344.01,26.7738
344.51,26.808
345.01,26.8434
345.51,26.8788
346.01,26.9126
346.51,26.9452
347.01,26.97677
347.51,27.0079
348.01,27.0393
348.51,27.0715
349.01,27.1034
349.51,27.1383
350.01,27.1714
350.51,27.2026
351.01,27.2334
351.51,27.26394
352.01,27.29426
352.51,27.3239
353.01,27.3566
353.51,27.3908
354.01,27.4224
354.51,27.4524
355.01,27.4849
355.51,27.5156
356.01,27.5442
356.51,27.5724
357.01,27.6012
357.51,27.6301
358.01,27.6578
358.51,27.6854
359.01,27.7122
359.51,27.7391
360.01,27.76605
360.51,27.7945
361.01,27.8224
361.51,27.8508
362.01,27.8779
362.51,27.9044
363.01,27.9295
363.51,27.9538
364.01,27.97985
364.51,28.01
365.01,28.0394
365.51,28.0685
366.01,28.0952
366.51,28.1207
367.01,28.1448
367.51,28.16951
368.01,28.194
368.51,28.2197
369.01,28.24422
369.51,28.2672
370.01,28.2903
370.51,28.31725
371.01,28.3426
371.51,28.36613
372.01,28.3904
372.51,28.41383
373.01,28.4372
373.51,28.4611
374.01,28.48435
374.51,28.5099
375.01,28.5359
375.51,28.5639
376.01,28.5893
376.51,28.6126
377.01,28.6346
377.51,28.6574
378.01,28.6792
378.51,28.7018
379.01,28.7255
379.51,28.7496
380.01,28.7743
380.51,28.7963
381.01,28.818
381.51,28.8409
382.01,28.8648
382.51,28.8873
383.01,28.9098
383.51,28.9342
384.01,28.9608
384.51,28.9861
385.01,29.0097
385.51,29.0316
386.01,29.0538
386.51,29.0766
387.01,29.0975
387.51,29.1193
388.01,29.1445
388.51,29.1685
389.01,29.19059
389.51,29.2124
390.01,29.2328
390.51,29.2569
391.01,29.2836
391.51,29.3075
392.01,29.3306
392.51,29.35269
393.01,29.3765
393.51,29.3985
394.01,29.4198
394.51,29.4409
395.01,29.46317
395.51,29.48697
396.01,29.5103
396.51,29.5321
397.01,29.5557
397.51,29.5779
398.01,29.6013
398.51,29.6234
399.01,29.6461
399.51,29.6665
400.01,29.6862
400.51,29.7077
401.01,29.7299
401.51,29.7532
402.01,29.7743
402.51,29.7967
403.01,29.8154
403.51,29.83495
404.01,29.8558
404.51,29.8757
405.01,29.8944
405.51,29.91412
406.01,29.9348
406.51,29.9526
407.01,29.96877
407.51,29.9848
408.01,30.0031
408.51,30.0199
409.01,30.0349
409.51,30.048
410.01,30.0619
410.51,30.0747
411.01,30.087
411.51,30.0963
412.01,30.1058
412.51,30.1125
413.01,30.1202
413.51,30.1228
414.01,30.1254
414.51,30.1261
415.01,30.1226
415.51,30.1294
416.01,30.1261
416.51,30.1158
417.01,30.10238
417.51,30.0829
418.01,30.0588
418.51,30.0297
419.01,29.9934
419.51,29.9499
420.01,29.897
420.51,29.8347
421.01,29.7608
421.51,29.6742
422.01,29.5702
422.51,29.4449
423.01,29.2951
423.51,29.11324
424.01,28.8922
424.51,28.6171
425.01,28.2693
425.51,27.8197
426.01,27.223
426.51,26.3895
427.01,25.0886
427.51,23.3102
428.01,19.611
428.51,7.28844
429.01,0
429.51,0
430.01,0
430.51,0
431.01,0
431.51,0
432.01,0
432.51,0
433.01,0
433.51,0
434.01,0
434.51,0
435.01,0
435.51,0
436.01,0
436.51,0
437.01,0
437.51,0
438.01,0
438.51,0
439.01,0
439.51,0
440.01,0
440.51,0
441.01,0
441.51,0
442.01,0
442.51,0
443.01,0
443.51,0
444.01,0
444.51,0
445.01,0
445.51,0
446.01,0
446.51,0
447.01,0
447.51,0
448.01,0
448.51,0
449.01,0
449.51,0
450.01,0
450.51,0
451.01,0
451.51,0
452.01,0
452.51,0
453.01,0
453.51,0
454.01,0
454.51,0
455.01,0
455.51,0
456.01,0
456.51,0
457.01,0
457.51,0
458.01,0
458.51,0
459.01,0
459.51,0
460.01,0
460.51,0
461.01,0
461.51,0
462.01,0
462.51,0
463.01,0
463.51,0
464.01,0
464.51,0
465.01,0
465.51,0
466.01,0
466.51,0
467.01,0
467.51,0
468.01,0
468.51,0
469.01,0
469.51,0
470.01,0
470.51,0
471.01,0
471.51,0
472.01,0
472.51,0
473.01,0
473.51,0
474.01,0
474.51,0
475.01,0
475.51,0
476.01,0
476.51,0
477.01,0
477.51,0
478.01,0
478.51,0
479.01,0
479.51,0
480.01,0
480.51,0
481.01,0
481.51,0
482.01,0
482.51,0
483.01,0
483.51,0
484.01,0
484.51,0
485.01,0
485.51,0
486.01,0
486.51,0
487.01,0
487.51,0
488.01,0
488.51,0
489.01,0
489.51,0
490.01,0
490.51,0
491.01,0
491.51,0
492.01,0
492.51,0
493.01,0
493.51,0
494.01,0
494.51,0
495.01,0
495.51,0
496.01,0
496.51,0
497.01,0
497.51,0
498.01,0
498.51,0
499.01,0
499.51,0
500,0