File: PMMA/Validation_Results/NIST-FSRI/NIST-FSRI_Gasification_q50_MLR_R3.csv
Time,MLR
[s],[g/m2/s]
0,0
0.5,1.10713E-16
1,7.14241E-15
1.5,1.63299E-13
2,1.84754E-12
2.51,1.36595E-11
3.01,7.31139E-11
3.51,3.08211E-10
4.01,1.09305E-09
4.51,3.38067E-09
5.01,9.35612E-09
5.51,2.36147E-08
6.01,5.51514E-08
6.51,1.2054E-07
7.01,2.48776E-07
7.51,4.88372E-07
8.01,9.17386E-07
8.51,1.65718E-06
9.01,2.89077E-06
9.51,4.88678E-06
10.01,8.02996E-06
10.51,1.28595E-05
11.01,2.01158E-05
11.51,3.07978E-05
12.01,4.62307E-05
12.51,6.81459E-05
13.01,9.87746E-05
13.51,0.000140954
14.01,0.000198252
14.51,0.0002751
15.01,0.000376951
15.51,0.000510451
16.01,0.00068362
16.51,0.000906064
17.01,0.001189189
17.51,0.001546446
18,0.00198854
18.5,0.002536623
19,0.00321847
19.5,0.004053438
20,0.005069204
20.5,0.006297208
21,0.007772974
21.5,0.009536437
22,0.0116323
22.5,0.0141102
23,0.0170255
23.5,0.0204388
24,0.02441709
24.5,0.0290334
25,0.0343673
25.5,0.0405053
26,0.0475403
26.5,0.0555728
27,0.0647098
27.5,0.0750657
28,0.0867615
28.5,0.0999254
29,0.114692
29.5,0.1312
30,0.149598
30.5,0.170035
31,0.192665
31.5,0.217649
32,0.245144
32.5,0.275312
33,0.308314
33.5,0.344307
34,0.383447
34.5,0.425882
35,0.471754
35.5,0.521196
36,0.57433
36.5,0.631265
37,0.692094
37.5,0.756893
38,0.825724
38.5,0.898626
39,0.975613
39.5,1.05669
40,1.14182
40.5,1.23095
41,1.32402
41.5,1.42093
42,1.52156
42.5,1.62577
43,1.73341
43.51,1.845392
44.01,1.96053
44.51,2.07736
45.01,2.19681
45.51,2.31864
46.01,2.44263
46.51,2.56853
47.01,2.69611
47.51,2.82513
48.01,2.95533
48.51,3.08647
49.01,3.218338
49.51,3.35075
50.01,3.48341
50.51,3.61614
51.01,3.74884
51.51,3.88115
52.01,4.0131
52.51,4.14439
53.01,4.27491
53.51,4.40466
54.01,4.53325
54.51,4.66094
55.01,4.78723
55.51,4.912403
56.01,5.03617
56.51,5.15837
57.01,5.27946
57.51,5.398535
58.01,5.51656
58.51,5.63279
59.01,5.74711
59.51,5.86048
60.01,5.97179
60.51,6.081158
61.01,6.18969
61.51,6.2962
62.01,6.40059
62.51,6.50398
63.01,6.60599
63.51,6.70579
64.01,6.80374
64.51,6.90111
65.01,6.99683
65.51,7.09048
66.01,7.18227
66.51,7.273331
67.01,7.36353
67.51,7.45156
68.01,7.53783
68.51,7.62252
69.01,7.70694
69.51,7.79032
70.01,7.871792
70.51,7.95159
71.01,8.02987
71.51,8.10704
72.01,8.18473
72.5,8.25993
73,8.33336
73.5,8.406121
74,8.47768
74.5,8.54801
75,8.61852
75.5,8.68862
76,8.75698
76.5,8.82395
77,8.88965
77.5,8.954193
78,9.0177
78.5,9.08067
79,9.144784
79.5,9.20737
80,9.2684
80.5,9.32822
81,9.38717
81.5,9.44523
82,9.50236
82.5,9.55863
83,9.61453
83.5,9.6719
84,9.72791
84.5,9.78256
85,9.83612
85.5,9.88874
86,9.94053
86.5,9.99158
87,10.0421
87.5,10.0921
88,10.1414
88.5,10.1918
89,10.2424
89.5,10.2914
90,10.3394
90.5,10.3867
91,10.4333
91.5,10.4792
92,10.5245
92.5,10.5692
93,10.6133
93.5,10.6569
94,10.7002
94.5,10.7439
95,10.7896
95.5,10.8337
96,10.8765
96.5,10.9185
97,10.9598
97.5,11.0005
98,11.041
98.5,11.0811
99,11.1208
99.5,11.1599
100,11.1987
100.5,11.237
101,11.275
101.5,11.3126
102,11.3512
102.5,11.3919
103,11.4308
103.5,11.4687
104,11.5058
104.5,11.5424
105,11.57839
105.5,11.614
106,11.6493
106.5,11.6842
107,11.7191
107.5,11.7538
108,11.7882
108.5,11.8223
109,11.856
109.5,11.8895
110,11.92269
110.5,11.9564
111,11.9927
111.5,12.0276
112,12.0615
112.5,12.095
113,12.1279
113.5,12.1604
114,12.1924
114.5,12.2241
115,12.2555
115.5,12.2867
116,12.3177
116.5,12.3485
117,12.379
117.5,12.4097
118,12.4403
118.5,12.4707
119,12.5008
119.5,12.5307
120,12.5605
120.5,12.5913
121,12.6246
121.5,12.6561
122,12.6865
122.5,12.7163
123,12.746
123.5,12.7757
124,12.805
124.5,12.8341
125,12.8628
125.5,12.8913
126,12.9196
126.5,12.9477
127,12.9757
127.5,13.0036
128,13.0313
128.5,13.0589
129,13.0866
129.5,13.1146
130,13.1423
130.5,13.1698
131,13.1972
131.5,13.2249
132,13.25615
132.5,13.2859
133,13.3145
133.5,13.3423
134,13.3696
134.5,13.3967
135,13.4238
135.5,13.4512
136,13.4783
136.5,13.5052
137,13.5318
137.5,13.5583
138,13.58455
138.5,13.6107
139,13.6368
139.5,13.6629
140,13.6888
140.5,13.7147
141,13.7404
141.5,13.7664
142,13.7927
142.5,13.8188
143,13.8447
143.5,13.8706
144,13.90003
144.5,13.9292
145,13.9567
145.5,13.9834
146,14.0096
146.5,14.0355
147,14.0611
147.5,14.08668
148,14.1123
148.5,14.1384
149,14.16434
149.5,14.19
150,14.2154
150.5,14.2407
151,14.2658
151.5,14.2909
152,14.31597
152.5,14.341
153,14.366
153.5,14.3909
154,14.4157
154.5,14.4405
155,14.4657
155.5,14.4912
156,14.5165
156.5,14.5421
157,14.5717
157.5,14.5999
158,14.6267
158.5,14.6526
159,14.6782
159.51,14.7036
160.01,14.7289
160.51,14.7538
161.01,14.7787
161.51,14.8037
162.01,14.8293
162.51,14.8547
163.01,14.8799
163.51,14.9049
164.01,14.9297
164.51,14.95441
165.01,14.9791
165.51,15.0038
166.01,15.0285
166.51,15.0531
167.01,15.0777
167.51,15.1022
168.01,15.1267
168.51,15.15128
169.01,15.1766
169.51,15.2018
170.01,15.2279
170.51,15.2579
171.01,15.2859
171.51,15.3124
172.01,15.3382
172.51,15.3636
173.01,15.3888
173.51,15.4137
174.01,15.4385
174.51,15.4632
175.01,15.4881
175.51,15.513
176.01,15.5386
176.51,15.5642
177.01,15.5894
177.51,15.6144
178.01,15.6393
178.51,15.664
179.01,15.6888
179.51,15.7136
180.01,15.7385
180.51,15.7632
181.01,15.7879
181.51,15.8126
182.01,15.8373
182.51,15.86191
183.01,15.8873
183.51,15.9129
184.01,15.9419
184.51,15.9718
185.01,15.9994
185.51,16.0259
186.01,16.0519
186.51,16.0775
187.01,16.1028
187.51,16.128
188.01,16.1531
188.51,16.1781
189.01,16.2033
189.51,16.2284
190.01,16.2541
190.51,16.2803
191.01,16.3062
191.51,16.3317
192.01,16.3571
192.51,16.3823
193.01,16.4075
193.51,16.4328
194.01,16.4581
194.51,16.4834
195.01,16.5087
195.51,16.5339
196.01,16.5591
196.51,16.58424
197.01,16.6096
197.51,16.636
198.01,16.6668
198.51,16.697
199.01,16.7252
199.51,16.7524
200.01,16.779
200.51,16.8052
201.01,16.8313
201.51,16.8571
202.01,16.8828
202.51,16.9084
203.01,16.9341
203.51,16.9599
204.01,16.9859
204.51,17.0127
205.01,17.0397
205.51,17.0662
206.01,17.0924
206.51,17.1185
207.01,17.1445
207.51,17.1705
208.01,17.1965
208.51,17.2227
209.01,17.2488
209.51,17.2749
210.01,17.3009
210.51,17.3269
211.01,17.353
211.51,17.3795
212.01,17.4119
212.51,17.4432
213.01,17.4723
213.51,17.5006
214.01,17.5282
214.51,17.5555
215.01,17.5825
215.51,17.6094
216.01,17.6361
216.51,17.6627
217.01,17.6892
217.51,17.7157
218.01,17.7425
218.51,17.76958
219.01,17.7977
219.51,17.8259
220.01,17.8535
220.51,17.8808
221.01,17.9079
221.51,17.9349
222.01,17.962
222.51,17.989
223.01,18.0163
223.51,18.0436
224.01,18.0709
224.51,18.0981
225.01,18.1252
225.51,18.153
226.01,18.18656
226.51,18.2191
227.01,18.2495
227.51,18.2788
228.01,18.3077
228.51,18.3363
229.01,18.3647
229.51,18.3929
230.01,18.421
230.51,18.4489
231.01,18.4767
231.51,18.5045
232.01,18.5322
232.51,18.5601
233.01,18.5888
233.51,18.6188
234.01,18.6483
234.51,18.6773
235.01,18.706
235.51,18.7345
236.01,18.7629
236.51,18.79127
237.01,18.8197
237.51,18.8482
238.01,18.8771
238.51,18.906
239.01,18.9348
239.51,18.966
240.01,19.0005
240.51,19.0336
241.01,19.06561
241.51,19.0964
242.01,19.1266
242.51,19.1566
243.01,19.1866
243.51,19.2164
244.01,19.2461
244.51,19.2758
245.01,19.30536
245.51,19.33487
246.01,19.3643
246.51,19.3937
247.01,19.4231
247.51,19.454
248.01,19.486
248.51,19.5172
249.01,19.548
249.51,19.5784
250.01,19.6087
250.51,19.6388
251.01,19.669
251.51,19.6991
252.01,19.7294
252.51,19.76
253.01,19.792
253.51,19.8289
254.01,19.8631
254.51,19.8969
255.01,19.9305
255.51,19.96314
256.01,19.9952
256.51,20.0269
257.01,20.0584
257.51,20.0902
258.01,20.1221
258.51,20.1538
259.01,20.1853
259.51,20.2169
260.01,20.2486
260.51,20.2802
261.01,20.3118
261.51,20.3445
262.01,20.378
262.51,20.4113
263.01,20.4444
263.51,20.4774
264.01,20.5102
264.51,20.5427
265.01,20.5751
265.51,20.6074
266.01,20.6398
266.51,20.6741
267.01,20.7129
267.51,20.7494
268.01,20.7846
268.51,20.8206
269.01,20.8562
269.51,20.8909
270.01,20.92504
270.51,20.9588
271.01,20.9927
271.51,21.0264
272.01,21.0603
272.51,21.0948
273.01,21.1291
273.51,21.1632
274.01,21.1972
274.51,21.2312
275.01,21.2657
275.51,21.302
276.01,21.338
276.51,21.3733
277.01,21.4085
277.51,21.4441
278.01,21.4794
278.51,21.5146
279.01,21.55
279.51,21.5857
280.01,21.6268
280.51,21.666
281.01,21.7031
281.51,21.7394
282.01,21.7771
282.51,21.8165
283.01,21.8546
283.51,21.8918
284.01,21.9285
284.51,21.9649
285.01,22.0012
285.51,22.0375
286.01,22.0738
286.51,22.1104
287.01,22.1478
287.51,22.1852
288.01,22.2222
288.51,22.25953
289.01,22.2988
289.51,22.3374
290.01,22.3754
290.51,22.4133
291.01,22.4509
291.51,22.48883
292.01,22.5274
292.51,22.5667
293.01,22.6109
293.51,22.6521
294.01,22.692
294.51,22.7312
295.01,22.7701
295.51,22.811
296.01,22.8513
296.51,22.8916
297.01,22.9314
297.51,22.9706
298.01,23.0101
298.51,23.0494
299.01,23.0885
299.51,23.1274
300.01,23.1661
300.51,23.2047
301.01,23.2436
301.51,23.2839
302.01,23.3264
302.51,23.3684
303.01,23.4091
303.51,23.44915
304.01,23.4888
304.51,23.5284
305.01,23.5682
305.51,23.6134
306.01,23.6587
306.51,23.7017
307.01,23.7432
307.51,23.78411
308.01,23.825
308.51,23.8679
309.01,23.9099
309.51,23.9513
310.01,23.9922
310.51,24.0334
311.01,24.0751
311.51,24.1161
312.01,24.1567
312.51,24.1969
313.01,24.2374
313.51,24.278
314.01,24.3183
314.51,24.3595
315.01,24.4027
315.51,24.4457
316.01,24.4875
316.51,24.5286
317.01,24.5697
317.51,24.6108
318.01,24.657
318.51,24.7014
319.01,24.7435
319.51,24.7847
320.01,24.8264
320.51,24.8682
321.01,24.9123
321.51,24.9553
322.01,24.9967
322.51,25.0373
323.01,25.07731
323.51,25.1169
324.01,25.157
324.51,25.1987
325.01,25.2398
325.51,25.28
326.01,25.3195
326.51,25.3586
327.01,25.3995
327.51,25.4412
328.01,25.482
328.51,25.5222
329.01,25.5629
329.51,25.6025
330.01,25.644
330.51,25.6885
331.01,25.7295
331.51,25.7693
332.01,25.8084
332.51,25.8468
333.01,25.8874
333.51,25.9293
334.01,25.969
334.51,26.00732
335.01,26.0449
335.51,26.0828
336.01,26.1201
336.51,26.1569
337.01,26.1934
337.51,26.2303
338.01,26.2674
338.51,26.30384
339.01,26.3428
339.51,26.3811
340.01,26.4179
340.51,26.4535
341.01,26.4885
341.51,26.5233
342.01,26.56052
342.51,26.6017
343.01,26.6395
343.51,26.6753
344.01,26.71
344.51,26.7447
345.01,26.7806
345.51,26.8146
346.01,26.85014
346.51,26.8853
347.01,26.919
347.51,26.9514
348.01,26.9828
348.51,27.0139
349.01,27.0454
349.51,27.0775
350.01,27.1096
350.51,27.1444
351.01,27.1772
351.51,27.2084
352.01,27.2391
352.51,27.2696
353.01,27.29977
353.51,27.3293
354.01,27.3628
354.51,27.3965
355.01,27.4279
355.51,27.4579
356.01,27.49044
356.51,27.5208
357.01,27.5493
357.51,27.5774
358.01,27.6063
358.51,27.6351
359.01,27.6628
359.51,27.69019
360.01,27.717
360.51,27.7438
361.01,27.77098
361.51,27.7993
362.01,27.8272
362.51,27.8554
363.01,27.8826
363.51,27.9089
364.01,27.9339
364.51,27.9581
365.01,27.9848
365.51,28.0149
366.01,28.0442
366.51,28.0732
367.01,28.0996
367.51,28.1249
368.01,28.1489
368.51,28.1737
369.01,28.1982
369.51,28.2239
370.01,28.2482
370.51,28.271
371.01,28.2945
371.51,28.3215
372.01,28.3466
372.51,28.3701
373.01,28.3944
373.51,28.4177
374.01,28.4412
374.51,28.46495
375.01,28.4883
375.51,28.5137
376.01,28.5401
376.51,28.5679
377.01,28.5932
377.51,28.61624
378.01,28.6383
378.51,28.66103
379.01,28.6827
379.51,28.7056
380.01,28.7291
380.51,28.7536
381.01,28.7779
381.51,28.7998
382.01,28.8215
382.51,28.8446
383.01,28.8683
383.51,28.8907
384.01,28.9135
384.51,28.9382
385.01,28.9649
385.51,28.9899
386.01,29.0133
386.51,29.035
387.01,29.0574
387.51,29.08
388.01,29.1008
388.51,29.123
389.01,29.1482
389.51,29.172
390.01,29.194
390.51,29.21563
391.01,29.23606
391.51,29.261
392.01,29.2872
392.51,29.311
393.01,29.334
393.51,29.3561
394.01,29.38005
394.51,29.4017
395.01,29.423
395.51,29.444
396.01,29.4665
396.51,29.4906
397.01,29.5135
397.51,29.5355
398.01,29.5589
398.51,29.5813
399.01,29.6047
399.51,29.6267
400.01,29.6494
400.51,29.6695
401.01,29.6895
401.51,29.7109
402.01,29.7334
402.51,29.7565
403.01,29.77771
403.51,29.79978
404.01,29.8182
404.51,29.8381
405.01,29.8589
405.51,29.8785
406.01,29.8972
406.51,29.917
407.01,29.9375
407.51,29.9553
408.01,29.9712
408.51,29.9876
409.01,30.0059
409.51,30.0225
410.01,30.03715
410.51,30.0505
411.01,30.064
411.51,30.0771
412.01,30.0889
412.51,30.0983
413.01,30.1076
413.51,30.1141
414.01,30.1218
414.51,30.1239
415.01,30.12685
415.51,30.1269
416.01,30.1257
416.51,30.12997
417.01,30.126
417.51,30.1158
418.01,30.1012
418.51,30.0818
419.01,30.0561
419.51,30.0276
420.01,29.9903
420.51,29.9458
421.01,29.8922
421.51,29.8289
422.01,29.7536
422.51,29.6647
423.01,29.5591
423.51,29.4319
424.01,29.279
424.51,29.0953
425.01,28.8673
425.51,28.586
426.01,28.2314
426.51,27.7671
427.01,27.149
427.51,26.2939
428.01,24.9318
428.51,23.0557
429.01,19.0113
429.51,5.862319
430.01,0
430.51,0
431.01,0
431.51,0
432.01,0
432.51,0
433.01,0
433.51,0
434.01,0
434.51,0
435.01,0
435.51,0
436.01,0
436.51,0
437.01,0
437.51,0
438.01,0
438.51,0
439.01,0
439.51,0
440.01,0
440.51,0
441.01,0
441.51,0
442.01,0
442.51,0
443.01,0
443.51,0
444.01,0
444.51,0
445.01,0
445.51,0
446.01,0
446.51,0
447.01,0
447.51,0
448.01,0
448.51,0
449.01,0
449.51,0
450.01,0
450.51,0
451.01,0
451.51,0
452.01,0
452.51,0
453.01,0
453.51,0
454.01,0
454.51,0
455.01,0
455.51,0
456.01,0
456.51,0
457.01,0
457.51,0
458.01,0
458.51,0
459.01,0
459.51,0
460.01,0
460.51,0
461.01,0
461.51,0
462.01,0
462.51,0
463.01,0
463.51,0
464.01,0
464.51,0
465.01,0
465.51,0
466.01,0
466.51,0
467.01,0
467.51,0
468.01,0
468.51,0
469.01,0
469.51,0
470.01,0
470.51,0
471.01,0
471.51,0
472.01,0
472.51,0
473.01,0
473.51,0
474.01,0
474.51,0
475.01,0
475.51,0
476.01,0
476.51,0
477.01,0
477.51,0
478.01,0
478.51,0
479.01,0
479.51,0
480.01,0
480.51,0
481.01,0
481.51,0
482.01,0
482.51,0
483.01,0
483.51,0
484.01,0
484.51,0
485.01,0
485.51,0
486.01,0
486.51,0
487.01,0
487.51,0
488.01,0
488.51,0
489.01,0
489.51,0
490.01,0
490.51,0
491.01,0
491.51,0
492.01,0
492.51,0
493.01,0
493.51,0
494.01,0
494.51,0
495.01,0
495.51,0
496.01,0
496.51,0
497.01,0
497.51,0
498.01,0
498.51,0
499.01,0
499.51,0
500,0