File: PMMA/Validation_Results/NIST-FSRI/NIST-FSRI_Gasification_q50_MLR_R5.csv
Time,MLR
[s],[g/m2/s]
0,0
0.5,1.06731E-16
1,6.52131E-15
1.5,1.48675E-13
2,1.6868E-12
2.51,1.25219E-11
3.01,6.73039E-11
3.51,2.84843E-10
4.01,1.01392E-09
4.51,3.14665E-09
5.01,8.73596E-09
5.51,2.21138E-08
6.01,5.17856E-08
6.51,1.13467E-07
7.01,2.34724E-07
7.51,4.61788E-07
8.01,8.6921E-07
8.51,1.57313E-06
9.01,2.74905E-06
9.51,0.000004655
10.01,7.66119E-06
10.51,1.22872E-05
11.01,1.92477E-05
11.51,2.9508E-05
12.01,4.43505E-05
12.51,6.5453E-05
13.01,9.49795E-05
13.51,0.000135686
14.01,0.000191039
14.51,0.000265353
15.01,0.00036394
15.51,0.000493276
16.01,0.000661189
16.51,0.000877057
17.01,0.001152031
17.51,0.001499265
18,0.001929263
18.5,0.002462721
19,0.003126815
19.5,0.003940567
20,0.004931139
20.5,0.0061294
21,0.007570255
21.5,0.009292964
22,0.0113415
22.5,0.0137648
23,0.0166171
23.5,0.0199584
24,0.02385467
24.5,0.0283779
25,0.0336067
25.5,0.03962623
26,0.0465287
26.5,0.054413
27,0.0633853
27.5,0.0735587
28,0.0850532
28.5,0.0979956
29,0.112519
29.5,0.128763
30,0.146872
30.5,0.166997
31,0.18929
31.5,0.213911
32,0.241017
32.5,0.27077
33,0.30333
33.5,0.338855
34,0.377501
34.5,0.419416
35,0.464745
35.5,0.513619
36,0.566164
36.5,0.62249
37,0.682692
37.5,0.746849
38,0.815024
38.5,0.887259
39,0.963575
39.5,1.04397
40,1.12842
40.5,1.21688
41,1.30928
41.5,1.40553
42,1.50551
42.5,1.609081
43,1.7161
43.51,1.82748
44.01,1.94203
44.51,2.05831
45.01,2.17723
45.51,2.298579
46.01,2.42211
46.51,2.54759
47.01,2.674747
47.51,2.80337
48.01,2.93322
48.51,3.06406
49.01,3.19564
49.51,3.32772
50.01,3.46015
50.51,3.59272
51.01,3.72512
51.51,3.85736
52.01,3.98909
52.51,4.120241
53.01,4.25074
53.51,4.38023
54.01,4.50894
54.51,4.63631
55.01,4.76276
55.51,4.887705
56.01,5.01144
56.51,5.13379
57.01,5.25442
57.51,5.374
58.01,5.49154
58.51,5.60781
59.01,5.72257
59.51,5.8352
60.01,5.946748
60.51,6.05662
61.01,6.16432
61.51,6.27083
62.01,6.376008
62.51,6.47894
63.01,6.58009
63.51,6.68062
64.01,6.77916
64.51,6.87567
65.01,6.9705
65.51,7.065
66.01,7.15753
66.51,7.24804
67.01,7.336842
67.51,7.42497
68.01,7.51226
68.51,7.5975
69.01,7.68101
69.51,7.7629
70.01,7.84404
70.51,7.92507
71.01,8.00406
71.51,8.08133
72.01,8.15713
72.5,8.23093
73,8.30434
73.5,8.37843
74,8.45057
74.5,8.52126
75,8.5906
75.5,8.65868
76,8.72559
76.5,8.79272
77,8.85989
77.5,8.92518
78,8.98901
78.5,9.05163
79,9.11331
79.5,9.17402
80,9.23375
80.5,9.29356
81,9.35398
81.5,9.41271
82,9.4702
82.5,9.52659
83,9.58198
83.5,9.63647
84,9.69012
84.5,9.74313
85,9.79555
85.5,9.84946
86,9.90263
86.5,9.95422
87,10.0047
87.5,10.0543
88,10.1034
88.5,10.1517
89,10.1992
89.5,10.2461
90,10.29241
90.5,10.3381
91,10.3842
91.5,10.4321
92,10.47827
92.5,10.5232
93,10.5672
93.5,10.6105
94,10.6531
94.5,10.6951
95,10.7368
95.5,10.7782
96,10.8189
96.5,10.8592
97,10.899
97.5,10.9383
98,10.9791
98.5,11.0206
99,11.0605
99.5,11.0997
100,11.13812
100.5,11.1759
101,11.2131
101.5,11.2498
102,11.2861
102.5,11.322
103,11.35744
103.5,11.3927
104,11.4278
104.5,11.4626
105,11.49696
105.5,11.531
106,11.5654
106.5,11.6023
107,11.6376
107.5,11.6718
108,11.7052
108.5,11.7383
109,11.7711
109.5,11.8036
110,11.8356
110.5,11.8672
111,11.8985
111.5,11.9295
112,11.9602
112.5,11.9906
113,12.0208
113.5,12.0507
114,12.0808
114.5,12.1107
115,12.1403
115.5,12.1696
116,12.2018
116.5,12.2338
117,12.2642
117.5,12.2938
118,12.3228
118.5,12.3514
119,12.3796
119.5,12.4077
120,12.436
120.5,12.4639
121,12.4916
121.5,12.5189
122,12.546
122.5,12.5729
123,12.59957
123.5,12.6261
124,12.6524
124.5,12.6786
125,12.7047
125.5,12.7307
126,12.7569
126.5,12.783
127,12.8096
127.5,12.8393
128,12.8674
128.5,12.8943
129,12.9204
129.5,12.9462
130,12.9715
130.5,12.9966
131,13.0215
131.5,13.0462
132,13.071
132.5,13.096
133,13.1208
133.5,13.1453
134,13.1697
134.5,13.1938
135,13.2178
135.5,13.2416
136,13.2653
136.5,13.2889
137,13.3125
137.5,13.3359
138,13.3593
138.5,13.3825
139,13.4062
139.5,13.4298
140,13.4564
140.5,13.48331
141,13.5085
141.5,13.53285
142,13.5566
142.5,13.5801
143,13.6032
143.5,13.6261
144,13.6489
144.5,13.6715
145,13.694
145.5,13.7166
146,13.7396
146.5,13.7625
147,13.7852
147.5,13.8077
148,13.83
148.5,13.8522
149,13.8743
149.5,13.8963
150,13.9183
150.5,13.9402
151,13.9621
151.5,13.9839
152,14.0056
152.5,14.0272
153,14.0491
153.5,14.0716
154,14.0977
154.5,14.1231
155,14.14691
155.5,14.1699
156,14.1924
156.5,14.2145
157,14.2364
157.5,14.2582
158,14.2797
158.5,14.3012
159,14.3226
159.51,14.3441
160.01,14.3657
160.51,14.3876
161.01,14.4096
161.51,14.4313
162.01,14.4529
162.51,14.4742
163.01,14.4955
163.51,14.5167
164.01,14.5378
164.51,14.5589
165.01,14.58
165.51,14.6011
166.01,14.6221
166.51,14.6431
167.01,14.664
167.51,14.6849
168.01,14.70619
168.51,14.7296
169.01,14.7559
169.51,14.7799
170.01,14.80274
170.51,14.8249
171.01,14.8467
171.51,14.8682
172.01,14.8895
172.51,14.9107
173.01,14.9318
173.51,14.9527
174.01,14.9736
174.51,14.9945
175.01,15.0155
175.51,15.0367
176.01,15.0585
176.51,15.08
177.01,15.1013
177.51,15.1225
178.01,15.14347
178.51,15.1644
179.01,15.1853
179.51,15.2061
180.01,15.2271
180.51,15.248
181.01,15.2689
181.51,15.2897
182.01,15.3105
182.51,15.3312
183.01,15.352
183.51,15.3736
184.01,15.3998
184.51,15.425
185.01,15.4484
185.51,15.4709
186.01,15.4929
186.51,15.5146
187.01,15.536
187.51,15.5573
188.01,15.5784
188.51,15.5995
189.01,15.6204
189.51,15.6414
190.01,15.6624
190.51,15.6835
191.01,15.7048
191.51,15.7268
192.01,15.74864
192.51,15.7702
193.01,15.7915
193.51,15.8127
194.01,15.8338
194.51,15.8549
195.01,15.876
195.51,15.89725
196.01,15.9184
196.51,15.9396
197.01,15.9607
197.51,15.9817
198.01,16.0028
198.51,16.0238
199.01,16.0456
199.51,16.07272
200.01,16.09836
200.51,16.1223
201.01,16.1452
201.51,16.16767
202.01,16.1898
202.51,16.2116
203.01,16.2333
203.51,16.2549
204.01,16.2764
204.51,16.2978
205.01,16.3191
205.51,16.3406
206.01,16.3622
206.51,16.38385
207.01,16.4063
207.51,16.4289
208.01,16.4511
208.51,16.473
209.01,16.4948
209.51,16.5165
210.01,16.5382
210.51,16.55984
211.01,16.5817
211.51,16.6035
212.01,16.6253
212.51,16.647
213.01,16.6687
213.51,16.69041
214.01,16.7121
214.51,16.7341
215.01,16.7617
215.51,16.7886
216.01,16.81336
216.51,16.8372
217.01,16.8605
217.51,16.8834
218.01,16.9061
218.51,16.9285
219.01,16.9509
219.51,16.9731
220.01,16.9952
220.51,17.0173
221.01,17.0395
221.51,17.0619
222.01,17.0843
222.51,17.1072
223.01,17.13085
223.51,17.1541
224.01,17.177
224.51,17.1997
225.01,17.2223
225.51,17.2449
226.01,17.2674
226.51,17.29
227.01,17.3128
227.51,17.3356
228.01,17.3582
228.51,17.38088
229.01,17.4035
229.51,17.4261
230.01,17.4492
230.51,17.4781
231.01,17.506
231.51,17.5317
232.01,17.5565
232.51,17.5808
233.01,17.6048
233.51,17.6285
234.01,17.6521
234.51,17.6755
235.01,17.6987
235.51,17.7219
236.01,17.7451
236.51,17.7682
237.01,17.7914
237.51,17.8149
238.01,17.83873
238.51,17.8637
239.01,17.8883
239.51,17.91254
240.01,17.9365
240.51,17.9602
241.01,17.9839
241.51,18.0076
242.01,18.0313
242.51,18.0551
243.01,18.0791
243.51,18.1031
244.01,18.1271
244.51,18.1509
245.01,18.1748
245.51,18.20137
246.01,18.2315
246.51,18.25989
247.01,18.2865
247.51,18.3123
248.01,18.3377
248.51,18.363
249.01,18.388
249.51,18.4128
250.01,18.4376
250.51,18.4622
251.01,18.4868
251.51,18.5113
252.01,18.5358
252.51,18.5602
253.01,18.5848
253.51,18.61
254.01,18.6367
254.51,18.663
255.01,18.68881
255.51,18.7142
256.01,18.7395
256.51,18.7646
257.01,18.7897
257.51,18.8149
258.01,18.84
258.51,18.8654
259.01,18.891
259.51,18.9166
260.01,18.9421
260.51,18.9703
261.01,19.0014
261.51,19.0311
262.01,19.0598
262.51,19.0875
263.01,19.1144
263.51,19.141
264.01,19.1677
264.51,19.1944
265.01,19.2208
265.51,19.2472
266.01,19.2735
266.51,19.2998
267.01,19.3261
267.51,19.3523
268.01,19.3784
268.51,19.4046
269.01,19.4318
269.51,19.4606
270.01,19.4887
270.51,19.5164
271.01,19.5436
271.51,19.5707
272.01,19.5976
272.51,19.6245
273.01,19.6514
273.51,19.6784
274.01,19.70542
274.51,19.7329
275.01,19.7612
275.51,19.7947
276.01,19.826
276.51,19.8565
277.01,19.887
277.51,19.9165
278.01,19.94541
278.51,19.9739
279.01,20.00224
279.51,20.0306
280.01,20.0593
280.51,20.0878
281.01,20.1162
281.51,20.1445
282.01,20.1729
282.51,20.2013
283.01,20.2297
283.51,20.25811
284.01,20.2877
284.51,20.318
285.01,20.348
285.51,20.3779
286.01,20.4077
286.51,20.4373
287.01,20.4667
287.51,20.4959
288.01,20.525
288.51,20.55414
289.01,20.58329
289.51,20.6142
290.01,20.65
290.51,20.6835
291.01,20.71562
291.51,20.74863
292.01,20.781
292.51,20.8124
293.01,20.8433
293.51,20.8739
294.01,20.9045
294.51,20.9351
295.01,20.9657
295.51,20.9968
296.01,21.0281
296.51,21.0591
297.01,21.09
297.51,21.1208
298.01,21.1517
298.51,21.1836
299.01,21.2169
299.51,21.2494
300.01,21.2814
300.51,21.31356
301.01,21.346
301.51,21.3781
302.01,21.4101
302.51,21.4423
303.01,21.4744
303.51,21.5081
304.01,21.5463
304.51,21.5815
305.01,21.6152
305.51,21.6489
306.01,21.685
306.51,21.7206
307.01,21.7551
307.51,21.7889
308.01,21.8224
308.51,21.8556
309.01,21.8887
309.51,21.9219
310.01,21.9552
310.51,21.9888
311.01,22.0232
311.51,22.0575
312.01,22.0916
312.51,22.1256
313.01,22.1617
313.51,22.1975
314.01,22.2324
314.51,22.2674
315.01,22.3021
315.51,22.3367
316.01,22.3722
316.51,22.4076
317.01,22.44303
317.51,22.4837
318.01,22.5227
318.51,22.55993
319.01,22.5963
319.51,22.6327
320.01,22.6708
320.51,22.7082
321.01,22.7456
321.51,22.7826
322.01,22.819
322.51,22.8556
323.01,22.8921
323.51,22.9285
324.01,22.9646
324.51,23.0007
325.01,23.0366
325.51,23.0726
326.01,23.1095
326.51,23.148
327.01,23.188
327.51,23.2267
328.01,23.2644
328.51,23.3017
329.01,23.3386
329.51,23.3757
330.01,23.41278
330.51,23.4517
331.01,23.4963
331.51,23.5378
332.01,23.5773
332.51,23.6159
333.01,23.6544
333.51,23.6948
334.01,23.7346
334.51,23.7738
335.01,23.8125
335.51,23.8512
336.01,23.8905
336.51,23.9296
337.01,23.9681
337.51,24.0063
338.01,24.04435
338.51,24.0829
339.01,24.1213
339.51,24.1595
340.01,24.1994
340.51,24.2407
341.01,24.2814
341.51,24.3211
342.01,24.3602
342.51,24.3993
343.01,24.4383
343.51,24.4783
344.01,24.5229
344.51,24.5645
345.01,24.6045
345.51,24.6447
346.01,24.6846
346.51,24.7266
347.01,24.7686
347.51,24.80887
348.01,24.84819
348.51,24.8869
349.01,24.9253
349.51,24.96351
350.01,25.0031
350.51,25.0434
351.01,25.0828
351.51,25.1215
352.01,25.1597
352.51,25.1976
353.01,25.238
353.51,25.2782
354.01,25.3179
354.51,25.3572
355.01,25.3969
355.51,25.4355
356.01,25.4736
356.51,25.5149
357.01,25.5577
357.51,25.5975
358.01,25.6365
358.51,25.6744
359.01,25.7131
359.51,25.7548
360.01,25.79466
360.51,25.8328
361.01,25.87
361.51,25.9073
362.01,25.9444
362.51,25.981
363.01,26.0173
363.51,26.0534
364.01,26.09035
364.51,26.1267
365.01,26.1631
365.51,26.2022
366.01,26.2397
366.51,26.2762
367.01,26.3115
367.51,26.3463
368.01,26.3809
368.51,26.4167
369.01,26.4551
369.51,26.4952
370.01,26.5318
370.51,26.5669
371.01,26.6014
371.51,26.6377
372.01,26.6721
372.51,26.707
373.01,26.7428
373.51,26.7771
374.01,26.8102
374.51,26.8423
375.01,26.87364
375.51,26.9049
376.01,26.9369
376.51,26.9691
377.01,27.0022
377.51,27.037
378.01,27.0695
378.51,27.10068
379.01,27.1316
379.51,27.1624
380.01,27.1928
380.51,27.2225
381.01,27.2527
381.51,27.28807
382.01,27.3209
382.51,27.3513
383.01,27.38402
383.51,27.4155
384.01,27.4446
384.51,27.473
385.01,27.5017
385.51,27.5313
386.01,27.5594
386.51,27.5874
387.01,27.6147
387.51,27.6416
388.01,27.6686
388.51,27.6967
389.01,27.7249
389.51,27.7534
390.01,27.7815
390.51,27.8086
391.01,27.8349
391.51,27.8599
392.01,27.8843
392.51,27.9088
393.01,27.9388
393.51,27.9694
394.01,27.9991
394.51,28.026
395.01,28.0518
395.51,28.0763
396.01,28.10096
396.51,28.1257
397.01,28.15116
397.51,28.1762
398.01,28.19966
398.51,28.2224
399.01,28.2478
399.51,28.2744
400.01,28.2986
400.51,28.3224
401.01,28.3463
401.51,28.36967
402.01,28.39342
402.51,28.4168
403.01,28.439
403.51,28.4626
404.01,28.4906
404.51,28.5189
405.01,28.5445
405.51,28.5676
406.01,28.5896
406.51,28.6124
407.01,28.6343
407.51,28.6565
408.01,28.6802
408.51,28.7033
409.01,28.7285
409.51,28.751
410.01,28.7724
410.51,28.7947
411.01,28.8186
411.51,28.8413
412.01,28.8632
412.51,28.8839
413.01,28.9093
413.51,28.9367
414.01,28.96187
414.51,28.9848
415.01,29.0065
415.51,29.0293
416.01,29.0515
416.51,29.0722
417.01,29.0939
417.51,29.1188
418.01,29.1429
418.51,29.165
419.01,29.1868
419.51,29.2071
420.01,29.229
420.51,29.2543
421.01,29.2793
421.51,29.3031
422.01,29.326
422.51,29.3489
423.01,29.3723
423.51,29.3933
424.01,29.415
424.51,29.4356
425.01,29.4583
425.51,29.483
426.01,29.5051
426.51,29.5253
427.01,29.54954
427.51,29.5725
428.01,29.5957
428.51,29.6181
429.01,29.6413
429.51,29.6618
430.01,29.6815
430.51,29.7034
431.01,29.7246
431.51,29.7467
432.01,29.7687
432.51,29.7925
433.01,29.8125
433.51,29.8312
434.01,29.8522
434.51,29.87333
435.01,29.8923
435.51,29.9104
436.01,29.9315
436.51,29.9519
437.01,29.9704
437.51,29.9861
438.01,30.00355
438.51,30.0204
439.01,30.0388
439.51,30.0539
440.01,30.0681
440.51,30.082
441.01,30.0947
441.51,30.10826
442.01,30.1182
442.51,30.129
443.01,30.1359
443.51,30.1445
444.01,30.14958
444.51,30.1518
445.01,30.1551
445.51,30.1581
446.01,30.1625
446.51,30.1605
447.01,30.1516
447.51,30.1406
448.01,30.1244
448.51,30.1032
449.01,30.0773
449.51,30.046
450.01,30.0064
450.51,29.96116
451.01,29.9046
451.51,29.8379
452.01,29.7596
452.51,29.6666
453.01,29.5578
453.51,29.42576
454.01,29.2657
454.51,29.0719
455.01,28.8353
455.51,28.5399
456.01,28.16354
456.51,27.6716
457.01,26.9971
457.51,26.0848
458.01,24.5787
458.51,22.4188
459.01,17.3758
459.51,2.54768
460.01,7.61965E-10
460.51,1.33831E-10
461.01,5.14245E-12
461.51,3.64007E-14
462.01,0
462.51,0
463.01,0
463.51,0
464.01,0
464.51,0
465.01,0
465.51,0
466.01,0
466.51,0
467.01,0
467.51,0
468.01,0
468.51,0
469.01,0
469.51,0
470.01,0
470.51,0
471.01,0
471.51,0
472.01,0
472.51,0
473.01,0
473.51,0
474.01,0
474.51,0
475.01,0
475.51,0
476.01,0
476.51,0
477.01,0
477.51,0
478.01,0
478.51,0
479.01,0
479.51,0
480.01,0
480.51,0
481.01,0
481.51,0
482.01,0
482.51,0
483.01,0
483.51,0
484.01,0
484.51,0
485.01,0
485.51,0
486.01,0
486.51,0
487.01,0
487.51,0
488.01,0
488.51,0
489.01,0
489.51,0
490.01,0
490.51,0
491.01,0
491.51,0
492.01,0
492.51,0
493.01,0
493.51,0
494.01,0
494.51,0
495.01,0
495.51,0
496.01,0
496.51,0
497.01,0
497.51,0
498.01,0
498.51,0
499.01,0
499.51,0
500,0