File: PMMA/Calibration_Data/UMET/UMET_DSC_N2_3K_1.csv
Time,Temperature,Heat Flow
[s],[K],[mW/mg]
0,273.15,0
15,307.977,-0.427461
30,300.021,-0.558116
45,292.7,-0.49216
60,285.749,-0.497985
75,279.189,-0.43273
90,273.003,-0.401563
105,267.176,-0.37766
120,261.685,-0.355979
135,256.517,-0.334676
150,251.653,-0.314221
165,247.076,-0.29668
180,242.77,-0.276574
195,238.72,-0.259359
210,234.91,-0.243377
225,231.327,-0.228212
240,227.957,-0.213832
255,224.788,-0.200386
270,221.807,-0.187704
285,219.003,-0.175903
300,216.365,-0.165016
315,213.885,-0.154294
330,211.552,-0.14437
345,209.382,-0.134461
360,207.381,-0.123964
375,205.551,-0.113586
390,203.878,-0.103378
405,202.351,-0.0936376
420,200.957,-0.0847031
435,199.685,-0.0767505
450,198.531,-0.0692334
465,197.484,-0.0620905
480,196.527,-0.0555913
495,195.651,-0.0499915
510,194.856,-0.044661
525,194.135,-0.0398791
540,193.483,-0.0352663
555,192.896,-0.0310489
570,192.467,-0.0315892
585,192.707,0.00938322
600,192.908,0.0127725
615,193.029,0.0123541
630,193.1,0.0105698
645,193.139,0.00913067
660,193.161,0.00807981
675,193.173,0.00739126
690,193.178,0.00709618
705,193.181,0.00704962
720,193.183,0.00683604
735,193.185,0.00697619
750,193.185,0.00692929
765,193.186,0.00712304
780,193.186,0.00725689
795,193.186,0.00737014
810,193.187,0.00752805
825,193.187,0.00754765
840,193.187,0.00745829
855,193.188,0.00748107
870,193.184,0.00756296
885,193.18,0.00747074
900,193.177,0.00769269
915,193.179,0.00777901
930,193.18,0.00787382
945,193.181,0.00790499
960,193.182,0.00787257
975,193.183,0.00780264
990,193.184,0.00796861
1005,193.184,0.00783409
1020,193.185,0.00790008
1035,193.185,0.00786319
1050,193.184,0.00793483
1065,193.184,0.00811257
1080,193.184,0.00793465
1095,193.184,0.00790782
1110,193.185,0.00812105
1125,193.185,0.00805025
1140,193.185,0.00805818
1155,193.185,0.00812156
1170,193.185,0.00800069
1185,193.185,0.00790352
1200,193.185,0.00804802
1215,193.185,0.00817913
1230,193.45,0.0201131
1245,194.17,0.0371676
1260,194.911,0.0420324
1275,195.655,0.0443832
1290,196.402,0.0455576
1305,197.15,0.0463857
1320,197.898,0.0472274
1335,198.648,0.0478715
1350,199.397,0.0483002
1365,200.147,0.0487652
1380,200.898,0.0490086
1395,201.648,0.0494542
1410,202.397,0.0498113
1425,203.148,0.0500196
1440,203.898,0.050232
1455,204.648,0.050585
1470,205.398,0.0507314
1485,206.148,0.0509152
1500,206.898,0.0512021
1515,207.649,0.0514064
1530,208.4,0.0515818
1545,209.15,0.0516993
1560,209.9,0.0520857
1575,210.65,0.0522614
1590,211.4,0.0522578
1605,212.15,0.052403
1620,212.9,0.0526672
1635,213.651,0.0527309
1650,214.401,0.0528769
1665,215.152,0.0530192
1680,215.902,0.0533786
1695,216.652,0.0533402
1710,217.402,0.05352
1725,218.151,0.0535868
1740,218.9,0.0538449
1755,219.65,0.0541612
1770,220.401,0.0543667
1785,221.151,0.0545196
1800,221.903,0.0545823
1815,222.654,0.0547488
1830,223.405,0.0548727
1845,224.156,0.055063
1860,224.906,0.0551012
1875,225.656,0.0553666
1890,226.407,0.0554138
1905,227.158,0.0556374
1920,227.911,0.0559078
1935,228.656,0.0558851
1950,229.403,0.0558975
1965,230.157,0.0562493
1980,230.912,0.0562746
1995,231.66,0.0561392
2010,232.407,0.0564239
2025,233.147,0.0564309
2040,233.884,0.0564515
2055,234.635,0.0572812
2070,235.39,0.0579035
2085,236.145,0.0581359
2100,236.897,0.0582207
2115,237.65,0.0584457
2130,238.401,0.0587437
2145,239.153,0.0589503
2160,239.903,0.0591395
2175,240.654,0.0594112
2190,241.404,0.0597317
2205,242.155,0.0598625
2220,242.906,0.0601649
2235,243.655,0.0604596
2250,244.406,0.0606827
2265,245.156,0.0609089
2280,245.906,0.0610681
2295,246.657,0.0611466
2310,247.406,0.0613222
2325,248.157,0.0615998
2340,248.907,0.0618716
2355,249.657,0.062142
2370,250.408,0.0624378
2385,251.159,0.0626609
2400,251.909,0.0629586
2415,252.659,0.0632043
2430,253.41,0.0635531
2445,254.16,0.0638052
2460,254.91,0.0639411
2475,255.66,0.0642608
2490,256.41,0.0646562
2505,257.16,0.0650235
2520,257.91,0.0654179
2535,258.66,0.0660494
2550,259.41,0.0664456
2565,260.158,0.066861
2580,260.908,0.0674451
2595,261.658,0.0680363
2610,262.409,0.0686782
2625,263.159,0.0694841
2640,263.909,0.070458
2655,264.659,0.0715337
2670,265.409,0.0722795
2685,266.158,0.0730541
2700,266.908,0.073785
2715,267.658,0.0745011
2730,268.41,0.0754026
2745,269.159,0.0764261
2760,269.91,0.0773048
2775,270.659,0.0783455
2790,271.41,0.0795467
2805,272.159,0.0804913
2820,272.909,0.0813499
2835,273.658,0.0819374
2850,274.408,0.0827084
2865,275.159,0.0833598
2880,275.908,0.0839838
2895,276.659,0.084643
2910,277.408,0.0851532
2925,278.159,0.0858262
2940,278.909,0.0862699
2955,279.66,0.086992
2970,280.409,0.0876587
2985,281.159,0.0883382
3000,281.909,0.089003
3015,282.659,0.0894359
3030,283.409,0.0898411
3045,284.159,0.090052
3060,284.909,0.0902405
3075,285.659,0.0903193
3090,286.409,0.0907011
3105,287.159,0.0910896
3120,287.909,0.0914578
3135,288.659,0.0917788
3150,289.41,0.0919563
3165,290.161,0.0919501
3180,290.911,0.0921817
3195,291.661,0.092277
3210,292.411,0.0922433
3225,293.16,0.0918329
3240,293.91,0.0917031
3255,294.661,0.0914839
3270,295.412,0.0910626
3285,296.162,0.0911285
3300,296.912,0.0910489
3315,297.663,0.090799
3330,298.412,0.0907669
3345,299.162,0.090712
3360,299.913,0.0907473
3375,300.663,0.0905639
3390,301.414,0.0905121
3405,302.163,0.0905001
3420,302.915,0.0907254
3435,303.664,0.0908218
3450,304.415,0.0907377
3465,305.165,0.0905045
3480,305.915,0.0903955
3495,306.665,0.090298
3510,307.416,0.090395
3525,308.166,0.0903568
3540,308.917,0.0902552
3555,309.667,0.0903288
3570,310.417,0.090192
3585,311.167,0.090093
3600,311.918,0.0902936
3615,312.667,0.0903016
3630,313.416,0.0901621
3645,314.167,0.0901934
3660,314.917,0.0900695
3675,315.668,0.0899742
3690,316.418,0.0898783
3705,317.169,0.0898654
3720,317.918,0.0899592
3735,318.669,0.090097
3750,319.419,0.0901239
3765,320.169,0.0900623
3780,320.919,0.090267
3795,321.669,0.0902083
3810,322.419,0.0900841
3825,323.168,0.089853
3840,323.919,0.0898134
3855,324.669,0.0898151
3870,325.419,0.0899495
3885,326.17,0.0900918
3900,326.919,0.0899314
3915,327.67,0.0898672
3930,328.42,0.0900654
3945,329.17,0.0902061
3960,329.921,0.0902561
3975,330.67,0.090375
3990,331.421,0.0905031
4005,332.171,0.0908075
4020,332.921,0.0907806
4035,333.671,0.0908593
4050,334.421,0.0909161
4065,335.171,0.0909751
4080,335.922,0.0910736
4095,336.672,0.0912118
4110,337.423,0.0914277
4125,338.173,0.0916096
4140,338.922,0.0917316
4155,339.672,0.0917718
4170,340.423,0.0919826
4185,341.174,0.0921894
4200,341.924,0.0923195
4215,342.675,0.0925828
4230,343.424,0.0929992
4245,344.173,0.0931804
4260,344.924,0.0934231
4275,345.675,0.0934951
4290,346.426,0.0938422
4305,347.177,0.0942919
4320,347.925,0.0943153
4335,348.675,0.0944893
4350,349.426,0.0946194
4365,350.175,0.0947505
4380,350.926,0.0951173
4395,351.676,0.0954743
4410,352.425,0.0954227
4425,353.175,0.0955476
4440,353.925,0.0957879
4455,354.675,0.095871
4470,355.425,0.0961755
4485,356.176,0.0963532
4500,356.927,0.0964624
4515,357.675,0.0967841
4530,358.425,0.0968763
4545,359.176,0.0971847
4560,359.926,0.0973111
4575,360.677,0.0976218
4590,361.427,0.0980126
4605,362.178,0.0986296
4620,362.927,0.0991568
4635,363.677,0.0993786
4650,364.428,0.0997544
4665,365.178,0.099984
4680,365.928,0.100083
4695,366.677,0.100406
4710,367.427,0.100616
4725,368.178,0.101004
4740,368.928,0.101124
4755,369.679,0.101576
4770,370.429,0.102149
4785,371.177,0.102487
4800,371.928,0.102965
4815,372.677,0.102878
4830,373.428,0.103484
4845,374.178,0.104118
4860,374.927,0.104452
4875,375.677,0.104981
4890,376.427,0.105028
4905,377.178,0.105745
4920,377.928,0.106304
4935,378.678,0.106754
4950,379.427,0.107169
4965,380.177,0.107692
4980,380.926,0.108077
4995,381.678,0.108534
5010,382.428,0.108203
5025,383.177,0.108141
5040,383.927,0.10963
5055,384.678,0.110632
5070,385.429,0.111792
5085,386.181,0.112723
5100,386.93,0.1139
5115,387.68,0.114876
5130,388.43,0.11619
5145,389.179,0.117172
5160,389.928,0.118037
5175,390.678,0.118861
5190,391.429,0.119839
5205,392.178,0.120786
5220,392.928,0.121637
5235,393.676,0.122641
5250,394.427,0.123535
5265,395.178,0.124414
5280,395.929,0.125542
5295,396.678,0.126496
5310,397.428,0.127258
5325,398.177,0.128101
5340,398.927,0.128966
5355,399.678,0.129788
5370,400.427,0.13026
5385,401.177,0.130402
5400,401.927,0.130671
5415,402.675,0.130787
5430,403.425,0.130819
5445,404.176,0.130959
5460,404.926,0.131136
5475,405.679,0.131626
5490,406.428,0.131781
5505,407.178,0.132111
5520,407.93,0.13238
5535,408.682,0.132837
5550,409.43,0.132975
5565,410.18,0.133569
5580,410.93,0.13396
5595,411.679,0.134138
5610,412.428,0.134372
5625,413.179,0.134729
5640,413.928,0.134989
5655,414.678,0.135297
5670,415.428,0.13551
5685,416.178,0.135701
5700,416.927,0.135819
5715,417.678,0.13609
5730,418.428,0.136139
5745,419.178,0.136219
5760,419.928,0.13627
5775,420.676,0.136602
5790,421.426,0.136977
5805,422.175,0.137281
5820,422.926,0.137601
5835,423.675,0.137774
5850,424.424,0.137695
5865,425.174,0.137853
5880,425.926,0.138113
5895,426.676,0.138239
5910,427.425,0.138555
5925,428.176,0.138834
5940,428.927,0.138907
5955,429.682,0.138393
5970,430.428,0.136511
5985,431.177,0.135694
6000,431.927,0.135311
6015,432.677,0.135223
6030,433.17,0.087405
6045,433.185,0.0594396
6060,433.191,0.0560841
6075,433.195,0.0544246
6090,433.195,0.0533364
6105,433.197,0.0527639
6120,433.199,0.0524109
6135,433.197,0.0518819
6150,433.196,0.0515973
6165,433.196,0.0515486
6180,433.196,0.051294
6195,433.197,0.0513235
6210,433.198,0.0510607
6225,433.197,0.0506541
6240,433.196,0.0506014
6255,433.198,0.0505792
6270,433.198,0.0505007
6285,433.197,0.0503645
6300,433.196,0.0502082
6315,433.196,0.050152
6330,433.197,0.0500751
6345,433.197,0.0500193
6360,433.196,0.0499202
6375,433.197,0.0499302
6390,433.196,0.0497863
6405,433.198,0.0497603
6420,433.197,0.0495541
6435,433.196,0.0493598
6450,433.199,0.0496134
6465,433.198,0.0494841
6480,433.198,0.0494549
6495,433.198,0.0494382
6510,433.197,0.0492221
6525,433.198,0.0491545
6540,433.198,0.0491132
6555,433.197,0.0489802
6570,433.197,0.0490367
6585,433.196,0.0489922
6600,433.196,0.0490635
6615,433.197,0.0491298
6630,432.966,-0.0142249
6645,432.243,-0.0291283
6660,431.5,-0.0309471
6675,430.755,-0.0320105
6690,430.008,-0.0325129
6705,429.262,-0.0330176
6720,428.513,-0.0335761
6735,427.763,-0.0338409
6750,427.013,-0.0340421
6765,426.263,-0.0341985
6780,425.511,-0.0344174
6795,424.762,-0.034474
6810,424.012,-0.0345438
6825,423.263,-0.034543
6840,422.514,-0.0345672
6855,421.765,-0.0347828
6870,421.015,-0.0348806
6885,420.265,-0.0350367
6900,419.515,-0.0350889
6915,418.765,-0.0352054
6930,418.015,-0.0351658
6945,417.266,-0.0352783
6960,416.516,-0.0353224
6975,415.768,-0.0352831
6990,415.016,-0.0354352
7005,414.266,-0.0355728
7020,413.517,-0.0355793
7035,412.768,-0.0354201
7050,412.016,-0.0356961
7065,411.266,-0.0355311
7080,410.518,-0.035331
7095,409.767,-0.0354455
7110,409.017,-0.0353352
7125,408.267,-0.0353382
7140,407.519,-0.0351203
7155,406.769,-0.0351715
7170,406.018,-0.0353907
7185,405.267,-0.0351007
7200,404.517,-0.0349935
7215,403.767,-0.0346773
7230,403.02,-0.0345106
7245,402.27,-0.0348134
7260,401.52,-0.0346243
7275,400.77,-0.0342582
7290,400.02,-0.0340927
7305,399.27,-0.0337798
7320,398.521,-0.0336236
7335,397.771,-0.0332561
7350,397.02,-0.0329094
7365,396.27,-0.0323576
7380,395.521,-0.0318816
7395,394.771,-0.0315036
7410,394.023,-0.0308322
7425,393.274,-0.0305897
7440,392.522,-0.0299064
7455,391.77,-0.0293354
7470,391.019,-0.0284447
7485,390.269,-0.0276771
7500,389.52,-0.0268773
7515,388.772,-0.0263326
7530,388.023,-0.0261134
7545,387.274,-0.0257244
7560,386.522,-0.0252984
7575,385.773,-0.0248968
7590,385.024,-0.0246214
7605,384.275,-0.0241356
7620,383.525,-0.0239122
7635,382.775,-0.0236514
7650,382.026,-0.0234653
7665,381.276,-0.0232129
7680,380.526,-0.0231732
7695,379.773,-0.0228507
7710,379.026,-0.0222879
7725,378.277,-0.0220556
7740,377.529,-0.0219884
7755,376.778,-0.0220004
7770,376.028,-0.0218379
7785,375.278,-0.0216199
7800,374.529,-0.0216341
7815,373.779,-0.0217457
7830,373.028,-0.0216992
7845,372.276,-0.021446
7860,371.522,-0.0209154
7875,370.774,-0.0203809
7890,370.025,-0.0200371
7905,369.274,-0.0197778
7920,368.526,-0.0196111
7935,367.777,-0.0196795
7950,367.026,-0.0196391
7965,366.278,-0.0195509
7980,365.527,-0.0195217
7995,364.775,-0.019145
8010,364.026,-0.0189217
8025,363.276,-0.0188124
8040,362.527,-0.0188158
8055,361.777,-0.018936
8070,361.027,-0.0189183
8085,360.275,-0.0188724
8100,359.527,-0.0187469
8115,358.777,-0.0188539
8130,358.028,-0.0191374
8145,357.279,-0.0195757
8160,356.53,-0.0197121
8175,355.779,-0.019801
8190,355.03,-0.0200682
8205,354.281,-0.0201851
8220,353.53,-0.0204591
8235,352.78,-0.0205715
8250,352.029,-0.0206849
8265,351.279,-0.0208778
8280,350.529,-0.0209465
8295,349.78,-0.02106
8310,349.03,-0.0211625
8325,348.28,-0.0213444
8340,347.531,-0.0216741
8355,346.782,-0.0218513
8370,346.031,-0.0216639
8385,345.282,-0.0218198
8400,344.532,-0.0221161
8415,343.783,-0.0220039
8430,343.034,-0.022192
8445,342.284,-0.0224885
8460,341.534,-0.022846
8475,340.785,-0.0229042
8490,340.035,-0.023087
8505,339.285,-0.0229397
8520,338.535,-0.0231623
8535,337.787,-0.0234284
8550,337.037,-0.0234158
8565,336.286,-0.023637
8580,335.537,-0.023655
8595,334.787,-0.0234651
8610,334.038,-0.0235815
8625,333.288,-0.0237107
8640,332.538,-0.0238297
8655,331.787,-0.0237307
8670,331.038,-0.0240449
8685,330.289,-0.0240698
8700,329.539,-0.0242861
8715,328.788,-0.0243383
8730,328.038,-0.0243081
8745,327.288,-0.0243855
8760,326.537,-0.0242727
8775,325.788,-0.0243663
8790,325.037,-0.0244681
8805,324.287,-0.0246145
8820,323.537,-0.0248981
8835,322.786,-0.0247984
8850,322.037,-0.0247782
8865,321.287,-0.0246517
8880,320.536,-0.0247577
8895,319.787,-0.0247512
8910,319.037,-0.0248282
8925,318.288,-0.0245341
8940,317.538,-0.0246721
8955,316.788,-0.0245958
8970,316.038,-0.0246744
8985,315.288,-0.0248735
9000,314.538,-0.0248984
9015,313.79,-0.0247852
9030,313.039,-0.0249251
9045,312.288,-0.0249628
9060,311.538,-0.0248652
9075,310.79,-0.025055
9090,310.04,-0.0253948
9105,309.291,-0.0252962
9120,308.54,-0.0256093
9135,307.79,-0.0256099
9150,307.041,-0.0257563
9165,306.29,-0.0258544
9180,305.54,-0.0256876
9195,304.79,-0.0258671
9210,304.04,-0.0258121
9225,303.29,-0.0257344
9240,302.54,-0.0257527
9255,301.789,-0.0260186
9270,301.038,-0.0258934
9285,300.287,-0.0260051
9300,299.536,-0.0259843
9315,298.787,-0.026052
9330,298.038,-0.026085
9345,297.288,-0.0259409
9360,296.539,-0.0257267
9375,295.787,-0.0258399
9390,295.037,-0.0259748
9405,294.287,-0.0258735
9420,293.538,-0.0260296
9435,292.788,-0.0259768
9450,292.039,-0.0258235
9465,291.289,-0.0259279
9480,290.539,-0.0259686
9495,289.789,-0.0258279
9510,289.039,-0.0259832
9525,288.288,-0.0260965
9540,287.538,-0.0259035
9555,286.788,-0.0260956
9570,286.038,-0.0262085
9585,285.289,-0.0262447
9600,284.539,-0.0261402
9615,283.789,-0.0262914
9630,283.039,-0.0264486
9645,282.288,-0.026411
9660,281.539,-0.026459
9675,280.79,-0.0265533
9690,280.04,-0.0265135
9705,279.29,-0.0267989
9720,278.538,-0.0266586
9735,277.788,-0.026811
9750,277.039,-0.0267387
9765,276.289,-0.0267725
9780,275.539,-0.0267826
9795,274.789,-0.0267687
9810,274.039,-0.0267087
9825,273.289,-0.0268205
9840,272.539,-0.0269048
9855,271.789,-0.0270637
9870,271.039,-0.0270172
9885,270.289,-0.0270442
9900,269.539,-0.027383
9915,268.789,-0.0274117
9930,268.039,-0.0275629
9945,267.288,-0.0275352
9960,266.539,-0.0272887
9975,265.789,-0.0272583
9990,265.038,-0.0274802
10005,264.288,-0.0275986
10020,263.538,-0.0275254
10035,262.788,-0.0276777
10050,262.039,-0.0276912
10065,261.288,-0.0276308
10080,260.538,-0.0278786
10095,259.789,-0.0278354
10110,259.04,-0.028027
10125,258.29,-0.0279563
10140,257.539,-0.0281499
10155,256.789,-0.0281162
10170,256.039,-0.0283044
10185,255.289,-0.0284476
10200,254.539,-0.0285008
10215,253.789,-0.028552
10230,253.039,-0.0286527
10245,252.288,-0.0288349
10260,251.539,-0.0288562
10275,250.788,-0.0288851
10290,250.039,-0.028919
10305,249.289,-0.0288083
10320,248.539,-0.0289433
10335,247.788,-0.0288468
10350,247.038,-0.0290174
10365,246.287,-0.0290396
10380,245.538,-0.0291968
10395,244.788,-0.0291262
10410,244.038,-0.02931
10425,243.288,-0.0294817
10440,242.537,-0.0294845
10455,241.787,-0.0295277
10470,241.037,-0.0297403
10485,240.287,-0.0296649
10500,239.537,-0.0297471
10515,238.786,-0.029697
10530,238.036,-0.0298173
10545,237.287,-0.0300454
10560,236.537,-0.0301931
10575,235.787,-0.0301613
10590,235.037,-0.0302904
10605,234.286,-0.0303165
10620,233.536,-0.0304635
10635,232.786,-0.0305802
10650,232.036,-0.0306263
10665,231.285,-0.0306494
10680,230.535,-0.030566
10695,229.785,-0.0308895
10710,229.036,-0.0309401
10725,228.285,-0.0309916
10740,227.536,-0.0311685
10755,226.786,-0.0312372
10770,226.036,-0.0314447
10785,225.285,-0.0313813
10800,224.535,-0.0313775
10815,223.784,-0.0316424
10830,223.034,-0.0315934
10845,222.284,-0.0315739
10860,221.534,-0.0316167
10875,220.783,-0.0317339
10890,220.033,-0.0319427
10905,219.283,-0.031943
10920,218.532,-0.0319926
10935,217.782,-0.0323102
10950,217.032,-0.032334
10965,216.282,-0.0322573
10980,215.532,-0.0323296
10995,214.782,-0.0327605
11010,214.032,-0.0326212
11025,213.282,-0.0327038
11040,212.531,-0.0327628
11055,211.782,-0.0327202
11070,211.031,-0.0328043
11085,210.281,-0.0326706
11100,209.531,-0.0326164
11115,208.781,-0.0326604
11130,208.03,-0.032825
11145,207.28,-0.0328511
11160,206.53,-0.0330235
11175,205.78,-0.033135
11190,205.03,-0.0330862
11205,204.28,-0.033163
11220,203.529,-0.0332368
11235,202.779,-0.0332401
11250,202.029,-0.0331087
11265,201.278,-0.033292
11280,200.528,-0.0333643
11295,199.778,-0.033408
11310,199.027,-0.033337
11325,198.278,-0.03314
11340,197.526,-0.0331629
11355,196.775,-0.0329138
11370,196.026,-0.0326143
11385,195.277,-0.0324358
11400,194.53,-0.0323205
11415,193.784,-0.0322097
11430,193.277,-0.021807
11445,193.233,-0.0037001
11460,193.217,0.00189345
11475,193.209,0.00455533
11490,193.203,0.00615326
11505,193.199,0.00709761
11520,193.196,0.00763331
11535,193.194,0.00812291
11550,193.194,0.00849836
11565,193.193,0.00864751
11580,193.192,0.0088877
11595,193.192,0.00897932
11610,193.192,0.00908215
11625,193.192,0.00918172
11640,193.192,0.00931256
11655,193.192,0.00940778
11670,193.192,0.0093532
11685,193.192,0.00945258
11700,193.192,0.00939466
11715,193.192,0.00947213
11730,193.192,0.0094907
11745,193.192,0.00934138
11760,193.192,0.00918842
11775,193.191,0.00921591
11790,193.191,0.00933791
11805,193.191,0.00938919
11820,193.191,0.00943283
11835,193.191,0.00963456
11850,193.191,0.00967511
11865,193.191,0.00963921
11880,193.192,0.00974504
11895,193.191,0.00970362
11910,193.192,0.00974066
11925,193.191,0.00969917
11940,193.191,0.00989225
11955,193.191,0.0096619
11970,193.191,0.00975238
11985,193.191,0.00976624
12000,193.191,0.00980775
12015,193.191,0.0097623
12030,193.41,0.0149606
12045,194.123,0.0385598
12060,194.864,0.0435549
12075,195.607,0.0460696
12090,196.353,0.0476742
12105,197.1,0.0485479
12120,197.848,0.0492582
12135,198.597,0.0498187
12150,199.346,0.0501884
12165,200.096,0.0505789
12180,200.846,0.0510025
12195,201.596,0.0513027
12210,202.346,0.0514756
12225,203.095,0.0519159
12240,203.846,0.0524239
12255,204.596,0.0527422
12270,205.346,0.0529185
12285,206.096,0.0533308
12300,206.847,0.0535494
12315,207.596,0.0537452
12330,208.347,0.0538989
12345,209.097,0.0541819
12360,209.847,0.0544798
12375,210.597,0.0547927
12390,211.347,0.0549359
12405,212.097,0.0550609
12420,212.848,0.0552918
12435,213.598,0.0554603
12450,214.348,0.0554365
12465,215.098,0.0556158
12480,215.848,0.055811
12495,216.598,0.0560113
12510,217.348,0.0562442
12525,218.098,0.056329
12540,218.849,0.0566046
12555,219.599,0.0567814
12570,220.348,0.0569814
12585,221.099,0.0571006
12600,221.848,0.057266
12615,222.598,0.0574556
12630,223.349,0.0576132
12645,224.099,0.0576497
12660,224.849,0.0577077
12675,225.6,0.0578707
12690,226.35,0.0580377
12705,227.1,0.0581864
12720,227.85,0.0583642
12735,228.6,0.0585567
12750,229.349,0.0586133
12765,230.1,0.0588364
12780,230.851,0.0589391
12795,231.601,0.0590572
12810,232.351,0.0591565
12825,233.101,0.05948
12840,233.851,0.059771
12855,234.602,0.0600638
12870,235.352,0.060297
12885,236.102,0.0605111
12900,236.851,0.0605574
12915,237.601,0.0607901
12930,238.351,0.0609389
12945,239.101,0.0612042
12960,239.851,0.0612412
12975,240.602,0.0615264
12990,241.352,0.0617129
13005,242.102,0.0620443
13020,242.852,0.0621468
13035,243.602,0.0623319
13050,244.353,0.0624854
13065,245.103,0.0627051
13080,245.853,0.0627637
13095,246.603,0.0630525
13110,247.353,0.0632518
13125,248.103,0.0635108
13140,248.853,0.0637411
13155,249.602,0.06387
13170,250.353,0.0640173
13185,251.103,0.0642946
13200,251.853,0.0645065
13215,252.604,0.0647869
13230,253.354,0.0648763
13245,254.104,0.065091
13260,254.854,0.0652039
13275,255.603,0.0653824
13290,256.354,0.0655732
13305,257.104,0.0658042
13320,257.854,0.0659519
13335,258.605,0.0661903
13350,259.355,0.0663892
13365,260.105,0.066561
13380,260.856,0.0668651
13395,261.607,0.067279
13410,262.355,0.0674724
13425,263.104,0.0677105
13440,263.853,0.0677141
13455,264.603,0.0680673
13470,265.354,0.068347
13485,266.104,0.0684761
13500,266.854,0.0687631
13515,267.605,0.0690579
13530,268.354,0.0693498
13545,269.105,0.0696959
13560,269.857,0.069999
13575,270.606,0.0702851
13590,271.357,0.0706092
13605,272.107,0.0708693
13620,272.857,0.0710901
13635,273.607,0.0713945
13650,274.357,0.0714655
13665,275.108,0.0716351
13680,275.859,0.0718983
13695,276.609,0.0721765
13710,277.358,0.0723617
13725,278.109,0.0727672
13740,278.859,0.0730739
13755,279.608,0.0731869
13770,280.358,0.0734296
13785,281.109,0.0736659
13800,281.859,0.0739556
13815,282.609,0.0741517
13830,283.359,0.0743726
13845,284.11,0.0746789
13860,284.86,0.0750116
13875,285.611,0.0752754
13890,286.36,0.0754559
13905,287.111,0.075606
13920,287.86,0.075785
13935,288.611,0.0761327
13950,289.362,0.0765724
13965,290.111,0.0767876
13980,290.861,0.0772823
13995,291.612,0.0774558
14010,292.362,0.0778245
14025,293.112,0.0779311
14040,293.862,0.078212
14055,294.612,0.0784279
14070,295.363,0.0786998
14085,296.112,0.0788749
14100,296.862,0.0791457
14115,297.613,0.079408
14130,298.363,0.0796843
14145,299.114,0.0799331
14160,299.863,0.0801603
14175,300.614,0.080345
14190,301.364,0.0805685
14205,302.114,0.0808131
14220,302.865,0.0809875
14235,303.614,0.0812754
14250,304.364,0.0814788
14265,305.115,0.0818196
14280,305.864,0.0820789
14295,306.616,0.0824222
14310,307.366,0.0827499
14325,308.116,0.0828769
14340,308.865,0.0832391
14355,309.616,0.0834178
14370,310.365,0.0835633
14385,311.116,0.0838046
14400,311.866,0.0839726
14415,312.616,0.0842476
14430,313.366,0.084595
14445,314.116,0.0847856
14460,314.866,0.0848591
14475,315.617,0.0850858
14490,316.367,0.085305
14505,317.117,0.0858039
14520,317.868,0.0859505
14535,318.617,0.0861614
14550,319.367,0.0863792
14565,320.118,0.0866731
14580,320.868,0.0868318
14595,321.618,0.0869803
14610,322.369,0.0872154
14625,323.119,0.087407
14640,323.868,0.0877144
14655,324.619,0.0879162
14670,325.369,0.088293
14685,326.118,0.0885081
14700,326.869,0.0887159
14715,327.62,0.0890676
14730,328.371,0.0892431
14745,329.12,0.0892951
14760,329.87,0.0893838
14775,330.62,0.0896923
14790,331.37,0.0898297
14805,332.119,0.0902186
14820,332.869,0.0904454
14835,333.619,0.0906631
14850,334.37,0.091105
14865,335.121,0.0913087
14880,335.87,0.0914084
14895,336.62,0.0915799
14910,337.37,0.0919432
14925,338.121,0.0923228
14940,338.871,0.0923557
14955,339.621,0.0927612
14970,340.371,0.0929034
14985,341.12,0.0930437
15000,341.871,0.0933723
15015,342.621,0.0936767
15030,343.37,0.0938957
15045,344.121,0.0943678
15060,344.871,0.094371
15075,345.621,0.0946893
15090,346.371,0.0951643
15105,347.121,0.0953049
15120,347.872,0.0955008
15135,348.622,0.0957774
15150,349.372,0.0962627
15165,350.123,0.0965269
15180,350.873,0.0968089
15195,351.624,0.096926
15210,352.374,0.0971479
15225,353.123,0.0972636
15240,353.873,0.0975154
15255,354.623,0.0977549
15270,355.373,0.0979584
15285,356.124,0.0983402
15300,356.874,0.0985921
15315,357.624,0.0989068
15330,358.374,0.0991504
15345,359.125,0.0995156
15360,359.875,0.099853
15375,360.626,0.100208
15390,361.375,0.100659
15405,362.125,0.101113
15420,362.875,0.101737
15435,363.626,0.102175
15450,364.375,0.102472
15465,365.125,0.102599
15480,365.874,0.10278
15495,366.624,0.103141
15510,367.376,0.103561
15525,368.125,0.10393
15540,368.875,0.104307
15555,369.625,0.104764
15570,370.375,0.105329
15585,371.124,0.105702
15600,371.875,0.106015
15615,372.624,0.106341
15630,373.374,0.106586
15645,374.124,0.106963
15660,374.875,0.10731
15675,375.626,0.107828
15690,376.375,0.108138
15705,377.125,0.108498
15720,377.876,0.1089
15735,378.626,0.109294
15750,379.376,0.109809
15765,380.125,0.110375
15780,380.876,0.110907
15795,381.628,0.111554
15810,382.377,0.112107
15825,383.127,0.112668
15840,383.876,0.113299
15855,384.625,0.11407
15870,385.378,0.11481
15885,386.128,0.115502
15900,386.878,0.116104
15915,387.627,0.11709
15930,388.377,0.11792
15945,389.127,0.118738
15960,389.878,0.119556
15975,390.629,0.120699
15990,391.379,0.121698
16005,392.13,0.122871
16020,392.879,0.123746
16035,393.63,0.124975
16050,394.378,0.126102
16065,395.128,0.127319
16080,395.877,0.128374
16095,396.628,0.129494
16110,397.378,0.130357
16125,398.127,0.131261
16140,398.877,0.132297
16155,399.627,0.132843
16170,400.376,0.133318
16185,401.126,0.133762
16200,401.876,0.133843
16215,402.626,0.133851
16230,403.375,0.133816
16245,404.126,0.134011
16260,404.874,0.133982
16275,405.625,0.134271
16290,406.375,0.134244
16305,407.127,0.134201
16320,407.877,0.133999
16335,408.627,0.133942
16350,409.378,0.134108
16365,410.128,0.133989
16380,410.877,0.13376
16395,411.626,0.133838
16410,412.377,0.133852
16425,413.127,0.133898
16440,413.876,0.133881
16455,414.625,0.133988
16470,415.375,0.134127
16485,416.125,0.134244
16500,416.875,0.134306
16515,417.625,0.134379
16530,418.375,0.134384
16545,419.126,0.134329
16560,419.875,0.134348
16575,420.624,0.134446
16590,421.373,0.134716
16605,422.125,0.134939
16620,422.875,0.134961
16635,423.623,0.134827
16650,424.374,0.134973
16665,425.124,0.134895
16680,425.874,0.134956
16695,426.624,0.134978
16710,427.374,0.135004
16725,428.123,0.135132
16740,428.873,0.135237
16755,429.623,0.135261
16770,430.374,0.135529
16785,431.125,0.135557
16800,431.874,0.135501
16815,432.622,0.135419
16830,433.164,0.0977963
16845,433.186,0.0598676
16860,433.19,0.0561658
16875,433.194,0.0545278
16890,433.195,0.053418
16905,433.196,0.0526521
16920,433.196,0.0522051
16935,433.196,0.0518601
16950,433.197,0.0514898
16965,433.196,0.0512916
16980,433.197,0.0512175
16995,433.197,0.050993
17010,433.196,0.0507746
17025,433.196,0.0508614
17040,433.196,0.0506882
17055,433.197,0.050569
17070,433.196,0.0503377
17085,433.195,0.0504062
17100,433.196,0.0504103
17115,433.196,0.0502016
17130,433.196,0.0499765
17145,433.195,0.0497908
17160,433.195,0.0498879
17175,433.195,0.0498501
17190,433.194,0.0499579
17205,433.195,0.0500261
17220,433.194,0.0500085
17235,433.195,0.049966
17250,433.196,0.0497915
17265,433.195,0.0497523
17280,433.196,0.0496992
17295,433.196,0.0496211
17310,433.196,0.0495743
17325,433.198,0.0497178
17340,433.198,0.0495807
17355,433.197,0.0492286
17370,433.196,0.0491241
17385,433.197,0.0491298
17400,433.197,0.0492022
17415,433.197,0.048985
17430,433.012,-0.00496245
17445,432.294,-0.0293916
17460,431.552,-0.0310267
17475,430.808,-0.0319945
17490,430.062,-0.0327462
17505,429.312,-0.0333865
17520,428.563,-0.0334701
17535,427.814,-0.033756
17550,427.064,-0.0339827
17565,426.315,-0.0340756
17580,425.565,-0.0340834
17595,424.815,-0.0342173
17610,424.065,-0.0343006
17625,423.317,-0.034485
17640,422.567,-0.0348398
17655,421.816,-0.0350092
17670,421.067,-0.0351792
17685,420.317,-0.0353001
17700,419.568,-0.0352696
17715,418.816,-0.0355806
17730,418.063,-0.0354382
17745,417.313,-0.0348478
17760,416.564,-0.0346449
17775,415.815,-0.0343099
17790,415.066,-0.0343449
17805,414.317,-0.0340385
17820,413.568,-0.0340031
17835,412.817,-0.0339562
17850,412.067,-0.0339166
17865,411.317,-0.033739
17880,410.566,-0.0336741
17895,409.819,-0.0334428
17910,409.072,-0.0335555
17925,408.325,-0.0338732
17940,407.575,-0.0342706
17955,406.825,-0.0346014
17970,406.075,-0.0348446
17985,405.324,-0.0350297
18000,404.573,-0.0349018
18015,403.821,-0.0347371
18030,403.07,-0.0343366
18045,402.32,-0.0339493
18060,401.571,-0.0336448
18075,400.82,-0.0334053
18090,400.071,-0.0331758
18105,399.321,-0.0327481
18120,398.571,-0.0322523
18135,397.824,-0.0317284
18150,397.073,-0.0315744
18165,396.324,-0.0310161
18180,395.572,-0.0306235
18195,394.824,-0.030081
18210,394.074,-0.0296064
18225,393.323,-0.0291159
18240,392.573,-0.0286451
18255,391.823,-0.0277849
18270,391.074,-0.027389
18285,390.324,-0.0269539
18300,389.575,-0.0263301
18315,388.825,-0.025944
18330,388.076,-0.025417
18345,387.327,-0.025064
18360,386.577,-0.0250566
18375,385.828,-0.0246207
18390,385.077,-0.0244395
18405,384.327,-0.0239542
18420,383.576,-0.0235829
18435,382.826,-0.0231848
18450,382.077,-0.0228775
18465,381.326,-0.0226983
18480,380.576,-0.0223736
18495,379.826,-0.0219942
18510,379.075,-0.0216776
18525,378.324,-0.0211696
18540,377.576,-0.0208836
18555,376.826,-0.0206959
18570,376.078,-0.020403
18585,375.327,-0.0203553
18600,374.578,-0.020392
18615,373.827,-0.020172
18630,373.076,-0.0199545
18645,372.326,-0.0197296
18660,371.576,-0.0196003
18675,370.828,-0.0195109
18690,370.081,-0.0195102
18705,369.332,-0.0199701
18720,368.583,-0.0200229
18735,367.833,-0.0201944
18750,367.083,-0.0200653
18765,366.335,-0.0200441
18780,365.583,-0.0202829
18795,364.831,-0.0201505
18810,364.081,-0.0202104
18825,363.331,-0.0198941
18840,362.581,-0.0198644
18855,361.831,-0.0198134
18870,361.08,-0.0200239
18885,360.333,-0.0200189
18900,359.583,-0.0202174
18915,358.831,-0.0203045
18930,358.077,-0.020145
18945,357.327,-0.0201433
18960,356.577,-0.0200625
18975,355.827,-0.020134
18990,355.079,-0.0203415
19005,354.331,-0.0205359
19020,353.581,-0.0206711
19035,352.831,-0.0210378
19050,352.082,-0.0212983
19065,351.332,-0.0217745
19080,350.583,-0.0220409
19095,349.833,-0.0223246
19110,349.082,-0.0226271
19125,348.333,-0.0227092
19140,347.586,-0.0225844
19155,346.837,-0.0228352
19170,346.088,-0.0229197
19185,345.336,-0.0230032
19200,344.585,-0.0232866
19215,343.835,-0.0231251
19230,343.083,-0.0230644
19245,342.333,-0.0234817
19260,341.584,-0.0240142
19275,340.836,-0.0243039
19290,340.085,-0.0243067
19305,339.336,-0.0245063
19320,338.586,-0.0247012
19335,337.835,-0.0249089
19350,337.086,-0.0251012
19365,336.337,-0.0252762
19380,335.586,-0.0251211
19395,334.835,-0.025551
19410,334.085,-0.0256386
19425,333.334,-0.0259729
19440,332.585,-0.0261309
19455,331.836,-0.0263165
19470,331.087,-0.0261961
19485,330.336,-0.0261801
19500,329.587,-0.0265117
19515,328.838,-0.0265073
19530,328.089,-0.026391
19545,327.339,-0.0263462
19560,326.589,-0.0265497
19575,325.839,-0.0266908
19590,325.089,-0.0267276
19605,324.339,-0.0266635
19620,323.589,-0.0266127
19635,322.839,-0.0266285
19650,322.089,-0.0265106
19665,321.34,-0.026606
19680,320.589,-0.0266427
19695,319.841,-0.0266772
19710,319.09,-0.0267365
19725,318.339,-0.0268155
19740,317.59,-0.0266235
19755,316.84,-0.0265735
19770,316.09,-0.0267735
19785,315.34,-0.0268897
19800,314.591,-0.0267534
19815,313.841,-0.0267352
19830,313.091,-0.0270835
19845,312.341,-0.0270801
19860,311.59,-0.0272349
19875,310.84,-0.0272915
19890,310.09,-0.0272517
19905,309.34,-0.0272604
19920,308.59,-0.0273805
19935,307.84,-0.0273923
19950,307.091,-0.027441
19965,306.341,-0.0271985
19980,305.591,-0.0271205
19995,304.84,-0.0272925
20010,304.089,-0.0273452
20025,303.34,-0.0274135
20040,302.591,-0.0274659
20055,301.841,-0.0274191
20070,301.091,-0.027266
20085,300.341,-0.0274588
20100,299.592,-0.0276303
20115,298.842,-0.0276538
20130,298.092,-0.0278027
20145,297.343,-0.0278435
20160,296.593,-0.0279416
20175,295.842,-0.0279119
20190,295.092,-0.0279454
20205,294.342,-0.0280127
20220,293.591,-0.0280855
20235,292.84,-0.0280343
20250,292.09,-0.0281302
20265,291.34,-0.0280103
20280,290.59,-0.0280171
20295,289.84,-0.0280636
20310,289.09,-0.0279552
20325,288.34,-0.0277884
20340,287.59,-0.0279704
20355,286.84,-0.0279738
20370,286.09,-0.0278799
20385,285.341,-0.0280055
20400,284.591,-0.0279631
20415,283.841,-0.0280574
20430,283.092,-0.0280355
20445,282.341,-0.0281433
20460,281.59,-0.0279361
20475,280.841,-0.0281257
20490,280.091,-0.0283028
20505,279.341,-0.0282684
20520,278.592,-0.0285213
20535,277.841,-0.0285521
20550,277.092,-0.028425
20565,276.341,-0.0285368
20580,275.591,-0.0286649
20595,274.841,-0.028736
20610,274.092,-0.0289124
20625,273.341,-0.0289733
20640,272.59,-0.0289742
20655,271.841,-0.0289381
20670,271.09,-0.0290131
20685,270.34,-0.0287169
20700,269.59,-0.0288097
20715,268.84,-0.0288645
20730,268.091,-0.0288985
20745,267.34,-0.0289017
20760,266.59,-0.028914
20775,265.84,-0.0288833
20790,265.089,-0.028871
20805,264.34,-0.0289812
20820,263.59,-0.0288848
20835,262.841,-0.0290667
20850,262.091,-0.0289817
20865,261.341,-0.0292623
20880,260.591,-0.0291571
20895,259.841,-0.0292505
20910,259.091,-0.0294913
20925,258.341,-0.0293703
20940,257.591,-0.0295119
20955,256.84,-0.0294484
20970,256.09,-0.0298101
20985,255.341,-0.0298882
21000,254.591,-0.0298472
21015,253.842,-0.029949
21030,253.091,-0.029934
21045,252.341,-0.0299564
21060,251.591,-0.0299854
21075,250.84,-0.0300943
21090,250.09,-0.0303475
21105,249.339,-0.030489
21120,248.589,-0.0304113
21135,247.839,-0.0301847
21150,247.09,-0.0302562
21165,246.34,-0.0304034
21180,245.59,-0.030389
21195,244.839,-0.0303525
21210,244.089,-0.0304819
21225,243.339,-0.0305374
21240,242.589,-0.0305983
21255,241.839,-0.0307336
21270,241.089,-0.030932
21285,240.339,-0.0310065
21300,239.589,-0.0312339
21315,238.839,-0.0314004
21330,238.088,-0.0315242
21345,237.339,-0.0314384
21360,236.589,-0.0314789
21375,235.838,-0.0313672
21390,235.088,-0.0314331
21405,234.338,-0.0316815
21420,233.588,-0.0317168
21435,232.838,-0.0318118
21450,232.088,-0.0320311
21465,231.338,-0.0319313
21480,230.588,-0.0318918
21495,229.837,-0.032009
21510,229.087,-0.032234
21525,228.337,-0.032342
21540,227.587,-0.0322551
21555,226.836,-0.0325044
21570,226.087,-0.0324781
21585,225.336,-0.0326364
21600,224.586,-0.0326786
21615,223.836,-0.0327304
21630,223.086,-0.0327254
21645,222.336,-0.0328628
21660,221.585,-0.0328773
21675,220.833,-0.033047
21690,220.083,-0.0329507
21705,219.335,-0.0329629
21720,218.586,-0.0329675
21735,217.837,-0.0331007
21750,217.086,-0.0331579
21765,216.335,-0.0332918
21780,215.585,-0.0334403
21795,214.835,-0.03353
21810,214.085,-0.0333761
21825,213.334,-0.0335727
21840,212.584,-0.0335787
21855,211.834,-0.0337037
21870,211.083,-0.03377
21885,210.333,-0.0338427
21900,209.583,-0.0339559
21915,208.833,-0.0341383
21930,208.082,-0.0340856
21945,207.333,-0.0340177
21960,206.582,-0.0339787
21975,205.832,-0.03408
21990,205.082,-0.0339889
22005,204.332,-0.0340709
22020,203.581,-0.034145
22035,202.831,-0.0341628
22050,202.081,-0.034412
22065,201.33,-0.0342494
22080,200.581,-0.0341475
22095,199.83,-0.0343452
22110,199.08,-0.0343184
22125,198.33,-0.0340195
22140,197.58,-0.0340817
22155,196.83,-0.0339133
22170,196.079,-0.0337332
22185,195.329,-0.0334224
22200,194.582,-0.0334246
22215,193.835,-0.0333037