File: PMMA/Calibration_Data/UMET/UMET_TGA_N2_50K_1.csv
Time,Temperature,Mass
[s],[K],[mg]
0,313.115,5.9802
0.6,313.615,5.9802
1.2,314.115,5.9802
1.8,314.615,5.9802
2.4,315.115,5.9802
3,315.615,5.9802
3.6,316.115,5.9802
4.2,316.615,5.9802
4.8,317.115,5.9802
5.4,317.615,5.9802
6,318.115,5.9802
6.6,318.615,5.9802
7.2,319.115,5.9802
7.8,319.615,5.9802
8.4,320.115,5.9802
9,320.615,5.9802
9.6,321.115,5.9802
10.2,321.615,5.9802
10.8,322.115,5.9802
11.4,322.615,5.9802
12,323.115,5.9802
12.6,323.615,5.9802
13.2,324.115,5.9802
13.8,324.615,5.9802
14.4,325.115,5.9802
15,325.615,5.9802
15.6,326.115,5.9802
16.2,326.615,5.9802
16.8,327.115,5.9802
17.4,327.615,5.9802
18,328.115,5.9802
18.6,328.615,5.9802
19.2,329.115,5.9802
19.8,329.615,5.9802
20.4,330.115,5.9802
21,330.615,5.9802
21.6,331.115,5.9802
22.2,331.615,5.9802
22.8,332.115,5.9802
23.4,332.615,5.9802
24,333.115,5.9802
24.6,333.615,5.9802
25.2,334.115,5.9802
25.8,334.615,5.9802
26.4,335.115,5.9802
27,335.615,5.9802
27.6,336.115,5.9802
28.2,336.615,5.9802
28.8,337.115,5.9802
29.4,337.615,5.9802
30,338.115,5.9802
30.6,338.615,5.9802
31.2,339.115,5.9802
31.8,339.615,5.9802
32.4,340.115,5.9802
33,340.615,5.9802
33.6,341.115,5.9802
34.2,341.615,5.9802
34.8,342.115,5.9802
35.4,342.615,5.9802
36,343.115,5.9802
36.6,343.615,5.9802
37.2,344.115,5.9802
37.8,344.615,5.9802
38.4,345.115,5.9802
39,345.615,5.9802
39.6,346.115,5.9802
40.2,346.615,5.9802
40.8,347.115,5.9802
41.4,347.615,5.9802
42,348.115,5.9802
42.6,348.615,5.9802
43.2,349.115,5.9802
43.8,349.615,5.9802
44.4,350.115,5.9802
45,350.615,5.9802
45.6,351.115,5.9802
46.2,351.615,5.9802
46.8,352.115,5.9802
47.4,352.615,5.9802
48,353.115,5.9802
48.6,353.615,5.9802
49.2,354.115,5.9802
49.8,354.615,5.9802
50.4,355.115,5.9802
51,355.615,5.9802
51.6,356.115,5.9802
52.2,356.615,5.9802
52.8,357.115,5.9802
53.4,357.615,5.9802
54,358.115,5.9802
54.6,358.615,5.9802
55.2,359.115,5.9802
55.8,359.615,5.9802
56.4,360.115,5.9802
57,360.615,5.9802
57.6,361.115,5.9802
58.2,361.615,5.9802
58.8,362.115,5.9802
59.4,362.615,5.9802
60,363.115,5.9802
60.6,363.615,5.9802
61.2,364.115,5.9802
61.8,364.615,5.9802
62.4,365.115,5.9802
63,365.615,5.9802
63.6,366.115,5.9802
64.2,366.615,5.9802
64.8,367.115,5.9802
65.4,367.615,5.9802
66,368.115,5.9802
66.6,368.615,5.9802
67.2,369.115,5.9802
67.8,369.615,5.9802
68.4,370.115,5.9802
69,370.615,5.9802
69.6,371.115,5.9802
70.2,371.615,5.9802
70.8,372.115,5.9802
71.4,372.615,5.9802
72,373.115,5.9802
72.6,373.615,5.9802
73.2,374.115,5.9802
73.8,374.615,5.9802
74.4,375.115,5.9802
75,375.615,5.9802
75.6,376.115,5.9802
76.2,376.615,5.9802
76.8,377.115,5.9802
77.4,377.615,5.9802
78,378.115,5.9802
78.6,378.615,5.9802
79.2,379.115,5.9802
79.8,379.615,5.9802
80.4,380.115,5.9802
81,380.615,5.9802
81.6,381.115,5.9802
82.2,381.615,5.9802
82.8,382.115,5.9802
83.4,382.615,5.9802
84,383.115,5.9802
84.6,383.615,5.9802
85.2,384.115,5.9802
85.8,384.615,5.9802
86.4,385.115,5.9802
87,385.615,5.9802
87.6,386.115,5.9802
88.2,386.615,5.9802
88.8,387.115,5.9802
89.4,387.615,5.9802
90,388.115,5.9802
90.6,388.615,5.9802
91.2,389.115,5.9802
91.8,389.615,5.9802
92.4,390.115,5.9802
93,390.615,5.9802
93.6,391.115,5.9802
94.2,391.615,5.9802
94.8,392.115,5.9802
95.4,392.615,5.9802
96,393.115,5.9802
96.6,393.615,5.9802
97.2,394.115,5.9802
97.8,394.615,5.9802
98.4,395.115,5.9802
99,395.615,5.9802
99.6,396.115,5.9802
100.2,396.615,5.9802
100.8,397.115,5.9802
101.4,397.615,5.9802
102,398.115,5.9802
102.6,398.615,5.9802
103.2,399.115,5.9802
103.8,399.615,5.9802
104.4,400.115,5.9802
105,400.615,5.9802
105.6,401.115,5.9802
106.2,401.615,5.9802
106.8,402.115,5.9802
107.4,402.615,5.9802
108,403.115,5.9802
108.6,403.615,5.9802
109.2,404.115,5.9802
109.8,404.615,5.9802
110.4,405.115,5.9802
111,405.615,5.9802
111.6,406.115,5.9802
112.2,406.615,5.9802
112.8,407.115,5.9802
113.4,407.615,5.9802
114,408.115,5.9802
114.6,408.615,5.9802
115.2,409.115,5.9802
115.8,409.615,5.9802
116.4,410.115,5.9802
117,410.615,5.9802
117.6,411.115,5.9802
118.2,411.615,5.9802
118.8,412.115,5.9802
119.4,412.615,5.9802
120,413.115,5.9802
120.6,413.615,5.9802
121.2,414.115,5.9802
121.8,414.615,5.9802
122.4,415.115,5.9802
123,415.615,5.9802
123.6,416.115,5.9802
124.2,416.615,5.9802
124.8,417.115,5.9802
125.4,417.615,5.9802
126,418.115,5.9802
126.6,418.615,5.9802
127.2,419.115,5.9802
127.8,419.615,5.9802
128.4,420.115,5.9802
129,420.615,5.9802
129.6,421.115,5.9802
130.2,421.615,5.9802
130.8,422.115,5.9802
131.4,422.615,5.9802
132,423.115,5.9802
132.6,423.615,5.9802
133.2,424.115,5.9802
133.8,424.615,5.9802
134.4,425.115,5.9802
135,425.615,5.9802
135.6,426.115,5.9802
136.2,426.615,5.9802
136.8,427.115,5.9802
137.4,427.615,5.9802
138,428.115,5.9802
138.6,428.615,5.9802
139.2,429.115,5.9802
139.8,429.615,5.9802
140.4,430.115,5.9802
141,430.615,5.9802
141.6,431.115,5.9802
142.2,431.615,5.9802
142.8,432.115,5.9802
143.4,432.615,5.9802
144,433.115,5.9802
144.6,433.615,5.9802
145.2,434.115,5.9802
145.8,434.615,5.9802
146.4,435.115,5.9802
147,435.615,5.9802
147.6,436.115,5.97982
148.2,436.615,5.97895
148.8,437.115,5.9783
149.4,437.615,5.97808
150,438.115,5.97759
150.6,438.615,5.97735
151.2,439.115,5.97699
151.8,439.615,5.97686
152.4,440.115,5.97648
153,440.615,5.97634
153.6,441.115,5.97616
154.2,441.615,5.97583
154.8,442.115,5.97557
155.4,442.615,5.9755
156,443.115,5.97552
156.6,443.615,5.9756
157.2,444.115,5.97577
157.8,444.615,5.97607
158.4,445.115,5.97646
159,445.615,5.97692
159.6,446.115,5.97722
160.2,446.615,5.97753
160.8,447.115,5.97792
161.4,447.615,5.97799
162,448.115,5.97799
162.6,448.615,5.97802
163.2,449.115,5.97762
163.8,449.615,5.97715
164.4,450.115,5.97659
165,450.615,5.97594
165.6,451.115,5.97503
166.2,451.615,5.97443
166.8,452.115,5.97338
167.4,452.615,5.97271
168,453.115,5.97217
168.6,453.615,5.97161
169.2,454.115,5.97084
169.8,454.615,5.9702
170.4,455.115,5.96944
171,455.615,5.96869
171.6,456.115,5.96804
172.2,456.615,5.96739
172.8,457.115,5.96662
173.4,457.615,5.96598
174,458.115,5.9652
174.6,458.615,5.96468
175.2,459.115,5.96407
175.8,459.615,5.96348
176.4,460.115,5.9631
177,460.615,5.96258
177.6,461.115,5.96216
178.2,461.615,5.96188
178.8,462.115,5.9612
179.4,462.615,5.96057
180,463.115,5.95985
180.6,463.615,5.95906
181.2,464.115,5.95828
181.8,464.615,5.95732
182.4,465.115,5.95621
183,465.615,5.95531
183.6,466.115,5.95415
184.2,466.615,5.9531
184.8,467.115,5.9518
185.4,467.615,5.95079
186,468.115,5.94935
186.6,468.615,5.94828
187.2,469.115,5.94697
187.8,469.615,5.94589
188.4,470.115,5.94464
189,470.615,5.94379
189.6,471.115,5.9426
190.2,471.615,5.94179
190.8,472.115,5.94075
191.4,472.615,5.94002
192,473.115,5.93927
192.6,473.615,5.93863
193.2,474.115,5.93777
193.8,474.615,5.93702
194.4,475.115,5.93612
195,475.615,5.9351
195.6,476.115,5.93387
196.2,476.615,5.9329
196.8,477.115,5.93163
197.4,477.615,5.93059
198,478.115,5.92927
198.6,478.615,5.92831
199.2,479.115,5.92706
199.8,479.615,5.92635
200.4,480.115,5.92527
201,480.615,5.92454
201.6,481.115,5.92362
202.2,481.615,5.92272
202.8,482.115,5.92167
203.4,482.615,5.92049
204,483.115,5.91912
204.6,483.615,5.91788
205.2,484.115,5.91628
205.8,484.615,5.9151
206.4,485.115,5.91374
207,485.615,5.9125
207.6,486.115,5.91121
208.2,486.615,5.91022
208.8,487.115,5.90918
209.4,487.615,5.90844
210,488.115,5.90747
210.6,488.615,5.90685
211.2,489.115,5.90576
211.8,489.615,5.90516
212.4,490.115,5.90387
213,490.615,5.90296
213.6,491.115,5.90168
214.2,491.615,5.90065
214.8,492.115,5.89929
215.4,492.615,5.89815
216,493.115,5.89675
216.6,493.615,5.89546
217.2,494.115,5.89398
217.8,494.615,5.89276
218.4,495.115,5.89134
219,495.615,5.89016
219.6,496.115,5.88879
220.2,496.615,5.88777
220.8,497.115,5.8866
221.4,497.615,5.88578
222,498.115,5.88482
222.6,498.615,5.88409
223.2,499.115,5.88323
223.8,499.615,5.88239
224.4,500.115,5.88097
225,500.615,5.87979
225.6,501.115,5.87811
226.2,501.615,5.87668
226.8,502.115,5.87508
227.4,502.615,5.8742
228,503.115,5.87305
228.6,503.615,5.8724
229.2,504.115,5.87175
229.8,504.615,5.8712
230.4,505.115,5.87075
231,505.615,5.8703
231.6,506.115,5.86965
232.2,506.615,5.8691
232.8,507.115,5.86867
233.4,507.615,5.86801
234,508.115,5.86743
234.6,508.615,5.86721
235.2,509.115,5.86647
235.8,509.615,5.86612
236.4,510.115,5.86556
237,510.615,5.86502
237.6,511.115,5.86452
238.2,511.615,5.86392
238.8,512.115,5.86333
239.4,512.615,5.86263
240,513.115,5.86182
240.6,513.615,5.86103
241.2,514.115,5.86028
241.8,514.615,5.85953
242.4,515.115,5.85878
243,515.615,5.85803
243.6,516.115,5.85727
244.2,516.615,5.85654
244.8,517.115,5.8553
245.4,517.615,5.85444
246,518.115,5.85339
246.6,518.615,5.85235
247.2,519.115,5.85123
247.8,519.615,5.85015
248.4,520.115,5.84928
249,520.615,5.84844
249.6,521.115,5.84761
250.2,521.615,5.84692
250.8,522.115,5.84632
251.4,522.615,5.84581
252,523.115,5.84546
252.6,523.615,5.84511
253.2,524.115,5.84474
253.8,524.615,5.84451
254.4,525.115,5.84407
255,525.615,5.84361
255.6,526.115,5.84351
256.2,526.615,5.84292
256.8,527.115,5.84248
257.4,527.615,5.84193
258,528.115,5.84128
258.6,528.615,5.84063
259.2,529.115,5.83994
259.8,529.615,5.83905
260.4,530.115,5.83804
261,530.615,5.83703
261.6,531.115,5.83612
262.2,531.615,5.83533
262.8,532.115,5.83446
263.4,532.615,5.83372
264,533.115,5.83306
264.6,533.615,5.83251
265.2,534.115,5.83206
265.8,534.615,5.83161
266.4,535.115,5.8312
267,535.615,5.8309
267.6,536.115,5.83099
268.2,536.615,5.8308
268.8,537.115,5.831
269.4,537.615,5.8312
270,538.115,5.83119
270.6,538.615,5.8312
271.2,539.115,5.83125
271.8,539.615,5.8313
272.4,540.115,5.83129
273,540.615,5.8313
273.6,541.115,5.83129
274.2,541.615,5.8314
274.8,542.115,5.83136
275.4,542.615,5.8312
276,543.115,5.83113
276.6,543.615,5.83082
277.2,544.115,5.83039
277.8,544.615,5.82997
278.4,545.115,5.82923
279,545.615,5.82858
279.6,546.115,5.82765
280.2,546.615,5.82669
280.8,547.115,5.8258
281.4,547.615,5.82482
282,548.115,5.82379
282.6,548.615,5.82289
283.2,549.115,5.82194
283.8,549.615,5.82106
284.4,550.115,5.82019
285,550.615,5.81953
285.6,551.115,5.81906
286.2,551.615,5.81852
286.8,552.115,5.81819
287.4,552.615,5.81801
288,553.115,5.81783
288.6,553.615,5.81741
289.2,554.115,5.81728
289.8,554.615,5.81681
290.4,555.115,5.81641
291,555.615,5.8159
291.6,556.115,5.81545
292.2,556.615,5.81499
292.8,557.115,5.81466
293.4,557.615,5.81408
294,558.115,5.8137
294.6,558.615,5.81308
295.2,559.115,5.81268
295.8,559.615,5.81206
296.4,560.115,5.81142
297,560.615,5.81075
297.6,561.115,5.80988
298.2,561.615,5.80893
298.8,562.115,5.8078
299.4,562.615,5.80659
300,563.115,5.80532
300.6,563.615,5.80408
301.2,564.115,5.8028
301.8,564.615,5.80157
302.4,565.115,5.80046
303,565.615,5.79928
303.6,566.115,5.79816
304.2,566.615,5.79699
304.8,567.115,5.79568
305.4,567.615,5.79438
306,568.115,5.79301
306.6,568.615,5.79193
307.2,569.115,5.79061
307.8,569.615,5.78938
308.4,570.115,5.78816
309,570.615,5.78698
309.6,571.115,5.78592
310.2,571.615,5.7851
310.8,572.115,5.78416
311.4,572.615,5.78374
312,573.115,5.78305
312.6,573.615,5.78243
313.2,574.115,5.78152
313.8,574.615,5.78034
314.4,575.115,5.77887
315,575.615,5.7776
315.6,576.115,5.77554
316.2,576.615,5.77384
316.8,577.115,5.77172
317.4,577.615,5.76992
318,578.115,5.76777
318.6,578.615,5.76599
319.2,579.115,5.76395
319.8,579.615,5.76235
320.4,580.115,5.76045
321,580.615,5.75897
321.6,581.115,5.75667
322.2,581.615,5.75572
322.8,582.115,5.75329
323.4,582.615,5.7515
324,583.115,5.74951
324.6,583.615,5.74774
325.2,584.115,5.74554
325.8,584.615,5.74337
326.4,585.115,5.74103
327,585.615,5.73893
327.6,586.115,5.73651
328.2,586.615,5.73426
328.8,587.115,5.73181
329.4,587.615,5.72953
330,588.115,5.72711
330.6,588.615,5.72488
331.2,589.115,5.72209
331.8,589.615,5.71952
332.4,590.115,5.71347
333,590.615,5.70054
333.6,591.115,5.69265
334.2,591.615,5.68928
334.8,592.115,5.68553
335.4,592.615,5.68385
336,593.115,5.68152
336.6,593.615,5.67948
337.2,594.115,5.67709
337.8,594.615,5.67476
338.4,595.115,5.67266
339,595.615,5.67054
339.6,596.115,5.66833
340.2,596.615,5.66213
340.8,597.115,5.65424
341.4,597.615,5.65105
342,598.115,5.64758
342.6,598.615,5.6438
343.2,599.115,5.63983
343.8,599.615,5.63562
344.4,600.115,5.6318
345,600.615,5.6278
345.6,601.115,5.62378
346.2,601.615,5.61953
346.8,602.115,5.61566
347.4,602.615,5.61143
348,603.115,5.60723
348.6,603.615,5.60298
349.2,604.115,5.59881
349.8,604.615,5.59461
350.4,605.115,5.58984
351,605.615,5.58488
351.6,606.115,5.57913
352.2,606.615,5.57355
352.8,607.115,5.56726
353.4,607.615,5.56115
354,608.115,5.55443
354.6,608.615,5.54721
355.2,609.115,5.53967
355.8,609.615,5.53196
356.4,610.115,5.5236
357,610.615,5.51506
357.6,611.115,5.50612
358.2,611.615,5.497
358.8,612.115,5.48724
359.4,612.615,5.4772
360,613.115,5.46692
360.6,613.615,5.4565
361.2,614.115,5.44586
361.8,614.615,5.43515
362.4,615.115,5.42464
363,615.615,5.41368
363.6,616.115,5.4022
364.2,616.615,5.39116
364.8,617.115,5.37961
365.4,617.615,5.3677
366,618.115,5.35538
366.6,618.615,5.34254
367.2,619.115,5.32931
367.8,619.615,5.31558
368.4,620.115,5.30109
369,620.615,5.28625
369.6,621.115,5.27031
370.2,621.615,5.25417
370.8,622.115,5.23712
371.4,622.615,5.21918
372,623.115,5.20107
372.6,623.615,5.18257
373.2,624.115,5.16393
373.8,624.615,5.14483
374.4,625.115,5.12552
375,625.615,5.10612
375.6,626.115,5.08626
376.2,626.615,5.06634
376.8,627.115,5.04582
377.4,627.615,5.02513
378,628.115,5.00413
378.6,628.615,4.98251
379.2,629.115,4.96042
379.8,629.615,4.93761
380.4,630.115,4.914
381,630.615,4.88974
381.6,631.115,4.86431
382.2,631.615,4.83747
382.8,632.115,4.8094
383.4,632.615,4.78042
384,633.115,4.75021
384.6,633.615,4.71922
385.2,634.115,4.68768
385.8,634.615,4.65535
386.4,635.115,4.62299
387,635.615,4.58993
387.6,636.115,4.55693
388.2,636.615,4.52362
388.8,637.115,4.49028
389.4,637.615,4.4565
390,638.115,4.42069
390.6,638.615,4.39467
391.2,639.115,4.24085
391.8,639.615,4.21448
392.4,640.115,4.17439
393,640.615,4.13762
393.6,641.115,4.09689
394.2,641.615,4.0585
394.8,642.115,4.01684
395.4,642.615,3.97436
396,643.115,3.92915
396.6,643.615,3.88469
397.2,644.115,3.83942
397.8,644.615,3.79325
398.4,645.115,3.74723
399,645.615,3.69884
399.6,646.115,3.64013
400.2,646.615,3.59181
400.8,647.115,3.54376
401.4,647.615,3.49272
402,648.115,3.44217
402.6,648.615,3.39176
403.2,649.115,3.34012
403.8,649.615,3.2891
404.4,650.115,3.23554
405,650.615,3.18228
405.6,651.115,3.12904
406.2,651.615,3.07528
406.8,652.115,3.02042
407.4,652.615,2.96557
408,653.115,2.91005
408.6,653.615,2.85386
409.2,654.115,2.80059
409.8,654.615,2.74729
410.4,655.115,2.69681
411,655.615,2.64649
411.6,656.115,2.5941
412.2,656.615,2.54228
412.8,657.115,2.48991
413.4,657.615,2.43697
414,658.115,2.38278
414.6,658.615,2.32964
415.2,659.115,2.27728
415.8,659.615,2.22394
416.4,660.115,2.17232
417,660.615,2.12091
417.6,661.115,2.07139
418.2,661.615,2.02147
418.8,662.115,1.97182
419.4,662.615,1.92305
420,663.115,1.87533
420.6,663.615,1.82841
421.2,664.115,1.78057
421.8,664.615,1.73406
422.4,665.115,1.68858
423,665.615,1.64235
423.6,666.115,1.59641
424.2,666.615,1.55063
424.8,667.115,1.50792
425.4,667.615,1.4635
426,668.115,1.42119
426.6,668.615,1.37606
427.2,669.115,1.33334
427.8,669.615,1.2909
428.4,670.115,1.24911
429,670.615,1.20651
429.6,671.115,1.16731
430.2,671.615,1.12661
430.8,672.115,1.0878
431.4,672.615,1.04853
432,673.115,1.00946
432.6,673.615,0.972748
433.2,674.115,0.935721
433.8,674.615,0.900521
434.4,675.115,0.86587
435,675.615,0.830463
435.6,676.115,0.79639
436.2,676.615,0.763008
436.8,677.115,0.729504
437.4,677.615,0.695994
438,678.115,0.663762
438.6,678.615,0.633496
439.2,679.115,0.606101
439.8,679.615,0.57925
440.4,680.115,0.55337
441,680.615,0.530705
441.6,681.115,0.505338
442.2,681.615,0.483902
442.8,682.115,0.461892
443.4,682.615,0.441452
444,683.115,0.422361
444.6,683.615,0.403389
445.2,684.115,0.385473
445.8,684.615,0.368206
446.4,685.115,0.349832
447,685.615,0.332484
447.6,686.115,0.316714
448.2,686.615,0.302122
448.8,687.115,0.28789
449.4,687.615,0.273906
450,688.115,0.260712
450.6,688.615,0.248231
451.2,689.115,0.237035
451.8,689.615,0.226422
452.4,690.115,0.215649
453,690.615,0.205194
453.6,691.115,0.197471
454.2,691.615,0.187942
454.8,692.115,0.179893
455.4,692.615,0.169772
456,693.115,0.16083
456.6,693.615,0.1533407
457.2,694.115,0.145572
457.8,694.615,0.138307
458.4,695.115,0.132715
459,695.615,0.126978
459.6,696.115,0.121731
460.2,696.615,0.115667
460.8,697.115,0.10988
461.4,697.615,0.103514
462,698.115,0.09783069
462.6,698.615,0.0931667
463.2,699.115,0.0885315
463.8,699.615,0.0847795
464.4,700.115,0.0810885
465,700.615,0.0776403
465.6,701.115,0.0752166
466.2,701.615,0.0716512
466.8,702.115,0.0699157
467.4,702.615,0.06776045
468,703.115,0.066757
468.6,703.615,0.0664119
469.2,704.115,0.0644761
469.8,704.615,0.0625965
470.4,705.115,0.0610919
471,705.615,0.0601249
471.6,706.115,0.0587393
472.2,706.615,0.0572592
472.8,707.115,0.0563155
473.4,707.615,0.055464
474,708.115,0.0549796
474.6,708.615,0.0542548
475.2,709.115,0.0533482
475.8,709.615,0.0521473
476.4,710.115,0.05075934
477,710.615,0.0490915
477.6,711.115,0.0473052
478.2,711.615,0.044882
478.8,712.115,0.0434868
479.4,712.615,0.0418949
480,713.115,0.0399304
480.6,713.615,0.0389879
481.2,714.115,0.0384957
481.8,714.615,0.0381854
482.4,715.115,0.0382093
483,715.615,0.0383773
483.6,716.115,0.0384084
484.2,716.615,0.0386554
484.8,717.115,0.0387427
485.4,717.615,0.0390256
486,718.115,0.0389987
486.6,718.615,0.0387463
487.2,719.115,0.0387236
487.8,719.615,0.0384826
488.4,720.115,0.0380694
489,720.615,0.0377608
489.6,721.115,0.0372859
490.2,721.615,0.0368488
490.8,722.115,0.0362873
491.4,722.615,0.0359261
492,723.115,0.0354046
492.6,723.615,0.0350057
493.2,724.115,0
493.8,724.615,0
494.4,725.115,0
495,725.615,0
495.6,726.115,0
496.2,726.615,0
496.8,727.115,0
497.4,727.615,0
498,728.115,0
498.6,728.615,0
499.2,729.115,0
499.8,729.615,0
500.4,730.115,0
501,730.615,0
501.6,731.115,0
502.2,731.615,0
502.8,732.115,0
503.4,732.615,0
504,733.115,0
504.6,733.615,0
505.2,734.115,0
505.8,734.615,0
506.4,735.115,0
507,735.615,0
507.6,736.115,0
508.2,736.615,0
508.8,737.115,0
509.4,737.615,0
510,738.115,0
510.6,738.615,0
511.2,739.115,0
511.8,739.615,0
512.4,740.115,0
513,740.615,0
513.6,741.115,0
514.2,741.615,0
514.8,742.115,0
515.4,742.615,0
516,743.115,0
516.6,743.615,0
517.2,744.115,0
517.8,744.615,0
518.4,745.115,0
519,745.615,0
519.6,746.115,0
520.2,746.615,0
520.8,747.115,0
521.4,747.615,0
522,748.115,0
522.6,748.615,0
523.2,749.115,0
523.8,749.615,0
524.4,750.115,0
525,750.615,0
525.6,751.115,0
526.2,751.615,0
526.8,752.115,0
527.4,752.615,0
528,753.115,0
528.6,753.615,0
529.2,754.115,0
529.8,754.615,0
530.4,755.115,0
531,755.615,0
531.6,756.115,0
532.2,756.615,0
532.8,757.115,0
533.4,757.615,0
534,758.115,0
534.6,758.615,0
535.2,759.115,0
535.8,759.615,0
536.4,760.115,0
537,760.615,0
537.6,761.115,0
538.2,761.615,0
538.8,762.115,0
539.4,762.615,0
540,763.115,0
540.6,763.615,0
541.2,764.115,0
541.8,764.615,0
542.4,765.115,0
543,765.615,0
543.6,766.115,0
544.2,766.615,0
544.8,767.115,0
545.4,767.615,0
546,768.115,0
546.6,768.615,0
547.2,769.115,0
547.8,769.615,0
548.4,770.115,0
549,770.615,0
549.6,771.115,0
550.2,771.615,0
550.8,772.115,0
551.4,772.615,0
552,773.115,0
552.6,773.615,0