File: PMMA/Calibration_Data/UMET/UMET_TGA_N2_20K_1.csv
Time,Temperature,Mass
[s],[K],[mg]
0,313.115,3.9289
1.5,313.615,3.9289
3,314.115,3.9289
4.5,314.615,3.9289
6,315.115,3.9289
7.5,315.615,3.9289
9,316.115,3.9289
10.5,316.615,3.9289
12,317.115,3.9289
13.5,317.615,3.9289
15,318.115,3.9289
16.5,318.615,3.9289
18,319.115,3.9289
19.5,319.615,3.9289
21,320.115,3.9289
22.5,320.615,3.9289
24,321.115,3.9289
25.5,321.615,3.9289
27,322.115,3.9289
28.5,322.615,3.9289
30,323.115,3.9289
31.5,323.615,3.9289
33,324.115,3.9289
34.5,324.615,3.9289
36,325.115,3.9289
37.5,325.615,3.9289
39,326.115,3.9289
40.5,326.615,3.9289
42,327.115,3.9289
43.5,327.615,3.9289
45,328.115,3.9289
46.5,328.615,3.9289
48,329.115,3.9289
49.5,329.615,3.9289
51,330.115,3.9289
52.5,330.615,3.9289
54,331.115,3.9289
55.5,331.615,3.9289
57,332.115,3.9289
58.5,332.615,3.9289
60,333.115,3.9289
61.5,333.615,3.9289
63,334.115,3.9289
64.5,334.615,3.9289
66,335.115,3.9289
67.5,335.615,3.9289
69,336.115,3.9289
70.5,336.615,3.9289
72,337.115,3.9289
73.5,337.615,3.9289
75,338.115,3.9289
76.5,338.615,3.9289
78,339.115,3.9289
79.5,339.615,3.9289
81,340.115,3.9289
82.5,340.615,3.9289
84,341.115,3.9289
85.5,341.615,3.9289
87,342.115,3.9289
88.5,342.615,3.9289
90,343.115,3.9289
91.5,343.615,3.9289
93,344.115,3.9289
94.5,344.615,3.9289
96,345.115,3.9289
97.5,345.615,3.9289
99,346.115,3.9289
100.5,346.615,3.9289
102,347.115,3.9289
103.5,347.615,3.9289
105,348.115,3.9289
106.5,348.615,3.9289
108,349.115,3.9289
109.5,349.615,3.9289
111,350.115,3.9289
112.5,350.615,3.9289
114,351.115,3.9289
115.5,351.615,3.9289
117,352.115,3.9289
118.5,352.615,3.9289
120,353.115,3.9289
121.5,353.615,3.9289
123,354.115,3.9289
124.5,354.615,3.9289
126,355.115,3.9289
127.5,355.615,3.9289
129,356.115,3.9289
130.5,356.615,3.9289
132,357.115,3.9289
133.5,357.615,3.9289
135,358.115,3.9289
136.5,358.615,3.9289
138,359.115,3.9289
139.5,359.615,3.9289
141,360.115,3.9289
142.5,360.615,3.9289
144,361.115,3.9289
145.5,361.615,3.9289
147,362.115,3.9289
148.5,362.615,3.9289
150,363.115,3.9289
151.5,363.615,3.9289
153,364.115,3.9289
154.5,364.615,3.9289
156,365.115,3.9289
157.5,365.615,3.9289
159,366.115,3.9289
160.5,366.615,3.9289
162,367.115,3.9289
163.5,367.615,3.9289
165,368.115,3.9289
166.5,368.615,3.9289
168,369.115,3.9289
169.5,369.615,3.9289
171,370.115,3.9289
172.5,370.615,3.9289
174,371.115,3.9289
175.5,371.615,3.9289
177,372.115,3.9289
178.5,372.615,3.9289
180,373.115,3.9289
181.5,373.615,3.9289
183,374.115,3.9289
184.5,374.615,3.9289
186,375.115,3.9289
187.5,375.615,3.9289
189,376.115,3.9289
190.5,376.615,3.9289
192,377.115,3.9289
193.5,377.615,3.9289
195,378.115,3.9289
196.5,378.615,3.9289
198,379.115,3.9289
199.5,379.615,3.9289
201,380.115,3.9289
202.5,380.615,3.9289
204,381.115,3.9289
205.5,381.615,3.9289
207,382.115,3.9289
208.5,382.615,3.9289
210,383.115,3.9289
211.5,383.615,3.9289
213,384.115,3.9289
214.5,384.615,3.9289
216,385.115,3.9289
217.5,385.615,3.9289
219,386.115,3.9289
220.5,386.615,3.9289
222,387.115,3.9289
223.5,387.615,3.9289
225,388.115,3.9289
226.5,388.615,3.9289
228,389.115,3.9289
229.5,389.615,3.9289
231,390.115,3.9289
232.5,390.615,3.9289
234,391.115,3.9289
235.5,391.615,3.9289
237,392.115,3.9289
238.5,392.615,3.9289
240,393.115,3.9289
241.5,393.615,3.9289
243,394.115,3.9289
244.5,394.615,3.9289
246,395.115,3.9289
247.5,395.615,3.9289
249,396.115,3.9289
250.5,396.615,3.9289
252,397.115,3.9289
253.5,397.615,3.9289
255,398.115,3.9289
256.5,398.615,3.9289
258,399.115,3.9289
259.5,399.615,3.9289
261,400.115,3.9289
262.5,400.615,3.9289
264,401.115,3.9289
265.5,401.615,3.9289
267,402.115,3.9289
268.5,402.615,3.9289
270,403.115,3.9289
271.5,403.615,3.9289
273,404.115,3.9289
274.5,404.615,3.9289
276,405.115,3.9289
277.5,405.615,3.9289
279,406.115,3.9289
280.5,406.615,3.9289
282,407.115,3.9289
283.5,407.615,3.9289
285,408.115,3.9289
286.5,408.615,3.9289
288,409.115,3.9289
289.5,409.615,3.9289
291,410.115,3.9289
292.5,410.615,3.9289
294,411.115,3.9289
295.5,411.615,3.9289
297,412.115,3.9289
298.5,412.615,3.9289
300,413.115,3.9289
301.5,413.615,3.9289
303,414.115,3.9289
304.5,414.615,3.9289
306,415.115,3.9289
307.5,415.615,3.9289
309,416.115,3.9289
310.5,416.615,3.9289
312,417.115,3.9289
313.5,417.615,3.9289
315,418.115,3.9289
316.5,418.615,3.9289
318,419.115,3.9289
319.5,419.615,3.9289
321,420.115,3.9289
322.5,420.615,3.9289
324,421.115,3.9289
325.5,421.615,3.9289
327,422.115,3.9289
328.5,422.615,3.9289
330,423.115,3.9289
331.5,423.615,3.9289
333,424.115,3.9289
334.5,424.615,3.9289
336,425.115,3.9289
337.5,425.615,3.9289
339,426.115,3.9289
340.5,426.615,3.9289
342,427.115,3.9289
343.5,427.615,3.9289
345,428.115,3.9289
346.5,428.615,3.9289
348,429.115,3.9289
349.5,429.615,3.9289
351,430.115,3.9289
352.5,430.615,3.9289
354,431.115,3.9289
355.5,431.615,3.9289
357,432.115,3.9289
358.5,432.615,3.9289
360,433.115,3.9289
361.5,433.615,3.9289
363,434.115,3.9289
364.5,434.615,3.9289
366,435.115,3.9289
367.5,435.615,3.9289
369,436.115,3.9289
370.5,436.615,3.92838
372,437.115,3.92788
373.5,437.615,3.92759
375,438.115,3.92721
376.5,438.615,3.9272
378,439.115,3.92719
379.5,439.615,3.92744
381,440.115,3.92801
382.5,440.615,3.92813
384,441.115,3.92802
385.5,441.615,3.92756
387,442.115,3.9264
388.5,442.615,3.92527
390,443.115,3.92454
391.5,443.615,3.92396
393,444.115,3.92369
394.5,444.615,3.92319
396,445.115,3.92279
397.5,445.615,3.9226
399,446.115,3.9227
400.5,446.615,3.92292
402,447.115,3.9233
403.5,447.615,3.9237
405,448.115,3.924
406.5,448.615,3.9242
408,449.115,3.9246
409.5,449.615,3.92438
411,450.115,3.9241
412.5,450.615,3.92339
414,451.115,3.92269
415.5,451.615,3.922
417,452.115,3.92118
418.5,452.615,3.92016
420,453.115,3.91909
421.5,453.615,3.9177
423,454.115,3.91658
424.5,454.615,3.91499
426,455.115,3.9137
427.5,455.615,3.91216
429,456.115,3.91049
430.5,456.615,3.90939
432,457.115,3.90829
433.5,457.615,3.90749
435,458.115,3.9068
436.5,458.615,3.90731
438,459.115,3.90833
439.5,459.615,3.91
441,460.115,3.9107
442.5,460.615,3.91039
444,461.115,3.90908
445.5,461.615,3.90759
447,462.115,3.90599
448.5,462.615,3.90378
450,463.115,3.90109
451.5,463.615,3.89818
453,464.115,3.89527
454.5,464.615,3.89308
456,465.115,3.89169
457.5,465.615,3.89111
459,466.115,3.89078
460.5,466.615,3.88999
462,467.115,3.89021
463.5,467.615,3.89072
465,468.115,3.89141
466.5,468.615,3.89099
468,469.115,3.8903
469.5,469.615,3.8893
471,470.115,3.8883
472.5,470.615,3.8872
474,471.115,3.8858
475.5,471.615,3.88441
477,472.115,3.88311
478.5,472.615,3.88221
480,473.115,3.882
481.5,473.615,3.88119
483,474.115,3.88071
484.5,474.615,3.88029
486,475.115,3.8803
487.5,475.615,3.88042
489,476.115,3.87933
490.5,476.615,3.87736
492,477.115,3.87475
493.5,477.615,3.87235
495,478.115,3.87043
496.5,478.615,3.86913
498,479.115,3.86773
499.5,479.615,3.86651
501,480.115,3.86521
502.5,480.615,3.8647
504,481.115,3.8644
505.5,481.615,3.86401
507,482.115,3.8632
508.5,482.615,3.86251
510,483.115,3.8621
511.5,483.615,3.8619
513,484.115,3.8619
514.5,484.615,3.8621
516,485.115,3.8617
517.5,485.615,3.861
519,486.115,3.8592
520.5,486.615,3.85749
522,487.115,3.85559
523.5,487.615,3.85489
525,488.115,3.8543
526.5,488.615,3.8542
528,489.115,3.8538
529.5,489.615,3.8533
531,490.115,3.8527
532.5,490.615,3.8519
534,491.115,3.8512
535.5,491.615,3.8507
537,492.115,3.8503
538.5,492.615,3.8501
540,493.115,3.85
541.5,493.615,3.8496
543,494.115,3.8491
544.5,494.615,3.8484
546,495.115,3.8477
547.5,495.615,3.8463
549,496.115,3.84469
550.5,496.615,3.84265
552,497.115,3.84118
553.5,497.615,3.84017
555,498.115,3.83929
556.5,498.615,3.83859
558,499.115,3.83809
559.5,499.615,3.83791
561,500.115,3.8377
562.5,500.615,3.83759
564,501.115,3.8374
565.5,501.615,3.8375
567,502.115,3.8374
568.5,502.615,3.8372
570,503.115,3.8366
571.5,503.615,3.8359
573,504.115,3.8349
574.5,504.615,3.83341
576,505.115,3.83261
577.5,505.615,3.8318
579,506.115,3.83179
580.5,506.615,3.83218
582,507.115,3.83248
583.5,507.615,3.83288
585,508.115,3.83261
586.5,508.615,3.83182
588,509.115,3.83103
589.5,509.615,3.82984
591,510.115,3.82833
592.5,510.615,3.82613
594,511.115,3.82471
595.5,511.615,3.82429
597,512.115,3.8245
598.5,512.615,3.8245
600,513.115,3.82509
601.5,513.615,3.8259
603,514.115,3.82687
604.5,514.615,3.8276
606,515.115,3.8282
607.5,515.615,3.82853
609,516.115,3.82684
610.5,516.615,3.82475
612,517.115,3.82257
613.5,517.615,3.81987
615,518.115,3.81866
616.5,518.615,3.82027
618,519.115,3.8213
619.5,519.615,3.82013
621,520.115,3.82015
622.5,520.615,3.82205
624,521.115,3.82415
625.5,521.615,3.82479
627,522.115,3.8244
628.5,522.615,3.82401
630,523.115,3.8233
631.5,523.615,3.8232
633,524.115,3.82349
634.5,524.615,3.82322
636,525.115,3.82253
637.5,525.615,3.82165
639,526.115,3.82073
640.5,526.615,3.81925
642,527.115,3.81768
643.5,527.615,3.8167
645,528.115,3.81598
646.5,528.615,3.81619
648,529.115,3.81683
649.5,529.615,3.81811
651,530.115,3.81883
652.5,530.615,3.81879
654,531.115,3.81863
655.5,531.615,3.81811
657,532.115,3.81779
658.5,532.615,3.81802
660,533.115,3.81762
661.5,533.615,3.81682
663,534.115,3.81561
664.5,534.615,3.8145
666,535.115,3.8142
667.5,535.615,3.8145
669,536.115,3.8146
670.5,536.615,3.8147
672,537.115,3.81521
673.5,537.615,3.8166
675,538.115,3.81833
676.5,538.615,3.82142
678,539.115,3.8227
679.5,539.615,3.82199
681,540.115,3.81994
682.5,540.615,3.81682
684,541.115,3.8138
685.5,541.615,3.80953
687,542.115,3.80522
688.5,542.615,3.80258
690,543.115,3.80158
691.5,543.615,3.80208
693,544.115,3.80308
694.5,544.615,3.80448
696,545.115,3.8052
697.5,545.615,3.80564
699,546.115,3.80609
700.5,546.615,3.80582
702,547.115,3.80412
703.5,547.615,3.80169
705,548.115,3.79953
706.5,548.615,3.79837
708,549.115,3.79811
709.5,549.615,3.79938
711,550.115,3.80298
712.5,550.615,3.80492
714,551.115,3.80445
715.5,551.615,3.8031
717,552.115,3.80375
718.5,552.615,3.80544
720,553.115,3.80609
721.5,553.615,3.80513
723,554.115,3.80212
724.5,554.615,3.79933
726,555.115,3.79883
727.5,555.615,3.80003
729,556.115,3.8009
730.5,556.615,3.80091
732,557.115,3.79987
733.5,557.615,3.79817
735,558.115,3.79633
736.5,558.615,3.79413
738,559.115,3.79217
739.5,559.615,3.79139
741,560.115,3.79067
742.5,560.615,3.78977
744,561.115,3.7891
745.5,561.615,3.78858
747,562.115,3.78731
748.5,562.615,3.78521
750,563.115,3.78368
751.5,563.615,3.78279
753,564.115,3.78234
754.5,564.615,3.78206
756,565.115,3.78092
757.5,565.615,3.77945
759,566.115,3.77733
760.5,566.615,3.77606
762,567.115,3.7752
763.5,567.615,3.77437
765,568.115,3.77331
766.5,568.615,3.77141
768,569.115,3.76897
769.5,569.615,3.76681
771,570.115,3.76492
772.5,570.615,3.76311
774,571.115,3.76068
775.5,571.615,3.7578
777,572.115,3.75557
778.5,572.615,3.75365
780,573.115,3.75233
781.5,573.615,3.75126
783,574.115,3.75051
784.5,574.615,3.75013
786,575.115,3.75021
787.5,575.615,3.75022
789,576.115,3.75041
790.5,576.615,3.74937
792,577.115,3.74756
793.5,577.615,3.74563
795,578.115,3.74323
796.5,578.615,3.7398
798,579.115,3.73601
799.5,579.615,3.73284
801,580.115,3.73061
802.5,580.615,3.72929
804,581.115,3.72721
805.5,581.615,3.72548
807,582.115,3.7229
808.5,582.615,3.71996
810,583.115,3.71709
811.5,583.615,3.71542
813,584.115,3.71391
814.5,584.615,3.71183
816,585.115,3.70945
817.5,585.615,3.70686
819,586.115,3.7042
820.5,586.615,3.7018
822,587.115,3.69963
823.5,587.615,3.69802
825,588.115,3.69661
826.5,588.615,3.69533
828,589.115,3.69375
829.5,589.615,3.69227
831,590.115,3.68997
832.5,590.615,3.68717
834,591.115,3.68375
835.5,591.615,3.68057
837,592.115,3.67664
838.5,592.615,3.67249
840,593.115,3.66879
841.5,593.615,3.66491
843,594.115,3.66101
844.5,594.615,3.65674
846,595.115,3.65285
847.5,595.615,3.64951
849,596.115,3.6463
850.5,596.615,3.64288
852,597.115,3.63896
853.5,597.615,3.63438
855,598.115,3.62975
856.5,598.615,3.62489
858,599.115,3.62055
859.5,599.615,3.61628
861,600.115,3.61157
862.5,600.615,3.60626
864,601.115,3.60068
865.5,601.615,3.59087
867,602.115,3.57523
868.5,602.615,3.57187
870,603.115,3.56738
871.5,603.615,3.56225
873,604.115,3.55638
874.5,604.615,3.55015
876,605.115,3.54184
877.5,605.615,3.53098
879,606.115,3.51289
880.5,606.615,3.50792
882,607.115,3.49995
883.5,607.615,3.48802
885,608.115,3.48002
886.5,608.615,3.47207
888,609.115,3.46341
889.5,609.615,3.45252
891,610.115,3.44131
892.5,610.615,3.42922
894,611.115,3.41947
895.5,611.615,3.40854
897,612.115,3.39759
898.5,612.615,3.38535
900,613.115,3.3748
901.5,613.615,3.36308
903,614.115,3.35279
904.5,614.615,3.3399
906,615.115,3.32838
907.5,615.615,3.3137
909,616.115,3.29924
910.5,616.615,3.28207
912,617.115,3.26657
913.5,617.615,3.2502
915,618.115,3.23581
916.5,618.615,3.21811
918,619.115,3.19807
919.5,619.615,3.18019
921,620.115,3.16091
922.5,620.615,3.14282
924,621.115,3.12278
925.5,621.615,3.10328
927,622.115,3.08151
928.5,622.615,3.06101
930,623.115,3.03937
931.5,623.615,3.01848
933,624.115,2.99534
934.5,624.615,2.97406
936,625.115,2.95171
937.5,625.615,2.93018
939,626.115,2.90556
940.5,626.615,2.88053
942,627.115,2.8532
943.5,627.615,2.82728
945,628.115,2.80014
946.5,628.615,2.77463
948,629.115,2.74867
949.5,629.615,2.72344
951,630.115,2.69502
952.5,630.615,2.66485
954,631.115,2.63146
955.5,631.615,2.60136
957,632.115,2.57168
958.5,632.615,2.54037
960,633.115,2.5101
961.5,633.615,2.47998
963,634.115,2.45078
964.5,634.615,2.41914
966,635.115,2.38492
967.5,635.615,2.35176
969,636.115,2.31853
970.5,636.615,2.28666
972,637.115,2.25343
973.5,637.615,2.21899
975,638.115,2.1814
976.5,638.615,2.14279
978,639.115,2.10547
979.5,639.615,2.07017
981,640.115,2.03617
982.5,640.615,2.00126
984,641.115,1.96768
985.5,641.615,1.92907
987,642.115,1.88983
988.5,642.615,1.84979
990,643.115,1.81708
991.5,643.615,1.78161
993,644.115,1.74327
994.5,644.615,1.71001
996,645.115,1.67257
997.5,645.615,1.63992
999,646.115,1.60253
1000.5,646.615,1.57039
1002,647.115,1.53402
1003.5,647.615,1.50092
1005,648.115,1.46274
1006.5,648.615,1.42931
1008,649.115,1.39293
1009.5,649.615,1.36061
1011,650.115,1.32575
1012.5,650.615,1.29325
1014,651.115,1.25908
1015.5,651.615,1.22633
1017,652.115,1.19264
1018.5,652.615,1.15972
1020,653.115,1.12799
1021.5,653.615,1.09636
1023,654.115,1.0662
1024.5,654.615,1.03402
1026,655.115,1.00387
1027.5,655.615,0.971961
1029,656.115,0.942998
1030.5,656.615,0.911782
1032,657.115,0.884146
1033.5,657.615,0.853741
1035,658.115,0.823741
1036.5,658.615,0.79886
1038,659.115,0.771094
1039.5,659.615,0.745994
1041,660.115,0.717326
1042.5,660.615,0.691156
1044,661.115,0.662255
1045.5,661.615,0.640257
1047,662.115,0.616265
1048.5,662.615,0.595238
1050,663.115,0.570937
1051.5,663.615,0.549755
1053,664.115,0.526672
1054.5,664.615,0.507394
1056,665.115,0.486144
1057.5,665.615,0.466825
1059,666.115,0.446465
1060.5,666.615,0.428056
1062,667.115,0.409202
1063.5,667.615,0.392507
1065,668.115,0.375611
1066.5,668.615,0.360043
1068,669.115,0.344309
1069.5,669.615,0.330238
1071,670.115,0.316889
1072.5,670.615,0.30295
1074,671.115,0.290049
1075.5,671.615,0.277912
1077,672.115,0.266182
1078.5,672.615,0.254985
1080,673.115,0.242598
1081.5,673.615,0.231624
1083,674.115,0.220333
1084.5,674.615,0.210112
1086,675.115,0.200121
1087.5,675.615,0.192031
1089,676.115,0.1874
1090.5,676.615,0.183314
1092,677.115,0.179123
1093.5,677.615,0.17394
1095,678.115,0.167288
1096.5,678.615,0.154827
1098,679.115,0.137723
1099.5,679.615,0.134983
1101,680.115,0.133608
1102.5,680.615,0.133232
1104,681.115,0.130568
1105.5,681.615,0.125689
1107,682.115,0.121217
1108.5,682.615,0.117658
1110,683.115,0.113828
1111.5,683.615,0.109143
1113,684.115,0.104264
1114.5,684.615,0.0991835
1116,685.115,0.0938378
1117.5,685.615,0.0890772
1119,686.115,0.0850465
1120.5,686.615,0.08195489
1122,687.115,0.07933392
1123.5,687.615,0.0768697
1125,688.115,0.0731255
1126.5,688.615,0.0688166
1128,689.115,0.0638324
1129.5,689.615,0.0605719
1131,690.115,0.057303
1132.5,690.615,0.0546408
1134,691.115,0.052406
1135.5,691.615,0.051599
1137,692.115,0.0506011
1138.5,692.615,0.04888416
1140,693.115,0.0474918
1141.5,693.615,0.0467822
1143,694.115,0.04598581
1144.5,694.615,0.0450484
1146,695.115,0.0438053
1147.5,695.615,0.0439279
1149,696.115,0.04516742
1150.5,696.615,0.0462974
1152,697.115,0.0468345
1153.5,697.615,0.04704622
1155,698.115,0.0466926
1156.5,698.615,0.045954
1158,699.115,0.0445506
1159.5,699.615,0.0428702
1161,700.115,0.0413847
1162.5,700.615,0.0402975
1164,701.115,0.0395998
1165.5,701.615,0.0392878
1167,702.115,0.0388399
1168.5,702.615,0.037888
1170,703.115,0.0367847
1171.5,703.615,0.0359726
1173,704.115,0.0352587
1174.5,704.615,0.034601
1176,705.115,0.03373275
1177.5,705.615,0.0325957
1179,706.115,0.0310281
1180.5,706.615,0.0290845
1182,707.115,0.02782722
1183.5,707.615,0.02741
1185,708.115,0.0276591
1186.5,708.615,0.02830301
1188,709.115,0.0282307
1189.5,709.615,0.027529
1191,710.115,0.02642146
1192.5,710.615,0.02539916
1194,711.115,0.0252601
1195.5,711.615,0.02577
1197,712.115,0.0269287
1198.5,712.615,0.027861
1200,713.115,0.0286975
1201.5,713.615,0.0289749
1203,714.115,0.0292711
1204.5,714.615,0.0296923
1206,715.115,0.0302058
1207.5,715.615,0.0304989
1209,716.115,0.0300156
1210.5,716.615,0.02960544
1212,717.115,0.0290082
1213.5,717.615,0.0282071
1215,718.115,0.0276033
1216.5,718.615,0.0267916
1218,719.115,0.0263936
1219.5,719.615,0.0264941
1221,720.115,0.0266969
1222.5,720.615,0.02719231
1224,721.115,0.0275919
1225.5,721.615,0.0272882
1227,722.115,0.0270913
1228.5,722.615,0.0266949
1230,723.115,0.0265987
1231.5,723.615,0.026181
1233,724.115,0
1234.5,724.615,0
1236,725.115,0
1237.5,725.615,0
1239,726.115,0
1240.5,726.615,0
1242,727.115,0
1243.5,727.615,0
1245,728.115,0
1246.5,728.615,0
1248,729.115,0
1249.5,729.615,0
1251,730.115,0
1252.5,730.615,0
1254,731.115,0
1255.5,731.615,0
1257,732.115,0
1258.5,732.615,0
1260,733.115,0
1261.5,733.615,0
1263,734.115,0
1264.5,734.615,0
1266,735.115,0
1267.5,735.615,0
1269,736.115,0
1270.5,736.615,0
1272,737.115,0
1273.5,737.615,0
1275,738.115,0
1276.5,738.615,0
1278,739.115,0
1279.5,739.615,0
1281,740.115,0
1282.5,740.615,0
1284,741.115,0
1285.5,741.615,0
1287,742.115,0
1288.5,742.615,0
1290,743.115,0
1291.5,743.615,0
1293,744.115,0
1294.5,744.615,0
1296,745.115,0
1297.5,745.615,0
1299,746.115,0
1300.5,746.615,0
1302,747.115,0
1303.5,747.615,0
1305,748.115,0
1306.5,748.615,0
1308,749.115,0
1309.5,749.615,0
1311,750.115,0
1312.5,750.615,0
1314,751.115,0
1315.5,751.615,0
1317,752.115,0
1318.5,752.615,0
1320,753.115,0
1321.5,753.615,0
1323,754.115,0
1324.5,754.615,0
1326,755.115,0
1327.5,755.615,0
1329,756.115,0
1330.5,756.615,0
1332,757.115,0
1333.5,757.615,0
1335,758.115,0
1336.5,758.615,0
1338,759.115,0
1339.5,759.615,0
1341,760.115,0
1342.5,760.615,0
1344,761.115,0
1345.5,761.615,0
1347,762.115,0
1348.5,762.615,0
1350,763.115,0
1351.5,763.615,0
1353,764.115,0
1354.5,764.615,0
1356,765.115,0
1357.5,765.615,0
1359,766.115,0
1360.5,766.615,0
1362,767.115,0
1363.5,767.615,0
1365,768.115,0
1366.5,768.615,0
1368,769.115,0
1369.5,769.615,0
1371,770.115,0
1372.5,770.615,0
1374,771.115,0
1375.5,771.615,0
1377,772.115,0
1378.5,772.615,0
1380,773.115,0
1381.5,773.615,0