File: PMMA/Calibration_Data/UMET/UMET_TGA_N2_1K_1.csv
Time,Temperature,Mass
[s],[K],[mg]
0,313.115,4.3361
30,313.615,4.3361
60,314.115,4.3361
90,314.615,4.3361
120,315.115,4.3361
150,315.615,4.33592
180,316.115,4.3352
210,316.615,4.33454
240,317.115,4.33303
270,317.615,4.33319
300,318.115,4.33308
330,318.615,4.33299
360,319.115,4.3314
390,319.615,4.33107
420,320.115,4.33071
450,320.615,4.33111
480,321.115,4.33031
510,321.615,4.32989
540,322.115,4.33037
570,322.615,4.32911
600,323.115,4.3293
630,323.615,4.32907
660,324.115,4.3283
690,324.615,4.32823
720,325.115,4.3287
750,325.615,4.3298
780,326.115,4.3286
810,326.615,4.3293
840,327.115,4.32827
870,327.615,4.3283
900,328.115,4.32819
930,328.615,4.32951
960,329.115,4.32928
990,329.615,4.3296
1020,330.115,4.3273
1050,330.615,4.3263
1080,331.115,4.32682
1110,331.615,4.32685
1140,332.115,4.32671
1170,332.615,4.32649
1200,333.115,4.32668
1230,333.615,4.32553
1260,334.115,4.3237
1290,334.615,4.32341
1320,335.115,4.32451
1350,335.615,4.32299
1380,336.115,4.32393
1410,336.615,4.32341
1440,337.115,4.32389
1470,337.615,4.3235
1500,338.115,4.32173
1530,338.615,4.32174
1560,339.115,4.32187
1590,339.615,4.3214
1620,340.115,4.32191
1650,340.615,4.3222
1680,341.115,4.32127
1710,341.615,4.3217
1740,342.115,4.32336
1770,342.615,4.3223
1800,343.115,4.32228
1830,343.615,4.32231
1860,344.115,4.32231
1890,344.615,4.32102
1920,345.115,4.32216
1950,345.615,4.32257
1980,346.115,4.32225
2010,346.615,4.32271
2040,347.115,4.32071
2070,347.615,4.32199
2100,348.115,4.32128
2130,348.615,4.3216
2160,349.115,4.32191
2190,349.615,4.323
2220,350.115,4.32372
2250,350.615,4.32219
2280,351.115,4.3218
2310,351.615,4.32259
2340,352.115,4.32279
2370,352.615,4.3213
2400,353.115,4.32089
2430,353.615,4.3215
2460,354.115,4.3219
2490,354.615,4.3217
2520,355.115,4.32161
2550,355.615,4.3213
2580,356.115,4.3214
2610,356.615,4.32009
2640,357.115,4.32009
2670,357.615,4.3201
2700,358.115,4.31964
2730,358.615,4.31962
2760,359.115,4.32002
2790,359.615,4.32056
2820,360.115,4.32109
2850,360.615,4.3203
2880,361.115,4.31991
2910,361.615,4.3191
2940,362.115,4.3194
2970,362.615,4.32038
3000,363.115,4.32171
3030,363.615,4.32124
3060,364.115,4.31951
3090,364.615,4.32021
3120,365.115,4.32051
3150,365.615,4.3206
3180,366.115,4.32059
3210,366.615,4.32041
3240,367.115,4.32046
3270,367.615,4.32069
3300,368.115,4.3207
3330,368.615,4.32029
3360,369.115,4.32059
3390,369.615,4.3212
3420,370.115,4.32038
3450,370.615,4.32035
3480,371.115,4.31986
3510,371.615,4.31934
3540,372.115,4.31987
3570,372.615,4.3194
3600,373.115,4.31948
3630,373.615,4.31905
3660,374.115,4.31821
3690,374.615,4.31911
3720,375.115,4.31827
3750,375.615,4.31782
3780,376.115,4.31849
3810,376.615,4.31712
3840,377.115,4.31716
3870,377.615,4.31604
3900,378.115,4.31473
3930,378.615,4.31496
3960,379.115,4.31468
3990,379.615,4.31443
4020,380.115,4.31502
4050,380.615,4.31619
4080,381.115,4.31661
4110,381.615,4.31584
4140,382.115,4.31556
4170,382.615,4.31549
4200,383.115,4.31602
4230,383.615,4.3171
4260,384.115,4.31675
4290,384.615,4.31738
4320,385.115,4.31771
4350,385.615,4.31669
4380,386.115,4.31658
4410,386.615,4.31705
4440,387.115,4.3163
4470,387.615,4.31737
4500,388.115,4.31777
4530,388.615,4.31648
4560,389.115,4.3168
4590,389.615,4.31718
4620,390.115,4.31701
4650,390.615,4.31809
4680,391.115,4.31499
4710,391.615,4.31439
4740,392.115,4.3145
4770,392.615,4.31469
4800,393.115,4.31506
4830,393.615,4.31499
4860,394.115,4.31549
4890,394.615,4.31423
4920,395.115,4.31483
4950,395.615,4.31331
4980,396.115,4.31452
5010,396.615,4.31434
5040,397.115,4.31485
5070,397.615,4.31501
5100,398.115,4.31435
5130,398.615,4.31447
5160,399.115,4.31379
5190,399.615,4.3142
5220,400.115,4.31411
5250,400.615,4.31509
5280,401.115,4.31368
5310,401.615,4.31334
5340,402.115,4.31291
5370,402.615,4.31283
5400,403.115,4.31417
5430,403.615,4.3141
5460,404.115,4.31457
5490,404.615,4.31419
5520,405.115,4.31291
5550,405.615,4.31291
5580,406.115,4.31472
5610,406.615,4.31562
5640,407.115,4.31521
5670,407.615,4.31488
5700,408.115,4.31266
5730,408.615,4.31251
5760,409.115,4.3121
5790,409.615,4.31179
5820,410.115,4.31168
5850,410.615,4.31212
5880,411.115,4.31171
5910,411.615,4.31345
5940,412.115,4.31216
5970,412.615,4.31191
6000,413.115,4.31126
6030,413.615,4.31072
6060,414.115,4.31123
6090,414.615,4.31061
6120,415.115,4.31049
6150,415.615,4.31044
6180,416.115,4.30935
6210,416.615,4.30999
6240,417.115,4.30947
6270,417.615,4.3097
6300,418.115,4.31032
6330,418.615,4.31069
6360,419.115,4.31037
6390,419.615,4.30985
6420,420.115,4.3081
6450,420.615,4.30734
6480,421.115,4.30719
6510,421.615,4.30598
6540,422.115,4.30581
6570,422.615,4.3058
6600,423.115,4.30527
6630,423.615,4.30499
6660,424.115,4.3048
6690,424.615,4.30466
6720,425.115,4.3044
6750,425.615,4.30485
6780,426.115,4.30418
6810,426.615,4.30389
6840,427.115,4.3029
6870,427.615,4.30332
6900,428.115,4.30248
6930,428.615,4.30271
6960,429.115,4.30091
6990,429.615,4.30023
7020,430.115,4.3005
7050,430.615,4.29975
7080,431.115,4.29993
7110,431.615,4.29798
7140,432.115,4.2976
7170,432.615,4.29788
7200,433.115,4.29592
7230,433.615,4.2952
7260,434.115,4.2935
7290,434.615,4.29218
7320,435.115,4.29211
7350,435.615,4.2901
7380,436.115,4.28971
7410,436.615,4.28731
7440,437.115,4.2863
7470,437.615,4.28522
7500,438.115,4.28481
7530,438.615,4.28462
7560,439.115,4.28183
7590,439.615,4.28154
7620,440.115,4.2801
7650,440.615,4.279
7680,441.115,4.27679
7710,441.615,4.2762
7740,442.115,4.27381
7770,442.615,4.27347
7800,443.115,4.27278
7830,443.615,4.27081
7860,444.115,4.26848
7890,444.615,4.26959
7920,445.115,4.26833
7950,445.615,4.26739
7980,446.115,4.26495
8010,446.615,4.26415
8040,447.115,4.26267
8070,447.615,4.25977
8100,448.115,4.25839
8130,448.615,4.25567
8160,449.115,4.2547
8190,449.615,4.25481
8220,450.115,4.25233
8250,450.615,4.25088
8280,451.115,4.25029
8310,451.615,4.2488
8340,452.115,4.24789
8370,452.615,4.2476
8400,453.115,4.2459
8430,453.615,4.2451
8460,454.115,4.24478
8490,454.615,4.2431
8520,455.115,4.2426
8550,455.615,4.24098
8580,456.115,4.2403
8610,456.615,4.24038
8640,457.115,4.23953
8670,457.615,4.23919
8700,458.115,4.23864
8730,458.615,4.23859
8760,459.115,4.2384
8790,459.615,4.23855
8820,460.115,4.23726
8850,460.615,4.23663
8880,461.115,4.23581
8910,461.615,4.2356
8940,462.115,4.23441
8970,462.615,4.23436
9000,463.115,4.23217
9030,463.615,4.23302
9060,464.115,4.2305
9090,464.615,4.23041
9120,465.115,4.22976
9150,465.615,4.2287
9180,466.115,4.22806
9210,466.615,4.22873
9240,467.115,4.22807
9270,467.615,4.2272
9300,468.115,4.22678
9330,468.615,4.22749
9360,469.115,4.22637
9390,469.615,4.2261
9420,470.115,4.2266
9450,470.615,4.22584
9480,471.115,4.22641
9510,471.615,4.2254
9540,472.115,4.22561
9570,472.615,4.22577
9600,473.115,4.22497
9630,473.615,4.22454
9660,474.115,4.22488
9690,474.615,4.22393
9720,475.115,4.22396
9750,475.615,4.22427
9780,476.115,4.22266
9810,476.615,4.22291
9840,477.115,4.2226
9870,477.615,4.22292
9900,478.115,4.22331
9930,478.615,4.2227
9960,479.115,4.22406
9990,479.615,4.22351
10020,480.115,4.22379
10050,480.615,4.22541
10080,481.115,4.22469
10110,481.615,4.22492
10140,482.115,4.22497
10170,482.615,4.22497
10200,483.115,4.22484
10230,483.615,4.22501
10260,484.115,4.2246
10290,484.615,4.22395
10320,485.115,4.22402
10350,485.615,4.22298
10380,486.115,4.22241
10410,486.615,4.22177
10440,487.115,4.22249
10470,487.615,4.22185
10500,488.115,4.22012
10530,488.615,4.2206
10560,489.115,4.22024
10590,489.615,4.2201
10620,490.115,4.21929
10650,490.615,4.21982
10680,491.115,4.2193
10710,491.615,4.21882
10740,492.115,4.21902
10770,492.615,4.22001
10800,493.115,4.22079
10830,493.615,4.22111
10860,494.115,4.22082
10890,494.615,4.21928
10920,495.115,4.21906
10950,495.615,4.2191
10980,496.115,4.2192
11010,496.615,4.21868
11040,497.115,4.21889
11070,497.615,4.2192
11100,498.115,4.21891
11130,498.615,4.21843
11160,499.115,4.21782
11190,499.615,4.21558
11220,500.115,4.2156
11250,500.615,4.216
11280,501.115,4.2164
11310,501.615,4.21552
11340,502.115,4.21681
11370,502.615,4.21636
11400,503.115,4.2167
11430,503.615,4.21638
11460,504.115,4.2159
11490,504.615,4.21629
11520,505.115,4.21621
11550,505.615,4.2149
11580,506.115,4.21381
11610,506.615,4.2137
11640,507.115,4.21426
11670,507.615,4.21356
11700,508.115,4.21253
11730,508.615,4.21279
11760,509.115,4.21366
11790,509.615,4.21347
11820,510.115,4.21219
11850,510.615,4.21212
11880,511.115,4.21199
11910,511.615,4.21149
11940,512.115,4.20874
11970,512.615,4.20859
12000,513.115,4.20813
12030,513.615,4.20695
12060,514.115,4.20616
12090,514.615,4.20585
12120,515.115,4.2049
12150,515.615,4.204
12180,516.115,4.20318
12210,516.615,4.2033
12240,517.115,4.20237
12270,517.615,4.20195
12300,518.115,4.20044
12330,518.615,4.2001
12360,519.115,4.20031
12390,519.615,4.19903
12420,520.115,4.1982
12450,520.615,4.19665
12480,521.115,4.19628
12510,521.615,4.1956
12540,522.115,4.19471
12570,522.615,4.19328
12600,523.115,4.19157
12630,523.615,4.19044
12660,524.115,4.18999
12690,524.615,4.19039
12720,525.115,4.18902
12750,525.615,4.18699
12780,526.115,4.18426
12810,526.615,4.18279
12840,527.115,4.18108
12870,527.615,4.1803
12900,528.115,4.1802
12930,528.615,4.17882
12960,529.115,4.17734
12990,529.615,4.17611
13020,530.115,4.17351
13050,530.615,4.17211
13080,531.115,4.16967
13110,531.615,4.1688
13140,532.115,4.16701
13170,532.615,4.16629
13200,533.115,4.16556
13230,533.615,4.16362
13260,534.115,4.16072
13290,534.615,4.15888
13320,535.115,4.1569
13350,535.615,4.15517
13380,536.115,4.15358
13410,536.615,4.15146
13440,537.115,4.1498
13470,537.615,4.14801
13500,538.115,4.14644
13530,538.615,4.14421
13560,539.115,4.1415
13590,539.615,4.13971
13620,540.115,4.1363
13650,540.615,4.1333
13680,541.115,4.13132
13710,541.615,4.1299
13740,542.115,4.1268
13770,542.615,4.12359
13800,543.115,4.12277
13830,543.615,4.1208
13860,544.115,4.11809
13890,544.615,4.11549
13920,545.115,4.11342
13950,545.615,4.11275
13980,546.115,4.1102
14010,546.615,4.10741
14040,547.115,4.1047
14070,547.615,4.10117
14100,548.115,4.09773
14130,548.615,4.09534
14160,549.115,4.09219
14190,549.615,4.08932
14220,550.115,4.08625
14250,550.615,4.08425
14280,551.115,4.08053
14310,551.615,4.07589
14340,552.115,4.07309
14370,552.615,4.06899
14400,553.115,4.06598
14430,553.615,4.06359
14460,554.115,4.06068
14490,554.615,4.05658
14520,555.115,4.05318
14550,555.615,4.04842
14580,556.115,4.04428
14610,556.615,4.04146
14640,557.115,4.03656
14670,557.615,4.03311
14700,558.115,4.02958
14730,558.615,4.02481
14760,559.115,4.02057
14790,559.615,4.01558
14820,560.115,4.01233
14850,560.615,4.00624
14880,561.115,4.00006
14910,561.615,3.99356
14940,562.115,3.98726
14970,562.615,3.98295
15000,563.115,3.97607
15030,563.615,3.97135
15060,564.115,3.96554
15090,564.615,3.95895
15120,565.115,3.95212
15150,565.615,3.94526
15180,566.115,3.93837
15210,566.615,3.93271
15240,567.115,3.92563
15270,567.615,3.91808
15300,568.115,3.90888
15330,568.615,3.9006
15360,569.115,3.89374
15390,569.615,3.88432
15420,570.115,3.87562
15450,570.615,3.86578
15480,571.115,3.85566
15510,571.615,3.8464
15540,572.115,3.83614
15570,572.615,3.82623
15600,573.115,3.81468
15630,573.615,3.80425
15660,574.115,3.78999
15690,574.615,3.77863
15720,575.115,3.76668
15750,575.615,3.75458
15780,576.115,3.74273
15810,576.615,3.72877
15840,577.115,3.71644
15870,577.615,3.7026
15900,578.115,3.68832
15930,578.615,3.67266
15960,579.115,3.65632
15990,579.615,3.64236
16020,580.115,3.62523
16050,580.615,3.60803
16080,581.115,3.59034
16110,581.615,3.5727
16140,582.115,3.5518
16170,582.615,3.53179
16200,583.115,3.51102
16230,583.615,3.4902
16260,584.115,3.47086
16290,584.615,3.44973
16320,585.115,3.42663
16350,585.615,3.40415
16380,586.115,3.38082
16410,586.615,3.3556
16440,587.115,3.33088
16470,587.615,3.30573
16500,588.115,3.2798
16530,588.615,3.25331
16560,589.115,3.2265
16590,589.615,3.19946
16620,590.115,3.1705
16650,590.615,3.14209
16680,591.115,3.1135
16710,591.615,3.08205
16740,592.115,3.05223
16770,592.615,3.02084
16800,593.115,2.98813
16830,593.615,2.95586
16860,594.115,2.92036
16890,594.615,2.88702
16920,595.115,2.85223
16950,595.615,2.81624
16980,596.115,2.78024
17010,596.615,2.7439
17040,597.115,2.7071
17070,597.615,2.66926
17100,598.115,2.6308
17130,598.615,2.59214
17160,599.115,2.55404
17190,599.615,2.51396
17220,600.115,2.47424
17250,600.615,2.43413
17280,601.115,2.39434
17310,601.615,2.35464
17340,602.115,2.31472
17370,602.615,2.27371
17400,603.115,2.2319
17430,603.615,2.19079
17460,604.115,2.1502
17490,604.615,2.10946
17520,605.115,2.0703
17550,605.615,2.02926
17580,606.115,1.98897
17610,606.615,1.94763
17640,607.115,1.906
17670,607.615,1.86497
17700,608.115,1.8242
17730,608.615,1.7848
17760,609.115,1.7444
17790,609.615,1.70562
17820,610.115,1.66399
17850,610.615,1.62488
17880,611.115,1.58534
17910,611.615,1.54509
17940,612.115,1.50612
17970,612.615,1.46639
18000,613.115,1.42675
18030,613.615,1.38873
18060,614.115,1.34867
18090,614.615,1.30935
18120,615.115,1.26905
18150,615.615,1.23002
18180,616.115,1.19028
18210,616.615,1.15192
18240,617.115,1.11497
18270,617.615,1.07787
18300,618.115,1.04034
18330,618.615,1.00401
18360,619.115,0.968797
18390,619.615,0.934283
18420,620.115,0.900997
18450,620.615,0.867665
18480,621.115,0.834969
18510,621.615,0.802576
18540,622.115,0.772615
18570,622.615,0.743003
18600,623.115,0.714415
18630,623.615,0.687135
18660,624.115,0.659105
18690,624.615,0.632777
18720,625.115,0.605875
18750,625.615,0.581625
18780,626.115,0.55631
18810,626.615,0.532507
18840,627.115,0.509511
18870,627.615,0.487754
18900,628.115,0.466102
18930,628.615,0.446122
18960,629.115,0.426788
18990,629.615,0.40717
19020,630.115,0.39089
19050,630.615,0.372534
19080,631.115,0.356714
19110,631.615,0.339773
19140,632.115,0.325171
19170,632.615,0.310797
19200,633.115,0.296297
19230,633.615,0.281718
19260,634.115,0.268719
19290,634.615,0.256045
19320,635.115,0.244338
19350,635.615,0.231247
19380,636.115,0.220166
19410,636.615,0.20885
19440,637.115,0.198866
19470,637.615,0.18886
19500,638.115,0.179945
19530,638.615,0.171324
19560,639.115,0.162834
19590,639.615,0.154947
19620,640.115,0.145449
19650,640.615,0.137891
19680,641.115,0.131007
19710,641.615,0.123597
19740,642.115,0.116839
19770,642.615,0.110803
19800,643.115,0.105049
19830,643.615,0.100138
19860,644.115,0.0941966
19890,644.615,0.0889495
19920,645.115,0.0847764
19950,645.615,0.0804824
19980,646.115,0.0764853
20010,646.615,0.0728985
20040,647.115,0.06914822
20070,647.615,0.0661966
20100,648.115,0.0620938
20130,648.615,0.0592957
20160,649.115,0.0557731
20190,649.615,0.0524807
20220,650.115,0.0503235
20250,650.615,0.0486359
20280,651.115,0.0462922
20310,651.615,0.0433315
20340,652.115,0.0415711
20370,652.615,0.0410911
20400,653.115,0.0369288
20430,653.615,0.0356367
20460,654.115,0.0343762
20490,654.615,0.0316479
20520,655.115,0.02951193
20550,655.615,0.0283052
20580,656.115,0.0271713
20610,656.615,0.0257877
20640,657.115,0.0250804
20670,657.615,0.0246455
20700,658.115,0.0232966
20730,658.615,0.02259455
20760,659.115,0.02230143
20790,659.615,0.0218964
20820,660.115,0.0212807
20850,660.615,0.0210882
20880,661.115,0.0201325
20910,661.615,0.0219086
20940,662.115,0.0213895
20970,662.615,0.0201108
21000,663.115,0.0195216
21030,663.615,0.0206112
21060,664.115,0.0200787
21090,664.615,0.018392
21120,665.115,0.018555
21150,665.615,0.0178886
21180,666.115,0.0173973
21210,666.615,0.0172924
21240,667.115,0.0180967
21270,667.615,0.0173964
21300,668.115,0.0174081
21330,668.615,0.01689
21360,669.115,0.0169442
21390,669.615,0.0165882
21420,670.115,0.0164529
21450,670.615,0.0156893
21480,671.115,0.015407
21510,671.615,0.0152848
21540,672.115,0.0149899
21570,672.615,0.0138981
21600,673.115,0.0132737
21630,673.615,0.0132056
21660,674.115,0.0129177
21690,674.615,0.0131349
21720,675.115,0.0136466
21750,675.615,0.0139978
21780,676.115,0.0152405
21810,676.615,0.0155536
21840,677.115,0.0162066
21870,677.615,0.0177052
21900,678.115,0.0181453
21930,678.615,0.01738039
21960,679.115,0.0174489
21990,679.615,0.0167634
22020,680.115,0.0180928
22050,680.615,0.0182121
22080,681.115,0.0177039
22110,681.615,0.0166476
22140,682.115,0.01659252
22170,682.615,0.0168115
22200,683.115,0.0187584
22230,683.615,0.0189934
22260,684.115,0.0188954
22290,684.615,0.0198216
22320,685.115,0.018686
22350,685.615,0.019205
22380,686.115,0.019094
22410,686.615,0.0191777
22440,687.115,0.0187588
22470,687.615,0.01799785
22500,688.115,0.0179081
22530,688.615,0.0182394
22560,689.115,0.0183842
22590,689.615,0.019094
22620,690.115,0.0192167
22650,690.615,0.0192068
22680,691.115,0.01888545
22710,691.615,0.0178734
22740,692.115,0.0176115
22770,692.615,0.018183
22800,693.115,0.018598
22830,693.615,0.0183968
22860,694.115,0.0189735
22890,694.615,0.0187749
22920,695.115,0.0177459
22950,695.615,0.0181986
22980,696.115,0.0179007
23010,696.615,0.0193841
23040,697.115,0.0202006
23070,697.615,0.0187961
23100,698.115,0.0179315
23130,698.615,0.018715
23160,699.115,0.0199912
23190,699.615,0.01969977
23220,700.115,0.01998812
23250,700.615,0.0199001
23280,701.115,0.0196074
23310,701.615,0.0201173
23340,702.115,0.0197258
23370,702.615,0.01951245
23400,703.115,0.0191664
23430,703.615,0.0200172
23460,704.115,0.0187172
23490,704.615,0.0198546
23520,705.115,0.019636
23550,705.615,0.0201004
23580,706.115,0.0202032
23610,706.615,0.01989923
23640,707.115,0.0207964
23670,707.615,0.0202153
23700,708.115,0.0197704
23730,708.615,0.0200501
23760,709.115,0.0214156
23790,709.615,0.0217967
23820,710.115,0.0210062
23850,710.615,0.0207899
23880,711.115,0.02168527
23910,711.615,0.0220972
23940,712.115,0.0223968
23970,712.615,0.021419
24000,713.115,0.0214988
24030,713.615,0.0213956
24060,714.115,0.0212651
24090,714.615,0.020299
24120,715.115,0.0207955
24150,715.615,0.0206893
24180,716.115,0.021207
24210,716.615,0.0209156
24240,717.115,0.0209941
24270,717.615,0.0213965
24300,718.115,0.0223942
24330,718.615,0.0226592
24360,719.115,0.0210305
24390,719.615,0.0206997
24420,720.115,0.0211337
24450,720.615,0.0217
24480,721.115,0.0213783
24510,721.615,0.0213722
24540,722.115,0.0217854
24570,722.615,0.0216059
24600,723.115,0.0217
24630,723.615,0.0220109
24660,724.115,0
24690,724.615,0
24720,725.115,0
24750,725.615,0
24780,726.115,0
24810,726.615,0
24840,727.115,0
24870,727.615,0
24900,728.115,0
24930,728.615,0
24960,729.115,0
24990,729.615,0
25020,730.115,0
25050,730.615,0
25080,731.115,0
25110,731.615,0
25140,732.115,0
25170,732.615,0
25200,733.115,0
25230,733.615,0
25260,734.115,0
25290,734.615,0
25320,735.115,0
25350,735.615,0
25380,736.115,0
25410,736.615,0
25440,737.115,0
25470,737.615,0
25500,738.115,0
25530,738.615,0
25560,739.115,0
25590,739.615,0
25620,740.115,0
25650,740.615,0
25680,741.115,0
25710,741.615,0
25740,742.115,0
25770,742.615,0
25800,743.115,0
25830,743.615,0
25860,744.115,0
25890,744.615,0
25920,745.115,0
25950,745.615,0
25980,746.115,0
26010,746.615,0
26040,747.115,0
26070,747.615,0
26100,748.115,0
26130,748.615,0
26160,749.115,0
26190,749.615,0
26220,750.115,0
26250,750.615,0
26280,751.115,0
26310,751.615,0
26340,752.115,0
26370,752.615,0
26400,753.115,0
26430,753.615,0
26460,754.115,0
26490,754.615,0
26520,755.115,0
26550,755.615,0
26580,756.115,0
26610,756.615,0
26640,757.115,0
26670,757.615,0
26700,758.115,0
26730,758.615,0
26760,759.115,0
26790,759.615,0
26820,760.115,0
26850,760.615,0
26880,761.115,0
26910,761.615,0
26940,762.115,0
26970,762.615,0
27000,763.115,0
27030,763.615,0
27060,764.115,0
27090,764.615,0
27120,765.115,0
27150,765.615,0
27180,766.115,0
27210,766.615,0
27240,767.115,0
27270,767.615,0
27300,768.115,0
27330,768.615,0
27360,769.115,0
27390,769.615,0
27420,770.115,0
27450,770.615,0
27480,771.115,0
27510,771.615,0
27540,772.115,0
27570,772.615,0
27600,773.115,0
27630,773.615,0