File: PMMA/Calibration_Data/UMET/UMET_TGA_N2_5K_1.csv
Time,Temperature,Mass
[s],[K],[mg]
0,313.115,4.0931
6,313.615,4.0931
12,314.115,4.0931
18,314.615,4.0931
24,315.115,4.0931
30,315.615,4.0931
36,316.115,4.0931
42,316.615,4.0931
48,317.115,4.0931
54,317.615,4.0931
60,318.115,4.0931
66,318.615,4.0931
72,319.115,4.0931
78,319.615,4.0931
84,320.115,4.0931
90,320.615,4.0931
96,321.115,4.0931
102,321.615,4.0931
108,322.115,4.0931
114,322.615,4.0931
120,323.115,4.0931
126,323.615,4.0931
132,324.115,4.0931
138,324.615,4.0931
144,325.115,4.0931
150,325.615,4.0931
156,326.115,4.0931
162,326.615,4.0931
168,327.115,4.0931
174,327.615,4.0931
180,328.115,4.0931
186,328.615,4.0931
192,329.115,4.0931
198,329.615,4.0931
204,330.115,4.0931
210,330.615,4.0931
216,331.115,4.0931
222,331.615,4.0931
228,332.115,4.0931
234,332.615,4.0931
240,333.115,4.0931
246,333.615,4.0931
252,334.115,4.0931
258,334.615,4.0931
264,335.115,4.0931
270,335.615,4.0931
276,336.115,4.0931
282,336.615,4.0931
288,337.115,4.0931
294,337.615,4.0931
300,338.115,4.0931
306,338.615,4.0931
312,339.115,4.0931
318,339.615,4.0931
324,340.115,4.0931
330,340.615,4.0931
336,341.115,4.0931
342,341.615,4.0931
348,342.115,4.0931
354,342.615,4.0931
360,343.115,4.0931
366,343.615,4.0931
372,344.115,4.0931
378,344.615,4.0931
384,345.115,4.0931
390,345.615,4.0931
396,346.115,4.0931
402,346.615,4.0931
408,347.115,4.0931
414,347.615,4.0931
420,348.115,4.0931
426,348.615,4.0931
432,349.115,4.0931
438,349.615,4.0931
444,350.115,4.0931
450,350.615,4.0931
456,351.115,4.0931
462,351.615,4.0931
468,352.115,4.0931
474,352.615,4.0931
480,353.115,4.0931
486,353.615,4.0931
492,354.115,4.0931
498,354.615,4.0931
504,355.115,4.0931
510,355.615,4.0931
516,356.115,4.0931
522,356.615,4.0931
528,357.115,4.0931
534,357.615,4.0931
540,358.115,4.0931
546,358.615,4.0931
552,359.115,4.0931
558,359.615,4.0931
564,360.115,4.0931
570,360.615,4.0931
576,361.115,4.0931
582,361.615,4.0931
588,362.115,4.0931
594,362.615,4.0931
600,363.115,4.0931
606,363.615,4.0931
612,364.115,4.0931
618,364.615,4.0931
624,365.115,4.0931
630,365.615,4.0931
636,366.115,4.0931
642,366.615,4.0931
648,367.115,4.0931
654,367.615,4.0931
660,368.115,4.0931
666,368.615,4.0931
672,369.115,4.0931
678,369.615,4.0931
684,370.115,4.0931
690,370.615,4.0931
696,371.115,4.0931
702,371.615,4.0931
708,372.115,4.0931
714,372.615,4.0931
720,373.115,4.0931
726,373.615,4.0931
732,374.115,4.0931
738,374.615,4.0931
744,375.115,4.0931
750,375.615,4.0931
756,376.115,4.0931
762,376.615,4.0931
768,377.115,4.0931
774,377.615,4.0931
780,378.115,4.0931
786,378.615,4.0931
792,379.115,4.0931
798,379.615,4.0931
804,380.115,4.0931
810,380.615,4.0931
816,381.115,4.0931
822,381.615,4.0931
828,382.115,4.0931
834,382.615,4.0931
840,383.115,4.0931
846,383.615,4.0931
852,384.115,4.0931
858,384.615,4.0931
864,385.115,4.0931
870,385.615,4.0931
876,386.115,4.0931
882,386.615,4.0931
888,387.115,4.0931
894,387.615,4.0931
900,388.115,4.0931
906,388.615,4.0931
912,389.115,4.0931
918,389.615,4.0931
924,390.115,4.0931
930,390.615,4.0931
936,391.115,4.0931
942,391.615,4.0931
948,392.115,4.0931
954,392.615,4.0931
960,393.115,4.0931
966,393.615,4.0931
972,394.115,4.0931
978,394.615,4.0931
984,395.115,4.0931
990,395.615,4.0931
996,396.115,4.0931
1002,396.615,4.0931
1008,397.115,4.0931
1014,397.615,4.0931
1020,398.115,4.0931
1026,398.615,4.0931
1032,399.115,4.0931
1038,399.615,4.0931
1044,400.115,4.0931
1050,400.615,4.0931
1056,401.115,4.0931
1062,401.615,4.0931
1068,402.115,4.0931
1074,402.615,4.0931
1080,403.115,4.0931
1086,403.615,4.0931
1092,404.115,4.0931
1098,404.615,4.0931
1104,405.115,4.0931
1110,405.615,4.0931
1116,406.115,4.0931
1122,406.615,4.0931
1128,407.115,4.0931
1134,407.615,4.0931
1140,408.115,4.0931
1146,408.615,4.0931
1152,409.115,4.0931
1158,409.615,4.0931
1164,410.115,4.0931
1170,410.615,4.0931
1176,411.115,4.0931
1182,411.615,4.0931
1188,412.115,4.0931
1194,412.615,4.0931
1200,413.115,4.0931
1206,413.615,4.0931
1212,414.115,4.0931
1218,414.615,4.0931
1224,415.115,4.0931
1230,415.615,4.0931
1236,416.115,4.0931
1242,416.615,4.0931
1248,417.115,4.0931
1254,417.615,4.0931
1260,418.115,4.0931
1266,418.615,4.0931
1272,419.115,4.0931
1278,419.615,4.0931
1284,420.115,4.0931
1290,420.615,4.0931
1296,421.115,4.0931
1302,421.615,4.0931
1308,422.115,4.0931
1314,422.615,4.0931
1320,423.115,4.0931
1326,423.615,4.0931
1332,424.115,4.0931
1338,424.615,4.0931
1344,425.115,4.0931
1350,425.615,4.0931
1356,426.115,4.0931
1362,426.615,4.0931
1368,427.115,4.0931
1374,427.615,4.0931
1380,428.115,4.0931
1386,428.615,4.0931
1392,429.115,4.0931
1398,429.615,4.0931
1404,430.115,4.0931
1410,430.615,4.0931
1416,431.115,4.0931
1422,431.615,4.0931
1428,432.115,4.0931
1434,432.615,4.0931
1440,433.115,4.0931
1446,433.615,4.0931
1452,434.115,4.0931
1458,434.615,4.0931
1464,435.115,4.0931
1470,435.615,4.0931
1476,436.115,4.0931
1482,436.615,4.0931
1488,437.115,4.0931
1494,437.615,4.0931
1500,438.115,4.0931
1506,438.615,4.0931
1512,439.115,4.0931
1518,439.615,4.0929
1524,440.115,4.0919
1530,440.615,4.09111
1536,441.115,4.0901
1542,441.615,4.0888
1548,442.115,4.08881
1554,442.615,4.0885
1560,443.115,4.08849
1566,443.615,4.08719
1572,444.115,4.08653
1578,444.615,4.0829
1584,445.115,4.08404
1590,445.615,4.08426
1596,446.115,4.08325
1602,446.615,4.08244
1608,447.115,4.08106
1614,447.615,4.07763
1620,448.115,4.0784
1626,448.615,4.07664
1632,449.115,4.07397
1638,449.615,4.07369
1644,450.115,4.07245
1650,450.615,4.07162
1656,451.115,4.0713
1662,451.615,4.06899
1668,452.115,4.0674
1674,452.615,4.06647
1680,453.115,4.06526
1686,453.615,4.0628
1692,454.115,4.0615
1698,454.615,4.0603
1704,455.115,4.05929
1710,455.615,4.05799
1716,456.115,4.0573
1722,456.615,4.05499
1728,457.115,4.0536
1734,457.615,4.05217
1740,458.115,4.05044
1746,458.615,4.04965
1752,459.115,4.04767
1758,459.615,4.04647
1764,460.115,4.04649
1770,460.615,4.0452
1776,461.115,4.04337
1782,461.615,4.0418
1788,462.115,4.03883
1794,462.615,4.0384
1800,463.115,4.0382
1806,463.615,4.03719
1812,464.115,4.03575
1818,464.615,4.0353
1824,465.115,4.0343
1830,465.615,4.03388
1836,466.115,4.03259
1842,466.615,4.03189
1848,467.115,4.031
1854,467.615,4.03012
1860,468.115,4.02841
1866,468.615,4.02689
1872,469.115,4.0259
1878,469.615,4.02609
1884,470.115,4.02355
1890,470.615,4.02208
1896,471.115,4.02266
1902,471.615,4.02176
1908,472.115,4.02
1914,472.615,4.01955
1920,473.115,4.01804
1926,473.615,4.01698
1932,474.115,4.0164
1938,474.615,4.01623
1944,475.115,4.01516
1950,475.615,4.0138
1956,476.115,4.01563
1962,476.615,4.01352
1968,477.115,4.01208
1974,477.615,4.01151
1980,478.115,4.0112
1986,478.615,4.0106
1992,479.115,4.0097
1998,479.615,4.00871
2004,480.115,4.0078
2010,480.615,4.00761
2016,481.115,4.00704
2022,481.615,4.00775
2028,482.115,4.00719
2034,482.615,4.0061
2040,483.115,4.00438
2046,483.615,4.002
2052,484.115,4.0016
2058,484.615,4.0052
2064,485.115,4.00429
2070,485.615,4.00185
2076,486.115,4.0011
2082,486.615,4.001
2088,487.115,4.00038
2094,487.615,3.99999
2100,488.115,3.9998
2106,488.615,3.99989
2112,489.115,3.9995
2118,489.615,3.999
2124,490.115,3.99861
2130,490.615,3.99792
2136,491.115,3.99791
2142,491.615,3.99741
2148,492.115,3.99709
2154,492.615,3.99791
2160,493.115,3.9974
2166,493.615,3.9974
2172,494.115,3.9956
2178,494.615,3.996
2184,495.115,3.9952
2190,495.615,3.9956
2196,496.115,3.9953
2202,496.615,3.9942
2208,497.115,3.99379
2214,497.615,3.9929
2220,498.115,3.9938
2226,498.615,3.9932
2232,499.115,3.9928
2238,499.615,3.9925
2244,500.115,3.99418
2250,500.615,3.9934
2256,501.115,3.99201
2262,501.615,3.99121
2268,502.115,3.99279
2274,502.615,3.99179
2280,503.115,3.9913
2286,503.615,3.9917
2292,504.115,3.9905
2298,504.615,3.98971
2304,505.115,3.9925
2310,505.615,3.99088
2316,506.115,3.98867
2322,506.615,3.9884
2328,507.115,3.98809
2334,507.615,3.9877
2340,508.115,3.989
2346,508.615,3.9895
2352,509.115,3.9886
2358,509.615,3.98779
2364,510.115,3.9878
2370,510.615,3.98782
2376,511.115,3.98779
2382,511.615,3.9882
2388,512.115,3.9884
2394,512.615,3.98779
2400,513.115,3.9878
2406,513.615,3.9877
2412,514.115,3.9869
2418,514.615,3.989
2424,515.115,3.9897
2430,515.615,3.98729
2436,516.115,3.98508
2442,516.615,3.98401
2448,517.115,3.984
2454,517.615,3.9833
2460,518.115,3.9832
2466,518.615,3.9845
2472,519.115,3.98531
2478,519.615,3.985
2484,520.115,3.98388
2490,520.615,3.98239
2496,521.115,3.98119
2502,521.615,3.98069
2508,522.115,3.9803
2514,522.615,3.9808
2520,523.115,3.9803
2526,523.615,3.97959
2532,524.115,3.9787
2538,524.615,3.9789
2544,525.115,3.97928
2550,525.615,3.9803
2556,526.115,3.97981
2562,526.615,3.97903
2568,527.115,3.97854
2574,527.615,3.97721
2580,528.115,3.9783
2586,528.615,3.97479
2592,529.115,3.9759
2598,529.615,3.97771
2604,530.115,3.9758
2610,530.615,3.97601
2616,531.115,3.97521
2622,531.615,3.975
2628,532.115,3.97331
2634,532.615,3.97081
2640,533.115,3.9716
2646,533.615,3.97084
2652,534.115,3.97019
2658,534.615,3.9701
2664,535.115,3.9702
2670,535.615,3.96873
2676,536.115,3.9666
2682,536.615,3.96659
2688,537.115,3.96727
2694,537.615,3.96608
2700,538.115,3.96542
2706,538.615,3.96388
2712,539.115,3.96382
2718,539.615,3.96229
2724,540.115,3.96179
2730,540.615,3.95972
2736,541.115,3.9596
2742,541.615,3.958
2748,542.115,3.9572
2754,542.615,3.9575
2760,543.115,3.95779
2766,543.615,3.954
2772,544.115,3.95416
2778,544.615,3.95178
2784,545.115,3.9508
2790,545.615,3.9504
2796,546.115,3.9493
2802,546.615,3.9488
2808,547.115,3.94712
2814,547.615,3.94551
2820,548.115,3.944
2826,548.615,3.9429
2832,549.115,3.9431
2838,549.615,3.94041
2844,550.115,3.9393
2850,550.615,3.9373
2856,551.115,3.93529
2862,551.615,3.93449
2868,552.115,3.93375
2874,552.615,3.93239
2880,553.115,3.93047
2886,553.615,3.92926
2892,554.115,3.92799
2898,554.615,3.92369
2904,555.115,3.9228
2910,555.615,3.92109
2916,556.115,3.91919
2922,556.615,3.91669
2928,557.115,3.91513
2934,557.615,3.91159
2940,558.115,3.90961
2946,558.615,3.9095
2952,559.115,3.90779
2958,559.615,3.90475
2964,560.115,3.8991
2970,560.615,3.89792
2976,561.115,3.89757
2982,561.615,3.89631
2988,562.115,3.89294
2994,562.615,3.88889
3000,563.115,3.88714
3006,563.615,3.88622
3012,564.115,3.88467
3018,564.615,3.88377
3024,565.115,3.88109
3030,565.615,3.87709
3036,566.115,3.87299
3042,566.615,3.8716
3048,567.115,3.8713
3054,567.615,3.87091
3060,568.115,3.86682
3066,568.615,3.86372
3072,569.115,3.86205
3078,569.615,3.85672
3084,570.115,3.85507
3090,570.615,3.85346
3096,571.115,3.8498
3102,571.615,3.84822
3108,572.115,3.84528
3114,572.615,3.83881
3120,573.115,3.8366
3126,573.615,3.83464
3132,574.115,3.83194
3138,574.615,3.82719
3144,575.115,3.82446
3150,575.615,3.82066
3156,576.115,3.81612
3162,576.615,3.81113
3168,577.115,3.80873
3174,577.615,3.81028
3180,578.115,3.80596
3186,578.615,3.79809
3192,579.115,3.79288
3198,579.615,3.7909
3204,580.115,3.78708
3210,580.615,3.78253
3216,581.115,3.77602
3222,581.615,3.77198
3228,582.115,3.76599
3234,582.615,3.76277
3240,583.115,3.75798
3246,583.615,3.74978
3252,584.115,3.74629
3258,584.615,3.74012
3264,585.115,3.73196
3270,585.615,3.7277
3276,586.115,3.71869
3282,586.615,3.71128
3288,587.115,3.70497
3294,587.615,3.69686
3300,588.115,3.68837
3306,588.615,3.68115
3312,589.115,3.67489
3318,589.615,3.66533
3324,590.115,3.65789
3330,590.615,3.64993
3336,591.115,3.64084
3342,591.615,3.63066
3348,592.115,3.62105
3354,592.615,3.61031
3360,593.115,3.59921
3366,593.615,3.58841
3372,594.115,3.57652
3378,594.615,3.56484
3384,595.115,3.55364
3390,595.615,3.54073
3396,596.115,3.52705
3402,596.615,3.51304
3408,597.115,3.49932
3414,597.615,3.48572
3420,598.115,3.47485
3426,598.615,3.45862
3432,599.115,3.44137
3438,599.615,3.42504
3444,600.115,3.4083
3450,600.615,3.39026
3456,601.115,3.3723
3462,601.615,3.35514
3468,602.115,3.33486
3474,602.615,3.31672
3480,603.115,3.29826
3486,603.615,3.27853
3492,604.115,3.25893
3498,604.615,3.23617
3504,605.115,3.21761
3510,605.615,3.19324
3516,606.115,3.1695
3522,606.615,3.14659
3528,607.115,3.12137
3534,607.615,3.08774
3540,608.115,3.06887
3546,608.615,3.034
3552,609.115,3.01181
3558,609.615,2.98007
3564,610.115,2.96001
3570,610.615,2.92042
3576,611.115,2.89825
3582,611.615,2.86111
3588,612.115,2.84081
3594,612.615,2.80515
3600,613.115,2.77571
3606,613.615,2.73636
3612,614.115,2.70323
3618,614.615,2.6719
3624,615.115,2.63763
3630,615.615,2.60234
3636,616.115,2.56884
3642,616.615,2.5348
3648,617.115,2.50037
3654,617.615,2.46147
3660,618.115,2.42584
3666,618.615,2.39068
3672,619.115,2.35029
3678,619.615,2.31046
3684,620.115,2.27476
3690,620.615,2.23783
3696,621.115,2.19425
3702,621.615,2.159
3708,622.115,2.11338
3714,622.615,2.07923
3720,623.115,2.04072
3726,623.615,2.00088
3732,624.115,1.96432
3738,624.615,1.92357
3744,625.115,1.88455
3750,625.615,1.84485
3756,626.115,1.80271
3762,626.615,1.76259
3768,627.115,1.72673
3774,627.615,1.68916
3780,628.115,1.65185
3786,628.615,1.61604
3792,629.115,1.57507
3798,629.615,1.53846
3804,630.115,1.50144
3810,630.615,1.46628
3816,631.115,1.4269
3822,631.615,1.39202
3828,632.115,1.35523
3834,632.615,1.31611
3840,633.115,1.28177
3846,633.615,1.24836
3852,634.115,1.21148
3858,634.615,1.17687
3864,635.115,1.14738
3870,635.615,1.11156
3876,636.115,1.07628
3882,636.615,1.03874
3888,637.115,1.01612
3894,637.615,0.977595
3900,638.115,0.942651
3906,638.615,0.908035
3912,639.115,0.882354
3918,639.615,0.858902
3924,640.115,0.82314
3930,640.615,0.789147
3936,641.115,0.769353
3942,641.615,0.731462
3948,642.115,0.708647
3954,642.615,0.678411
3960,643.115,0.657141
3966,643.615,0.624194
3972,644.115,0.604181
3978,644.615,0.581533
3984,645.115,0.544912
3990,645.615,0.525594
3996,646.115,0.509266
4002,646.615,0.476495
4008,647.115,0.459505
4014,647.615,0.439444
4020,648.115,0.419508
4026,648.615,0.401789
4032,649.115,0.381825
4038,649.615,0.362254
4044,650.115,0.343991
4050,650.615,0.324684
4056,651.115,0.31185
4062,651.615,0.296119
4068,652.115,0.279465
4074,652.615,0.263285
4080,653.115,0.250834
4086,653.615,0.237918
4092,654.115,0.225337
4098,654.615,0.211509
4104,655.115,0.196868
4110,655.615,0.18613
4116,656.115,0.176328
4122,656.615,0.163545
4128,657.115,0.153334
4134,657.615,0.144538
4140,658.115,0.136872
4146,658.615,0.124576
4152,659.115,0.113574
4158,659.615,0.106132
4164,660.115,0.0994758
4170,660.615,0.0937938
4176,661.115,0.0859842
4182,661.615,0.0793488
4188,662.115,0.0702703
4194,662.615,0.0679528
4200,663.115,0.0588543
4206,663.615,0.0545553
4212,664.115,0.0503656
4218,664.615,0.0461382
4224,665.115,0.0388513
4230,665.615,0.0367912
4236,666.115,0.0327014
4242,666.615,0.0251451
4248,667.115,0.0216533
4254,667.615,0.0212894
4260,668.115,0.0191168
4266,668.615,0.0136165
4272,669.115,0.0107816
4278,669.615,0.005632515
4284,670.115,0.00379095
4290,670.615,0.002661774
4296,671.115,0
4302,671.615,0
4308,672.115,0
4314,672.615,0
4320,673.115,0
4326,673.615,0
4332,674.115,0
4338,674.615,0
4344,675.115,0
4350,675.615,0
4356,676.115,0
4362,676.615,0
4368,677.115,0
4374,677.615,0
4380,678.115,0
4386,678.615,0
4392,679.115,0
4398,679.615,0
4404,680.115,0
4410,680.615,0
4416,681.115,0
4422,681.615,0
4428,682.115,0
4434,682.615,0
4440,683.115,0
4446,683.615,0
4452,684.115,0
4458,684.615,0
4464,685.115,0
4470,685.615,0
4476,686.115,0
4482,686.615,0
4488,687.115,0
4494,687.615,0
4500,688.115,0
4506,688.615,0
4512,689.115,0
4518,689.615,0
4524,690.115,0
4530,690.615,0
4536,691.115,0
4542,691.615,0
4548,692.115,0
4554,692.615,0
4560,693.115,0
4566,693.615,0
4572,694.115,0
4578,694.615,0
4584,695.115,0
4590,695.615,0
4596,696.115,0
4602,696.615,0
4608,697.115,0
4614,697.615,0
4620,698.115,0
4626,698.615,0
4632,699.115,0
4638,699.615,0
4644,700.115,0
4650,700.615,0
4656,701.115,0
4662,701.615,0
4668,702.115,0
4674,702.615,0
4680,703.115,0
4686,703.615,0
4692,704.115,0
4698,704.615,0
4704,705.115,0
4710,705.615,0
4716,706.115,0
4722,706.615,0
4728,707.115,0
4734,707.615,0
4740,708.115,0
4746,708.615,0
4752,709.115,0
4758,709.615,0
4764,710.115,0
4770,710.615,0
4776,711.115,0
4782,711.615,0
4788,712.115,0
4794,712.615,0
4800,713.115,0
4806,713.615,0
4812,714.115,0
4818,714.615,0
4824,715.115,0
4830,715.615,0
4836,716.115,0
4842,716.615,0
4848,717.115,0
4854,717.615,0
4860,718.115,0
4866,718.615,0
4872,719.115,0
4878,719.615,0
4884,720.115,0
4890,720.615,0
4896,721.115,0
4902,721.615,0
4908,722.115,0
4914,722.615,0
4920,723.115,0
4926,723.615,0
4932,724.115,0
4938,724.615,0
4944,725.115,0
4950,725.615,0
4956,726.115,0
4962,726.615,0
4968,727.115,0
4974,727.615,0
4980,728.115,0
4986,728.615,0
4992,729.115,0
4998,729.615,0
5004,730.115,0
5010,730.615,0
5016,731.115,0
5022,731.615,0
5028,732.115,0
5034,732.615,0
5040,733.115,0
5046,733.615,0
5052,734.115,0
5058,734.615,0
5064,735.115,0
5070,735.615,0
5076,736.115,0
5082,736.615,0
5088,737.115,0
5094,737.615,0
5100,738.115,0
5106,738.615,0
5112,739.115,0
5118,739.615,0
5124,740.115,0
5130,740.615,0
5136,741.115,0
5142,741.615,0
5148,742.115,0
5154,742.615,0
5160,743.115,0
5166,743.615,0
5172,744.115,0
5178,744.615,0
5184,745.115,0
5190,745.615,0
5196,746.115,0
5202,746.615,0
5208,747.115,0
5214,747.615,0
5220,748.115,0
5226,748.615,0
5232,749.115,0
5238,749.615,0
5244,750.115,0
5250,750.615,0
5256,751.115,0
5262,751.615,0
5268,752.115,0
5274,752.615,0
5280,753.115,0
5286,753.615,0
5292,754.115,0
5298,754.615,0
5304,755.115,0
5310,755.615,0
5316,756.115,0
5322,756.615,0
5328,757.115,0
5334,757.615,0
5340,758.115,0
5346,758.615,0
5352,759.115,0
5358,759.615,0
5364,760.115,0
5370,760.615,0
5376,761.115,0
5382,761.615,0
5388,762.115,0
5394,762.615,0
5400,763.115,0
5406,763.615,0
5412,764.115,0
5418,764.615,0
5424,765.115,0
5430,765.615,0
5436,766.115,0
5442,766.615,0
5448,767.115,0
5454,767.615,0
5460,768.115,0
5466,768.615,0
5472,769.115,0
5478,769.615,0
5484,770.115,0
5490,770.615,0
5496,771.115,0
5502,771.615,0
5508,772.115,0
5514,772.615,0
5520,773.115,0
5526,773.615,0