File: PMMA/Calibration_Data/UMET/UMET_TGA_N2_100K_1.csv
Time,Temperature,Mass
[s],[K],[mg]
0,313.115,5.3644
0.3,313.615,5.35634
0.6,314.115,5.3549
0.9,314.615,5.3544
1.2,315.115,5.3535
1.5,315.615,5.3528
1.8,316.115,5.35375
2.1,316.615,5.35387
2.4,317.115,5.354
2.7,317.615,5.35431
3,318.115,5.35443
3.3,318.615,5.35449
3.6,319.115,5.3545
3.9,319.615,5.3544
4.2,320.115,5.35451
4.5,320.615,5.35449
4.8,321.115,5.35452
5.1,321.615,5.3546
5.4,322.115,5.35477
5.7,322.615,5.3546
6,323.115,5.3546
6.3,323.615,5.3546
6.6,324.115,5.3546
6.9,324.615,5.3546
7.2,325.115,5.35472
7.5,325.615,5.3546
7.8,326.115,5.3546
8.1,326.615,5.35468
8.4,327.115,5.3546
8.7,327.615,5.3548
9,328.115,5.35462
9.3,328.615,5.3546
9.6,329.115,5.35456
9.9,329.615,5.35447
10.2,330.115,5.35471
10.5,330.615,5.3546
10.8,331.115,5.3546
11.1,331.615,5.3547
11.4,332.115,5.35461
11.7,332.615,5.3548
12,333.115,5.35458
12.3,333.615,5.35489
12.6,334.115,5.3545
12.9,334.615,5.35469
13.2,335.115,5.3548
13.5,335.615,5.35475
13.8,336.115,5.35472
14.1,336.615,5.35469
14.4,337.115,5.35466
14.7,337.615,5.35489
15,338.115,5.35477
15.3,338.615,5.35451
15.6,339.115,5.35462
15.9,339.615,5.3549
16.2,340.115,5.3546
16.5,340.615,5.35463
16.8,341.115,5.35484
17.1,341.615,5.35471
17.4,342.115,5.35486
17.7,342.615,5.3546
18,343.115,5.355
18.3,343.615,5.35461
18.6,344.115,5.35489
18.9,344.615,5.35482
19.2,345.115,5.35494
19.5,345.615,5.35481
19.8,346.115,5.35485
20.1,346.615,5.35497
20.4,347.115,5.35473
20.7,347.615,5.3549
21,348.115,5.35471
21.3,348.615,5.35497
21.6,349.115,5.35496
21.9,349.615,5.35506
22.2,350.115,5.3549
22.5,350.615,5.35491
22.8,351.115,5.35495
23.1,351.615,5.35486
23.4,352.115,5.355
23.7,352.615,5.35489
24,353.115,5.35473
24.3,353.615,5.355
24.6,354.115,5.35501
24.9,354.615,5.3548
25.2,355.115,5.35466
25.5,355.615,5.35486
25.8,356.115,5.35491
26.1,356.615,5.35479
26.4,357.115,5.35473
26.7,357.615,5.35472
27,358.115,5.35449
27.3,358.615,5.35456
27.6,359.115,5.35473
27.9,359.615,5.3545
28.2,360.115,5.35437
28.5,360.615,5.35453
28.8,361.115,5.3544
29.1,361.615,5.35444
29.4,362.115,5.35463
29.7,362.615,5.35427
30,363.115,5.35442
30.3,363.615,5.3544
30.6,364.115,5.35427
30.9,364.615,5.35447
31.2,365.115,5.35444
31.5,365.615,5.35428
31.8,366.115,5.35441
32.1,366.615,5.35433
32.4,367.115,5.35423
32.7,367.615,5.35425
33,368.115,5.35408
33.3,368.615,5.35436
33.6,369.115,5.35438
33.9,369.615,5.35417
34.2,370.115,5.3543
34.5,370.615,5.35432
34.8,371.115,5.3544
35.1,371.615,5.3544
35.4,372.115,5.3544
35.7,372.615,5.3544
36,373.115,5.35445
36.3,373.615,5.3544
36.6,374.115,5.35429
36.9,374.615,5.3543
37.2,375.115,5.35422
37.5,375.615,5.35439
37.8,376.115,5.3544
38.1,376.615,5.3544
38.4,377.115,5.3544
38.7,377.615,5.3544
39,378.115,5.3544
39.3,378.615,5.3544
39.6,379.115,5.35428
39.9,379.615,5.3544
40.2,380.115,5.3544
40.5,380.615,5.3544
40.8,381.115,5.3544
41.1,381.615,5.3544
41.4,382.115,5.3544
41.7,382.615,5.3544
42,383.115,5.3544
42.3,383.615,5.3544
42.6,384.115,5.3544
42.9,384.615,5.35441
43.2,385.115,5.3543
43.5,385.615,5.3543
43.8,386.115,5.3543
44.1,386.615,5.3543
44.4,387.115,5.3543
44.7,387.615,5.3543
45,388.115,5.35426
45.3,388.615,5.3542
45.6,389.115,5.3542
45.9,389.615,5.3542
46.2,390.115,5.3542
46.5,390.615,5.35411
46.8,391.115,5.354
47.1,391.615,5.35399
47.4,392.115,5.35411
47.7,392.615,5.3541
48,393.115,5.3541
48.3,393.615,5.3541
48.6,394.115,5.35399
48.9,394.615,5.35399
49.2,395.115,5.3541
49.5,395.615,5.3541
49.8,396.115,5.354
50.1,396.615,5.35399
50.4,397.115,5.35411
50.7,397.615,5.354
51,398.115,5.354
51.3,398.615,5.35401
51.6,399.115,5.35397
51.9,399.615,5.354
52.2,400.115,5.35396
52.5,400.615,5.35401
52.8,401.115,5.354
53.1,401.615,5.3539
53.4,402.115,5.354
53.7,402.615,5.35395
54,403.115,5.3539
54.3,403.615,5.35401
54.6,404.115,5.3538
54.9,404.615,5.35402
55.2,405.115,5.35392
55.5,405.615,5.35392
55.8,406.115,5.35389
56.1,406.615,5.3539
56.4,407.115,5.35379
56.7,407.615,5.3537
57,408.115,5.35364
57.3,408.615,5.3537
57.6,409.115,5.35358
57.9,409.615,5.35372
58.2,410.115,5.35374
58.5,410.615,5.35359
58.8,411.115,5.35368
59.1,411.615,5.35357
59.4,412.115,5.35379
59.7,412.615,5.3539
60,413.115,5.3536
60.3,413.615,5.35364
60.6,414.115,5.3536
60.9,414.615,5.35361
61.2,415.115,5.35378
61.5,415.615,5.35349
61.8,416.115,5.35349
62.1,416.615,5.35359
62.4,417.115,5.3534
62.7,417.615,5.35336
63,418.115,5.35334
63.3,418.615,5.35329
63.6,419.115,5.35339
63.9,419.615,5.35327
64.2,420.115,5.35317
64.5,420.615,5.35337
64.8,421.115,5.35327
65.1,421.615,5.35313
65.4,422.115,5.35303
65.7,422.615,5.353
66,423.115,5.3532
66.3,423.615,5.353
66.6,424.115,5.353
66.9,424.615,5.35298
67.2,425.115,5.3526
67.5,425.615,5.35279
67.8,426.115,5.3528
68.1,426.615,5.35256
68.4,427.115,5.35251
68.7,427.615,5.35248
69,428.115,5.35219
69.3,428.615,5.35224
69.6,429.115,5.35198
69.9,429.615,5.35201
70.2,430.115,5.35192
70.5,430.615,5.3516
70.8,431.115,5.35181
71.1,431.615,5.35169
71.4,432.115,5.35118
71.7,432.615,5.3512
72,433.115,5.3513
72.3,433.615,5.35077
72.6,434.115,5.35055
72.9,434.615,5.3507
73.2,435.115,5.3504
73.5,435.615,5.35025
73.8,436.115,5.34991
74.1,436.615,5.34957
74.4,437.115,5.34959
74.7,437.615,5.34948
75,438.115,5.3493
75.3,438.615,5.34909
75.6,439.115,5.34875
75.9,439.615,5.34848
76.2,440.115,5.34849
76.5,440.615,5.34813
76.8,441.115,5.348
77.1,441.615,5.34788
77.4,442.115,5.34752
77.7,442.615,5.34717
78,443.115,5.34717
78.3,443.615,5.34681
78.6,444.115,5.34647
78.9,444.615,5.34644
79.2,445.115,5.34601
79.5,445.615,5.34581
79.8,446.115,5.34554
80.1,446.615,5.34541
80.4,447.115,5.345
80.7,447.615,5.3447
81,448.115,5.34461
81.3,448.615,5.3444
81.6,449.115,5.34404
81.9,449.615,5.34369
82.2,450.115,5.34349
82.5,450.615,5.3432
82.8,451.115,5.34301
83.1,451.615,5.34266
83.4,452.115,5.34217
83.7,452.615,5.3423
84,453.115,5.34192
84.3,453.615,5.34149
84.6,454.115,5.34115
84.9,454.615,5.3408
85.2,455.115,5.3405
85.5,455.615,5.34014
85.8,456.115,5.33991
86.1,456.615,5.33955
86.4,457.115,5.339
86.7,457.615,5.33893
87,458.115,5.33837
87.3,458.615,5.33787
87.6,459.115,5.33763
87.9,459.615,5.3372
88.2,460.115,5.33682
88.5,460.615,5.33612
88.8,461.115,5.33581
89.1,461.615,5.33544
89.4,462.115,5.33478
89.7,462.615,5.3344
90,463.115,5.33366
90.3,463.615,5.33319
90.6,464.115,5.33277
90.9,464.615,5.33231
91.2,465.115,5.33175
91.5,465.615,5.33099
91.8,466.115,5.33062
92.1,466.615,5.32979
92.4,467.115,5.32919
92.7,467.615,5.32868
93,468.115,5.32811
93.3,468.615,5.32743
93.6,469.115,5.32649
93.9,469.615,5.32612
94.2,470.115,5.32537
94.5,470.615,5.3247
94.8,471.115,5.32393
95.1,471.615,5.32329
95.4,472.115,5.32266
95.7,472.615,5.32165
96,473.115,5.32133
96.3,473.615,5.32029
96.6,474.115,5.31991
96.9,474.615,5.31869
97.2,475.115,5.31813
97.5,475.615,5.31735
97.8,476.115,5.31668
98.1,476.615,5.31576
98.4,477.115,5.31477
98.7,477.615,5.31425
99,478.115,5.31321
99.3,478.615,5.31281
99.6,479.115,5.31148
99.9,479.615,5.311
100.2,480.115,5.30983
100.5,480.615,5.30935
100.8,481.115,5.30802
101.1,481.615,5.30719
101.4,482.115,5.30616
101.7,482.615,5.30575
102,483.115,5.30447
102.3,483.615,5.30355
102.6,484.115,5.30261
102.9,484.615,5.30181
103.2,485.115,5.30114
103.5,485.615,5.29989
103.8,486.115,5.29927
104.1,486.615,5.29818
104.4,487.115,5.29765
104.7,487.615,5.29629
105,488.115,5.29579
105.3,488.615,5.2947
105.6,489.115,5.29401
105.9,489.615,5.29263
106.2,490.115,5.29223
106.5,490.615,5.29126
106.8,491.115,5.29063
107.1,491.615,5.28921
107.4,492.115,5.28873
107.7,492.615,5.28773
108,493.115,5.28635
108.3,493.615,5.28568
108.6,494.115,5.28501
108.9,494.615,5.28426
109.2,495.115,5.28339
109.5,495.615,5.28224
109.8,496.115,5.28151
110.1,496.615,5.28061
110.4,497.115,5.27976
110.7,497.615,5.27887
111,498.115,5.27799
111.3,498.615,5.27731
111.6,499.115,5.27628
111.9,499.615,5.27537
112.2,500.115,5.27449
112.5,500.615,5.27378
112.8,501.115,5.27282
113.1,501.615,5.27203
113.4,502.115,5.27107
113.7,502.615,5.27046
114,503.115,5.26941
114.3,503.615,5.26813
114.6,504.115,5.26751
114.9,504.615,5.26693
115.2,505.115,5.26589
115.5,505.615,5.26498
115.8,506.115,5.26429
116.1,506.615,5.26374
116.4,507.115,5.26269
116.7,507.615,5.26179
117,508.115,5.26097
117.3,508.615,5.26021
117.6,509.115,5.25932
117.9,509.615,5.25851
118.2,510.115,5.2577
118.5,510.615,5.25701
118.8,511.115,5.25645
119.1,511.615,5.25529
119.4,512.115,5.25467
119.7,512.615,5.25403
120,513.115,5.25305
120.3,513.615,5.2523
120.6,514.115,5.25159
120.9,514.615,5.25104
121.2,515.115,5.25011
121.5,515.615,5.2494
121.8,516.115,5.24866
122.1,516.615,5.24813
122.4,517.115,5.24724
122.7,517.615,5.24661
123,518.115,5.24582
123.3,518.615,5.24554
123.6,519.115,5.24459
123.9,519.615,5.24413
124.2,520.115,5.24334
124.5,520.615,5.24281
124.8,521.115,5.24206
125.1,521.615,5.24161
125.4,522.115,5.24093
125.7,522.615,5.24052
126,523.115,5.23962
126.3,523.615,5.2392
126.6,524.115,5.2385
126.9,524.615,5.23829
127.2,525.115,5.2375
127.5,525.615,5.23699
127.8,526.115,5.23628
128.1,526.615,5.23616
128.4,527.115,5.23538
128.7,527.615,5.23497
129,528.115,5.23438
129.3,528.615,5.23421
129.6,529.115,5.23349
129.9,529.615,5.23306
130.2,530.115,5.23248
130.5,530.615,5.23209
130.8,531.115,5.23172
131.1,531.615,5.2312
131.4,532.115,5.23057
131.7,532.615,5.23024
132,533.115,5.22971
132.3,533.615,5.2292
132.6,534.115,5.22879
132.9,534.615,5.22827
133.2,535.115,5.22791
133.5,535.615,5.22732
133.8,536.115,5.227
134.1,536.615,5.22661
134.4,537.115,5.2262
134.7,537.615,5.22567
135,538.115,5.22547
135.3,538.615,5.22486
135.6,539.115,5.22452
135.9,539.615,5.22394
136.2,540.115,5.2236
136.5,540.615,5.22301
136.8,541.115,5.22281
137.1,541.615,5.22212
137.4,542.115,5.2219
137.7,542.615,5.2211
138,543.115,5.2208
138.3,543.615,5.2202
138.6,544.115,5.21999
138.9,544.615,5.21949
139.2,545.115,5.21929
139.5,545.615,5.21872
139.8,546.115,5.21847
140.1,546.615,5.21788
140.4,547.115,5.21757
140.7,547.615,5.21707
141,548.115,5.2169
141.3,548.615,5.21624
141.6,549.115,5.2159
141.9,549.615,5.2155
142.2,550.115,5.21513
142.5,550.615,5.21464
142.8,551.115,5.21414
143.1,551.615,5.2138
143.4,552.115,5.2134
143.7,552.615,5.21291
144,553.115,5.21234
144.3,553.615,5.21199
144.6,554.115,5.21164
144.9,554.615,5.21119
145.2,555.115,5.21047
145.5,555.615,5.21011
145.8,556.115,5.20978
146.1,556.615,5.20894
146.4,557.115,5.20855
146.7,557.615,5.20831
147,558.115,5.20785
147.3,558.615,5.2074
147.6,559.115,5.20663
147.9,559.615,5.20642
148.2,560.115,5.20572
148.5,560.615,5.2054
148.8,561.115,5.2045
149.1,561.615,5.2041
149.4,562.115,5.2035
149.7,562.615,5.20249
150,563.115,5.20219
150.3,563.615,5.20168
150.6,564.115,5.20119
150.9,564.615,5.20058
151.2,565.115,5.19963
151.5,565.615,5.19916
151.8,566.115,5.19847
152.1,566.615,5.19746
152.4,567.115,5.19687
152.7,567.615,5.19648
153,568.115,5.19567
153.3,568.615,5.19449
153.6,569.115,5.19387
153.9,569.615,5.19298
154.2,570.115,5.19232
154.5,570.615,5.19117
154.8,571.115,5.1904
155.1,571.615,5.18961
155.4,572.115,5.18868
155.7,572.615,5.18759
156,573.115,5.18674
156.3,573.615,5.18589
156.6,574.115,5.18527
156.9,574.615,5.18377
157.2,575.115,5.18303
157.5,575.615,5.18178
157.8,576.115,5.18098
158.1,576.615,5.17947
158.4,577.115,5.17868
158.7,577.615,5.17738
159,578.115,5.17641
159.3,578.615,5.17487
159.6,579.115,5.17378
159.9,579.615,5.17249
160.2,580.115,5.17132
160.5,580.615,5.16943
160.8,581.115,5.16644
161.1,581.615,5.16171
161.4,582.115,5.15586
161.7,582.615,5.14812
162,583.115,5.14665
162.3,583.615,5.14514
162.6,584.115,5.14299
162.9,584.615,5.14146
163.2,585.115,5.13892
163.5,585.615,5.13736
163.8,586.115,5.13495
164.1,586.615,5.13355
164.4,587.115,5.13089
164.7,587.615,5.12954
165,588.115,5.12682
165.3,588.615,5.12529
165.6,589.115,5.12246
165.9,589.615,5.12112
166.2,590.115,5.11844
166.5,590.615,5.11692
166.8,591.115,5.11422
167.1,591.615,5.11265
167.4,592.115,5.11006
167.7,592.615,5.10803
168,593.115,5.10536
168.3,593.615,5.1032
168.6,594.115,5.10081
168.9,594.615,5.0983
169.2,595.115,5.09591
169.5,595.615,5.09321
169.8,596.115,5.09109
170.1,596.615,5.08785
170.4,597.115,5.08558
170.7,597.615,5.08223
171,598.115,5.07999
171.3,598.615,5.0763
171.6,599.115,5.0741
171.9,599.615,5.07006
172.2,600.115,5.0679
172.5,600.615,5.06377
172.8,601.115,5.06137
173.1,601.615,5.0568
173.4,602.115,5.05466
173.7,602.615,5.04982
174,603.115,5.04738
174.3,603.615,5.04225
174.6,604.115,5.03961
174.9,604.615,5.03441
175.2,605.115,5.03171
175.5,605.615,5.02607
175.8,606.115,5.02293
176.1,606.615,5.01726
176.4,607.115,5.01372
176.7,607.615,5.00771
177,608.115,5.0041
177.3,608.615,4.99807
177.6,609.115,4.99376
177.9,609.615,4.98766
178.2,610.115,4.98279
178.5,610.615,4.97675
178.8,611.115,4.97117
179.1,611.615,4.96494
179.4,612.115,4.95856
179.7,612.615,4.95235
180,613.115,4.94542
180.3,613.615,4.93922
180.6,614.115,4.93087
180.9,614.615,4.92491
181.2,615.115,4.91589
181.5,615.615,4.90974
181.8,616.115,4.89956
182.1,616.615,4.89398
182.4,617.115,4.88304
182.7,617.615,4.87712
183,618.115,4.86523
183.3,618.615,4.85907
183.6,619.115,4.84665
183.9,619.615,4.84012
184.2,620.115,4.8269
184.5,620.615,4.82
184.8,621.115,4.80636
185.1,621.615,4.79838
185.4,622.115,4.78447
185.7,622.615,4.77524
186,623.115,4.76151
186.3,623.615,4.74516
186.6,624.115,4.73779
186.9,624.615,4.72542
187.2,625.115,4.71269
187.5,625.615,4.6984
187.8,626.115,4.68643
188.1,626.615,4.67006
188.4,627.115,4.65883
188.7,627.615,4.64042
189,628.115,4.62974
189.3,628.615,4.60966
189.6,629.115,4.59905
189.9,629.615,4.5778
190.2,630.115,4.56655
190.5,630.615,4.54456
190.8,631.115,4.53292
191.1,631.615,4.51176
191.4,632.115,4.48642
191.7,632.615,4.46949
192,633.115,4.45101
192.3,633.615,4.43188
192.6,634.115,4.41418
192.9,634.615,4.31357
193.2,635.115,4.25872
193.5,635.615,4.23063
193.8,636.115,4.21377
194.1,636.615,4.18302
194.4,637.115,4.16633
194.7,637.615,4.13409
195,638.115,4.11634
195.3,638.615,4.08443
195.6,639.115,4.06389
195.9,639.615,4.03387
196.2,640.115,4.01013
196.5,640.615,3.98309
196.8,641.115,3.95306
197.1,641.615,3.92873
197.4,642.115,3.89612
197.7,642.615,3.87461
198,643.115,3.83723
198.3,643.615,3.81776
198.6,644.115,3.77871
198.9,644.615,3.75817
199.2,645.115,3.72063
199.5,645.615,3.69568
199.8,646.115,3.66072
200.1,646.615,3.6314
200.4,647.115,3.60065
200.7,647.615,3.56556
201,648.115,3.5391
201.3,648.615,3.49838
201.6,649.115,3.4753
201.9,649.615,3.43217
202.2,650.115,3.40868
202.5,650.615,3.36481
202.8,651.115,3.33977
203.1,651.615,3.2985
203.4,652.115,3.26845
203.7,652.615,3.23099
204,653.115,3.19462
204.3,653.615,3.16211
204.6,654.115,3.11902
204.9,654.615,3.09162
205.2,655.115,3.04508
205.5,655.615,3.01942
205.8,656.115,2.96917
206.1,656.615,2.94349
206.4,657.115,2.89586
206.7,657.615,2.86555
207,658.115,2.82108
207.3,658.615,2.78489
207.6,659.115,2.74733
207.9,659.615,2.70446
208.2,660.115,2.67056
208.5,660.615,2.6226
208.8,661.115,2.59423
209.1,661.615,2.54134
209.4,662.115,2.51427
209.7,662.615,2.46152
210,663.115,2.43335
210.3,663.615,2.38371
210.6,664.115,2.35116
210.9,664.615,2.30451
211.2,665.115,2.26764
211.5,665.615,2.22572
211.8,666.115,2.18624
212.1,666.615,2.15021
212.4,667.115,2.10576
212.7,667.615,2.07394
213,668.115,2.02787
213.3,668.615,1.99771
213.6,669.115,1.95128
213.9,669.615,1.92442
214.2,670.115,1.87566
214.5,670.615,1.84961
214.8,671.115,1.8027
215.1,671.615,1.77792
215.4,672.115,1.73136
215.7,672.615,1.70675
216,673.115,1.66139
216.3,673.615,1.63714
216.6,674.115,1.59012
216.9,674.615,1.56639
217.2,675.115,1.52338
217.5,675.615,1.50121
217.8,676.115,1.4576
218.1,676.615,1.4343
218.4,677.115,1.39459
218.7,677.615,1.371
219,678.115,1.33231
219.3,678.615,1.30916
219.6,679.115,1.27428
219.9,679.615,1.24786
220.2,680.115,1.21555
220.5,680.615,1.18761
220.8,681.115,1.1581
221.1,681.615,1.12697
221.4,682.115,1.09915
221.7,682.615,1.06542
222,683.115,1.04162
222.3,683.615,1.00457
222.6,684.115,0.983405
222.9,684.615,0.942824
223.2,685.115,0.922431
223.5,685.615,0.882695
223.8,686.115,0.861933
224.1,686.615,0.82053
224.4,687.115,0.799366
224.7,687.615,0.757893
225,688.115,0.712437
225.3,688.615,0.691382
225.6,689.115,0.662335
225.9,689.615,0.626151
226.2,690.115,0.592404
226.5,690.615,0.561334
226.8,691.115,0.525232
227.1,691.615,0.500491
227.4,692.115,0.458191
227.7,692.615,0.442141
228,693.115,0.407616
228.3,693.615,0.391198
228.6,694.115,0.359782
228.9,694.615,0.344248
229.2,695.115,0.31618
229.5,695.615,0.289259
229.8,696.115,0.27533
230.1,696.615,0.255169
230.4,697.115,0.237288
230.7,697.615,0.222487
231,698.115,0.203742
231.3,698.615,0.192761
231.6,699.115,0.174068
231.9,699.615,0.165239
232.2,700.115,0.149171
232.5,700.615,0.140861
232.8,701.115,0.127295
233.1,701.615,0.118126
233.4,702.115,0.109355
233.7,702.615,0.10139
234,703.115,0.0946956
234.3,703.615,0.0853766
234.6,704.115,0.0814708
234.9,704.615,0.0737761
235.2,705.115,0.0693241
235.5,705.615,0.06345817
235.8,706.115,0.05966232
236.1,706.615,0.0552029
236.4,707.115,0.050494
236.7,707.615,0.0468763
237,708.115,0.0428422
237.3,708.615,0.0409223
237.6,709.115,0.0366775
237.9,709.615,0.0355955
238.2,710.115,0.0325512
238.5,710.615,0.0297751
238.8,711.115,0.0275296
239.1,711.615,0.0263263
239.4,712.115,0.0247808
239.7,712.615,0.0223347
240,713.115,0.0219779
240.3,713.615,0.0191563
240.6,714.115,0.0182427
240.9,714.615,0.0163598
241.2,715.115,0.0157595
241.5,715.615,0.0144099
241.8,716.115,0.01386161
242.1,716.615,0.0138214
242.4,717.115,0.0127512
242.7,717.615,0.0120602
243,718.115,0.0112931
243.3,718.615,0.010761
243.6,719.115,0.00998744
243.9,719.615,0.009696689
244.2,720.115,0.009201555
244.5,720.615,0.008798152
244.8,721.115,0.008248301
245.1,721.615,0.007918391
245.4,722.115,0.007118022
245.7,722.615,0.00680045
246,723.115,0.006459274
246.3,723.615,0.006220022
246.6,724.115,0
246.9,724.615,0
247.2,725.115,0
247.5,725.615,0
247.8,726.115,0
248.1,726.615,0
248.4,727.115,0
248.7,727.615,0
249,728.115,0
249.3,728.615,0
249.6,729.115,0
249.9,729.615,0
250.2,730.115,0
250.5,730.615,0
250.8,731.115,0
251.1,731.615,0
251.4,732.115,0
251.7,732.615,0
252,733.115,0
252.3,733.615,0
252.6,734.115,0
252.9,734.615,0
253.2,735.115,0
253.5,735.615,0
253.8,736.115,0
254.1,736.615,0
254.4,737.115,0
254.7,737.615,0
255,738.115,0
255.3,738.615,0
255.6,739.115,0
255.9,739.615,0
256.2,740.115,0
256.5,740.615,0
256.8,741.115,0
257.1,741.615,0
257.4,742.115,0
257.7,742.615,0
258,743.115,0
258.3,743.615,0
258.6,744.115,0
258.9,744.615,0
259.2,745.115,0
259.5,745.615,0
259.8,746.115,0
260.1,746.615,0
260.4,747.115,0
260.7,747.615,0
261,748.115,0
261.3,748.615,0
261.6,749.115,0
261.9,749.615,0
262.2,750.115,0
262.5,750.615,0
262.8,751.115,0
263.1,751.615,0
263.4,752.115,0
263.7,752.615,0
264,753.115,0
264.3,753.615,0
264.6,754.115,0
264.9,754.615,0
265.2,755.115,0
265.5,755.615,0
265.8,756.115,0
266.1,756.615,0
266.4,757.115,0
266.7,757.615,0
267,758.115,0
267.3,758.615,0
267.6,759.115,0
267.9,759.615,0
268.2,760.115,0
268.5,760.615,0
268.8,761.115,0
269.1,761.615,0
269.4,762.115,0
269.7,762.615,0
270,763.115,0
270.3,763.615,0
270.6,764.115,0
270.9,764.615,0
271.2,765.115,0
271.5,765.615,0
271.8,766.115,0
272.1,766.615,0
272.4,767.115,0
272.7,767.615,0
273,768.115,0
273.3,768.615,0
273.6,769.115,0
273.9,769.615,0
274.2,770.115,0
274.5,770.615,0
274.8,771.115,0
275.1,771.615,0
275.4,772.115,0
275.7,772.615,0
276,773.115,0
276.3,773.615,0