File: PMMA/Calibration_Data/UMET/UMET_TGA_N2_2K_1.csv
Time,Temperature,Mass
[s],[K],[mg]
0,313.115,4.8446
15,313.615,4.8446
30,314.115,4.8446
45,314.615,4.8446
60,315.115,4.8446
75,315.615,4.8446
90,316.115,4.8446
105,316.615,4.8446
120,317.115,4.8446
135,317.615,4.8446
150,318.115,4.8446
165,318.615,4.8446
180,319.115,4.8446
195,319.615,4.8446
210,320.115,4.8446
225,320.615,4.8446
240,321.115,4.8446
255,321.615,4.8446
270,322.115,4.8446
285,322.615,4.8446
300,323.115,4.8446
315,323.615,4.8446
330,324.115,4.8446
345,324.615,4.8446
360,325.115,4.8446
375,325.615,4.8446
390,326.115,4.8446
405,326.615,4.8446
420,327.115,4.8446
435,327.615,4.8446
450,328.115,4.8446
465,328.615,4.8446
480,329.115,4.8446
495,329.615,4.8446
510,330.115,4.8446
525,330.615,4.8446
540,331.115,4.8446
555,331.615,4.8446
570,332.115,4.8446
585,332.615,4.8446
600,333.115,4.8446
615,333.615,4.8446
630,334.115,4.8446
645,334.615,4.8446
660,335.115,4.8446
675,335.615,4.8446
690,336.115,4.8446
705,336.615,4.8446
720,337.115,4.8446
735,337.615,4.8446
750,338.115,4.8446
765,338.615,4.8446
780,339.115,4.8446
795,339.615,4.8446
810,340.115,4.8446
825,340.615,4.8446
840,341.115,4.8446
855,341.615,4.8446
870,342.115,4.8446
885,342.615,4.8446
900,343.115,4.8446
915,343.615,4.8446
930,344.115,4.8446
945,344.615,4.8446
960,345.115,4.8446
975,345.615,4.8446
990,346.115,4.8446
1005,346.615,4.8446
1020,347.115,4.8446
1035,347.615,4.8446
1050,348.115,4.8446
1065,348.615,4.8446
1080,349.115,4.8446
1095,349.615,4.8446
1110,350.115,4.8446
1125,350.615,4.8446
1140,351.115,4.8446
1155,351.615,4.8446
1170,352.115,4.8446
1185,352.615,4.8446
1200,353.115,4.8446
1215,353.615,4.8446
1230,354.115,4.8446
1245,354.615,4.8446
1260,355.115,4.8446
1275,355.615,4.8446
1290,356.115,4.8446
1305,356.615,4.8446
1320,357.115,4.8446
1335,357.615,4.8446
1350,358.115,4.8446
1365,358.615,4.8446
1380,359.115,4.8446
1395,359.615,4.8446
1410,360.115,4.8446
1425,360.615,4.8446
1440,361.115,4.8446
1455,361.615,4.8446
1470,362.115,4.8446
1485,362.615,4.8446
1500,363.115,4.8446
1515,363.615,4.8446
1530,364.115,4.8446
1545,364.615,4.8446
1560,365.115,4.8446
1575,365.615,4.8446
1590,366.115,4.8446
1605,366.615,4.8446
1620,367.115,4.8446
1635,367.615,4.8446
1650,368.115,4.8446
1665,368.615,4.8446
1680,369.115,4.8446
1695,369.615,4.8446
1710,370.115,4.8446
1725,370.615,4.8446
1740,371.115,4.8446
1755,371.615,4.8446
1770,372.115,4.8446
1785,372.615,4.8446
1800,373.115,4.8446
1815,373.615,4.8446
1830,374.115,4.8446
1845,374.615,4.8446
1860,375.115,4.8446
1875,375.615,4.8446
1890,376.115,4.8446
1905,376.615,4.8446
1920,377.115,4.8446
1935,377.615,4.8446
1950,378.115,4.8446
1965,378.615,4.8446
1980,379.115,4.8446
1995,379.615,4.8446
2010,380.115,4.8446
2025,380.615,4.8446
2040,381.115,4.8446
2055,381.615,4.8446
2070,382.115,4.8446
2085,382.615,4.8446
2100,383.115,4.8446
2115,383.615,4.8446
2130,384.115,4.8446
2145,384.615,4.8446
2160,385.115,4.8446
2175,385.615,4.8446
2190,386.115,4.8446
2205,386.615,4.8446
2220,387.115,4.8446
2235,387.615,4.8446
2250,388.115,4.8446
2265,388.615,4.8446
2280,389.115,4.8446
2295,389.615,4.8446
2310,390.115,4.8446
2325,390.615,4.8446
2340,391.115,4.8446
2355,391.615,4.8446
2370,392.115,4.8446
2385,392.615,4.8446
2400,393.115,4.8446
2415,393.615,4.8446
2430,394.115,4.8446
2445,394.615,4.8443
2460,395.115,4.8438
2475,395.615,4.84408
2490,396.115,4.8436
2505,396.615,4.8434
2520,397.115,4.8433
2535,397.615,4.8425
2550,398.115,4.8417
2565,398.615,4.84222
2580,399.115,4.84238
2595,399.615,4.84201
2610,400.115,4.84235
2625,400.615,4.8424
2640,401.115,4.84212
2655,401.615,4.84191
2670,402.115,4.84268
2685,402.615,4.84173
2700,403.115,4.84161
2715,403.615,4.84136
2730,404.115,4.8417
2745,404.615,4.84168
2760,405.115,4.84138
2775,405.615,4.8414
2790,406.115,4.84102
2805,406.615,4.84109
2820,407.115,4.8417
2835,407.615,4.8415
2850,408.115,4.84199
2865,408.615,4.84046
2880,409.115,4.8417
2895,409.615,4.84209
2910,410.115,4.8417
2925,410.615,4.8419
2940,411.115,4.8419
2955,411.615,4.8418
2970,412.115,4.84091
2985,412.615,4.84111
3000,413.115,4.8402
3015,413.615,4.8401
3030,414.115,4.8403
3045,414.615,4.8399
3060,415.115,4.83999
3075,415.615,4.83949
3090,416.115,4.83929
3105,416.615,4.8388
3120,417.115,4.83836
3135,417.615,4.83764
3150,418.115,4.83707
3165,418.615,4.83709
3180,419.115,4.8372
3195,419.615,4.83771
3210,420.115,4.83554
3225,420.615,4.8358
3240,421.115,4.8363
3255,421.615,4.83568
3270,422.115,4.83544
3285,422.615,4.8357
3300,423.115,4.83656
3315,423.615,4.83691
3330,424.115,4.83599
3345,424.615,4.8354
3360,425.115,4.8353
3375,425.615,4.8345
3390,426.115,4.83491
3405,426.615,4.83478
3420,427.115,4.83329
3435,427.615,4.8329
3450,428.115,4.8332
3465,428.615,4.83372
3480,429.115,4.83172
3495,429.615,4.83048
3510,430.115,4.8304
3525,430.615,4.83009
3540,431.115,4.82993
3555,431.615,4.829
3570,432.115,4.82913
3585,432.615,4.8281
3600,433.115,4.82833
3615,433.615,4.82739
3630,434.115,4.82808
3645,434.615,4.82641
3660,435.115,4.8256
3675,435.615,4.82431
3690,436.115,4.8235
3705,436.615,4.82268
3720,437.115,4.82134
3735,437.615,4.8205
3750,438.115,4.81925
3765,438.615,4.81808
3780,439.115,4.81644
3795,439.615,4.814
3810,440.115,4.81388
3825,440.615,4.81188
3840,441.115,4.8099
3855,441.615,4.80812
3870,442.115,4.80741
3885,442.615,4.80589
3900,443.115,4.8041
3915,443.615,4.80255
3930,444.115,4.80139
3945,444.615,4.8003
3960,445.115,4.7989
3975,445.615,4.7967
3990,446.115,4.79521
4005,446.615,4.79391
4020,447.115,4.79257
4035,447.615,4.7908
4050,448.115,4.78986
4065,448.615,4.78662
4080,449.115,4.78519
4095,449.615,4.78364
4110,450.115,4.78232
4125,450.615,4.7811
4140,451.115,4.77969
4155,451.615,4.77798
4170,452.115,4.77718
4185,452.615,4.77508
4200,453.115,4.77331
4215,453.615,4.77187
4230,454.115,4.7708
4245,454.615,4.7682
4260,455.115,4.7677
4275,455.615,4.76651
4290,456.115,4.76527
4305,456.615,4.76334
4320,457.115,4.76069
4335,457.615,4.7592
4350,458.115,4.75759
4365,458.615,4.75678
4380,459.115,4.75569
4395,459.615,4.7551
4410,460.115,4.75431
4425,460.615,4.75241
4440,461.115,4.75115
4455,461.615,4.7498
4470,462.115,4.74881
4485,462.615,4.74751
4500,463.115,4.7457
4515,463.615,4.74475
4530,464.115,4.7435
4545,464.615,4.74259
4560,465.115,4.74154
4575,465.615,4.7403
4590,466.115,4.73937
4605,466.615,4.7384
4620,467.115,4.73809
4635,467.615,4.73651
4650,468.115,4.73508
4665,468.615,4.73439
4680,469.115,4.73386
4695,469.615,4.73289
4710,470.115,4.73201
4725,470.615,4.7313
4740,471.115,4.7285
4755,471.615,4.72741
4770,472.115,4.72821
4785,472.615,4.7277
4800,473.115,4.72653
4815,473.615,4.7271
4830,474.115,4.7271
4845,474.615,4.72711
4860,475.115,4.72601
4875,475.615,4.72559
4890,476.115,4.7249
4905,476.615,4.7243
4920,477.115,4.72391
4935,477.615,4.7235
4950,478.115,4.72189
4965,478.615,4.7223
4980,479.115,4.72191
4995,479.615,4.721
5010,480.115,4.7215
5025,480.615,4.7226
5040,481.115,4.7224
5055,481.615,4.72341
5070,482.115,4.72371
5085,482.615,4.7237
5100,483.115,4.7235
5115,483.615,4.7234
5130,484.115,4.72258
5145,484.615,4.722
5160,485.115,4.7221
5175,485.615,4.7224
5190,486.115,4.72169
5205,486.615,4.72089
5220,487.115,4.7209
5235,487.615,4.7206
5250,488.115,4.71941
5265,488.615,4.7181
5280,489.115,4.71841
5295,489.615,4.71849
5310,490.115,4.7184
5325,490.615,4.71831
5340,491.115,4.7175
5355,491.615,4.71751
5370,492.115,4.71688
5385,492.615,4.71639
5400,493.115,4.71671
5415,493.615,4.7165
5430,494.115,4.71773
5445,494.615,4.7169
5460,495.115,4.71687
5475,495.615,4.7176
5490,496.115,4.71642
5505,496.615,4.7157
5520,497.115,4.7144
5535,497.615,4.71409
5550,498.115,4.7149
5565,498.615,4.7151
5580,499.115,4.7146
5595,499.615,4.71362
5610,500.115,4.71356
5625,500.615,4.71331
5640,501.115,4.71356
5655,501.615,4.7123
5670,502.115,4.71261
5685,502.615,4.71289
5700,503.115,4.7132
5715,503.615,4.71308
5730,504.115,4.71208
5745,504.615,4.71162
5760,505.115,4.71171
5775,505.615,4.71185
5790,506.115,4.71169
5805,506.615,4.71159
5820,507.115,4.71191
5835,507.615,4.7124
5850,508.115,4.71119
5865,508.615,4.7101
5880,509.115,4.70954
5895,509.615,4.7101
5910,510.115,4.7112
5925,510.615,4.7103
5940,511.115,4.70918
5955,511.615,4.70787
5970,512.115,4.7072
5985,512.615,4.7069
6000,513.115,4.70746
6015,513.615,4.70609
6030,514.115,4.70521
6045,514.615,4.7046
6060,515.115,4.70401
6075,515.615,4.7036
6090,516.115,4.70419
6105,516.615,4.70371
6120,517.115,4.70278
6135,517.615,4.7029
6150,518.115,4.70109
6165,518.615,4.7007
6180,519.115,4.69999
6195,519.615,4.69886
6210,520.115,4.69791
6225,520.615,4.69589
6240,521.115,4.69529
6255,521.615,4.69419
6270,522.115,4.69126
6285,522.615,4.69116
6300,523.115,4.69041
6315,523.615,4.68999
6330,524.115,4.68971
6345,524.615,4.6891
6360,525.115,4.6878
6375,525.615,4.68729
6390,526.115,4.68671
6405,526.615,4.68527
6420,527.115,4.68489
6435,527.615,4.68341
6450,528.115,4.68299
6465,528.615,4.68221
6480,529.115,4.6813
6495,529.615,4.68004
6510,530.115,4.6794
6525,530.615,4.67806
6540,531.115,4.6764
6555,531.615,4.67551
6570,532.115,4.6746
6585,532.615,4.67435
6600,533.115,4.6724
6615,533.615,4.67135
6630,534.115,4.6699
6645,534.615,4.66783
6660,535.115,4.66699
6675,535.615,4.66528
6690,536.115,4.66394
6705,536.615,4.6626
6720,537.115,4.66005
6735,537.615,4.65803
6750,538.115,4.6577
6765,538.615,4.65488
6780,539.115,4.6545
6795,539.615,4.65308
6810,540.115,4.65109
6825,540.615,4.64837
6840,541.115,4.64681
6855,541.615,4.64548
6870,542.115,4.6438
6885,542.615,4.641
6900,543.115,4.63958
6915,543.615,4.63741
6930,544.115,4.63397
6945,544.615,4.63215
6960,545.115,4.63006
6975,545.615,4.62738
6990,546.115,4.62483
7005,546.615,4.62227
7020,547.115,4.6202
7035,547.615,4.61803
7050,548.115,4.61542
7065,548.615,4.61251
7080,549.115,4.61005
7095,549.615,4.608
7110,550.115,4.60554
7125,550.615,4.60302
7140,551.115,4.60028
7155,551.615,4.59749
7170,552.115,4.59441
7185,552.615,4.59203
7200,553.115,4.58917
7215,553.615,4.58626
7230,554.115,4.5836
7245,554.615,4.5805
7260,555.115,4.57733
7275,555.615,4.57427
7290,556.115,4.57088
7305,556.615,4.56772
7320,557.115,4.56533
7335,557.615,4.56219
7350,558.115,4.55834
7365,558.615,4.555
7380,559.115,4.55181
7395,559.615,4.54871
7410,560.115,4.54528
7425,560.615,4.54145
7440,561.115,4.53779
7455,561.615,4.53407
7470,562.115,4.52977
7485,562.615,4.52594
7500,563.115,4.52231
7515,563.615,4.51805
7530,564.115,4.51383
7545,564.615,4.51001
7560,565.115,4.50553
7575,565.615,4.50004
7590,566.115,4.49518
7605,566.615,4.49031
7620,567.115,4.48577
7635,567.615,4.48092
7650,568.115,4.47558
7665,568.615,4.4693
7680,569.115,4.4639
7695,569.615,4.45831
7710,570.115,4.45161
7725,570.615,4.44556
7740,571.115,4.43926
7755,571.615,4.43238
7770,572.115,4.42621
7785,572.615,4.41789
7800,573.115,4.41187
7815,573.615,4.40332
7830,574.115,4.39512
7845,574.615,4.38708
7860,575.115,4.37878
7875,575.615,4.37024
7890,576.115,4.36185
7905,576.615,4.35229
7920,577.115,4.34169
7935,577.615,4.33381
7950,578.115,4.32317
7965,578.615,4.3132
7980,579.115,4.30259
7995,579.615,4.29161
8010,580.115,4.28014
8025,580.615,4.27049
8040,581.115,4.25662
8055,581.615,4.24445
8070,582.115,4.23019
8085,582.615,4.21768
8100,583.115,4.20382
8115,583.615,4.18967
8130,584.115,4.17616
8145,584.615,4.16092
8160,585.115,4.14596
8175,585.615,4.12988
8190,586.115,4.11425
8205,586.615,4.09656
8220,587.115,4.07808
8235,587.615,4.05865
8250,588.115,4.04068
8265,588.615,4.0213
8280,589.115,4.00071
8295,589.615,3.98149
8310,590.115,3.96044
8325,590.615,3.93893
8340,591.115,3.91656
8355,591.615,3.8939
8370,592.115,3.87089
8385,592.615,3.84762
8400,593.115,3.82299
8415,593.615,3.79822
8430,594.115,3.77159
8445,594.615,3.74549
8460,595.115,3.71844
8475,595.615,3.68922
8490,596.115,3.66187
8505,596.615,3.63277
8520,597.115,3.6019
8535,597.615,3.57259
8550,598.115,3.54048
8565,598.615,3.50799
8580,599.115,3.47549
8595,599.615,3.4417
8610,600.115,3.40743
8625,600.615,3.37181
8640,601.115,3.33551
8655,601.615,3.30017
8670,602.115,3.26381
8685,602.615,3.22663
8700,603.115,3.18639
8715,603.615,3.14789
8730,604.115,3.1083
8745,604.615,3.06916
8760,605.115,3.02877
8775,605.615,2.98714
8790,606.115,2.94569
8805,606.615,2.90298
8820,607.115,2.86082
8835,607.615,2.81658
8850,608.115,2.77389
8865,608.615,2.72772
8880,609.115,2.68374
8895,609.615,2.63853
8910,610.115,2.59394
8925,610.615,2.54673
8940,611.115,2.50092
8955,611.615,2.45672
8970,612.115,2.40944
8985,612.615,2.36278
9000,613.115,2.31898
9015,613.615,2.27376
9030,614.115,2.22859
9045,614.615,2.18446
9060,615.115,2.13977
9075,615.615,2.09466
9090,616.115,2.05046
9105,616.615,2.00713
9120,617.115,1.96433
9135,617.615,1.92086
9150,618.115,1.87861
9165,618.615,1.83618
9180,619.115,1.7928
9195,619.615,1.75113
9210,620.115,1.71021
9225,620.615,1.66802
9240,621.115,1.62689
9255,621.615,1.58483
9270,622.115,1.54113
9285,622.615,1.50006
9300,623.115,1.45566
9315,623.615,1.41419
9330,624.115,1.37388
9345,624.615,1.33215
9360,625.115,1.29063
9375,625.615,1.25236
9390,626.115,1.21389
9405,626.615,1.17439
9420,627.115,1.13562
9435,627.615,1.09783
9450,628.115,1.05937
9465,628.615,1.02352
9480,629.115,0.986564
9495,629.615,0.950043
9510,630.115,0.915983
9525,630.615,0.882708
9540,631.115,0.848419
9555,631.615,0.817402
9570,632.115,0.785451
9585,632.615,0.755826
9600,633.115,0.724266
9615,633.615,0.695554
9630,634.115,0.66749
9645,634.615,0.641195
9660,635.115,0.614098
9675,635.615,0.587569
9690,636.115,0.562366
9705,636.615,0.538739
9720,637.115,0.516564
9735,637.615,0.493314
9750,638.115,0.473325
9765,638.615,0.452845
9780,639.115,0.432993
9795,639.615,0.412543
9810,640.115,0.394955
9825,640.615,0.378429
9840,641.115,0.361512
9855,641.615,0.345472
9870,642.115,0.330147
9885,642.615,0.313258
9900,643.115,0.298664
9915,643.615,0.285035
9930,644.115,0.271593
9945,644.615,0.258677
9960,645.115,0.247381
9975,645.615,0.236256
9990,646.115,0.224222
10005,646.615,0.214523
10020,647.115,0.204067
10035,647.615,0.194269
10050,648.115,0.185025
10065,648.615,0.178203
10080,649.115,0.169178
10095,649.615,0.161198
10110,650.115,0.153554
10125,650.615,0.145107
10140,651.115,0.140887
10155,651.615,0.134707
10170,652.115,0.128107
10185,652.615,0.122556
10200,653.115,0.117169
10215,653.615,0.111765
10230,654.115,0.108252
10245,654.615,0.102927
10260,655.115,0.09815741
10275,655.615,0.093385
10290,656.115,0.0903106
10305,656.615,0.086698
10320,657.115,0.08295893
10335,657.615,0.0796026
10350,658.115,0.076894
10365,658.615,0.0740032
10380,659.115,0.069397
10395,659.615,0.0683878
10410,660.115,0.0657025
10425,660.615,0.0634444
10440,661.115,0.0614087
10455,661.615,0.0593003
10470,662.115,0.0562744
10485,662.615,0.0544911
10500,663.115,0.0529607
10515,663.615,0.0511895
10530,664.115,0.0484891
10545,664.615,0.0471573
10560,665.115,0.045298
10575,665.615,0.04326906
10590,666.115,0.0417915
10605,666.615,0.0417435
10620,667.115,0.0406016
10635,667.615,0.0401956
10650,668.115,0.040199
10665,668.615,0.0392776
10680,669.115,0.03799862
10695,669.615,0.0378039
10710,670.115,0.0354063
10725,670.615,0.0345139
10740,671.115,0.0338051
10755,671.615,0.0329365
10770,672.115,0.0325068
10785,672.615,0.031501
10800,673.115,0.0308005
10815,673.615,0.0308044
10830,674.115,0.0304968
10845,674.615,0.0303984
10860,675.115,0.0289135
10875,675.615,0.028898
10890,676.115,0.0298098
10905,676.615,0.029898
10920,677.115,0.0296964
10935,677.615,0.0300748
10950,678.115,0.0296126
10965,678.615,0.0300157
10980,679.115,0.0298994
10995,679.615,0.0295026
11010,680.115,0.029897
11025,680.615,0.0297628
11040,681.115,0.02989312
11055,681.615,0.0300942
11070,682.115,0.0300971
11085,682.615,0.0291984
11100,683.115,0.0294745
11115,683.615,0.0293093
11130,684.115,0.0292982
11145,684.615,0.029398
11160,685.115,0.0298951
11175,685.615,0.0295981
11190,686.115,0.0293961
11205,686.615,0.0298016
11220,687.115,0.0286955
11235,687.615,0.0283031
11250,688.115,0.0286984
11265,688.615,0.028789
11280,689.115,0.028104
11295,689.615,0.0281922
11310,690.115,0.0285972
11325,690.615,0.0287004
11340,691.115,0.0283942
11355,691.615,0.0284969
11370,692.115,0.0285982
11385,692.615,0.0281985
11400,693.115,0.0282067
11415,693.615,0.0279102
11430,694.115,0.0273458
11445,694.615,0.0281592
11460,695.115,0.0278928
11475,695.615,0.0270038
11490,696.115,0.027559
11505,696.615,0.0280982
11520,697.115,0.0276055
11535,697.615,0.0270188
11550,698.115,0.0263096
11565,698.615,0.02682891
11580,699.115,0.0268769
11595,699.615,0.0269059
11610,700.115,0.0257684
11625,700.615,0.0262471
11640,701.115,0.0275498
11655,701.615,0.0283981
11670,702.115,0.028198
11685,702.615,0.028198
11700,703.115,0.0285957
11715,703.615,0.0284024
11730,704.115,0.0272935
11745,704.615,0.0273265
11760,705.115,0.0284722
11775,705.615,0.0277973
11790,706.115,0.0268977
11805,706.615,0.0278158
11820,707.115,0.0279456
11835,707.615,0.0281035
11850,708.115,0.0275982
11865,708.615,0.02820187
11880,709.115,0.0279926
11895,709.615,0.0284693
11910,710.115,0.0286035
11925,710.615,0.0291248
11940,711.115,0.0306203
11955,711.615,0.0290734
11970,712.115,0.0284344
11985,712.615,0.0296969
12000,713.115,0.0288259
12015,713.615,0.028898
12030,714.115,0.02959663
12045,714.615,0.0288946
12060,715.115,0.0287978
12075,715.615,0.029197
12090,716.115,0.0290976
12105,716.615,0.0296853
12120,717.115,0.0287018
12135,717.615,0.02839953
12150,718.115,0.0258009
12165,718.615,0.0266075
12180,719.115,0.0268982
12195,719.615,0.0265857
12210,720.115,0.0275977
12225,720.615,0.0274917
12240,721.115,0.02749795
12255,721.615,0.0285982
12270,722.115,0.0254729
12285,722.615,0.02660073
12300,723.115,0.0270963
12315,723.615,0.0273008
12330,724.115,0
12345,724.615,0
12360,725.115,0
12375,725.615,0
12390,726.115,0
12405,726.615,0
12420,727.115,0
12435,727.615,0
12450,728.115,0
12465,728.615,0
12480,729.115,0
12495,729.615,0
12510,730.115,0
12525,730.615,0
12540,731.115,0
12555,731.615,0
12570,732.115,0
12585,732.615,0
12600,733.115,0
12615,733.615,0
12630,734.115,0
12645,734.615,0
12660,735.115,0
12675,735.615,0
12690,736.115,0
12705,736.615,0
12720,737.115,0
12735,737.615,0
12750,738.115,0
12765,738.615,0
12780,739.115,0
12795,739.615,0
12810,740.115,0
12825,740.615,0
12840,741.115,0
12855,741.615,0
12870,742.115,0
12885,742.615,0
12900,743.115,0
12915,743.615,0
12930,744.115,0
12945,744.615,0
12960,745.115,0
12975,745.615,0
12990,746.115,0
13005,746.615,0
13020,747.115,0
13035,747.615,0
13050,748.115,0
13065,748.615,0
13080,749.115,0
13095,749.615,0
13110,750.115,0
13125,750.615,0
13140,751.115,0
13155,751.615,0
13170,752.115,0
13185,752.615,0
13200,753.115,0
13215,753.615,0
13230,754.115,0
13245,754.615,0
13260,755.115,0
13275,755.615,0
13290,756.115,0
13305,756.615,0
13320,757.115,0
13335,757.615,0
13350,758.115,0
13365,758.615,0
13380,759.115,0
13395,759.615,0
13410,760.115,0
13425,760.615,0
13440,761.115,0
13455,761.615,0
13470,762.115,0
13485,762.615,0
13500,763.115,0
13515,763.615,0
13530,764.115,0
13545,764.615,0
13560,765.115,0
13575,765.615,0
13590,766.115,0
13605,766.615,0
13620,767.115,0
13635,767.615,0
13650,768.115,0
13665,768.615,0
13680,769.115,0
13695,769.615,0
13710,770.115,0
13725,770.615,0
13740,771.115,0
13755,771.615,0
13770,772.115,0
13785,772.615,0
13800,773.115,0
13815,773.615,0