File: PMMA/Calibration_Data/UMET/UMET_DSC_N2_20K_2.csv
Time,Temperature,Heat Flow
[s],[K],[mW/mg]
0,273.15,0
6,311.869,-0.0321933
12,309.453,-0.289721
18,306.19,-0.565084
24,303.078,-0.584559
30,300.049,-0.575831
36,297.082,-0.56272
42,294.159,-0.531149
48,291.301,-0.485389
54,288.507,-0.455002
60,285.777,-0.433781
66,283.108,-0.418411
72,280.501,-0.410891
78,277.954,-0.404695
84,275.466,-0.399291
90,273.034,-0.393325
96,270.662,-0.385849
102,268.345,-0.379001
108,266.083,-0.371797
114,263.873,-0.365234
120,261.716,-0.356827
126,259.611,-0.349059
132,257.555,-0.341572
138,255.549,-0.33415
144,253.591,-0.326293
150,251.681,-0.317974
156,249.816,-0.310228
162,247.996,-0.302746
168,246.221,-0.295459
174,244.488,-0.288366
180,242.797,-0.281118
186,241.147,-0.273581
192,239.538,-0.266765
198,237.967,-0.260563
204,236.434,-0.253558
210,234.937,-0.247674
216,233.477,-0.242311
222,232.054,-0.235756
228,230.663,-0.229923
234,229.307,-0.224222
240,227.983,-0.218712
246,226.692,-0.21362
252,225.431,-0.208158
258,224.202,-0.202708
264,223.001,-0.197683
270,221.831,-0.192662
276,220.689,-0.186555
282,219.573,-0.182355
288,218.486,-0.177724
294,217.424,-0.173279
300,216.389,-0.168704
306,215.378,-0.164546
312,214.392,-0.160352
318,213.429,-0.156095
324,212.491,-0.152103
330,211.574,-0.148217
336,210.68,-0.144199
342,209.808,-0.1404
348,208.956,-0.136798
354,208.125,-0.133207
360,207.315,-0.129766
366,206.524,-0.126389
372,205.752,-0.123126
378,204.999,-0.119768
384,204.264,-0.116745
390,203.547,-0.113316
396,202.848,-0.110384
402,202.166,-0.107188
408,201.499,-0.104372
414,200.849,-0.101678
420,200.215,-0.098914
426,199.596,-0.0961989
432,198.993,-0.0934472
438,198.403,-0.090968
444,197.829,-0.0883949
450,197.268,-0.0860369
456,196.721,-0.0836969
462,196.185,-0.0813238
468,195.647,-0.0789241
474,195.116,-0.0774718
480,194.6,-0.076034
486,194.102,-0.0744209
492,193.625,-0.0724334
498,193.389,-0.0716272
504,193.317,-0.0298905
510,193.288,-0.0166493
516,193.27,-0.0128384
522,193.255,-0.0102059
528,193.244,-0.00776988
534,193.235,-0.00555622
540,193.227,-0.00401286
546,193.22,-0.00259748
552,193.216,-0.00140712
558,193.211,-0.000369146
564,193.208,0.000601156
570,193.205,0.00134233
576,193.203,0.00194152
582,193.2,0.00249844
588,193.2,0.00286657
594,193.199,0.00330994
600,193.198,0.003711
606,193.197,0.00399329
612,193.196,0.00431274
618,193.195,0.00446768
624,193.195,0.00479541
630,193.195,0.00504908
636,193.194,0.00531061
642,193.193,0.00548371
648,193.194,0.00559622
654,193.193,0.00575394
660,193.193,0.00592596
666,193.193,0.0059348
672,193.193,0.00601781
678,193.193,0.00605788
684,193.192,0.00620085
690,193.192,0.00633212
696,193.193,0.00634233
702,193.192,0.00629795
708,193.192,0.00640875
714,193.192,0.00641584
720,193.192,0.00640736
726,193.192,0.0065657
732,193.192,0.00665004
738,193.192,0.00667967
744,193.193,0.00670901
750,193.193,0.00672264
756,193.193,0.00667839
762,193.193,0.00669993
768,193.193,0.00670408
774,193.192,0.00671825
780,193.192,0.00671172
786,193.192,0.00664365
792,193.192,0.00670241
798,193.192,0.00673886
804,193.192,0.00672741
810,193.192,0.00667907
816,193.192,0.00675578
822,193.192,0.00673456
828,193.192,0.00674536
834,193.192,0.00676607
840,193.192,0.00679383
846,193.192,0.00687586
852,193.192,0.00676787
858,193.192,0.00691198
864,193.192,0.00698383
870,193.192,0.00697779
876,193.193,0.00697062
882,193.193,0.0070062
888,193.193,0.00708266
894,193.192,0.00699639
900,193.192,0.00695709
906,193.192,0.00695633
912,193.192,0.00704114
918,193.192,0.00705163
924,193.192,0.00703886
930,193.192,0.00701983
936,193.191,0.00683926
942,193.191,0.00687045
948,193.192,0.00687205
954,193.192,0.00690047
960,193.192,0.00691443
966,193.192,0.00692048
972,193.191,0.00701373
978,193.192,0.00689197
984,193.192,0.00692297
990,193.191,0.00688127
996,193.192,0.00679559
1002,193.191,0.00687041
1008,193.19,0.00685562
1014,193.19,0.00685068
1020,193.189,0.00680333
1026,193.189,0.00685054
1032,193.189,0.00696546
1038,193.189,0.00707926
1044,193.19,0.00696308
1050,193.191,0.0069687
1056,193.191,0.00700383
1062,193.191,0.00704326
1068,193.191,0.00704285
1074,193.191,0.00703847
1080,193.191,0.00703063
1086,193.19,0.00705962
1092,193.19,0.00710546
1098,193.191,0.0070948
1104,193.191,0.00705953
1110,193.325,-0.0188553
1116,194.679,0.085881
1122,196.516,0.207985
1128,198.46,0.242203
1134,200.422,0.249054
1140,202.391,0.251582
1146,204.363,0.253518
1152,206.34,0.255462
1158,208.321,0.2573
1164,210.304,0.259148
1170,212.289,0.261003
1176,214.276,0.262751
1182,216.268,0.264713
1188,218.26,0.2667
1194,220.254,0.268873
1200,222.25,0.271126
1206,224.247,0.2734
1212,226.244,0.275867
1218,228.241,0.278356
1224,230.241,0.281035
1230,232.241,0.283721
1236,234.24,0.286451
1242,236.241,0.289308
1248,238.241,0.292199
1254,240.243,0.295112
1260,242.244,0.298061
1266,244.246,0.301543
1272,246.248,0.30452
1278,248.248,0.307677
1284,250.25,0.311306
1290,252.252,0.315028
1296,254.253,0.318449
1302,256.254,0.322101
1308,258.256,0.325557
1314,260.257,0.328997
1320,262.259,0.332735
1326,264.26,0.336813
1332,266.261,0.340728
1338,268.263,0.344791
1344,270.264,0.348778
1350,272.266,0.352922
1356,274.268,0.357145
1362,276.269,0.361521
1368,278.269,0.366006
1374,280.27,0.370707
1380,282.271,0.374973
1386,284.272,0.380212
1392,286.272,0.384984
1398,288.274,0.389452
1404,290.276,0.394408
1410,292.278,0.399233
1416,294.279,0.403679
1422,296.281,0.4087
1428,298.283,0.413418
1434,300.284,0.418064
1440,302.286,0.422708
1446,304.287,0.427366
1452,306.288,0.432157
1458,308.289,0.436844
1464,310.291,0.441666
1470,312.292,0.445964
1476,314.293,0.449899
1482,316.295,0.452758
1488,318.299,0.455746
1494,320.301,0.45824
1500,322.304,0.4607
1506,324.306,0.46314
1512,326.309,0.465338
1518,328.311,0.467737
1524,330.312,0.469795
1530,332.314,0.471916
1536,334.316,0.473973
1542,336.318,0.47601
1548,338.32,0.477852
1554,340.323,0.479817
1560,342.324,0.481682
1566,344.326,0.483473
1572,346.329,0.485258
1578,348.333,0.487097
1584,350.336,0.489019
1590,352.338,0.490502
1596,354.338,0.492066
1602,356.34,0.493472
1608,358.344,0.495132
1614,360.348,0.497022
1620,362.351,0.498688
1626,364.355,0.500308
1632,366.358,0.501871
1638,368.36,0.503566
1644,370.366,0.505526
1650,372.368,0.507421
1656,374.369,0.50924
1662,376.368,0.511096
1668,378.368,0.5134
1674,380.368,0.516072
1680,382.369,5.19E-01
1686,384.371,0.523134
1692,386.372,0.527497
1698,388.374,0.533257
1704,390.376,0.54256
1710,392.377,0.551369
1716,394.377,0.563954
1722,396.377,0.577341
1728,398.376,0.594296
1734,400.375,0.608456
1740,402.374,0.618461
1746,404.374,0.623766
1752,406.377,0.626082
1758,408.38,0.626415
1764,410.385,0.626019
1770,412.388,0.625934
1776,414.388,0.626044
1782,416.389,0.626525
1788,418.391,0.627255
1794,420.391,0.628272
1800,422.394,0.629669
1806,424.396,0.631074
1812,426.397,0.632464
1818,428.397,0.633959
1824,430.398,0.635687
1830,432.287,0.655017
1836,432.977,0.379085
1842,433.07,0.14429
1848,433.092,0.0937682
1854,433.107,0.0850771
1860,433.122,0.0826796
1866,433.136,0.0808881
1872,433.149,0.0790638
1878,433.16,0.0771987
1884,433.17,0.0754154
1890,433.176,0.0737614
1896,433.181,0.0721856
1902,433.186,0.0707395
1908,433.188,0.0694201
1914,433.19,0.068346
1920,433.192,0.0673739
1926,433.193,0.0665945
1932,433.194,0.0658691
1938,433.195,0.0652313
1944,433.195,0.0646957
1950,433.197,0.0643173
1956,433.198,0.063831
1962,433.2,0.0633445
1968,433.2,0.0626692
1974,433.2,0.0620636
1980,433.199,0.0616485
1986,433.198,0.0613064
1992,433.196,0.0609441
1998,433.195,0.0605864
2004,433.194,0.0605106
2010,433.196,0.0604315
2016,433.195,0.0602918
2022,433.196,0.0601784
2028,433.197,0.0599818
2034,433.197,0.0597565
2040,433.196,0.0595355
2046,433.196,0.059263
2052,433.195,0.0590562
2058,433.194,0.0588562
2064,433.192,0.0587039
2070,433.19,0.0583132
2076,433.191,0.0582381
2082,433.192,0.0583504
2088,433.194,0.0582652
2094,433.195,0.0581392
2100,433.195,0.0579654
2106,433.195,0.0577303
2112,433.194,0.0574827
2118,433.194,0.0574025
2124,433.195,0.0573464
2130,433.196,0.0572381
2136,433.197,0.0571365
2142,433.196,0.0569047
2148,433.195,0.0566989
2154,433.194,0.0564602
2160,433.194,0.0563825
2166,433.194,0.0564043
2172,433.193,0.0563937
2178,433.193,0.0563699
2184,433.194,0.0563271
2190,433.195,0.0563964
2196,433.197,0.0563016
2202,433.196,0.0561533
2208,433.195,0.0559877
2214,433.195,0.0557906
2220,433.195,0.0556439
2226,433.196,0.0556261
2232,433.196,0.0555189
2238,433.197,0.0554343
2244,433.197,0.0552693
2250,433.198,0.0552196
2256,433.198,0.0550116
2262,433.198,0.0547177
2268,433.197,0.0545556
2274,433.196,0.0543532
2280,433.196,0.0542248
2286,433.196,0.0541629
2292,433.195,0.0540988
2298,433.195,0.0539438
2304,433.195,0.0539974
2310,433.195,0.0540554
2316,433.195,0.0539158
2322,433.194,0.0538105
2328,433.195,0.0537839
2334,433.195,0.0537434
2340,433.195,0.0536421
2346,433.195,0.0534786
2352,433.194,0.0533374
2358,433.194,0.0532949
2364,433.195,0.0531782
2370,433.196,0.053161
2376,433.195,0.0530541
2382,433.194,0.0528892
2388,433.194,0.0528733
2394,433.193,0.0528498
2400,433.193,0.0528194
2406,433.193,0.05292
2412,433.193,0.0529284
2418,433.193,0.052871
2424,433.193,0.0528078
2430,433.102,0.0642333
2436,431.857,-0.275048
2442,430.01,-0.460044
2448,428.059,-0.497246
2454,426.089,-0.502429
2460,424.113,-0.50461
2466,422.134,-0.506095
2472,420.151,-0.507815
2478,418.166,-0.509499
2484,416.178,-0.510856
2490,414.187,-0.51219
2496,412.194,-0.513184
2502,410.201,-0.513847
2508,408.206,-0.514085
2514,406.21,-0.513942
2520,404.215,-0.513271
2526,402.216,-0.512133
2532,400.219,-0.509638
2538,398.22,-0.505676
2544,396.221,-0.499783
2550,394.222,-0.490288
2556,392.222,-0.481371
2562,390.222,-0.472357
2568,388.223,-0.463534
2574,386.224,-0.455924
2580,384.225,-0.44903
2586,382.226,-0.442427
2592,380.227,-0.437305
2598,378.228,-0.432214
2604,376.23,-0.427154
2610,374.231,-0.422408
2616,372.233,-0.418176
2622,370.235,-0.414426
2628,368.236,-0.410949
2634,366.239,-0.407819
2640,364.24,-0.404706
2646,362.242,-0.40205
2652,360.243,-0.399344
2658,358.244,-0.396764
2664,356.245,-0.394331
2670,354.248,-0.392021
2676,352.249,-0.38959
2682,350.249,-0.387649
2688,348.251,-0.385617
2694,346.251,-0.383447
2700,344.253,-0.381348
2706,342.254,-0.379344
2712,340.256,-0.37798
2718,338.257,-0.376536
2724,336.258,-0.374574
2730,334.259,-0.372424
2736,332.26,-0.370297
2742,330.262,-0.368153
2748,328.263,-0.366117
2754,326.264,-0.364371
2760,324.265,-0.362831
2766,322.266,-0.361146
2772,320.267,-0.35955
2778,318.269,-0.357657
2784,316.272,-0.356183
2790,314.272,-0.354366
2796,312.275,-0.352982
2802,310.276,-0.351782
2808,308.278,-0.350382
2814,306.278,-0.349253
2820,304.279,-0.347941
2826,302.281,-0.346729
2832,300.283,-0.345341
2838,298.284,-0.343925
2844,296.284,-0.342584
2850,294.285,-0.341316
2856,292.286,-0.340044
2862,290.287,-0.338915
2868,288.287,-0.337749
2874,286.288,-0.336524
2880,284.289,-0.335455
2886,282.29,-0.334292
2892,280.291,-0.333185
2898,278.293,-0.332178
2904,276.295,-0.331144
2910,274.295,-0.329986
2916,272.298,-0.328873
2922,270.3,-0.327655
2928,268.302,-0.326584
2934,266.304,-0.325481
2940,264.305,-0.3245
2946,262.307,-0.323754
2952,260.308,-0.322827
2958,258.309,-0.322124
2964,256.311,-0.321474
2970,254.337,-0.3208
2976,252.409,-0.317491
2982,250.529,-0.311861
2988,248.697,-0.303552
2994,246.911,-0.296282
3000,245.17,-0.288277
3006,243.472,-0.281298
3012,241.816,-0.274369
3018,240.201,-0.267677
3024,238.624,-0.261081
3030,237.086,-0.255277
3036,235.585,-0.248963
3042,234.12,-0.243021
3048,232.691,-0.237435
3054,231.295,-0.230951
3060,229.935,-0.224765
3066,228.606,-0.218521
3072,227.309,-0.213115
3078,226.044,-0.208375
3084,224.81,-0.20371
3090,223.603,-0.198759
3096,222.428,-0.193769
3102,221.279,-0.189035
3108,220.16,-0.183997
3114,219.066,-0.179424
3120,217.998,-0.175084
3126,216.957,-0.170799
3132,215.941,-0.166427
3138,214.949,-0.161714
3144,213.98,-0.157769
3150,213.035,-0.153948
3156,212.113,-0.15011
3162,211.213,-0.146224
3168,210.335,-0.142446
3174,209.477,-0.138957
3180,208.641,-0.135284
3186,207.824,-0.131839
3192,207.028,-0.128372
3198,206.249,-0.125096
3204,205.49,-0.121771
3210,204.75,-0.118652
3216,204.026,-0.115431
3222,203.321,-0.112418
3228,202.632,-0.109383
3234,201.961,-0.106497
3240,201.304,-0.103709
3246,200.664,-0.100991
3252,200.04,-0.0983027
3258,199.43,-0.0956666
3264,198.835,-0.0931674
3270,198.255,-0.0905834
3276,197.687,-0.0880596
3282,197.133,-0.0856914
3288,196.594,-0.0833513
3294,196.067,-0.080953
3300,195.553,-0.0787659
3306,195.05,-0.0765858
3312,194.553,-0.0742962
3318,194.048,-0.0722771
3324,193.529,-0.0711056
3330,193.192,-0.0801618
3336,193.142,-0.0332465
3342,193.148,-0.0141911
3348,193.16,-0.00955477
3354,193.171,-0.00729623
3360,193.18,-0.00524661
3366,193.186,-0.00366581
3372,193.19,-0.00234939
3378,193.194,-0.00133657
3384,193.196,-0.000329024
3390,193.197,0.000399606
3396,193.199,0.0009929
3402,193.199,0.00154965
3408,193.199,0.00199689
3414,193.199,0.00238284
3420,193.199,0.0027514
3426,193.199,0.00302958
3432,193.199,0.00331429
3438,193.199,0.00352368
3444,193.2,0.00380053
3450,193.199,0.00397566
3456,193.199,0.00413909
3462,193.199,0.00426273
3468,193.199,0.00440588
3474,193.199,0.00461471
3480,193.199,0.00476175
3486,193.199,0.00492878
3492,193.199,0.00505624
3498,193.198,0.00524561
3504,193.199,0.00531873
3510,193.199,0.00534306
3516,193.198,0.00546569
3522,193.198,0.00559581
3528,193.199,0.00562361
3534,193.198,0.00563996
3540,193.198,0.005697
3546,193.197,0.00578492
3552,193.199,0.0058816
3558,193.198,0.00600576
3564,193.198,0.0060719
3570,193.197,0.00612237
3576,193.198,0.00610041
3582,193.197,0.00612289
3588,193.197,0.00610949
3594,193.196,0.00621963
3600,193.197,0.0062849
3606,193.197,0.00631391
3612,193.197,0.00639127
3618,193.197,0.00632258
3624,193.197,0.00643393
3630,193.197,0.00652586
3636,193.197,0.00664658
3642,193.197,0.00669379
3648,193.197,0.00655743
3654,193.198,0.00664278
3660,193.197,0.00667575
3666,193.197,0.00663714
3672,193.197,0.00667569
3678,193.196,0.00662881
3684,193.196,0.00668613
3690,193.196,0.00668348
3696,193.197,0.00679223
3702,193.196,0.00683043
3708,193.196,0.00683079
3714,193.197,0.00688214
3720,193.196,0.00690561
3726,193.196,0.00690658
3732,193.197,0.00696932
3738,193.196,0.00689082
3744,193.195,0.0069439
3750,193.196,0.00693491
3756,193.196,0.00698526
3762,193.196,0.00696181
3768,193.195,0.00696616
3774,193.195,0.00681767
3780,193.196,0.00689182
3786,193.196,0.00687773
3792,193.195,0.00693563
3798,193.195,0.00705053
3804,193.195,0.00711234
3810,193.194,0.007218
3816,193.195,0.00718287
3822,193.195,0.00724799
3828,193.195,0.00725009
3834,193.195,0.0072591
3840,193.195,0.00734982
3846,193.195,0.00735148
3852,193.196,0.00740926
3858,193.195,0.0074158
3864,193.195,0.00738753
3870,193.194,0.007477
3876,193.195,0.00741721
3882,193.195,0.00747907
3888,193.195,0.00751764
3894,193.195,0.00744515
3900,193.195,0.00749675
3906,193.195,0.00745082
3912,193.195,0.00747851
3918,193.633,-0.0368361
3924,195.243,0.149091
3930,197.16,0.222979
3936,199.112,0.244074
3942,201.077,0.24824
3948,203.046,0.250415
3954,204.988,0.252336
3960,206.997,0.254187
3966,208.979,0.25577
3972,210.961,0.257367
3978,212.948,0.259082
3984,214.903,0.260711
3990,216.928,0.262528
3996,218.92,0.26435
4002,220.913,0.266368
4008,222.908,0.2684
4014,224.871,0.270382
4020,226.902,0.272615
4026,228.9,0.274908
4032,230.899,0.277312
4038,232.899,0.279783
4044,234.866,0.282292
4050,236.899,0.284728
4056,238.901,0.28724
4062,240.901,0.289874
4068,242.901,0.292369
4074,244.869,0.295188
4080,246.905,0.29804
4086,248.905,0.301227
4092,250.907,0.304081
4098,252.909,0.307206
4104,254.91,0.310086
4110,256.912,0.312884
4116,258.914,0.315649
4122,260.917,0.318433
4128,262.918,0.321119
4134,264.92,0.323964
4140,266.922,0.326756
4146,268.925,0.329616
4152,270.928,0.33245
4158,272.93,0.335161
4164,274.931,0.33788
4170,276.933,0.340604
4176,278.935,0.343466
4182,280.936,0.346464
4188,282.938,0.349554
4194,284.94,0.352715
4200,286.941,0.355891
4206,288.943,0.359165
4212,290.946,0.362291
4218,292.949,0.365468
4224,294.951,0.368391
4230,296.953,0.371328
4236,298.956,0.374347
4242,300.958,0.377539
4248,302.96,0.380378
4254,304.963,0.383282
4260,306.965,0.386056
4266,308.967,0.388858
4272,310.969,0.391871
4278,312.972,0.39458
4284,314.974,0.397269
4290,316.976,0.400061
4296,318.978,0.402853
4302,320.979,0.40571
4308,322.981,0.40847
4314,324.984,0.411316
4320,326.986,0.414124
4326,328.988,0.416788
4332,330.991,0.419547
4338,332.992,0.422213
4344,334.994,0.424795
4350,336.995,0.427544
4356,338.998,0.430423
4362,340.999,0.433146
4368,343.001,0.43592
4374,345.003,0.438713
4380,347.005,0.441592
4386,349.006,0.44456
4392,351.008,0.447494
4398,353.009,0.450428
4404,355.011,0.453261
4410,357.013,0.456272
4416,359.015,0.459324
4422,361.017,0.462424
4428,363.019,0.465624
4434,365.021,0.468556
4440,367.025,0.471624
4446,369.025,0.474753
4452,371.025,0.47796
4458,373.027,0.48105
4464,375.029,0.484598
4470,377.032,0.488592
4476,379.034,0.492749
4482,381.036,0.497154
4488,383.038,0.501815
4494,385.04,0.507296
4500,387.041,0.514329
4506,389.043,0.522473
4512,391.044,0.532939
4518,393.045,0.544847
4524,395.044,0.558977
4530,397.044,0.573502
4536,399.043,0.589956
4542,401.042,0.603667
4548,403.042,0.614699
4554,405.041,0.618882
4560,407.043,0.62104
4566,409.045,0.622009
4572,411.048,0.622791
4578,413.051,0.623844
4584,415.052,0.624838
4590,417.054,0.626126
4596,419.056,0.627522
4602,421.064,0.628996
4608,423.072,0.631698
4614,425.071,0.632915
4620,427.069,0.634146
4626,429.068,0.635738
4632,431.068,0.637376
4638,432.682,0.640463
4644,433.03,0.259738
4650,433.084,0.116815
4656,433.1,0.0879499
4662,433.115,0.0835605
4668,433.13,0.0818928
4674,433.143,0.0800981
4680,433.156,0.0783062
4686,433.166,0.076556
4692,433.174,0.0748552
4698,433.18,0.0733086
4704,433.185,0.0718788
4710,433.188,0.0704653
4716,433.192,0.0693163
4722,433.193,0.0682713
4728,433.195,0.0672842
4734,433.197,0.0665067
4740,433.197,0.0658214
4746,433.198,0.0650869
4752,433.198,0.0643389
4758,433.198,0.0637293
4764,433.198,0.0632991
4770,433.198,0.0629059
4776,433.198,0.0624624
4782,433.197,0.0621588
4788,433.197,0.0618778
4794,433.197,0.0616429
4800,433.198,0.0614156
4806,433.198,0.0611757
4812,433.199,0.0609488
4818,433.2,0.0606555
4824,433.199,0.0602754
4830,433.199,0.0599677
4836,433.199,0.059655
4842,433.199,0.0594172
4848,433.199,0.0591384
4854,433.198,0.0588331
4860,433.197,0.0586599
4866,433.198,0.0585592
4872,433.196,0.0584866
4878,433.196,0.0583355
4884,433.196,0.0582612
4890,433.196,0.0581529
4896,433.196,0.057995
4902,433.196,0.0578512
4908,433.196,0.0577189
4914,433.196,0.057592
4920,433.196,0.0574528
4926,433.196,0.0574086
4932,433.197,0.0572077
4938,433.196,0.0570764
4944,433.196,0.0568059
4950,433.196,0.0567378
4956,433.195,0.0566143
4962,433.195,0.0564715
4968,433.195,0.0564186
4974,433.194,0.0563306
4980,433.194,0.0563663
4986,433.195,0.0563201
4992,433.195,0.0562618
4998,433.194,0.0562222
5004,433.194,0.0560909
5010,433.194,0.0560476
5016,433.194,0.055938
5022,433.194,0.0559506
5028,433.194,0.0558463
5034,433.193,0.0557641
5040,433.194,0.0556719
5046,433.194,0.0556274
5052,433.193,0.055531
5058,433.194,0.0554845
5064,433.193,0.05551
5070,433.193,0.0554315
5076,433.193,0.0553462
5082,433.193,0.0553818
5088,433.193,0.0554024
5094,433.193,0.055359
5100,433.195,0.0554323
5106,433.195,0.0553074
5112,433.193,0.0550619
5118,433.193,0.054978
5124,433.193,0.0550708
5130,433.194,0.0550514
5136,433.193,0.0550312
5142,433.193,0.0549513
5148,433.193,0.0549019
5154,433.193,0.0549337
5160,433.194,0.0550103
5166,433.194,0.0549512
5172,433.193,0.0549327
5178,433.193,0.0548376
5184,433.193,0.0548482
5190,433.193,0.054757
5196,433.194,0.054888
5202,433.193,0.0548786
5208,433.193,0.0547303
5214,433.194,0.0547341
5220,433.194,0.0548579
5226,433.194,0.0548861
5232,433.194,0.0547237
5238,432.846,0.0517807
5244,431.263,-0.378989
5250,429.36,-0.478758
5256,427.397,-0.498944
5262,425.424,-0.501909
5268,423.447,-0.503623
5274,421.466,-0.50522
5280,419.483,-0.506948
5286,417.496,-0.508488
5292,415.507,-0.5098
5298,413.516,-0.510927
5304,411.522,-0.511818
5310,409.528,-0.512239
5316,407.534,-0.512375
5322,405.538,-0.512071
5328,403.541,-0.511299
5334,401.544,-0.509747
5340,399.546,-0.506338
5346,397.548,-0.501339
5352,395.55,-0.49421
5358,393.55,-0.484945
5364,391.551,-0.475741
5370,389.55,-0.467486
5376,387.551,-0.45984
5382,385.552,-0.452243
5388,383.552,-0.445811
5394,381.553,-0.439469
5400,379.554,-0.434038
5406,377.555,-0.428829
5412,375.556,-0.424077
5418,373.557,-0.419601
5424,371.559,-0.415591
5430,369.559,-0.411804
5436,367.562,-0.408362
5442,365.563,-0.405084
5448,363.564,-0.40238
5454,361.565,-0.399506
5460,359.567,-0.396842
5466,357.568,-0.39448
5472,355.569,-0.392003
5478,353.571,-0.389612
5484,351.572,-0.387342
5490,349.572,-0.385285
5496,347.574,-0.383138
5502,345.575,-0.380961
5508,343.577,-0.378902
5514,341.578,-0.377198
5520,339.58,-0.375952
5526,337.583,-0.374269
5532,335.584,-0.372454
5538,333.584,-0.370415
5544,331.585,-0.368443
5550,329.587,-0.366633
5556,327.587,-0.364697
5562,325.588,-0.362819
5568,323.59,-0.361215
5574,321.591,-0.360012
5580,319.593,-0.358325
5586,317.595,-0.356816
5592,315.597,-0.35545
5598,313.598,-0.354104
5604,311.599,-0.352936
5610,309.601,-0.351648
5616,307.602,-0.350551
5622,305.603,-0.34938
5628,303.605,-0.348295
5634,301.607,-0.347408
5640,299.609,-0.346186
5646,297.61,-0.344856
5652,295.611,-0.343459
5658,293.612,-0.342196
5664,291.614,-0.340922
5670,289.615,-0.339632
5676,287.616,-0.338314
5682,285.618,-0.336946
5688,283.62,-0.335592
5694,281.623,-0.334339
5700,279.626,-0.332994
5706,277.627,-0.331729
5712,275.629,-0.330335
5718,273.631,-0.328976
5724,271.634,-0.327644
5730,269.636,-0.326335
5736,267.637,-0.325304
5742,265.639,-0.324408
5748,263.639,-0.323522
5754,261.638,-0.322639
5760,259.639,-0.32166
5766,257.638,-0.320929
5772,255.643,-0.320341
5778,253.683,-0.318755
5784,251.771,-0.314796
5790,249.907,-0.306268
5796,248.091,-0.300108
5802,246.321,-0.292736
5808,244.595,-0.285688
5814,242.911,-0.278099
5820,241.268,-0.272211
5826,239.666,-0.265484
5832,238.102,-0.258733
5838,236.576,-0.252433
5844,235.088,-0.246157
5850,233.635,-0.240202
5856,232.217,-0.234681
5862,230.834,-0.228831
5868,229.483,-0.223415
5874,228.166,-0.217317
5880,226.88,-0.211984
5886,225.624,-0.206779
5892,224.4,-0.200983
5898,223.204,-0.196082
5904,222.037,-0.191227
5910,220.899,-0.186613
5916,219.788,-0.182069
5922,218.703,-0.17765
5928,217.645,-0.173314
5934,216.612,-0.168612
5940,215.604,-0.164572
5946,214.619,-0.160177
5952,213.659,-0.156266
5958,212.722,-0.152049
5964,211.807,-0.148356
5970,210.914,-0.144374
5976,210.044,-0.140583
5982,209.193,-0.137104
5988,208.363,-0.133605
5994,207.553,-0.130228
6000,206.763,-0.126983
6006,205.992,-0.123656
6012,205.239,-0.120432
6018,204.504,-0.117036
6024,203.787,-0.11398
6030,203.087,-0.110983
6036,202.403,-0.108089
6042,201.738,-0.105167
6048,201.087,-0.102446
6054,200.452,-0.0996515
6060,199.832,-0.0971375
6066,199.227,-0.0943587
6072,198.637,-0.0918585
6078,198.062,-0.0894475
6084,197.5,-0.0870583
6090,196.95,-0.0847418
6096,196.415,-0.0823839
6102,195.893,-0.0800499
6108,195.384,-0.0777575
6114,194.883,-0.0755312