File: PMMA/Calibration_Data/UMET/UMET_TGA_N2_10K_1.csv
Time,Temperature,Mass
[s],[K],[mg]
0,313.115,5.3388
3,313.615,5.3388
6,314.115,5.3388
9,314.615,5.3388
12,315.115,5.3388
15,315.615,5.3388
18,316.115,5.3388
21,316.615,5.3388
24,317.115,5.3388
27,317.615,5.3388
30,318.115,5.32813
33,318.615,5.328
36,319.115,5.32792
39,319.615,5.32798
42,320.115,5.32778
45,320.615,5.32773
48,321.115,5.32772
51,321.615,5.32761
54,322.115,5.32747
57,322.615,5.32752
60,323.115,5.32739
63,323.615,5.3274
66,324.115,5.3272
69,324.615,5.32708
72,325.115,5.32704
75,325.615,5.3272
78,326.115,5.32731
81,326.615,5.32723
84,327.115,5.3272
87,327.615,5.3269
90,328.115,5.327
93,328.615,5.3269
96,329.115,5.3268
99,329.615,5.3268
102,330.115,5.3268
105,330.615,5.3267
108,331.115,5.3267
111,331.615,5.3265
114,332.115,5.32631
117,332.615,5.3262
120,333.115,5.3261
123,333.615,5.32589
126,334.115,5.3257
129,334.615,5.3256
132,335.115,5.32547
135,335.615,5.32553
138,336.115,5.32539
141,336.615,5.32557
144,337.115,5.32563
147,337.615,5.32549
150,338.115,5.3253
153,338.615,5.32479
156,339.115,5.3247
159,339.615,5.32458
162,340.115,5.32452
165,340.615,5.3247
168,341.115,5.3246
171,341.615,5.32439
174,342.115,5.3241
177,342.615,5.32398
180,343.115,5.3238
183,343.615,5.32381
186,344.115,5.3237
189,344.615,5.3235
192,345.115,5.32351
195,345.615,5.32348
198,346.115,5.3234
201,346.615,5.32351
204,347.115,5.32329
207,347.615,5.32324
210,348.115,5.3232
213,348.615,5.32321
216,349.115,5.32307
219,349.615,5.32287
222,350.115,5.32287
225,350.615,5.32277
228,351.115,5.32264
231,351.615,5.32268
234,352.115,5.32259
237,352.615,5.3226
240,353.115,5.32241
243,353.615,5.3225
246,354.115,5.32229
249,354.615,5.32239
252,355.115,5.3224
255,355.615,5.32229
258,356.115,5.3222
261,356.615,5.3223
264,357.115,5.3224
267,357.615,5.3223
270,358.115,5.3223
273,358.615,5.3221
276,359.115,5.3222
279,359.615,5.32221
282,360.115,5.32229
285,360.615,5.32246
288,361.115,5.32232
291,361.615,5.32246
294,362.115,5.32229
297,362.615,5.32231
300,363.115,5.32228
303,363.615,5.3223
306,364.115,5.3223
309,364.615,5.32226
312,365.115,5.3222
315,365.615,5.32218
318,366.115,5.32209
321,366.615,5.32209
324,367.115,5.32198
327,367.615,5.32211
330,368.115,5.32201
333,368.615,5.32208
336,369.115,5.32206
339,369.615,5.32191
342,370.115,5.3218
345,370.615,5.32149
348,371.115,5.3216
351,371.615,5.3215
354,372.115,5.3216
357,372.615,5.3215
360,373.115,5.3213
363,373.615,5.321
366,374.115,5.321
369,374.615,5.321
372,375.115,5.3211
375,375.615,5.3209
378,376.115,5.321
381,376.615,5.3209
384,377.115,5.3209
387,377.615,5.3211
390,378.115,5.3211
393,378.615,5.3211
396,379.115,5.32079
399,379.615,5.3208
402,380.115,5.32091
405,380.615,5.3207
408,381.115,5.32079
411,381.615,5.3209
414,382.115,5.3207
417,382.615,5.3207
420,383.115,5.3205
423,383.615,5.3203
426,384.115,5.3202
429,384.615,5.32
432,385.115,5.3199
435,385.615,5.3198
438,386.115,5.3196
441,386.615,5.3194
444,387.115,5.3194
447,387.615,5.3193
450,388.115,5.3192
453,388.615,5.319
456,389.115,5.319
459,389.615,5.3188
462,390.115,5.3187
465,390.615,5.31851
468,391.115,5.3185
471,391.615,5.31822
474,392.115,5.318
477,392.615,5.31781
480,393.115,5.31731
483,393.615,5.3172
486,394.115,5.317
489,394.615,5.3168
492,395.115,5.31671
495,395.615,5.3165
498,396.115,5.3163
501,396.615,5.3162
504,397.115,5.3164
507,397.615,5.3163
510,398.115,5.3161
513,398.615,5.316
516,399.115,5.316
519,399.615,5.3159
522,400.115,5.3159
525,400.615,5.3158
528,401.115,5.31571
531,401.615,5.3155
534,402.115,5.3153
537,402.615,5.3152
540,403.115,5.31521
543,403.615,5.3148
546,404.115,5.31491
549,404.615,5.3147
552,405.115,5.3145
555,405.615,5.31418
558,406.115,5.3141
561,406.615,5.31401
564,407.115,5.31361
567,407.615,5.3133
570,408.115,5.31324
573,408.615,5.31318
576,409.115,5.31288
579,409.615,5.31261
582,410.115,5.31218
585,410.615,5.3121
588,411.115,5.31192
591,411.615,5.31167
594,412.115,5.31171
597,412.615,5.3115
600,413.115,5.31121
603,413.615,5.31081
606,414.115,5.3105
609,414.615,5.3106
612,415.115,5.3104
615,415.615,5.31009
618,416.115,5.30962
621,416.615,5.3091
624,417.115,5.3084
627,417.615,5.30812
630,418.115,5.3077
633,418.615,5.30739
636,419.115,5.30701
639,419.615,5.3068
642,420.115,5.30669
645,420.615,5.3063
648,421.115,5.3062
651,421.615,5.30589
654,422.115,5.30531
657,422.615,5.30512
660,423.115,5.3047
663,423.615,5.30452
666,424.115,5.30399
669,424.615,5.3037
672,425.115,5.30341
675,425.615,5.30322
678,426.115,5.30269
681,426.615,5.3024
684,427.115,5.3022
687,427.615,5.30199
690,428.115,5.30173
693,428.615,5.30165
696,429.115,5.30142
699,429.615,5.3011
702,430.115,5.30092
705,430.615,5.30061
708,431.115,5.3002
711,431.615,5.2999
714,432.115,5.2996
717,432.615,5.29921
720,433.115,5.29876
723,433.615,5.29829
726,434.115,5.2981
729,434.615,5.29768
732,435.115,5.29718
735,435.615,5.2967
738,436.115,5.29596
741,436.615,5.29566
744,437.115,5.29501
747,437.615,5.29452
750,438.115,5.2939
753,438.615,5.29331
756,439.115,5.2929
759,439.615,5.29236
762,440.115,5.29231
765,440.615,5.29199
768,441.115,5.29141
771,441.615,5.29091
774,442.115,5.29026
777,442.615,5.28968
780,443.115,5.28884
783,443.615,5.28802
786,444.115,5.28731
789,444.615,5.28676
792,445.115,5.28583
795,445.615,5.28506
798,446.115,5.28427
801,446.615,5.28334
804,447.115,5.28253
807,447.615,5.28153
810,448.115,5.28086
813,448.615,5.28006
816,449.115,5.27897
819,449.615,5.27791
822,450.115,5.277
825,450.615,5.27588
828,451.115,5.27475
831,451.615,5.2736
834,452.115,5.27257
837,452.615,5.27122
840,453.115,5.2696
843,453.615,5.26819
846,454.115,5.26691
849,454.615,5.2656
852,455.115,5.26428
855,455.615,5.26272
858,456.115,5.26128
861,456.615,5.25958
864,457.115,5.25826
867,457.615,5.25676
870,458.115,5.25585
873,458.615,5.25469
876,459.115,5.25306
879,459.615,5.25102
882,460.115,5.2493
885,460.615,5.24682
888,461.115,5.24446
891,461.615,5.24232
894,462.115,5.24079
897,462.615,5.23924
900,463.115,5.23767
903,463.615,5.23647
906,464.115,5.23479
909,464.615,5.23325
912,465.115,5.23158
915,465.615,5.23017
918,466.115,5.22866
921,466.615,5.2272
924,467.115,5.22549
927,467.615,5.22398
930,468.115,5.2225
933,468.615,5.22079
936,469.115,5.21929
939,469.615,5.2178
942,470.115,5.21638
945,470.615,5.21509
948,471.115,5.21339
951,471.615,5.21208
954,472.115,5.21039
957,472.615,5.2093
960,473.115,5.20798
963,473.615,5.2067
966,474.115,5.20549
969,474.615,5.2043
972,475.115,5.20267
975,475.615,5.20139
978,476.115,5.2002
981,476.615,5.19909
984,477.115,5.19775
987,477.615,5.19628
990,478.115,5.1954
993,478.615,5.19428
996,479.115,5.19328
999,479.615,5.19238
1002,480.115,5.1912
1005,480.615,5.19019
1008,481.115,5.18899
1011,481.615,5.18778
1014,482.115,5.1865
1017,482.615,5.18539
1020,483.115,5.18418
1023,483.615,5.1832
1026,484.115,5.18219
1029,484.615,5.18118
1032,485.115,5.17999
1035,485.615,5.17917
1038,486.115,5.17807
1041,486.615,5.17699
1044,487.115,5.17589
1047,487.615,5.17509
1050,488.115,5.17418
1053,488.615,5.1733
1056,489.115,5.1725
1059,489.615,5.1713
1062,490.115,5.1704
1065,490.615,5.1699
1068,491.115,5.16921
1071,491.615,5.1684
1074,492.115,5.16771
1077,492.615,5.16691
1080,493.115,5.16602
1083,493.615,5.1653
1086,494.115,5.16471
1089,494.615,5.1641
1092,495.115,5.1636
1095,495.615,5.1628
1098,496.115,5.1623
1101,496.615,5.1618
1104,497.115,5.16118
1107,497.615,5.16049
1110,498.115,5.15989
1113,498.615,5.15939
1116,499.115,5.15899
1119,499.615,5.1584
1122,500.115,5.15818
1125,500.615,5.15779
1128,501.115,5.1573
1131,501.615,5.1568
1134,502.115,5.15649
1137,502.615,5.1558
1140,503.115,5.155393
1143,503.615,5.155
1146,504.115,5.1549
1149,504.615,5.1545
1152,505.115,5.15419
1155,505.615,5.15381
1158,506.115,5.15338
1161,506.615,5.1531
1164,507.115,5.15299
1167,507.615,5.15249
1170,508.115,5.1521
1173,508.615,5.1517
1176,509.115,5.1515
1179,509.615,5.1511
1182,510.115,5.1507
1185,510.615,5.1504
1188,511.115,5.1502
1191,511.615,5.1497
1194,512.115,5.1493
1197,512.615,5.1492
1200,513.115,5.1489
1203,513.615,5.1484
1206,514.115,5.1482
1209,514.615,5.1478
1212,515.115,5.1475
1215,515.615,5.1471
1218,516.115,5.1467
1221,516.615,5.1466
1224,517.115,5.1464
1227,517.615,5.1461
1230,518.115,5.1458
1233,518.615,5.1456
1236,519.115,5.1453
1239,519.615,5.14479
1242,520.115,5.14449
1245,520.615,5.14411
1248,521.115,5.14378
1251,521.615,5.14338
1254,522.115,5.1433
1257,522.615,5.1431
1260,523.115,5.1429
1263,523.615,5.1425
1266,524.115,5.14239
1269,524.615,5.14219
1272,525.115,5.14178
1275,525.615,5.1413
1278,526.115,5.141
1281,526.615,5.14065
1284,527.115,5.14028
1287,527.615,5.13978
1290,528.115,5.13934
1293,528.615,5.13867
1296,529.115,5.1384
1299,529.615,5.13799
1302,530.115,5.13759
1305,530.615,5.13709
1308,531.115,5.13648
1311,531.615,5.1361
1314,532.115,5.13569
1317,532.615,5.13518
1320,533.115,5.1347
1323,533.615,5.13429
1326,534.115,5.13379
1329,534.615,5.13286
1332,535.115,5.1322
1335,535.615,5.13149
1338,536.115,5.13089
1341,536.615,5.1304
1344,537.115,5.12969
1347,537.615,5.1292
1350,538.115,5.1287
1353,538.615,5.1281
1356,539.115,5.1277
1359,539.615,5.12691
1362,540.115,5.12641
1365,540.615,5.12562
1368,541.115,5.125
1371,541.615,5.1244
1374,542.115,5.1237
1377,542.615,5.1231
1380,543.115,5.12249
1383,543.615,5.1217
1386,544.115,5.12079
1389,544.615,5.1202
1392,545.115,5.1195
1395,545.615,5.11849
1398,546.115,5.1177
1401,546.615,5.11678
1404,547.115,5.11588
1407,547.615,5.11487
1410,548.115,5.11369
1413,548.615,5.1127
1416,549.115,5.11189
1419,549.615,5.11068
1422,550.115,5.10958
1425,550.615,5.1086
1428,551.115,5.10728
1431,551.615,5.10629
1434,552.115,5.10508
1437,552.615,5.1041
1440,553.115,5.10266
1443,553.615,5.10149
1446,554.115,5.10007
1449,554.615,5.09849
1452,555.115,5.09735
1455,555.615,5.0958
1458,556.115,5.09435
1461,556.615,5.09297
1464,557.115,5.09144
1467,557.615,5.08971
1470,558.115,5.08817
1473,558.615,5.0863
1476,559.115,5.08456
1479,559.615,5.08246
1482,560.115,5.08016
1485,560.615,5.07792
1488,561.115,5.07577
1491,561.615,5.07364
1494,562.115,5.07124
1497,562.615,5.06927
1500,563.115,5.06767
1503,563.615,5.06564
1506,564.115,5.06352
1509,564.615,5.06117
1512,565.115,5.05874
1515,565.615,5.05687
1518,566.115,5.05469
1521,566.615,5.05236
1524,567.115,5.05006
1527,567.615,5.04786
1530,568.115,5.04587
1533,568.615,5.04317
1536,569.115,5.04066
1539,569.615,5.03817
1542,570.115,5.03547
1545,570.615,5.03305
1548,571.115,5.03058
1551,571.615,5.02796
1554,572.115,5.02556
1557,572.615,5.02256
1560,573.115,5.01966
1563,573.615,5.01667
1566,574.115,5.01363
1569,574.615,5.01103
1572,575.115,5.0082
1575,575.615,5.00545
1578,576.115,5.00251
1581,576.615,4.99946
1584,577.115,4.99636
1587,577.615,4.99345
1590,578.115,4.98991
1593,578.615,4.98661
1596,579.115,4.98348
1599,579.615,4.98012
1602,580.115,4.97659
1605,580.615,4.97294
1608,581.115,4.96939
1611,581.615,4.96604
1614,582.115,4.9621
1617,582.615,4.95836
1620,583.115,4.95455
1623,583.615,4.95049
1626,584.115,4.94657
1629,584.615,4.94264
1632,585.115,4.93857
1635,585.615,4.93406
1638,586.115,4.92929
1641,586.615,4.92451
1644,587.115,4.91922
1647,587.615,4.91419
1650,588.115,4.90896
1653,588.615,4.90374
1656,589.115,4.89808
1659,589.615,4.89215
1662,590.115,4.88605
1665,590.615,4.88002
1668,591.115,4.87361
1671,591.615,4.86743
1674,592.115,4.8608
1677,592.615,4.8539
1680,593.115,4.84679
1683,593.615,4.83921
1686,594.115,4.83114
1689,594.615,4.82335
1692,595.115,4.81496
1695,595.615,4.8067
1698,596.115,4.79755
1701,596.615,4.78845
1704,597.115,4.77941
1707,597.615,4.76984
1710,598.115,4.7591
1713,598.615,4.74886
1716,599.115,4.73762
1719,599.615,4.72639
1722,600.115,4.71362
1725,600.615,4.70174
1728,601.115,4.68911
1731,601.615,4.67618
1734,602.115,4.65049
1737,602.615,4.64044
1740,603.115,4.62835
1743,603.615,4.6109
1746,604.115,4.58922
1749,604.615,4.57852
1752,605.115,4.55473
1755,605.615,4.53708
1758,606.115,4.51867
1761,606.615,4.50043
1764,607.115,4.48124
1767,607.615,4.46192
1770,608.115,4.44167
1773,608.615,4.42103
1776,609.115,4.39918
1779,609.615,4.37722
1782,610.115,4.35469
1785,610.615,4.33102
1788,611.115,4.30744
1791,611.615,4.28214
1794,612.115,4.25689
1797,612.615,4.23044
1800,613.115,4.20236
1803,613.615,4.17546
1806,614.115,4.14775
1809,614.615,4.11904
1812,615.115,4.08914
1815,615.615,4.05899
1818,616.115,4.02781
1821,616.615,3.99592
1824,617.115,3.96385
1827,617.615,3.93093
1830,618.115,3.89721
1833,618.615,3.86243
1836,619.115,3.82708
1839,619.615,3.79131
1842,620.115,3.75422
1845,620.615,3.71685
1848,621.115,3.67882
1851,621.615,3.64049
1854,622.115,3.6008
1857,622.615,3.56094
1860,623.115,3.51991
1863,623.615,3.4781
1866,624.115,3.43502
1869,624.615,3.39212
1872,625.115,3.34911
1875,625.615,3.30532
1878,626.115,3.26065
1881,626.615,3.2121
1884,627.115,3.16642
1887,627.615,3.11995
1890,628.115,3.07325
1893,628.615,3.02563
1896,629.115,2.978
1899,629.615,2.92934
1902,630.115,2.87995
1905,630.615,2.8304
1908,631.115,2.78099
1911,631.615,2.73064
1914,632.115,2.68101
1917,632.615,2.63107
1920,633.115,2.58022
1923,633.615,2.5306
1926,634.115,2.48074
1929,634.615,2.43084
1932,635.115,2.38107
1935,635.615,2.33139
1938,636.115,2.28219
1941,636.615,2.23317
1944,637.115,2.18335
1947,637.615,2.13372
1950,638.115,2.08517
1953,638.615,2.03572
1956,639.115,1.98636
1959,639.615,1.93787
1962,640.115,1.89034
1965,640.615,1.84351
1968,641.115,1.79708
1971,641.615,1.75153
1974,642.115,1.70568
1977,642.615,1.65986
1980,643.115,1.61483
1983,643.615,1.57009
1986,644.115,1.52689
1989,644.615,1.48412
1992,645.115,1.44205
1995,645.615,1.40101
1998,646.115,1.35408
2001,646.615,1.31206
2004,647.115,1.27119
2007,647.615,1.22906
2010,648.115,1.18811
2013,648.615,1.14765
2016,649.115,1.10768
2019,649.615,1.06901
2022,650.115,1.0314
2025,650.615,0.993558
2028,651.115,0.956285
2031,651.615,0.920291
2034,652.115,0.88464
2037,652.615,0.849612
2040,653.115,0.815484
2043,653.615,0.781923
2046,654.115,0.749229
2049,654.615,0.71811
2052,655.115,0.687387
2055,655.615,0.657536
2058,656.115,0.62947
2061,656.615,0.601685
2064,657.115,0.575135
2067,657.615,0.549022
2070,658.115,0.5241794
2073,658.615,0.500427
2076,659.115,0.477483
2079,659.615,0.454901
2082,660.115,0.433702
2085,660.615,0.412826
2088,661.115,0.393192
2091,661.615,0.374133
2094,662.115,0.355844
2097,662.615,0.338388
2100,663.115,0.325187
2103,663.615,0.313597
2106,664.115,0.293588
2109,664.615,0.283066
2112,665.115,0.271436
2115,665.615,0.259458
2118,666.115,0.237425
2121,666.615,0.228517
2124,667.115,0.218543
2127,667.615,0.208636
2130,668.115,0.198075
2133,668.615,0.18726
2136,669.115,0.176826
2139,669.615,0.166754
2142,670.115,0.157327
2145,670.615,0.148572
2148,671.115,0.139776
2151,671.615,0.131514
2154,672.115,0.12374
2157,672.615,0.116158
2160,673.115,0.109007
2163,673.615,0.102704
2166,674.115,0.0965944
2169,674.615,0.0909982
2172,675.115,0.084943
2175,675.615,0.07981506
2178,676.115,0.074795
2181,676.615,0.0699554
2184,677.115,0.0652449
2187,677.615,0.0611399
2190,678.115,0.0568401
2193,678.615,0.05323
2196,679.115,0.049842
2199,679.615,0.0465928
2202,680.115,0.043319
2205,680.615,0.040167
2208,681.115,0.0370614
2211,681.615,0.0337973
2214,682.115,0.0310489
2217,682.615,0.02864106
2220,683.115,0.0263705
2223,683.615,0.0241282
2226,684.115,0.02254682
2229,684.615,0.0210439
2232,685.115,0.01962009
2235,685.615,0.0182128
2238,686.115,0.0169518
2241,686.615,0.015513
2244,687.115,0.0141526
2247,687.615,0.0127234
2250,688.115,0.0112499
2253,688.615,0.0100097
2256,689.115,0.008742285
2259,689.615,0.007702821
2262,690.115,0.006550708
2265,690.615,0.005804343
2268,691.115,0.004900166
2271,691.615,0
2274,692.115,0
2277,692.615,0
2280,693.115,0
2283,693.615,0
2286,694.115,0
2289,694.615,0
2292,695.115,0
2295,695.615,0
2298,696.115,0
2301,696.615,0
2304,697.115,0
2307,697.615,0
2310,698.115,0
2313,698.615,0
2316,699.115,0
2319,699.615,0
2322,700.115,0
2325,700.615,0
2328,701.115,0
2331,701.615,0
2334,702.115,0
2337,702.615,0
2340,703.115,0
2343,703.615,0
2346,704.115,0
2349,704.615,0
2352,705.115,0
2355,705.615,0
2358,706.115,0
2361,706.615,0
2364,707.115,0
2367,707.615,0
2370,708.115,0
2373,708.615,0
2376,709.115,0
2379,709.615,0
2382,710.115,0
2385,710.615,0
2388,711.115,0
2391,711.615,0
2394,712.115,0
2397,712.615,0
2400,713.115,0
2403,713.615,0
2406,714.115,0
2409,714.615,0
2412,715.115,0
2415,715.615,0
2418,716.115,0
2421,716.615,0
2424,717.115,0
2427,717.615,0
2430,718.115,0
2433,718.615,0
2436,719.115,0
2439,719.615,0
2442,720.115,0
2445,720.615,0
2448,721.115,0
2451,721.615,0
2454,722.115,0
2457,722.615,0
2460,723.115,0
2463,723.615,0
2466,724.115,0
2469,724.615,0
2472,725.115,0
2475,725.615,0
2478,726.115,0
2481,726.615,0
2484,727.115,0
2487,727.615,0
2490,728.115,0
2493,728.615,0
2496,729.115,0
2499,729.615,0
2502,730.115,0
2505,730.615,0
2508,731.115,0
2511,731.615,0
2514,732.115,0
2517,732.615,0
2520,733.115,0
2523,733.615,0
2526,734.115,0
2529,734.615,0
2532,735.115,0
2535,735.615,0
2538,736.115,0
2541,736.615,0
2544,737.115,0
2547,737.615,0
2550,738.115,0
2553,738.615,0
2556,739.115,0
2559,739.615,0
2562,740.115,0
2565,740.615,0
2568,741.115,0
2571,741.615,0
2574,742.115,0
2577,742.615,0
2580,743.115,0
2583,743.615,0
2586,744.115,0
2589,744.615,0
2592,745.115,0
2595,745.615,0
2598,746.115,0
2601,746.615,0
2604,747.115,0
2607,747.615,0
2610,748.115,0
2613,748.615,0
2616,749.115,0
2619,749.615,0
2622,750.115,0
2625,750.615,0
2628,751.115,0
2631,751.615,0
2634,752.115,0
2637,752.615,0
2640,753.115,0
2643,753.615,0
2646,754.115,0
2649,754.615,0
2652,755.115,0
2655,755.615,0
2658,756.115,0
2661,756.615,0
2664,757.115,0
2667,757.615,0
2670,758.115,0
2673,758.615,0
2676,759.115,0
2679,759.615,0
2682,760.115,0
2685,760.615,0
2688,761.115,0
2691,761.615,0
2694,762.115,0
2697,762.615,0
2700,763.115,0
2703,763.615,0
2706,764.115,0
2709,764.615,0
2712,765.115,0
2715,765.615,0
2718,766.115,0
2721,766.615,0
2724,767.115,0
2727,767.615,0
2730,768.115,0
2733,768.615,0
2736,769.115,0
2739,769.615,0
2742,770.115,0
2745,770.615,0
2748,771.115,0
2751,771.615,0
2754,772.115,0
2757,772.615,0
2760,773.115,0
2763,773.615,0