File: Wood/Calibration_Data/TUT/TUT_TGA_N2_10K_100kPa_R2.csv
Time (s),Temperature (K),Mass (mg)
0.0,299.199,4.996906
4.0,299.195,4.997063
8.0,299.193,4.997437
12.0,299.197,4.997906
16.0,299.209,4.998375
20.0,299.202,4.998562
24.0,299.194,4.998938
28.0,299.194,4.999031
32.0,299.194,4.999125
36.0,299.198,4.999312
40.0,299.199,4.999562
44.0,299.203,4.999906
48.0,299.207,4.999781
52.0,299.22,4.999813
56.0,299.231,4.999875
60.0,299.247,4.999875
64.0,299.28,4.999656
68.0,299.303,4.999625
72.0,299.337,4.999594
76.0,299.373,4.99975
80.0,299.408,4.999813
84.0,299.465,4.999781
88.0,299.517,4.999719
92.0,299.578,4.999688
96.0,299.656,4.999625
100.0,299.731,4.999531
104.0,299.819,4.999562
108.0,299.915,4.999437
112.0,300.02,4.999406
116.0,300.139,4.999375
120.0,300.263,4.999219
124.0,300.393,4.999156
128.0,300.541,4.999031
132.0,300.695,4.998938
136.0,300.863,4.998875
140.0,301.027,4.998813
144.0,301.213,4.998406
148.0,301.403,4.9985
152.0,301.605,4.998344
156.0,301.807,4.998312
160.0,302.03,4.998188
164.0,302.253,4.998188
168.0,302.509,4.998031
172.0,302.761,4.99775
176.0,303.016,4.997594
180.0,303.285,4.997375
184.0,303.553,4.997125
188.0,303.843,4.996969
192.0,304.137,4.996812
196.0,304.45,4.996531
200.0,304.762,4.996375
204.0,305.087,4.996031
208.0,305.416,4.995937
212.0,305.747,4.995781
216.0,306.088,4.995438
220.0,306.443,4.995094
224.0,306.804,4.99475
228.0,307.173,4.994344
232.0,307.562,4.994062
236.0,307.934,4.993594
240.0,308.331,4.993312
244.0,308.723,4.992719
248.0,309.115,4.992344
252.0,309.532,4.992094
256.0,309.953,4.991531
260.0,310.377,4.991063
264.0,310.801,4.990469
268.0,311.241,4.990125
272.0,311.681,4.989719
276.0,312.123,4.989188
280.0,312.569,4.988344
284.0,313.031,4.98775
288.0,313.487,4.987281
292.0,313.946,4.9865
296.0,314.423,4.985813
300.0,314.888,4.98525
304.0,315.367,4.984281
308.0,315.847,4.983594
312.0,316.324,4.982563
316.0,316.814,4.981875
320.0,317.308,4.981031
324.0,317.81,4.980156
328.0,318.306,4.979562
332.0,318.816,4.978437
336.0,319.327,4.977594
340.0,319.836,4.976406
344.0,320.352,4.975406
348.0,320.864,4.974594
352.0,321.384,4.973375
356.0,321.908,4.972188
360.0,322.43,4.971125
364.0,322.969,4.970094
368.0,323.499,4.968844
372.0,324.037,4.967688
376.0,324.569,4.966344
380.0,325.107,4.96525
384.0,325.655,4.964219
388.0,326.197,4.962719
392.0,326.74,4.961469
396.0,327.294,4.960156
400.0,327.836,4.958844
404.0,328.393,4.957562
408.0,328.933,4.956313
412.0,329.494,4.954875
416.0,330.042,4.953531
420.0,330.604,4.952125
424.0,331.167,4.950594
428.0,331.73,4.949375
432.0,332.292,4.947969
436.0,332.86,4.946469
440.0,333.435,4.944906
444.0,333.994,4.943719
448.0,334.569,4.942344
452.0,335.138,4.940781
456.0,335.711,4.939188
460.0,336.285,4.937969
464.0,336.859,4.936469
468.0,337.437,4.935031
472.0,338.029,4.933625
476.0,338.6,4.932125
480.0,339.181,4.930656
484.0,339.771,4.929219
488.0,340.357,4.928
492.0,340.942,4.926281
496.0,341.522,4.924812
500.0,342.109,4.923531
504.0,342.694,4.922219
508.0,343.275,4.920969
512.0,343.87,4.919781
516.0,344.462,4.918531
520.0,345.057,4.917375
524.0,345.647,4.916156
528.0,346.24,4.914906
532.0,346.834,4.913594
536.0,347.429,4.912531
540.0,348.03,4.911219
544.0,348.625,4.910094
548.0,349.219,4.909094
552.0,349.811,4.908125
556.0,350.415,4.907094
560.0,351.012,4.906156
564.0,351.61,4.90525
568.0,352.219,4.904188
572.0,352.825,4.903344
576.0,353.422,4.902406
580.0,354.018,4.901594
584.0,354.627,4.900688
588.0,355.236,4.899906
592.0,355.839,4.898938
596.0,356.449,4.898375
600.0,357.044,4.897563
604.0,357.656,4.896875
608.0,358.265,4.896281
612.0,358.86,4.895781
616.0,359.467,4.895094
620.0,360.077,4.894531
624.0,360.68,4.894281
628.0,361.282,4.893844
632.0,361.89,4.893094
636.0,362.503,4.892656
640.0,363.107,4.892281
644.0,363.724,4.891781
648.0,364.335,4.891281
652.0,364.936,4.890937
656.0,365.545,4.890563
660.0,366.146,4.890156
664.0,366.758,4.889844
668.0,367.371,4.889563
672.0,367.976,4.889219
676.0,368.578,4.888906
680.0,369.183,4.888594
684.0,369.791,4.888406
688.0,370.407,4.888062
692.0,371.003,4.887938
696.0,371.608,4.887625
700.0,372.219,4.887406
704.0,372.824,4.887063
708.0,373.441,4.886938
712.0,374.045,4.886938
716.0,374.65,4.886531
720.0,375.266,4.886406
724.0,375.873,4.886375
728.0,376.484,4.886188
732.0,377.091,4.886031
736.0,377.705,4.885781
740.0,378.302,4.885531
744.0,378.915,4.885344
748.0,379.52,4.88525
752.0,380.123,4.885094
756.0,380.733,4.884812
760.0,381.34,4.884875
764.0,381.945,4.884844
768.0,382.563,4.884656
772.0,383.172,4.884406
776.0,383.779,4.884438
780.0,384.381,4.884281
784.0,384.996,4.884188
788.0,385.597,4.883969
792.0,386.205,4.883719
796.0,386.81,4.883937
800.0,387.42,4.883875
804.0,388.03,4.883687
808.0,388.642,4.883563
812.0,389.254,4.883281
816.0,389.861,4.883344
820.0,390.48,4.883406
824.0,391.087,4.883062
828.0,391.701,4.882937
832.0,392.302,4.882906
836.0,392.906,4.88275
840.0,393.523,4.8825
844.0,394.14,4.882438
848.0,394.748,4.8825
852.0,395.341,4.882125
856.0,395.954,4.882187
860.0,396.568,4.881906
864.0,397.177,4.881906
868.0,397.789,4.88175
872.0,398.401,4.881531
876.0,399.011,4.881281
880.0,399.616,4.881312
884.0,400.233,4.881094
888.0,400.84,4.881031
892.0,401.449,4.880906
896.0,402.062,4.880969
900.0,402.674,4.880781
904.0,403.281,4.880688
908.0,403.886,4.880469
912.0,404.499,4.88025
916.0,405.114,4.880312
920.0,405.731,4.880125
924.0,406.336,4.879875
928.0,406.951,4.879938
932.0,407.569,4.879781
936.0,408.181,4.879562
940.0,408.803,4.879562
944.0,409.411,4.879281
948.0,410.029,4.879031
952.0,410.65,4.878844
956.0,411.264,4.878469
960.0,411.881,4.878156
964.0,412.498,4.878031
968.0,413.108,4.877875
972.0,413.726,4.877812
976.0,414.34,4.877469
980.0,414.953,4.877219
984.0,415.571,4.877125
988.0,416.188,4.876781
992.0,416.806,4.876344
996.0,417.428,4.876187
1000.0,418.038,4.876
1004.0,418.657,4.875656
1008.0,419.275,4.875563
1012.0,419.891,4.875312
1016.0,420.515,4.875
1020.0,421.13,4.874781
1024.0,421.74,4.874562
1028.0,422.358,4.874094
1032.0,422.975,4.873781
1036.0,423.592,4.8735
1040.0,424.212,4.873031
1044.0,424.833,4.872781
1048.0,425.454,4.872437
1052.0,426.078,4.872125
1056.0,426.694,4.871656
1060.0,427.313,4.871469
1064.0,427.938,4.871031
1068.0,428.556,4.870563
1072.0,429.179,4.870313
1076.0,429.801,4.869781
1080.0,430.422,4.869438
1084.0,431.046,4.869156
1088.0,431.66,4.868531
1092.0,432.285,4.868
1096.0,432.908,4.867656
1100.0,433.533,4.867125
1104.0,434.158,4.866531
1108.0,434.778,4.866063
1112.0,435.401,4.865562
1116.0,436.024,4.865
1120.0,436.647,4.864438
1124.0,437.267,4.863937
1128.0,437.886,4.863406
1132.0,438.499,4.86275
1136.0,439.131,4.862219
1140.0,439.759,4.8615
1144.0,440.374,4.860875
1148.0,440.998,4.860188
1152.0,441.62,4.859437
1156.0,442.246,4.858812
1160.0,442.87,4.858188
1164.0,443.499,4.857563
1168.0,444.122,4.856812
1172.0,444.749,4.856
1176.0,445.375,4.855
1180.0,445.999,4.854312
1184.0,446.626,4.853781
1188.0,447.245,4.852938
1192.0,447.878,4.851937
1196.0,448.505,4.85125
1200.0,449.13,4.850469
1204.0,449.751,4.849469
1208.0,450.379,4.848531
1212.0,451.002,4.847406
1216.0,451.637,4.846562
1220.0,452.266,4.845562
1224.0,452.895,4.8445
1228.0,453.517,4.843469
1232.0,454.14,4.842375
1236.0,454.766,4.841531
1240.0,455.389,4.840344
1244.0,456.018,4.839125
1248.0,456.647,4.837906
1252.0,457.277,4.836906
1256.0,457.909,4.835688
1260.0,458.528,4.834656
1264.0,459.157,4.833344
1268.0,459.785,4.832031
1272.0,460.413,4.830594
1276.0,461.042,4.82925
1280.0,461.674,4.82775
1284.0,462.306,4.8265
1288.0,462.931,4.825188
1292.0,463.563,4.823719
1296.0,464.192,4.822437
1300.0,464.818,4.820938
1304.0,465.449,4.819375
1308.0,466.077,4.817875
1312.0,466.713,4.816344
1316.0,467.338,4.814906
1320.0,467.965,4.813094
1324.0,468.595,4.811531
1328.0,469.225,4.809906
1332.0,469.856,4.808469
1336.0,470.489,4.806906
1340.0,471.119,4.805094
1344.0,471.745,4.8035
1348.0,472.378,4.801688
1352.0,473.011,4.800125
1356.0,473.635,4.798344
1360.0,474.273,4.796375
1364.0,474.898,4.794844
1368.0,475.533,4.793188
1372.0,476.165,4.791406
1376.0,476.794,4.789656
1380.0,477.419,4.78775
1384.0,478.057,4.785781
1388.0,478.697,4.78375
1392.0,479.329,4.781969
1396.0,479.957,4.780031
1400.0,480.594,4.778125
1404.0,481.22,4.77625
1408.0,481.851,4.774281
1412.0,482.489,4.772531
1416.0,483.123,4.770656
1420.0,483.754,4.768625
1424.0,484.389,4.766594
1428.0,485.026,4.764656
1432.0,485.66,4.762562
1436.0,486.294,4.760719
1440.0,486.92,4.758594
1444.0,487.554,4.756469
1448.0,488.194,4.754562
1452.0,488.831,4.752406
1456.0,489.46,4.75025
1460.0,490.099,4.748219
1464.0,490.738,4.745906
1468.0,491.377,4.743563
1472.0,492.011,4.741281
1476.0,492.641,4.739188
1480.0,493.276,4.736875
1484.0,493.903,4.734406
1488.0,494.54,4.732125
1492.0,495.175,4.730031
1496.0,495.818,4.7275
1500.0,496.457,4.725219
1504.0,497.093,4.722813
1508.0,497.725,4.720156
1512.0,498.363,4.71775
1516.0,499,4.715031
1520.0,499.638,4.712438
1524.0,500.272,4.709625
1528.0,500.908,4.707094
1532.0,501.538,4.704156
1536.0,502.168,4.701375
1540.0,502.808,4.698563
1544.0,503.45,4.695656
1548.0,504.085,4.692719
1552.0,504.724,4.689906
1556.0,505.352,4.687062
1560.0,505.99,4.684125
1564.0,506.624,4.680719
1568.0,507.261,4.677281
1572.0,507.896,4.674094
1576.0,508.533,4.670781
1580.0,509.168,4.667281
1584.0,509.803,4.663813
1588.0,510.446,4.660062
1592.0,511.082,4.656531
1596.0,511.725,4.652781
1600.0,512.364,4.649219
1604.0,513.003,4.645531
1608.0,513.648,4.641562
1612.0,514.275,4.637875
1616.0,514.911,4.633687
1620.0,515.544,4.629594
1624.0,516.186,4.625469
1628.0,516.826,4.621031
1632.0,517.46,4.616813
1636.0,518.099,4.612344
1640.0,518.734,4.607875
1644.0,519.38,4.603312
1648.0,520.02,4.598844
1652.0,520.658,4.594125
1656.0,521.302,4.589406
1660.0,521.936,4.584625
1664.0,522.569,4.579625
1668.0,523.21,4.574625
1672.0,523.847,4.569625
1676.0,524.483,4.564406
1680.0,525.127,4.559187
1684.0,525.757,4.554125
1688.0,526.4,4.548906
1692.0,527.038,4.5435
1696.0,527.676,4.538031
1700.0,528.319,4.532469
1704.0,528.961,4.527062
1708.0,529.599,4.521469
1712.0,530.239,4.515812
1716.0,530.885,4.510063
1720.0,531.524,4.504
1724.0,532.157,4.497969
1728.0,532.796,4.492
1732.0,533.436,4.486031
1736.0,534.078,4.47975
1740.0,534.714,4.473344
1744.0,535.356,4.467156
1748.0,535.987,4.461031
1752.0,536.634,4.454625
1756.0,537.277,4.447937
1760.0,537.913,4.441312
1764.0,538.552,4.434563
1768.0,539.195,4.427781
1772.0,539.831,4.420938
1776.0,540.463,4.413969
1780.0,541.106,4.406781
1784.0,541.751,4.3995
1788.0,542.385,4.392313
1792.0,543.036,4.385156
1796.0,543.672,4.3775
1800.0,544.306,4.369937
1804.0,544.944,4.362281
1808.0,545.594,4.354688
1812.0,546.236,4.346875
1816.0,546.879,4.338906
1820.0,547.511,4.330875
1824.0,548.159,4.322719
1828.0,548.791,4.314781
1832.0,549.435,4.306562
1836.0,550.072,4.298062
1840.0,550.712,4.289906
1844.0,551.352,4.281312
1848.0,551.992,4.272656
1852.0,552.628,4.264187
1856.0,553.271,4.2555
1860.0,553.917,4.246562
1864.0,554.56,4.237594
1868.0,555.201,4.2285
1872.0,555.836,4.219656
1876.0,556.473,4.2105
1880.0,557.119,4.201125
1884.0,557.757,4.191781
1888.0,558.403,4.182375
1892.0,559.043,4.17275
1896.0,559.682,4.163094
1900.0,560.326,4.153625
1904.0,560.966,4.143719
1908.0,561.613,4.133812
1912.0,562.252,4.123875
1916.0,562.899,4.113844
1920.0,563.533,4.103594
1924.0,564.177,4.09325
1928.0,564.819,4.083
1932.0,565.458,4.072625
1936.0,566.101,4.061781
1940.0,566.743,4.051219
1944.0,567.388,4.040469
1948.0,568.025,4.029562
1952.0,568.663,4.0185
1956.0,569.308,4.007312
1960.0,569.959,3.995969
1964.0,570.591,3.984531
1968.0,571.243,3.97325
1972.0,571.884,3.961688
1976.0,572.526,3.949875
1980.0,573.171,3.937813
1984.0,573.809,3.925781
1988.0,574.452,3.913531
1992.0,575.09,3.901219
1996.0,575.737,3.888813
2000.0,576.386,3.876312
2004.0,577.025,3.863594
2008.0,577.659,3.850625
2012.0,578.303,3.837531
2016.0,578.94,3.824188
2020.0,579.589,3.81075
2024.0,580.232,3.797281
2028.0,580.873,3.783688
2032.0,581.519,3.769906
2036.0,582.157,3.755906
2040.0,582.796,3.741844
2044.0,583.438,3.727344
2048.0,584.082,3.712875
2052.0,584.724,3.698156
2056.0,585.362,3.683375
2060.0,586,3.668344
2064.0,586.639,3.653125
2068.0,587.288,3.63775
2072.0,587.928,3.622125
2076.0,588.568,3.606375
2080.0,589.205,3.5905
2084.0,589.852,3.574312
2088.0,590.489,3.55825
2092.0,591.142,3.541687
2096.0,591.777,3.525156
2100.0,592.414,3.50825
2104.0,593.055,3.491313
2108.0,593.698,3.474313
2112.0,594.341,3.456938
2116.0,594.98,3.43925
2120.0,595.621,3.421594
2124.0,596.265,3.403469
2128.0,596.905,3.385844
2132.0,597.545,3.367781
2136.0,598.19,3.349437
2140.0,598.833,3.331031
2144.0,599.477,3.312406
2148.0,600.116,3.293562
2152.0,600.759,3.274656
2156.0,601.403,3.255594
2160.0,602.041,3.236406
2164.0,602.678,3.217062
2168.0,603.322,3.197562
2172.0,603.964,3.177906
2176.0,604.606,3.158219
2180.0,605.239,3.138469
2184.0,605.887,3.118156
2188.0,606.526,3.098063
2192.0,607.171,3.077844
2196.0,607.814,3.057469
2200.0,608.453,3.03675
2204.0,609.099,3.015938
2208.0,609.741,2.99525
2212.0,610.383,2.974
2216.0,611.026,2.952844
2220.0,611.665,2.931344
2224.0,612.31,2.909812
2228.0,612.949,2.888062
2232.0,613.592,2.86625
2236.0,614.237,2.844594
2240.0,614.88,2.822531
2244.0,615.525,2.80025
2248.0,616.163,2.777781
2252.0,616.804,2.755156
2256.0,617.448,2.732063
2260.0,618.085,2.709031
2264.0,618.734,2.685844
2268.0,619.376,2.662125
2272.0,620.018,2.638562
2276.0,620.661,2.614687
2280.0,621.303,2.590281
2284.0,621.948,2.565813
2288.0,622.583,2.541
2292.0,623.223,2.515969
2296.0,623.869,2.490562
2300.0,624.513,2.465031
2304.0,625.151,2.439063
2308.0,625.794,2.412625
2312.0,626.435,2.385844
2316.0,627.077,2.358781
2320.0,627.721,2.331281
2324.0,628.353,2.303562
2328.0,628.993,2.275406
2332.0,629.637,2.247031
2336.0,630.278,2.218281
2340.0,630.922,2.188969
2344.0,631.558,2.159344
2348.0,632.205,2.129437
2352.0,632.844,2.099281
2356.0,633.484,2.06875
2360.0,634.131,2.037906
2364.0,634.774,2.006594
2368.0,635.416,1.975188
2372.0,636.06,1.943469
2376.0,636.707,1.911594
2380.0,637.355,1.8795
2384.0,637.995,1.847344
2388.0,638.646,1.81525
2392.0,639.288,1.782906
2396.0,639.936,1.751
2400.0,640.592,1.719187
2404.0,641.241,1.687719
2408.0,641.892,1.656594
2412.0,642.542,1.625625
2416.0,643.194,1.595625
2420.0,643.846,1.566188
2424.0,644.5,1.537781
2428.0,645.164,1.509938
2432.0,645.821,1.483344
2436.0,646.484,1.458125
2440.0,647.136,1.434094
2444.0,647.799,1.411375
2448.0,648.467,1.390125
2452.0,649.133,1.370625
2456.0,649.807,1.352312
2460.0,650.478,1.335562
2464.0,651.142,1.320656
2468.0,651.814,1.307031
2472.0,652.484,1.295125
2476.0,653.155,1.284562
2480.0,653.823,1.275281
2484.0,654.496,1.267344
2488.0,655.161,1.260156
2492.0,655.824,1.254031
2496.0,656.491,1.24875
2500.0,657.154,1.244
2504.0,657.816,1.239781
2508.0,658.478,1.235719
2512.0,659.133,1.232219
2516.0,659.784,1.229187
2520.0,660.441,1.226281
2524.0,661.103,1.223375
2528.0,661.767,1.220625
2532.0,662.428,1.217875
2536.0,663.094,1.215469
2540.0,663.754,1.213
2544.0,664.405,1.2105
2548.0,665.056,1.208187
2552.0,665.713,1.205719
2556.0,666.361,1.203406
2560.0,667.009,1.201156
2564.0,667.649,1.199188
2568.0,668.29,1.197062
2572.0,668.928,1.19475
2576.0,669.575,1.192594
2580.0,670.218,1.190625
2584.0,670.866,1.188375
2588.0,671.508,1.186375
2592.0,672.147,1.184344
2596.0,672.791,1.182281
2600.0,673.432,1.180281
2604.0,674.071,1.178281
2608.0,674.702,1.176406
2612.0,675.342,1.174188
2616.0,675.982,1.17225
2620.0,676.624,1.170344
2624.0,677.261,1.168281
2628.0,677.9,1.166156
2632.0,678.539,1.164156
2636.0,679.174,1.162219
2640.0,679.801,1.160344
2644.0,680.434,1.158719
2648.0,681.068,1.15675
2652.0,681.7,1.154688
2656.0,682.333,1.152812
2660.0,682.961,1.150781
2664.0,683.588,1.148969
2668.0,684.221,1.147156
2672.0,684.852,1.145187
2676.0,685.477,1.143188
2680.0,686.113,1.141375
2684.0,686.741,1.139313
2688.0,687.369,1.137313
2692.0,687.998,1.135469
2696.0,688.63,1.133656
2700.0,689.258,1.131688
2704.0,689.887,1.129812
2708.0,690.513,1.127813
2712.0,691.143,1.125969
2716.0,691.767,1.124094
2720.0,692.395,1.122156
2724.0,693.024,1.12025
2728.0,693.661,1.118062
2732.0,694.285,1.116125
2736.0,694.901,1.11425
2740.0,695.532,1.112344
2744.0,696.154,1.110438
2748.0,696.785,1.108531
2752.0,697.412,1.106594
2756.0,698.036,1.104656
2760.0,698.659,1.102656
2764.0,699.293,1.100688
2768.0,699.918,1.098812
2772.0,700.546,1.096812
2776.0,701.168,1.095
2780.0,701.79,1.093031
2784.0,702.414,1.091094
2788.0,703.042,1.089313
2792.0,703.664,1.087188
2796.0,704.287,1.085406
2800.0,704.915,1.083375
2804.0,705.539,1.081469
2808.0,706.161,1.079719
2812.0,706.785,1.077656
2816.0,707.405,1.075906
2820.0,708.038,1.073875
2824.0,708.659,1.071813
2828.0,709.285,1.069906
2832.0,709.912,1.068
2836.0,710.532,1.066344
2840.0,711.159,1.064375
2844.0,711.782,1.062562
2848.0,712.401,1.060656
2852.0,713.029,1.058687
2856.0,713.657,1.056437
2860.0,714.284,1.054625
2864.0,714.91,1.053
2868.0,715.538,1.051031
2872.0,716.159,1.049219
2876.0,716.784,1.04725
2880.0,717.405,1.045344
2884.0,718.033,1.043375
2888.0,718.656,1.041469
2892.0,719.28,1.039562
2896.0,719.903,1.03775
2900.0,720.523,1.035938
2904.0,721.151,1.033969
2908.0,721.774,1.032094
2912.0,722.398,1.030219
2916.0,723.021,1.028375
2920.0,723.644,1.026312
2924.0,724.272,1.024469
2928.0,724.894,1.022781
2932.0,725.519,1.020813
2936.0,726.138,1.019063
2940.0,726.766,1.01725
2944.0,727.392,1.015406
2948.0,728.025,1.013438
2952.0,728.645,1.011531
2956.0,729.278,1.009719
2960.0,729.891,1.007437
2964.0,730.516,1.005625
2968.0,731.14,1.003937
2972.0,731.768,1.002
2976.0,732.39,1.000219
2980.0,733.019,0.998344
2984.0,733.642,0.996469
2988.0,734.262,0.994594
2992.0,734.882,0.992531
2996.0,735.503,0.990656
3000.0,736.128,0.988625
3004.0,736.749,0.986781
3008.0,737.377,0.984781
3012.0,738.001,0.982719
3016.0,738.629,0.980812
3020.0,739.249,0.978969
3024.0,739.875,0.977094
3028.0,740.501,0.975187
3032.0,741.125,0.973281
3036.0,741.752,0.971313
3040.0,742.378,0.969562
3044.0,743.003,0.967531
3048.0,743.622,0.965437
3052.0,744.239,0.9635
3056.0,744.867,0.961844
3060.0,745.487,0.960031
3064.0,746.105,0.958125
3068.0,746.73,0.956
3072.0,747.349,0.954094
3076.0,747.973,0.952375
3080.0,748.598,0.950344
3084.0,749.225,0.948469
3088.0,749.842,0.946437
3092.0,750.466,0.944719
3096.0,751.092,0.942563
3100.0,751.708,0.940625
3104.0,752.333,0.938812
3108.0,752.953,0.936656
3112.0,753.576,0.934875
3116.0,754.197,0.933094
3120.0,754.819,0.931156
3124.0,755.435,0.929125
3128.0,756.062,0.927
3132.0,756.686,0.92525
3136.0,757.305,0.923281
3140.0,757.923,0.9215
3144.0,758.547,0.919312
3148.0,759.169,0.917437
3152.0,759.785,0.9155
3156.0,760.406,0.913437
3160.0,761.027,0.911563
3164.0,761.649,0.909563
3168.0,762.265,0.9075
3172.0,762.875,0.905469
3176.0,763.5,0.903406
3180.0,764.117,0.901438
3184.0,764.74,0.899344
3188.0,765.357,0.897563
3192.0,765.977,0.895406
3196.0,766.593,0.893406
3200.0,767.215,0.891406
3204.0,767.833,0.889406
3208.0,768.451,0.887281
3212.0,769.07,0.88525
3216.0,769.694,0.88325
3220.0,770.313,0.881312
3224.0,770.934,0.879281
3228.0,771.558,0.877062
3232.0,772.17,0.875063
3236.0,772.788,0.873094
3240.0,773.408,0.871031
3244.0,774.035,0.868937
3248.0,774.652,0.866813
3252.0,775.274,0.864625
3256.0,775.887,0.862375
3260.0,776.509,0.860406
3264.0,777.123,0.858469
3268.0,777.744,0.856375
3272.0,778.364,0.854281
3276.0,778.978,0.852375
3280.0,779.589,0.850219
3284.0,780.208,0.848188
3288.0,780.828,0.845937
3292.0,781.437,0.843813
3296.0,782.061,0.841656
3300.0,782.677,0.839406
3304.0,783.292,0.837313
3308.0,783.909,0.8355
3312.0,784.524,0.83325
3316.0,785.144,0.831219
3320.0,785.757,0.829031
3324.0,786.373,0.826844
3328.0,786.992,0.824875
3332.0,787.607,0.822688
3336.0,788.225,0.820594
3340.0,788.85,0.818469
3344.0,789.465,0.816125
3348.0,790.081,0.814031
3352.0,790.693,0.811938
3356.0,791.308,0.809844
3360.0,791.927,0.807656
3364.0,792.542,0.805469
3368.0,793.158,0.803312
3372.0,793.773,0.80125
3376.0,794.381,0.798969
3380.0,795.002,0.796844
3384.0,795.619,0.794656
3388.0,796.233,0.792531
3392.0,796.847,0.79025
3396.0,797.464,0.788188
3400.0,798.076,0.785906
3404.0,798.69,0.783656
3408.0,799.305,0.781812
3412.0,799.925,0.779656
3416.0,800.538,0.777313
3420.0,801.153,0.775281
3424.0,801.77,0.773
3428.0,802.377,0.770688
3432.0,802.993,0.768469
3436.0,803.602,0.766219
3440.0,804.214,0.764094
3444.0,804.831,0.761937
3448.0,805.442,0.759656
3452.0,806.055,0.757438
3456.0,806.668,0.755156
3460.0,807.282,0.753031
3464.0,807.895,0.75075
3468.0,808.506,0.748469
3472.0,809.122,0.746156
3476.0,809.734,0.743969
3480.0,810.347,0.741625
3484.0,810.959,0.7395
3488.0,811.57,0.737437
3492.0,812.181,0.735062
3496.0,812.795,0.732625
3500.0,813.414,0.730406
3504.0,814.025,0.728219
3508.0,814.636,0.725969
3512.0,815.246,0.72375
3516.0,815.856,0.7215
3520.0,816.469,0.719344
3524.0,817.081,0.717125
3528.0,817.698,0.714844
3532.0,818.308,0.712563
3536.0,818.92,0.710281
3540.0,819.535,0.708031
3544.0,820.145,0.705625
3548.0,820.758,0.703438
3552.0,821.373,0.701281
3556.0,821.99,0.699031
3560.0,822.606,0.696844
3564.0,823.211,0.6945
3568.0,823.822,0.692125
3572.0,824.433,0.690156
3576.0,825.047,0.68775
3580.0,825.665,0.685406
3584.0,826.277,0.683031
3588.0,826.887,0.680812
3592.0,827.502,0.678625
3596.0,828.117,0.676281
3600.0,828.731,0.673937
3604.0,829.346,0.671656
3608.0,829.957,0.669375
3612.0,830.562,0.667125
3616.0,831.178,0.66475
3620.0,831.787,0.662562
3624.0,832.404,0.660312
3628.0,833.018,0.657906
3632.0,833.627,0.655688
3636.0,834.238,0.6535
3640.0,834.851,0.651125
3644.0,835.466,0.648938
3648.0,836.072,0.646719
3652.0,836.68,0.644406
3656.0,837.296,0.642156
3660.0,837.904,0.63975
3664.0,838.519,0.637531
3668.0,839.124,0.635094
3672.0,839.731,0.632656
3676.0,840.343,0.630406
3680.0,840.951,0.628125
3684.0,841.557,0.625906
3688.0,842.164,0.623563
3692.0,842.775,0.621406
3696.0,843.385,0.619187
3700.0,843.995,0.616813
3704.0,844.601,0.6145
3708.0,845.209,0.612
3712.0,845.817,0.609812
3716.0,846.423,0.607469
3720.0,847.029,0.605094
3724.0,847.639,0.602687
3728.0,848.247,0.600406
3732.0,848.853,0.598219
3736.0,849.461,0.595875
3740.0,850.071,0.593562
3744.0,850.681,0.5915
3748.0,851.295,0.589063
3752.0,851.897,0.586656
3756.0,852.506,0.584281
3760.0,853.119,0.581906
3764.0,853.725,0.579719
3768.0,854.331,0.577594
3772.0,854.934,0.575562
3776.0,855.547,0.573219
3780.0,856.154,0.570813
3784.0,856.761,0.568438
3788.0,857.369,0.565906
3792.0,857.978,0.563812
3796.0,858.58,0.561562
3800.0,859.193,0.559125
3804.0,859.804,0.556906
3808.0,860.412,0.554781
3812.0,861.019,0.552281
3816.0,861.63,0.550031
3820.0,862.236,0.547469
3824.0,862.835,0.545531
3828.0,863.443,0.543187
3832.0,864.05,0.540719
3836.0,864.657,0.538469
3840.0,865.261,0.536125
3844.0,865.869,0.533813
3848.0,866.477,0.531563
3852.0,867.091,0.529531
3856.0,867.695,0.526969
3860.0,868.303,0.524437
3864.0,868.913,0.52225
3868.0,869.516,0.52
3872.0,870.122,0.517844
3876.0,870.727,0.515719
3880.0,871.336,0.5135
3884.0,871.94,0.511344
3888.0,872.547,0.508781
3892.0,873.159,0.506469
3896.0,873.763,0.50425
3900.0,874.367,0.502
3904.0,874.975,0.499781
3908.0,875.584,0.497438
3912.0,876.187,0.495219
3916.0,876.799,0.493156
3920.0,877.398,0.490719
3924.0,878.001,0.488469
3928.0,878.607,0.486406
3932.0,879.217,0.484188
3936.0,879.824,0.481969
3940.0,880.426,0.479469
3944.0,881.031,0.477188
3948.0,881.639,0.474969
3952.0,882.247,0.472594
3956.0,882.853,0.470562
3960.0,883.457,0.468406
3964.0,884.067,0.466188
3968.0,884.677,0.463656
3972.0,885.282,0.4615
3976.0,885.884,0.45925
3980.0,886.488,0.456906
3984.0,887.099,0.454875
3988.0,887.706,0.452844
3992.0,888.307,0.450687
3996.0,888.908,0.448406
4000.0,889.514,0.446031
4004.0,890.111,0.443906
4008.0,890.723,0.441812
4012.0,891.33,0.439562
4016.0,891.935,0.437125
4020.0,892.54,0.434875
4024.0,893.144,0.432906
4028.0,893.755,0.430844
4032.0,894.362,0.428594
4036.0,894.967,0.426562
4040.0,895.573,0.424281
4044.0,896.175,0.421937
4048.0,896.779,0.419719
4052.0,897.39,0.417781
4056.0,897.994,0.415625
4060.0,898.601,0.413375
4064.0,899.206,0.411219
4068.0,899.811,0.409281
4072.0,900.427,0.407219
4076.0,901.036,0.405031
4080.0,901.641,0.402844
4084.0,902.252,0.400844
4088.0,902.857,0.398625
4092.0,903.458,0.396719
4096.0,904.062,0.394625
4100.0,904.669,0.392563
4104.0,905.275,0.3905
4108.0,905.889,0.38825
4112.0,906.493,0.38625
4116.0,907.099,0.384094
4120.0,907.711,0.381781
4124.0,908.318,0.379781
4128.0,908.925,0.377844
4132.0,909.532,0.375625
4136.0,910.139,0.373531
4140.0,910.752,0.371656
4144.0,911.356,0.369625
4148.0,911.967,0.367563
4152.0,912.575,0.365594
4156.0,913.183,0.363375
4160.0,913.787,0.361156
4164.0,914.399,0.359281
4168.0,915.008,0.357344
4172.0,915.612,0.355219
4176.0,916.214,0.353094
4180.0,916.82,0.351
4184.0,917.418,0.349219
4188.0,918.025,0.347219
4192.0,918.627,0.344969
4196.0,919.225,0.343125
4200.0,919.829,0.341219
4204.0,920.43,0.339375
4208.0,921.039,0.337469
4212.0,921.635,0.335125
4216.0,922.24,0.3335
4220.0,922.855,0.331625
4224.0,923.456,0.329625
4228.0,924.059,0.327437
4232.0,924.657,0.32575
4236.0,925.263,0.323781
4240.0,925.866,0.321781
4244.0,926.474,0.319813
4248.0,927.077,0.318
4252.0,927.682,0.316125
4256.0,928.288,0.314156
4260.0,928.893,0.312219
4264.0,929.495,0.310344
4268.0,930.1,0.308375
4272.0,930.709,0.306656
4276.0,931.316,0.304625
4280.0,931.922,0.302719
4284.0,932.53,0.301094
4288.0,933.132,0.299156
4292.0,933.733,0.297375
4296.0,934.337,0.295594
4300.0,934.942,0.293406
4304.0,935.549,0.291469
4308.0,936.155,0.289625
4312.0,936.761,0.287875
4316.0,937.363,0.285781
4320.0,937.968,0.284063
4324.0,938.573,0.282313
4328.0,939.18,0.280344
4332.0,939.782,0.2785
4336.0,940.385,0.276656
4340.0,940.987,0.274969
4344.0,941.594,0.273031
4348.0,942.2,0.270844
4352.0,942.8,0.269062
4356.0,943.403,0.2675
4360.0,944.011,0.265656
4364.0,944.614,0.263687
4368.0,945.212,0.262094
4372.0,945.822,0.260281
4376.0,946.422,0.258594
4380.0,947.026,0.25675
4384.0,947.628,0.254937
4388.0,948.235,0.253094
4392.0,948.844,0.25125
4396.0,949.445,0.249406
4400.0,950.054,0.247688
4404.0,950.663,0.245875
4408.0,951.266,0.244031
4412.0,951.874,0.242031
4416.0,952.475,0.240094
4420.0,953.075,0.238375
4424.0,953.682,0.236719
4428.0,954.288,0.234844
4432.0,954.892,0.233281
4436.0,955.49,0.2315
4440.0,956.096,0.229625
4444.0,956.695,0.22775
4448.0,957.304,0.226125
4452.0,957.91,0.224531
4456.0,958.516,0.22275
4460.0,959.12,0.220781
4464.0,959.727,0.219094
4468.0,960.334,0.217594
4472.0,960.943,0.215813
4476.0,961.546,0.214312
4480.0,962.155,0.212469
4484.0,962.767,0.210594
4488.0,963.371,0.209094
4492.0,963.976,0.207625
4496.0,964.586,0.205812
4500.0,965.188,0.204094
4504.0,965.798,0.202312
4508.0,966.405,0.200531
4512.0,966.999,0.198844
4516.0,967.6,0.197187
4520.0,968.203,0.195531
4524.0,968.804,0.194094
4528.0,969.409,0.192406
4532.0,970.021,0.190781
4536.0,970.627,0.189156
4540.0,971.23,0.187344
4544.0,971.831,0.185937
4548.0,972.437,0.184219
4552.0,973.035,0.182656
4556.0,973.647,0.181187
4560.0,974.253,0.179719
4564.0,974.858,0.178
4568.0,975.464,0.176281
4572.0,976.065,0.174781
4576.0,976.673,0.173187
4580.0,977.277,0.171531
4584.0,977.882,0.169687
4588.0,978.49,0.168313
4592.0,979.097,0.166594
4596.0,979.706,0.165156
4600.0,980.314,0.163469
4604.0,980.918,0.161844
4608.0,981.527,0.160125
4612.0,982.13,0.158625
4616.0,982.739,0.157031
4620.0,983.344,0.1555
4624.0,983.953,0.153906
4628.0,984.549,0.152531
4632.0,985.157,0.151031
4636.0,985.763,0.149438
4640.0,986.367,0.147781
4644.0,986.967,0.146469
4648.0,987.571,0.144844
4652.0,988.176,0.143219
4656.0,988.78,0.14175
4660.0,989.384,0.140188
4664.0,989.99,0.1385
4668.0,990.598,0.137031
4672.0,991.197,0.135625
4676.0,991.799,0.133844
4680.0,992.405,0.132469
4684.0,993.012,0.130969
4688.0,993.61,0.1295
4692.0,994.211,0.128312
4696.0,994.816,0.126594
4700.0,995.413,0.12525
4704.0,996.015,0.123594
4708.0,996.619,0.122094
4712.0,997.227,0.120812
4716.0,997.829,0.119062
4720.0,998.429,0.1175
4724.0,999.034,0.116281
4728.0,999.631,0.114719
4731.0,999.994,0.113906