File: Wood/Calibration_Data/TUT/TUT_TGA_N2_10K_100kPa_R3.csv
Time (s),Temperature (K),Mass (mg)
0.0,299.302,4.979625
4.0,299.296,4.979656
8.0,299.301,4.979906
12.0,299.302,4.979938
16.0,299.3,4.980469
20.0,299.308,4.980656
24.0,299.309,4.980969
28.0,299.308,4.981219
32.0,299.301,4.981469
36.0,299.308,4.981812
40.0,299.309,4.981812
44.0,299.312,4.981844
48.0,299.32,4.981812
52.0,299.33,4.981937
56.0,299.339,4.981937
60.0,299.36,4.981969
64.0,299.39,4.981781
68.0,299.412,4.981844
72.0,299.437,4.981719
76.0,299.472,4.981875
80.0,299.513,4.981781
84.0,299.555,4.981563
88.0,299.62,4.981594
92.0,299.677,4.981563
96.0,299.743,4.981625
100.0,299.819,4.981406
104.0,299.911,4.981469
108.0,300.006,4.981438
112.0,300.104,4.98125
116.0,300.231,4.981219
120.0,300.359,4.981156
124.0,300.487,4.981187
128.0,300.618,4.981094
132.0,300.763,4.980937
136.0,300.936,4.980844
140.0,301.111,4.980656
144.0,301.29,4.980625
148.0,301.483,4.980531
152.0,301.673,4.980281
156.0,301.9,4.979938
160.0,302.118,4.980062
164.0,302.34,4.980062
168.0,302.571,4.979688
172.0,302.814,4.979437
176.0,303.071,4.979344
180.0,303.34,4.979031
184.0,303.61,4.978906
188.0,303.898,4.978437
192.0,304.189,4.978281
196.0,304.496,4.977906
200.0,304.815,4.977531
204.0,305.136,4.977219
208.0,305.459,4.976812
212.0,305.795,4.976375
216.0,306.134,4.975844
220.0,306.485,4.9755
224.0,306.851,4.975
228.0,307.215,4.974625
232.0,307.589,4.974031
236.0,307.969,4.973469
240.0,308.352,4.972875
244.0,308.743,4.972281
248.0,309.129,4.971875
252.0,309.531,4.971375
256.0,309.944,4.970687
260.0,310.363,4.97
264.0,310.791,4.969344
268.0,311.219,4.968563
272.0,311.669,4.967563
276.0,312.101,4.966781
280.0,312.549,4.965875
284.0,313,4.965094
288.0,313.448,4.964188
292.0,313.916,4.96325
296.0,314.386,4.962187
300.0,314.859,4.961187
304.0,315.334,4.960281
308.0,315.808,4.959188
312.0,316.293,4.958188
316.0,316.781,4.957156
320.0,317.272,4.955937
324.0,317.764,4.95475
328.0,318.259,4.9535
332.0,318.764,4.952312
336.0,319.268,4.950812
340.0,319.77,4.949469
344.0,320.288,4.948281
348.0,320.812,4.946906
352.0,321.332,4.945406
356.0,321.852,4.943906
360.0,322.375,4.942563
364.0,322.905,4.941156
368.0,323.428,4.939719
372.0,323.96,4.938344
376.0,324.497,4.936687
380.0,325.034,4.935062
384.0,325.578,4.933406
388.0,326.126,4.931656
392.0,326.681,4.929937
396.0,327.218,4.928031
400.0,327.768,4.926625
404.0,328.319,4.925
408.0,328.867,4.923375
412.0,329.424,4.921781
416.0,329.979,4.919906
420.0,330.542,4.918031
424.0,331.101,4.916313
428.0,331.667,4.914563
432.0,332.235,4.912813
436.0,332.798,4.910969
440.0,333.369,4.909094
444.0,333.941,4.907312
448.0,334.507,4.905469
452.0,335.082,4.903719
456.0,335.657,4.902031
460.0,336.231,4.900156
464.0,336.803,4.898375
468.0,337.387,4.896438
472.0,337.969,4.894875
476.0,338.545,4.893063
480.0,339.136,4.891531
484.0,339.711,4.889781
488.0,340.293,4.888375
492.0,340.876,4.88675
496.0,341.472,4.885375
500.0,342.059,4.883656
504.0,342.648,4.881938
508.0,343.235,4.880469
512.0,343.829,4.878812
516.0,344.421,4.877344
520.0,345.009,4.875844
524.0,345.611,4.874281
528.0,346.205,4.873063
532.0,346.803,4.871562
536.0,347.404,4.870219
540.0,347.999,4.868875
544.0,348.586,4.867531
548.0,349.191,4.866156
552.0,349.797,4.864906
556.0,350.386,4.863563
560.0,350.991,4.86225
564.0,351.599,4.861156
568.0,352.201,4.86025
572.0,352.801,4.858937
576.0,353.4,4.857969
580.0,354.007,4.856906
584.0,354.614,4.855906
588.0,355.219,4.855094
592.0,355.821,4.854031
596.0,356.428,4.853312
600.0,357.035,4.852281
604.0,357.65,4.851438
608.0,358.254,4.850563
612.0,358.86,4.84975
616.0,359.455,4.84925
620.0,360.074,4.8485
624.0,360.672,4.847656
628.0,361.277,4.847156
632.0,361.896,4.846375
636.0,362.496,4.845906
640.0,363.11,4.845281
644.0,363.719,4.844656
648.0,364.32,4.844156
652.0,364.939,4.843563
656.0,365.543,4.843094
660.0,366.157,4.842781
664.0,366.761,4.842187
668.0,367.357,4.841813
672.0,367.964,4.841469
676.0,368.579,4.841125
680.0,369.188,4.8405
684.0,369.798,4.840219
688.0,370.402,4.84
692.0,371.013,4.8395
696.0,371.624,4.839188
700.0,372.232,4.838687
704.0,372.831,4.838375
708.0,373.448,4.838375
712.0,374.063,4.838062
716.0,374.669,4.837844
720.0,375.275,4.837375
724.0,375.883,4.837156
728.0,376.488,4.836844
732.0,377.102,4.836812
736.0,377.703,4.836594
740.0,378.306,4.836406
744.0,378.922,4.836219
748.0,379.534,4.83625
752.0,380.138,4.835875
756.0,380.746,4.835594
760.0,381.36,4.835469
764.0,381.973,4.835187
768.0,382.586,4.834875
772.0,383.201,4.83475
776.0,383.802,4.834656
780.0,384.408,4.834625
784.0,385.013,4.834375
788.0,385.621,4.83425
792.0,386.245,4.833969
796.0,386.847,4.833687
800.0,387.454,4.83375
804.0,388.069,4.83375
808.0,388.678,4.833625
812.0,389.297,4.833313
816.0,389.904,4.83325
820.0,390.519,4.833063
824.0,391.119,4.832875
828.0,391.727,4.832719
832.0,392.335,4.832656
836.0,392.94,4.832438
840.0,393.558,4.832
844.0,394.169,4.831875
848.0,394.769,4.831656
852.0,395.381,4.831719
856.0,395.989,4.831469
860.0,396.604,4.831625
864.0,397.217,4.831438
868.0,397.827,4.83125
872.0,398.439,4.831156
876.0,399.05,4.830969
880.0,399.652,4.830812
884.0,400.266,4.83075
888.0,400.88,4.830313
892.0,401.49,4.830313
896.0,402.108,4.830281
900.0,402.731,4.829969
904.0,403.332,4.829875
908.0,403.949,4.829563
912.0,404.56,4.8295
916.0,405.173,4.829375
920.0,405.789,4.82925
924.0,406.407,4.828906
928.0,407.019,4.828688
932.0,407.633,4.8285
936.0,408.251,4.828469
940.0,408.86,4.828375
944.0,409.479,4.828125
948.0,410.09,4.827875
952.0,410.711,4.82775
956.0,411.323,4.827562
960.0,411.938,4.827312
964.0,412.558,4.827125
968.0,413.176,4.826844
972.0,413.785,4.826469
976.0,414.402,4.826656
980.0,415.017,4.826156
984.0,415.633,4.826063
988.0,416.258,4.825625
992.0,416.873,4.825406
996.0,417.497,4.825156
1000.0,418.107,4.824906
1004.0,418.727,4.824812
1008.0,419.341,4.824438
1012.0,419.967,4.824156
1016.0,420.58,4.823625
1020.0,421.193,4.823375
1024.0,421.814,4.823125
1028.0,422.436,4.822781
1032.0,423.056,4.822594
1036.0,423.668,4.822156
1040.0,424.288,4.822
1044.0,424.91,4.821656
1048.0,425.527,4.82125
1052.0,426.15,4.820813
1056.0,426.764,4.820687
1060.0,427.381,4.820313
1064.0,427.996,4.819844
1068.0,428.621,4.819344
1072.0,429.242,4.819
1076.0,429.863,4.818531
1080.0,430.485,4.818
1084.0,431.107,4.817313
1088.0,431.729,4.816969
1092.0,432.351,4.816719
1096.0,432.974,4.816219
1100.0,433.592,4.81575
1104.0,434.22,4.815406
1108.0,434.846,4.815
1112.0,435.47,4.814375
1116.0,436.094,4.813781
1120.0,436.718,4.813281
1124.0,437.338,4.812656
1128.0,437.958,4.811969
1132.0,438.579,4.811375
1136.0,439.21,4.810906
1140.0,439.836,4.810344
1144.0,440.459,4.809937
1148.0,441.09,4.809062
1152.0,441.714,4.808312
1156.0,442.341,4.807562
1160.0,442.962,4.807063
1164.0,443.59,4.8065
1168.0,444.22,4.805719
1172.0,444.842,4.805
1176.0,445.46,4.804281
1180.0,446.087,4.803594
1184.0,446.718,4.802594
1188.0,447.346,4.801813
1192.0,447.975,4.800938
1196.0,448.596,4.800063
1200.0,449.223,4.799219
1204.0,449.845,4.798469
1208.0,450.478,4.797594
1212.0,451.104,4.796625
1216.0,451.732,4.795813
1220.0,452.367,4.794813
1224.0,452.99,4.793625
1228.0,453.615,4.792719
1232.0,454.242,4.791781
1236.0,454.869,4.7905
1240.0,455.496,4.789344
1244.0,456.125,4.788375
1248.0,456.748,4.787281
1252.0,457.375,4.785875
1256.0,458.002,4.784812
1260.0,458.633,4.783531
1264.0,459.271,4.782469
1268.0,459.895,4.781312
1272.0,460.526,4.780156
1276.0,461.162,4.778906
1280.0,461.797,4.777281
1284.0,462.429,4.776031
1288.0,463.049,4.774719
1292.0,463.679,4.773156
1296.0,464.309,4.771688
1300.0,464.941,4.77025
1304.0,465.573,4.768625
1308.0,466.196,4.767188
1312.0,466.834,4.765563
1316.0,467.47,4.764125
1320.0,468.104,4.762531
1324.0,468.728,4.760969
1328.0,469.354,4.759156
1332.0,469.979,4.757719
1336.0,470.618,4.756063
1340.0,471.251,4.754344
1344.0,471.874,4.752625
1348.0,472.51,4.750937
1352.0,473.141,4.749156
1356.0,473.775,4.747375
1360.0,474.403,4.745406
1364.0,475.036,4.743813
1368.0,475.672,4.742219
1372.0,476.31,4.74025
1376.0,476.945,4.738313
1380.0,477.572,4.736563
1384.0,478.204,4.734687
1388.0,478.844,4.732906
1392.0,479.469,4.731125
1396.0,480.108,4.72925
1400.0,480.742,4.727281
1404.0,481.374,4.725281
1408.0,482.002,4.723344
1412.0,482.64,4.721344
1416.0,483.266,4.7195
1420.0,483.905,4.717594
1424.0,484.539,4.715562
1428.0,485.17,4.713375
1432.0,485.809,4.711312
1436.0,486.441,4.709219
1440.0,487.076,4.707219
1444.0,487.703,4.705187
1448.0,488.343,4.703
1452.0,488.973,4.700937
1456.0,489.616,4.698688
1460.0,490.249,4.69675
1464.0,490.887,4.694281
1468.0,491.521,4.692281
1472.0,492.159,4.690063
1476.0,492.792,4.687844
1480.0,493.436,4.685469
1484.0,494.069,4.683281
1488.0,494.709,4.680937
1492.0,495.338,4.678563
1496.0,495.976,4.676063
1500.0,496.608,4.673687
1504.0,497.24,4.671219
1508.0,497.878,4.668656
1512.0,498.512,4.666031
1516.0,499.154,4.663406
1520.0,499.79,4.660687
1524.0,500.419,4.658125
1528.0,501.064,4.655313
1532.0,501.701,4.652656
1536.0,502.342,4.649813
1540.0,502.985,4.646937
1544.0,503.616,4.644
1548.0,504.252,4.640781
1552.0,504.886,4.637813
1556.0,505.528,4.634937
1560.0,506.168,4.631719
1564.0,506.804,4.628531
1568.0,507.435,4.625156
1572.0,508.071,4.621656
1576.0,508.719,4.618187
1580.0,509.354,4.614875
1584.0,509.987,4.611625
1588.0,510.628,4.607906
1592.0,511.263,4.604094
1596.0,511.897,4.600469
1600.0,512.536,4.596719
1604.0,513.171,4.59275
1608.0,513.814,4.588719
1612.0,514.451,4.584969
1616.0,515.096,4.580688
1620.0,515.735,4.576437
1624.0,516.374,4.572125
1628.0,517.011,4.567875
1632.0,517.641,4.563625
1636.0,518.28,4.559281
1640.0,518.921,4.55475
1644.0,519.557,4.549844
1648.0,520.191,4.54525
1652.0,520.833,4.54075
1656.0,521.478,4.535687
1660.0,522.11,4.530875
1664.0,522.745,4.525719
1668.0,523.39,4.520625
1672.0,524.025,4.515563
1676.0,524.668,4.510375
1680.0,525.311,4.505156
1684.0,525.953,4.499875
1688.0,526.591,4.494625
1692.0,527.235,4.489281
1696.0,527.866,4.48375
1700.0,528.51,4.477969
1704.0,529.148,4.472312
1708.0,529.776,4.466688
1712.0,530.422,4.460719
1716.0,531.062,4.454719
1720.0,531.704,4.448812
1724.0,532.341,4.442969
1728.0,532.984,4.436875
1732.0,533.62,4.430469
1736.0,534.263,4.424188
1740.0,534.896,4.417687
1744.0,535.541,4.411344
1748.0,536.179,4.404594
1752.0,536.818,4.398125
1756.0,537.466,4.391406
1760.0,538.101,4.384781
1764.0,538.74,4.377812
1768.0,539.377,4.37075
1772.0,540.021,4.363594
1776.0,540.657,4.356656
1780.0,541.297,4.349375
1784.0,541.938,4.3425
1788.0,542.575,4.335
1792.0,543.215,4.3275
1796.0,543.849,4.319906
1800.0,544.484,4.312188
1804.0,545.124,4.30425
1808.0,545.764,4.296625
1812.0,546.402,4.288594
1816.0,547.047,4.280844
1820.0,547.689,4.272656
1824.0,548.332,4.2645
1828.0,548.974,4.256063
1832.0,549.611,4.247875
1836.0,550.254,4.239531
1840.0,550.897,4.231094
1844.0,551.543,4.222094
1848.0,552.179,4.213313
1852.0,552.82,4.2045
1856.0,553.458,4.195687
1860.0,554.095,4.18675
1864.0,554.735,4.177594
1868.0,555.378,4.168281
1872.0,556.02,4.159125
1876.0,556.667,4.149813
1880.0,557.317,4.140344
1884.0,557.954,4.130813
1888.0,558.594,4.121094
1892.0,559.24,4.111344
1896.0,559.882,4.101719
1900.0,560.523,4.091781
1904.0,561.166,4.081937
1908.0,561.805,4.071688
1912.0,562.449,4.06125
1916.0,563.093,4.051031
1920.0,563.74,4.040625
1924.0,564.383,4.030188
1928.0,565.023,4.0195
1932.0,565.669,4.008875
1936.0,566.317,3.998
1940.0,566.954,3.987187
1944.0,567.587,3.976125
1948.0,568.231,3.965063
1952.0,568.876,3.953687
1956.0,569.524,3.942312
1960.0,570.162,3.930844
1964.0,570.802,3.919281
1968.0,571.441,3.907531
1972.0,572.086,3.895719
1976.0,572.73,3.883719
1980.0,573.378,3.871687
1984.0,574.021,3.859469
1988.0,574.659,3.846937
1992.0,575.301,3.834312
1996.0,575.945,3.821281
2000.0,576.589,3.808594
2004.0,577.23,3.795781
2008.0,577.868,3.782594
2012.0,578.51,3.769156
2016.0,579.151,3.755625
2020.0,579.793,3.741781
2024.0,580.438,3.728125
2028.0,581.077,3.714156
2032.0,581.726,3.699969
2036.0,582.367,3.685563
2040.0,583.009,3.671062
2044.0,583.652,3.656281
2048.0,584.294,3.641656
2052.0,584.937,3.626594
2056.0,585.576,3.611375
2060.0,586.219,3.596
2064.0,586.865,3.580531
2068.0,587.509,3.564719
2072.0,588.145,3.548781
2076.0,588.789,3.532656
2080.0,589.427,3.516656
2084.0,590.067,3.500094
2088.0,590.709,3.483469
2092.0,591.355,3.466687
2096.0,591.992,3.449781
2100.0,592.633,3.432688
2104.0,593.28,3.41525
2108.0,593.921,3.397719
2112.0,594.562,3.379781
2116.0,595.203,3.362031
2120.0,595.847,3.343937
2124.0,596.492,3.325906
2128.0,597.136,3.307625
2132.0,597.781,3.289125
2136.0,598.42,3.270219
2140.0,599.062,3.251156
2144.0,599.709,3.232438
2148.0,600.348,3.213531
2152.0,600.989,3.194031
2156.0,601.633,3.174719
2160.0,602.274,3.155062
2164.0,602.915,3.13525
2168.0,603.563,3.115313
2172.0,604.201,3.09525
2176.0,604.837,3.07525
2180.0,605.484,3.054906
2184.0,606.131,3.034375
2188.0,606.776,3.013781
2192.0,607.417,2.992969
2196.0,608.052,2.972125
2200.0,608.698,2.950875
2204.0,609.337,2.929812
2208.0,609.986,2.908656
2212.0,610.626,2.887219
2216.0,611.269,2.865281
2220.0,611.913,2.843594
2224.0,612.557,2.821719
2228.0,613.202,2.799562
2232.0,613.84,2.777375
2236.0,614.484,2.755219
2240.0,615.126,2.73275
2244.0,615.772,2.709781
2248.0,616.411,2.686687
2252.0,617.053,2.663938
2256.0,617.702,2.640438
2260.0,618.343,2.616625
2264.0,618.989,2.592813
2268.0,619.637,2.56875
2272.0,620.277,2.544125
2276.0,620.918,2.519469
2280.0,621.561,2.494375
2284.0,622.201,2.469219
2288.0,622.852,2.4435
2292.0,623.486,2.417625
2296.0,624.127,2.391438
2300.0,624.773,2.364938
2304.0,625.419,2.337969
2308.0,626.067,2.310719
2312.0,626.712,2.283
2316.0,627.347,2.255031
2320.0,627.991,2.2265
2324.0,628.636,2.197562
2328.0,629.278,2.168437
2332.0,629.923,2.138688
2336.0,630.564,2.108625
2340.0,631.21,2.078469
2344.0,631.848,2.04775
2348.0,632.498,2.016594
2352.0,633.137,1.985156
2356.0,633.779,1.953313
2360.0,634.426,1.921469
2364.0,635.078,1.889219
2368.0,635.73,1.856688
2372.0,636.375,1.823906
2376.0,637.021,1.791219
2380.0,637.667,1.758562
2384.0,638.317,1.725719
2388.0,638.967,1.693094
2392.0,639.616,1.660625
2396.0,640.271,1.628562
2400.0,640.929,1.597156
2404.0,641.583,1.566313
2408.0,642.243,1.535938
2412.0,642.9,1.506125
2416.0,643.565,1.477719
2420.0,644.225,1.450312
2424.0,644.891,1.423969
2428.0,645.551,1.399438
2432.0,646.218,1.37625
2436.0,646.888,1.354219
2440.0,647.565,1.333906
2444.0,648.228,1.315313
2448.0,648.896,1.29825
2452.0,649.571,1.282719
2456.0,650.24,1.268969
2460.0,650.919,1.256625
2464.0,651.595,1.245781
2468.0,652.272,1.236156
2472.0,652.943,1.228094
2476.0,653.609,1.220562
2480.0,654.278,1.214156
2484.0,654.942,1.208688
2488.0,655.621,1.203812
2492.0,656.311,1.199312
2496.0,656.999,1.195406
2500.0,657.672,1.191719
2504.0,658.341,1.188125
2508.0,659.008,1.185063
2512.0,659.664,1.182094
2516.0,660.321,1.179188
2520.0,660.977,1.176531
2524.0,661.629,1.173656
2528.0,662.277,1.171156
2532.0,662.928,1.168625
2536.0,663.58,1.166125
2540.0,664.223,1.163625
2544.0,664.867,1.161188
2548.0,665.509,1.158875
2552.0,666.153,1.156344
2556.0,666.8,1.154031
2560.0,667.443,1.151688
2564.0,668.085,1.149469
2568.0,668.731,1.147313
2572.0,669.365,1.145
2576.0,669.997,1.1425
2580.0,670.636,1.140125
2584.0,671.271,1.137875
2588.0,671.911,1.135781
2592.0,672.543,1.133562
2596.0,673.175,1.131406
2600.0,673.815,1.129187
2604.0,674.444,1.127063
2608.0,675.073,1.124656
2612.0,675.708,1.122687
2616.0,676.338,1.120531
2620.0,676.973,1.118406
2624.0,677.608,1.116094
2628.0,678.232,1.113875
2632.0,678.864,1.111656
2636.0,679.494,1.109375
2640.0,680.128,1.107281
2644.0,680.76,1.105219
2648.0,681.388,1.102906
2652.0,682.019,1.100781
2656.0,682.65,1.098781
2660.0,683.271,1.096656
2664.0,683.905,1.094219
2668.0,684.531,1.092188
2672.0,685.161,1.089937
2676.0,685.787,1.087719
2680.0,686.411,1.085562
2684.0,687.042,1.08325
2688.0,687.67,1.080938
2692.0,688.296,1.078719
2696.0,688.925,1.076656
2700.0,689.551,1.074563
2704.0,690.179,1.072312
2708.0,690.799,1.070063
2712.0,691.431,1.06775
2716.0,692.056,1.065469
2720.0,692.679,1.063219
2724.0,693.306,1.061094
2728.0,693.931,1.058844
2732.0,694.557,1.056719
2736.0,695.184,1.054406
2740.0,695.811,1.052281
2744.0,696.435,1.04975
2748.0,697.07,1.047656
2752.0,697.693,1.04525
2756.0,698.33,1.043031
2760.0,698.954,1.040719
2764.0,699.577,1.038594
2768.0,700.202,1.03625
2772.0,700.832,1.034031
2776.0,701.456,1.031531
2780.0,702.081,1.029219
2784.0,702.704,1.027031
2788.0,703.332,1.024812
2792.0,703.961,1.022469
2796.0,704.583,1.02025
2800.0,705.212,1.017875
2804.0,705.834,1.015563
2808.0,706.455,1.013375
2812.0,707.082,1.010969
2816.0,707.702,1.008719
2820.0,708.327,1.006562
2824.0,708.948,1.004219
2828.0,709.57,1.001969
2832.0,710.197,0.999625
2836.0,710.822,0.997469
2840.0,711.449,0.995219
2844.0,712.076,0.992844
2848.0,712.702,0.990594
2852.0,713.327,0.988375
2856.0,713.948,0.986
2860.0,714.57,0.983844
2864.0,715.193,0.9815
2868.0,715.816,0.979312
2872.0,716.439,0.977031
2876.0,717.064,0.974594
2880.0,717.682,0.972375
2884.0,718.31,0.970125
2888.0,718.939,0.967781
2892.0,719.563,0.965625
2896.0,720.189,0.963188
2900.0,720.813,0.960938
2904.0,721.441,0.958656
2908.0,722.059,0.956531
2912.0,722.685,0.954156
2916.0,723.308,0.951625
2920.0,723.931,0.949469
2924.0,724.556,0.947187
2928.0,725.183,0.944719
2932.0,725.807,0.942438
2936.0,726.429,0.940125
2940.0,727.051,0.937875
2944.0,727.676,0.935469
2948.0,728.297,0.933156
2952.0,728.918,0.930906
2956.0,729.544,0.928688
2960.0,730.159,0.926313
2964.0,730.789,0.923813
2968.0,731.411,0.921562
2972.0,732.036,0.919187
2976.0,732.659,0.917
2980.0,733.279,0.9145
2984.0,733.904,0.912063
2988.0,734.526,0.909781
2992.0,735.147,0.907594
2996.0,735.773,0.905219
3000.0,736.396,0.902781
3004.0,737.015,0.900219
3008.0,737.639,0.897937
3012.0,738.26,0.895563
3016.0,738.885,0.893219
3020.0,739.503,0.890781
3024.0,740.123,0.888531
3028.0,740.743,0.886094
3032.0,741.365,0.883656
3036.0,741.994,0.881281
3040.0,742.618,0.878906
3044.0,743.239,0.876344
3048.0,743.864,0.873937
3052.0,744.485,0.871594
3056.0,745.102,0.869187
3060.0,745.717,0.866813
3064.0,746.339,0.864438
3068.0,746.96,0.861844
3072.0,747.584,0.859406
3076.0,748.201,0.857
3080.0,748.823,0.854469
3084.0,749.441,0.852031
3088.0,750.063,0.8495
3092.0,750.682,0.847031
3096.0,751.303,0.844562
3100.0,751.923,0.842094
3104.0,752.547,0.839781
3108.0,753.165,0.837344
3112.0,753.782,0.834719
3116.0,754.401,0.832156
3120.0,755.023,0.829844
3124.0,755.644,0.827187
3128.0,756.268,0.824719
3132.0,756.887,0.822094
3136.0,757.503,0.819687
3140.0,758.124,0.817219
3144.0,758.751,0.814875
3148.0,759.373,0.812063
3152.0,759.993,0.809531
3156.0,760.605,0.806875
3160.0,761.223,0.804219
3164.0,761.846,0.80175
3168.0,762.464,0.799375
3172.0,763.081,0.796844
3176.0,763.699,0.794125
3180.0,764.314,0.791656
3184.0,764.941,0.789031
3188.0,765.554,0.78625
3192.0,766.165,0.783625
3196.0,766.791,0.781187
3200.0,767.408,0.778531
3204.0,768.024,0.775813
3208.0,768.645,0.773281
3212.0,769.259,0.770625
3216.0,769.87,0.767844
3220.0,770.494,0.765156
3224.0,771.112,0.762406
3228.0,771.726,0.759844
3232.0,772.345,0.75725
3236.0,772.961,0.754469
3240.0,773.578,0.751844
3244.0,774.195,0.749219
3248.0,774.808,0.746562
3252.0,775.428,0.744031
3256.0,776.047,0.741313
3260.0,776.658,0.738437
3264.0,777.274,0.73575
3268.0,777.889,0.733094
3272.0,778.504,0.730438
3276.0,779.126,0.727656
3280.0,779.739,0.724844
3284.0,780.352,0.72225
3288.0,780.972,0.7195
3292.0,781.594,0.716812
3296.0,782.208,0.714031
3300.0,782.828,0.711312
3304.0,783.444,0.708469
3308.0,784.061,0.705656
3312.0,784.671,0.702875
3316.0,785.288,0.700219
3320.0,785.901,0.697281
3324.0,786.509,0.694562
3328.0,787.127,0.691813
3332.0,787.74,0.689125
3336.0,788.355,0.686344
3340.0,788.971,0.683438
3344.0,789.583,0.680687
3348.0,790.197,0.677969
3352.0,790.814,0.67525
3356.0,791.427,0.672437
3360.0,792.037,0.669656
3364.0,792.657,0.666844
3368.0,793.271,0.663844
3372.0,793.882,0.661062
3376.0,794.494,0.658531
3380.0,795.111,0.655531
3384.0,795.721,0.652937
3388.0,796.332,0.649969
3392.0,796.946,0.647
3396.0,797.551,0.644031
3400.0,798.173,0.641344
3404.0,798.783,0.638438
3408.0,799.396,0.635625
3412.0,800.006,0.632719
3416.0,800.616,0.62975
3420.0,801.226,0.626844
3424.0,801.841,0.623906
3428.0,802.461,0.621063
3432.0,803.075,0.618219
3436.0,803.684,0.615344
3440.0,804.291,0.612531
3444.0,804.905,0.609469
3448.0,805.516,0.606625
3452.0,806.127,0.603719
3456.0,806.74,0.60075
3460.0,807.354,0.597938
3464.0,807.966,0.594594
3468.0,808.58,0.591688
3472.0,809.195,0.588906
3476.0,809.805,0.586031
3480.0,810.416,0.583063
3484.0,811.027,0.580031
3488.0,811.64,0.577125
3492.0,812.256,0.574125
3496.0,812.861,0.571063
3500.0,813.47,0.56825
3504.0,814.086,0.565344
3508.0,814.699,0.562281
3512.0,815.311,0.559344
3516.0,815.923,0.556406
3520.0,816.531,0.553375
3524.0,817.142,0.550344
3528.0,817.753,0.547437
3532.0,818.363,0.544312
3536.0,818.984,0.5415
3540.0,819.595,0.538688
3544.0,820.2,0.535594
3548.0,820.82,0.5325
3552.0,821.423,0.529531
3556.0,822.035,0.526531
3560.0,822.65,0.523406
3564.0,823.259,0.520312
3568.0,823.869,0.517406
3572.0,824.483,0.514531
3576.0,825.101,0.511563
3580.0,825.713,0.508469
3584.0,826.327,0.505469
3588.0,826.935,0.502375
3592.0,827.546,0.499344
3596.0,828.158,0.496281
3600.0,828.772,0.493125
3604.0,829.38,0.48975
3608.0,829.988,0.486688
3612.0,830.599,0.483687
3616.0,831.208,0.480594
3620.0,831.817,0.477719
3624.0,832.438,0.474687
3628.0,833.047,0.471406
3632.0,833.655,0.468313
3636.0,834.259,0.465187
3640.0,834.868,0.462281
3644.0,835.473,0.459594
3648.0,836.079,0.4565
3652.0,836.695,0.453562
3656.0,837.298,0.450594
3660.0,837.915,0.447281
3664.0,838.529,0.444562
3668.0,839.138,0.441281
3672.0,839.743,0.438188
3676.0,840.351,0.435281
3680.0,840.96,0.432187
3684.0,841.57,0.429031
3688.0,842.179,0.426062
3692.0,842.785,0.423031
3696.0,843.395,0.419875
3700.0,844.008,0.416813
3704.0,844.609,0.413531
3708.0,845.221,0.410625
3712.0,845.828,0.407594
3716.0,846.432,0.404687
3720.0,847.039,0.401656
3724.0,847.646,0.398469
3728.0,848.25,0.395562
3732.0,848.866,0.392344
3736.0,849.474,0.389313
3740.0,850.081,0.386219
3744.0,850.684,0.383188
3748.0,851.29,0.380125
3752.0,851.901,0.377125
3756.0,852.508,0.373969
3760.0,853.116,0.371094
3764.0,853.729,0.367969
3768.0,854.333,0.364812
3772.0,854.944,0.361781
3776.0,855.541,0.358687
3780.0,856.163,0.355656
3784.0,856.762,0.3525
3788.0,857.377,0.349594
3792.0,857.985,0.346594
3796.0,858.587,0.343531
3800.0,859.191,0.340625
3804.0,859.796,0.337625
3808.0,860.408,0.33475
3812.0,861.018,0.331625
3816.0,861.625,0.328531
3820.0,862.235,0.325687
3824.0,862.843,0.322812
3828.0,863.449,0.319594
3832.0,864.058,0.316594
3836.0,864.67,0.313437
3840.0,865.277,0.310438
3844.0,865.884,0.307531
3848.0,866.496,0.304625
3852.0,867.108,0.301719
3856.0,867.71,0.298562
3860.0,868.322,0.295438
3864.0,868.934,0.292437
3868.0,869.54,0.289656
3872.0,870.149,0.286531
3876.0,870.762,0.283406
3880.0,871.372,0.2805
3884.0,871.977,0.277469
3888.0,872.597,0.274656
3892.0,873.204,0.271781
3896.0,873.813,0.268719
3900.0,874.426,0.265812
3904.0,875.037,0.262688
3908.0,875.649,0.259656
3912.0,876.26,0.256813
3916.0,876.874,0.253656
3920.0,877.482,0.25075
3924.0,878.096,0.247938
3928.0,878.709,0.245063
3932.0,879.324,0.242156
3936.0,879.936,0.239312
3940.0,880.551,0.236344
3944.0,881.163,0.233469
3948.0,881.781,0.230531
3952.0,882.397,0.227625
3956.0,883.007,0.224781
3960.0,883.617,0.221844
3964.0,884.23,0.218969
3968.0,884.847,0.216219
3972.0,885.459,0.213437
3976.0,886.072,0.210406
3980.0,886.682,0.207312
3984.0,887.301,0.204594
3988.0,887.916,0.202
3992.0,888.533,0.199312
3996.0,889.147,0.196469
4000.0,889.754,0.193687
4004.0,890.367,0.190875
4008.0,890.982,0.187875
4012.0,891.595,0.185188
4016.0,892.206,0.1825
4020.0,892.817,0.179656
4024.0,893.425,0.177094
4028.0,894.043,0.1745
4032.0,894.655,0.171438
4036.0,895.27,0.168687
4040.0,895.879,0.166063
4044.0,896.497,0.163156
4048.0,897.111,0.160625
4052.0,897.717,0.157937
4056.0,898.333,0.155312
4060.0,898.948,0.152594
4064.0,899.566,0.149937
4068.0,900.177,0.147281
4072.0,900.789,0.144688
4076.0,901.402,0.142094
4080.0,902.018,0.139344
4084.0,902.631,0.136812
4088.0,903.245,0.134094
4092.0,903.855,0.131531
4096.0,904.468,0.129031
4100.0,905.077,0.126406
4104.0,905.687,0.123812
4108.0,906.3,0.121281
4112.0,906.913,0.118813
4116.0,907.524,0.116156
4120.0,908.139,0.113781
4124.0,908.757,0.111156
4128.0,909.371,0.108594
4132.0,909.985,0.106094
4136.0,910.599,0.1035
4140.0,911.21,0.101187
4144.0,911.826,0.098563
4148.0,912.449,0.096031
4152.0,913.063,0.093531
4156.0,913.672,0.091031
4160.0,914.295,0.088625
4164.0,914.905,0.086406
4168.0,915.521,0.084
4172.0,916.137,0.081562
4176.0,916.752,0.079
4180.0,917.368,0.07675
4184.0,917.99,0.0745
4188.0,918.611,0.071875
4192.0,919.232,0.069531
4196.0,919.85,0.066969
4200.0,920.472,0.064781
4204.0,921.086,0.062344
4208.0,921.705,0.060156
4212.0,922.324,0.05775
4216.0,922.943,0.055375
4220.0,923.56,0.053094
4224.0,924.185,0.050813
4228.0,924.801,0.048563
4232.0,925.421,0.046375
4236.0,926.038,0.044
4240.0,926.656,0.041531
4244.0,927.273,0.039406
4248.0,927.894,0.03725
4252.0,928.516,0.034844
4256.0,929.134,0.032406
4260.0,929.755,0.03025
4264.0,930.374,0.028219
4268.0,931,0.025875
4272.0,931.619,0.023531
4276.0,932.246,0.021187
4280.0,932.864,0.019063
4284.0,933.487,0.016781
4288.0,934.103,0.014719
4292.0,934.72,0.012563
4296.0,935.342,0.010469
4300.0,935.959,0.008125
4304.0,936.584,0.006219
4308.0,937.206,0.004188
4312.0,937.826,0.001875
4316.0,938.447,-0.000188
4320.0,939.07,-0.002313
4324.0,939.69,-0.004344
4328.0,940.306,-0.006438
4332.0,940.931,-0.008562
4336.0,941.551,-0.010719
4340.0,942.172,-0.012687
4344.0,942.801,-0.014562
4348.0,943.416,-0.016812
4352.0,944.046,-0.019
4356.0,944.668,-0.020938
4360.0,945.288,-0.022906
4364.0,945.908,-0.02475
4368.0,946.536,-0.02675
4372.0,947.162,-0.02875
4376.0,947.791,-0.030719
4380.0,948.408,-0.032812
4384.0,949.031,-0.03475
4388.0,949.652,-0.036875
4392.0,950.279,-0.038844
4396.0,950.898,-0.04075
4400.0,951.523,-0.042656
4404.0,952.143,-0.044438
4408.0,952.773,-0.046156
4412.0,953.394,-0.048344
4416.0,954.017,-0.050125
4420.0,954.637,-0.052
4424.0,955.26,-0.054063
4428.0,955.879,-0.056
4432.0,956.496,-0.057813
4436.0,957.118,-0.059563
4440.0,957.733,-0.06125
4444.0,958.353,-0.062875
4448.0,958.979,-0.064375
4452.0,959.609,-0.066375
4456.0,960.227,-0.068187
4460.0,960.845,-0.069937
4464.0,961.466,-0.0715
4468.0,962.089,-0.073219
4472.0,962.719,-0.075
4476.0,963.341,-0.076563
4480.0,963.966,-0.078094
4484.0,964.592,-0.079656
4488.0,965.222,-0.08125
4492.0,965.85,-0.082813
4496.0,966.47,-0.084406
4500.0,967.099,-0.08575
4504.0,967.726,-0.087187
4508.0,968.349,-0.088594
4512.0,968.971,-0.090094
4516.0,969.596,-0.091406
4520.0,970.223,-0.092688
4524.0,970.851,-0.094031
4528.0,971.474,-0.095344
4532.0,972.097,-0.096469
4536.0,972.723,-0.097875
4540.0,973.355,-0.099094
4544.0,973.97,-0.10025
4548.0,974.591,-0.101406
4552.0,975.208,-0.102344
4556.0,975.833,-0.103469
4560.0,976.452,-0.104406
4564.0,977.069,-0.105531
4568.0,977.681,-0.106312
4572.0,978.298,-0.107063
4576.0,978.901,-0.107719
4580.0,979.487,-0.108281
4584.0,980.037,-0.108813
4588.0,980.582,-0.109219
4592.0,981.15,-0.109219
4596.0,981.723,-0.109219
4600.0,982.309,-0.109312
4604.0,982.896,-0.109406
4608.0,983.484,-0.109469
4612.0,984.073,-0.109344
4616.0,984.665,-0.109219
4620.0,985.259,-0.109406
4624.0,985.854,-0.109125
4628.0,986.454,-0.109094
4632.0,987.05,-0.109344
4636.0,987.646,-0.109375
4640.0,988.241,-0.109281
4644.0,988.84,-0.109469
4648.0,989.433,-0.109344
4652.0,990.032,-0.109312
4656.0,990.631,-0.109375
4660.0,991.226,-0.109438
4664.0,991.83,-0.109656
4668.0,992.429,-0.109625
4672.0,993.032,-0.109625
4676.0,993.631,-0.109625
4680.0,994.236,-0.109656
4684.0,994.833,-0.109625
4688.0,995.431,-0.109531
4692.0,996.031,-0.1095
4696.0,996.631,-0.109594
4700.0,997.229,-0.10975
4704.0,997.829,-0.109563
4708.0,998.429,-0.109563
4712.0,999.026,-0.109563
4716.0,999.618,-0.109594
4720.0,999.994,-0.109594