File: Wood/Calibration_Data/TUT/TUT_TGA_N2_10K_40Pa_R1.csv
Time (s),Temperature (K),Mass (mg)
0.0,299.663,5.028187
4.0,299.665,5.027906
8.0,299.679,5.028
12.0,299.681,5.028156
16.0,299.68,5.028469
20.0,299.68,5.028563
24.0,299.677,5.028563
28.0,299.67,5.028781
32.0,299.675,5.028969
36.0,299.689,5.029125
40.0,299.692,5.029188
44.0,299.688,5.029469
48.0,299.693,5.029531
52.0,299.705,5.029625
56.0,299.72,5.029594
60.0,299.728,5.029531
64.0,299.75,5.029719
68.0,299.764,5.029625
72.0,299.805,5.029531
76.0,299.833,5.029344
80.0,299.866,5.029406
84.0,299.908,5.029344
88.0,299.953,5.029562
92.0,300.023,5.029406
96.0,300.089,5.029594
100.0,300.17,5.029844
104.0,300.243,5.029719
108.0,300.337,5.029656
112.0,300.442,5.029562
116.0,300.541,5.029687
120.0,300.677,5.029656
124.0,300.8,5.029656
128.0,300.94,5.029687
132.0,301.081,5.029687
136.0,301.247,5.029406
140.0,301.417,5.029656
144.0,301.59,5.029562
148.0,301.779,5.029562
152.0,301.968,5.029313
156.0,302.171,5.029281
160.0,302.393,5.029469
164.0,302.615,5.029344
168.0,302.852,5.029219
172.0,303.096,5.0295
176.0,303.337,5.029625
180.0,303.6,5.029562
184.0,303.884,5.029438
188.0,304.169,5.029438
192.0,304.455,5.029438
196.0,304.744,5.029438
200.0,305.062,5.029313
204.0,305.37,5.029188
208.0,305.697,5.029094
212.0,306.03,5.029094
216.0,306.358,5.029156
220.0,306.706,5.029156
224.0,307.065,5.029062
228.0,307.424,5.028875
232.0,307.784,5.028781
236.0,308.149,5.028625
240.0,308.54,5.0285
244.0,308.936,5.028469
248.0,309.323,5.028406
252.0,309.74,5.028375
256.0,310.148,5.028344
260.0,310.56,5.028313
264.0,310.979,5.027812
268.0,311.401,5.027812
272.0,311.837,5.027812
276.0,312.282,5.027531
280.0,312.713,5.027312
284.0,313.166,5.027094
288.0,313.62,5.026844
292.0,314.086,5.026594
296.0,314.542,5.026469
300.0,315.003,5.026437
304.0,315.48,5.02625
308.0,315.962,5.026187
312.0,316.444,5.026094
316.0,316.927,5.025781
320.0,317.417,5.025562
324.0,317.915,5.025187
328.0,318.412,5.025125
332.0,318.914,5.024969
336.0,319.424,5.024781
340.0,319.936,5.024813
344.0,320.451,5.024594
348.0,320.976,5.024594
352.0,321.492,5.024562
356.0,322.011,5.024188
360.0,322.542,5.024
364.0,323.071,5.023844
368.0,323.6,5.023687
372.0,324.136,5.023344
376.0,324.673,5.02325
380.0,325.208,5.023313
384.0,325.759,5.022844
388.0,326.301,5.022656
392.0,326.853,5.022344
396.0,327.405,5.022156
400.0,327.964,5.022031
404.0,328.51,5.021688
408.0,329.066,5.021469
412.0,329.638,5.021125
416.0,330.199,5.020844
420.0,330.757,5.020781
424.0,331.316,5.020469
428.0,331.882,5.020406
432.0,332.452,5.020094
436.0,333.024,5.019875
440.0,333.599,5.019719
444.0,334.175,5.019688
448.0,334.748,5.019563
452.0,335.328,5.019281
456.0,335.902,5.019
460.0,336.493,5.018625
464.0,337.07,5.018344
468.0,337.657,5.018188
472.0,338.252,5.018063
476.0,338.833,5.017969
480.0,339.423,5.017719
484.0,340.001,5.017406
488.0,340.593,5.017313
492.0,341.179,5.017094
496.0,341.779,5.016875
500.0,342.372,5.016719
504.0,342.967,5.016438
508.0,343.555,5.016156
512.0,344.149,5.016
516.0,344.752,5.015625
520.0,345.346,5.015531
524.0,345.948,5.015344
528.0,346.548,5.015187
532.0,347.153,5.015031
536.0,347.757,5.014844
540.0,348.356,5.014594
544.0,348.954,5.014406
548.0,349.56,5.014187
552.0,350.163,5.014156
556.0,350.764,5.013844
560.0,351.367,5.013688
564.0,351.976,5.013469
568.0,352.585,5.0135
572.0,353.195,5.013219
576.0,353.798,5.012656
580.0,354.409,5.012625
584.0,355.023,5.012437
588.0,355.624,5.012219
592.0,356.233,5.012063
596.0,356.84,5.011875
600.0,357.456,5.011562
604.0,358.064,5.011312
608.0,358.678,5.011188
612.0,359.289,5.010812
616.0,359.9,5.010687
620.0,360.507,5.010437
624.0,361.12,5.009906
628.0,361.731,5.009812
632.0,362.346,5.009625
636.0,362.965,5.009219
640.0,363.572,5.008906
644.0,364.197,5.008625
648.0,364.813,5.008375
652.0,365.433,5.008062
656.0,366.047,5.007781
660.0,366.66,5.007438
664.0,367.279,5.007031
668.0,367.897,5.00675
672.0,368.515,5.006281
676.0,369.126,5.006
680.0,369.75,5.005719
684.0,370.367,5.005281
688.0,370.987,5.004625
692.0,371.596,5.004063
696.0,372.223,5.003562
700.0,372.835,5.002937
704.0,373.447,5.00225
708.0,374.057,5.001844
712.0,374.684,5.001375
716.0,375.303,5.000813
720.0,375.917,5.000312
724.0,376.541,4.999531
728.0,377.163,4.998906
732.0,377.784,4.998125
736.0,378.407,4.997625
740.0,379.025,4.996844
744.0,379.648,4.996125
748.0,380.261,4.995438
752.0,380.882,4.994594
756.0,381.501,4.99375
760.0,382.118,4.993062
764.0,382.743,4.99225
768.0,383.365,4.991625
772.0,383.987,4.990781
776.0,384.607,4.989844
780.0,385.229,4.988781
784.0,385.852,4.988062
788.0,386.474,4.987
792.0,387.1,4.986
796.0,387.722,4.984844
800.0,388.347,4.983875
804.0,388.966,4.982844
808.0,389.588,4.981844
812.0,390.215,4.980875
816.0,390.84,4.979562
820.0,391.454,4.978562
824.0,392.086,4.977281
828.0,392.713,4.975937
832.0,393.335,4.97475
836.0,393.954,4.973281
840.0,394.578,4.97225
844.0,395.202,4.970969
848.0,395.827,4.969594
852.0,396.446,4.96825
856.0,397.078,4.966906
860.0,397.701,4.965562
864.0,398.323,4.96425
868.0,398.945,4.962906
872.0,399.568,4.961531
876.0,400.195,4.960156
880.0,400.825,4.958531
884.0,401.445,4.957219
888.0,402.074,4.955906
892.0,402.706,4.954594
896.0,403.332,4.953281
900.0,403.951,4.951781
904.0,404.576,4.9505
908.0,405.202,4.949375
912.0,405.831,4.947969
916.0,406.457,4.946656
920.0,407.086,4.9455
924.0,407.721,4.9445
928.0,408.346,4.943219
932.0,408.98,4.942062
936.0,409.61,4.940938
940.0,410.242,4.94025
944.0,410.873,4.938938
948.0,411.501,4.937969
952.0,412.125,4.937
956.0,412.756,4.935969
960.0,413.394,4.935062
964.0,414.02,4.934281
968.0,414.652,4.933375
972.0,415.275,4.932562
976.0,415.906,4.931812
980.0,416.532,4.931031
984.0,417.165,4.930438
988.0,417.8,4.929594
992.0,418.437,4.928937
996.0,419.065,4.92825
1000.0,419.692,4.927594
1004.0,420.333,4.926906
1008.0,420.967,4.925938
1012.0,421.595,4.925281
1016.0,422.227,4.924594
1020.0,422.861,4.924
1024.0,423.497,4.92325
1028.0,424.131,4.92275
1032.0,424.768,4.921969
1036.0,425.393,4.92125
1040.0,426.021,4.920594
1044.0,426.656,4.919906
1048.0,427.286,4.919375
1052.0,427.92,4.918938
1056.0,428.55,4.918188
1060.0,429.191,4.917313
1064.0,429.818,4.916563
1068.0,430.448,4.915906
1072.0,431.085,4.915344
1076.0,431.719,4.9145
1080.0,432.349,4.913813
1084.0,432.987,4.913063
1088.0,433.62,4.912469
1092.0,434.258,4.911531
1096.0,434.899,4.910844
1100.0,435.527,4.909969
1104.0,436.166,4.909313
1108.0,436.802,4.908688
1112.0,437.433,4.907938
1116.0,438.07,4.907156
1120.0,438.707,4.906406
1124.0,439.33,4.905562
1128.0,439.972,4.904844
1132.0,440.611,4.903906
1136.0,441.248,4.903031
1140.0,441.88,4.902312
1144.0,442.519,4.901406
1148.0,443.155,4.900562
1152.0,443.796,4.899719
1156.0,444.431,4.898781
1160.0,445.067,4.898063
1164.0,445.701,4.897094
1168.0,446.341,4.896094
1172.0,446.97,4.895031
1176.0,447.601,4.894156
1180.0,448.255,4.893063
1184.0,448.893,4.891938
1188.0,449.525,4.891031
1192.0,450.161,4.890156
1196.0,450.797,4.889312
1200.0,451.433,4.888156
1204.0,452.074,4.886906
1208.0,452.7,4.885656
1212.0,453.339,4.884625
1216.0,453.979,4.883563
1220.0,454.616,4.882594
1224.0,455.255,4.881375
1228.0,455.894,4.880188
1232.0,456.537,4.878906
1236.0,457.17,4.877687
1240.0,457.801,4.876438
1244.0,458.445,4.875156
1248.0,459.079,4.873844
1252.0,459.717,4.872625
1256.0,460.351,4.871031
1260.0,460.99,4.8695
1264.0,461.628,4.868156
1268.0,462.269,4.8665
1272.0,462.908,4.864969
1276.0,463.544,4.863531
1280.0,464.177,4.861906
1284.0,464.819,4.860188
1288.0,465.453,4.858719
1292.0,466.091,4.857344
1296.0,466.727,4.855625
1300.0,467.363,4.853969
1304.0,468,4.851969
1308.0,468.642,4.850375
1312.0,469.275,4.848469
1316.0,469.922,4.846844
1320.0,470.558,4.844812
1324.0,471.192,4.842844
1328.0,471.835,4.840844
1332.0,472.466,4.838781
1336.0,473.095,4.836625
1340.0,473.742,4.83475
1344.0,474.378,4.832656
1348.0,475.016,4.830531
1352.0,475.658,4.828312
1356.0,476.295,4.826063
1360.0,476.933,4.823969
1364.0,477.571,4.821531
1368.0,478.208,4.819156
1372.0,478.846,4.816906
1376.0,479.489,4.814469
1380.0,480.122,4.811812
1384.0,480.762,4.809281
1388.0,481.399,4.80675
1392.0,482.043,4.804062
1396.0,482.685,4.801469
1400.0,483.325,4.798969
1404.0,483.958,4.796281
1408.0,484.603,4.793219
1412.0,485.234,4.7905
1416.0,485.876,4.787813
1420.0,486.511,4.784781
1424.0,487.151,4.781875
1428.0,487.783,4.778875
1432.0,488.426,4.776
1436.0,489.064,4.772969
1440.0,489.705,4.769781
1444.0,490.342,4.76675
1448.0,490.98,4.763312
1452.0,491.62,4.760156
1456.0,492.261,4.756906
1460.0,492.904,4.753812
1464.0,493.536,4.750312
1468.0,494.17,4.746719
1472.0,494.812,4.743437
1476.0,495.45,4.739875
1480.0,496.088,4.73625
1484.0,496.734,4.732687
1488.0,497.374,4.729063
1492.0,498.014,4.72525
1496.0,498.649,4.721469
1500.0,499.285,4.7175
1504.0,499.923,4.713594
1508.0,500.559,4.709813
1512.0,501.202,4.70575
1516.0,501.842,4.70175
1520.0,502.483,4.697625
1524.0,503.12,4.693406
1528.0,503.766,4.689031
1532.0,504.404,4.684969
1536.0,505.041,4.680719
1540.0,505.682,4.676375
1544.0,506.319,4.671813
1548.0,506.96,4.667125
1552.0,507.597,4.662437
1556.0,508.24,4.658062
1560.0,508.883,4.653156
1564.0,509.526,4.648219
1568.0,510.166,4.643312
1572.0,510.802,4.638594
1576.0,511.443,4.633375
1580.0,512.085,4.628531
1584.0,512.729,4.6235
1588.0,513.374,4.618375
1592.0,514.01,4.613062
1596.0,514.645,4.607844
1600.0,515.292,4.602437
1604.0,515.93,4.597
1608.0,516.565,4.591406
1612.0,517.209,4.58575
1616.0,517.845,4.580187
1620.0,518.485,4.574906
1624.0,519.13,4.569219
1628.0,519.765,4.563344
1632.0,520.406,4.5575
1636.0,521.042,4.551531
1640.0,521.687,4.545437
1644.0,522.325,4.539437
1648.0,522.965,4.5335
1652.0,523.605,4.527344
1656.0,524.246,4.521375
1660.0,524.886,4.515125
1664.0,525.524,4.508906
1668.0,526.158,4.50275
1672.0,526.799,4.496531
1676.0,527.436,4.490219
1680.0,528.083,4.483875
1684.0,528.726,4.477437
1688.0,529.359,4.471094
1692.0,529.997,4.4645
1696.0,530.635,4.458
1700.0,531.276,4.451469
1704.0,531.917,4.444625
1708.0,532.557,4.438063
1712.0,533.193,4.431344
1716.0,533.838,4.424531
1720.0,534.476,4.41775
1724.0,535.109,4.410937
1728.0,535.751,4.403906
1732.0,536.389,4.397125
1736.0,537.026,4.389937
1740.0,537.666,4.382937
1744.0,538.303,4.375625
1748.0,538.939,4.368406
1752.0,539.575,4.361219
1756.0,540.214,4.35375
1760.0,540.853,4.346094
1764.0,541.487,4.3385
1768.0,542.125,4.330906
1772.0,542.76,4.323219
1776.0,543.4,4.315781
1780.0,544.038,4.307719
1784.0,544.682,4.299781
1788.0,545.319,4.291969
1792.0,545.956,4.28375
1796.0,546.594,4.2755
1800.0,547.23,4.267125
1804.0,547.872,4.258906
1808.0,548.508,4.250406
1812.0,549.149,4.241781
1816.0,549.787,4.233062
1820.0,550.423,4.224219
1824.0,551.059,4.215281
1828.0,551.703,4.206313
1832.0,552.345,4.197312
1836.0,552.977,4.188125
1840.0,553.61,4.178719
1844.0,554.251,4.169375
1848.0,554.889,4.159844
1852.0,555.527,4.150406
1856.0,556.158,4.140406
1860.0,556.798,4.130625
1864.0,557.439,4.120594
1868.0,558.073,4.110344
1872.0,558.709,4.100062
1876.0,559.342,4.089625
1880.0,559.984,4.079156
1884.0,560.622,4.068469
1888.0,561.254,4.057625
1892.0,561.888,4.046969
1896.0,562.522,4.036031
1900.0,563.162,4.0245
1904.0,563.802,4.013375
1908.0,564.437,4.001875
1912.0,565.077,3.990375
1916.0,565.711,3.978437
1920.0,566.344,3.966594
1924.0,566.978,3.954344
1928.0,567.617,3.942344
1932.0,568.249,3.93
1936.0,568.881,3.917719
1940.0,569.515,3.904938
1944.0,570.147,3.892219
1948.0,570.787,3.879406
1952.0,571.425,3.8665
1956.0,572.061,3.853188
1960.0,572.694,3.839781
1964.0,573.321,3.82625
1968.0,573.958,3.8125
1972.0,574.594,3.798563
1976.0,575.23,3.784344
1980.0,575.867,3.770281
1984.0,576.498,3.756
1988.0,577.136,3.741344
1992.0,577.766,3.726563
1996.0,578.399,3.71175
2000.0,579.032,3.696625
2004.0,579.672,3.681469
2008.0,580.304,3.666156
2012.0,580.941,3.650594
2016.0,581.574,3.634719
2020.0,582.211,3.619
2024.0,582.84,3.603125
2028.0,583.482,3.586969
2032.0,584.11,3.570406
2036.0,584.742,3.553813
2040.0,585.378,3.537188
2044.0,586.009,3.520219
2048.0,586.64,3.502938
2052.0,587.274,3.485812
2056.0,587.916,3.468281
2060.0,588.544,3.45075
2064.0,589.172,3.433063
2068.0,589.802,3.415156
2072.0,590.431,3.39725
2076.0,591.062,3.379
2080.0,591.699,3.360812
2084.0,592.334,3.342344
2088.0,592.969,3.323562
2092.0,593.601,3.304781
2096.0,594.236,3.285813
2100.0,594.866,3.266562
2104.0,595.5,3.247313
2108.0,596.126,3.227688
2112.0,596.762,3.207937
2116.0,597.393,3.188313
2120.0,598.024,3.168406
2124.0,598.661,3.148406
2128.0,599.286,3.128219
2132.0,599.921,3.107781
2136.0,600.56,3.087281
2140.0,601.191,3.066562
2144.0,601.824,3.045469
2148.0,602.465,3.024594
2152.0,603.096,3.003719
2156.0,603.73,2.982344
2160.0,604.362,2.961125
2164.0,604.983,2.939656
2168.0,605.607,2.918094
2172.0,606.24,2.896406
2176.0,606.877,2.874469
2180.0,607.506,2.8525
2184.0,608.139,2.830531
2188.0,608.774,2.808187
2192.0,609.402,2.785875
2196.0,610.036,2.763219
2200.0,610.667,2.7405
2204.0,611.298,2.717594
2208.0,611.924,2.694625
2212.0,612.555,2.671688
2216.0,613.186,2.6485
2220.0,613.816,2.625062
2224.0,614.45,2.601656
2228.0,615.079,2.577906
2232.0,615.711,2.554312
2236.0,616.34,2.530344
2240.0,616.967,2.506219
2244.0,617.6,2.481969
2248.0,618.227,2.457375
2252.0,618.857,2.432844
2256.0,619.483,2.408031
2260.0,620.112,2.382937
2264.0,620.74,2.357812
2268.0,621.369,2.332594
2272.0,621.998,2.307031
2276.0,622.626,2.281563
2280.0,623.25,2.255594
2284.0,623.882,2.229406
2288.0,624.509,2.202875
2292.0,625.138,2.176063
2296.0,625.763,2.149375
2300.0,626.389,2.122406
2304.0,627.018,2.095062
2308.0,627.642,2.067437
2312.0,628.273,2.0395
2316.0,628.89,2.01125
2320.0,629.517,1.983031
2324.0,630.153,1.954719
2328.0,630.777,1.926
2332.0,631.403,1.897187
2336.0,632.025,1.868031
2340.0,632.651,1.838469
2344.0,633.276,1.808906
2348.0,633.906,1.779
2352.0,634.53,1.748781
2356.0,635.159,1.718438
2360.0,635.78,1.688219
2364.0,636.405,1.657531
2368.0,637.034,1.626781
2372.0,637.661,1.595813
2376.0,638.286,1.564906
2380.0,638.913,1.533813
2384.0,639.537,1.502687
2388.0,640.164,1.471406
2392.0,640.79,1.440219
2396.0,641.426,1.409
2400.0,642.054,1.377687
2404.0,642.682,1.346594
2408.0,643.303,1.315812
2412.0,643.938,1.285
2416.0,644.567,1.254531
2420.0,645.199,1.224563
2424.0,645.834,1.194906
2428.0,646.473,1.165125
2432.0,647.103,1.136188
2436.0,647.74,1.107844
2440.0,648.372,1.079937
2444.0,649.013,1.052781
2448.0,649.652,1.026188
2452.0,650.295,1.000437
2456.0,650.939,0.975406
2460.0,651.583,0.951437
2464.0,652.231,0.928187
2468.0,652.878,0.906094
2472.0,653.529,0.885312
2476.0,654.179,0.865313
2480.0,654.826,0.8465
2484.0,655.479,0.829063
2488.0,656.131,0.813
2492.0,656.781,0.798063
2496.0,657.439,0.784375
2500.0,658.095,0.771812
2504.0,658.75,0.7605
2508.0,659.401,0.750406
2512.0,660.062,0.741313
2516.0,660.712,0.733219
2520.0,661.366,0.726
2524.0,662.022,0.719719
2528.0,662.669,0.714063
2532.0,663.326,0.709063
2536.0,663.971,0.704656
2540.0,664.617,0.700719
2544.0,665.258,0.697125
2548.0,665.908,0.693875
2552.0,666.546,0.690781
2556.0,667.18,0.687781
2560.0,667.821,0.685
2564.0,668.462,0.682219
2568.0,669.095,0.679438
2572.0,669.727,0.67675
2576.0,670.363,0.674156
2580.0,670.995,0.671625
2584.0,671.624,0.669219
2588.0,672.256,0.666812
2592.0,672.882,0.664375
2596.0,673.512,0.661906
2600.0,674.146,0.659531
2604.0,674.773,0.657094
2608.0,675.402,0.654688
2612.0,676.024,0.652406
2616.0,676.649,0.650344
2620.0,677.276,0.648094
2624.0,677.905,0.645719
2628.0,678.532,0.643719
2632.0,679.16,0.641406
2636.0,679.788,0.63925
2640.0,680.411,0.637031
2644.0,681.039,0.634781
2648.0,681.667,0.632375
2652.0,682.287,0.630437
2656.0,682.916,0.628469
2660.0,683.537,0.626156
2664.0,684.162,0.624156
2668.0,684.787,0.621969
2672.0,685.411,0.61975
2676.0,686.036,0.617688
2680.0,686.653,0.615781
2684.0,687.277,0.613656
2688.0,687.9,0.611531
2692.0,688.523,0.6095
2696.0,689.142,0.607594
2700.0,689.77,0.6055
2704.0,690.39,0.603594
2708.0,691.009,0.601687
2712.0,691.629,0.599719
2716.0,692.252,0.597656
2720.0,692.874,0.595531
2724.0,693.494,0.593875
2728.0,694.109,0.592031
2732.0,694.732,0.589969
2736.0,695.355,0.588
2740.0,695.974,0.585938
2744.0,696.597,0.584063
2748.0,697.213,0.582438
2752.0,697.84,0.5805
2756.0,698.459,0.578812
2760.0,699.075,0.576844
2764.0,699.696,0.574875
2768.0,700.317,0.573094
2772.0,700.941,0.57125
2776.0,701.557,0.569125
2780.0,702.172,0.566906
2784.0,702.792,0.565219
2788.0,703.409,0.563469
2792.0,704.025,0.561656
2796.0,704.647,0.559875
2800.0,705.266,0.558406
2804.0,705.89,0.556594
2808.0,706.51,0.554969
2812.0,707.129,0.553375
2816.0,707.746,0.551469
2820.0,708.361,0.549875
2824.0,708.983,0.548281
2828.0,709.599,0.546687
2832.0,710.216,0.545375
2836.0,710.833,0.543562
2840.0,711.451,0.542031
2844.0,712.068,0.540344
2848.0,712.693,0.538938
2852.0,713.308,0.537625
2856.0,713.922,0.535719
2860.0,714.538,0.534281
2864.0,715.158,0.532594
2868.0,715.766,0.531219
2872.0,716.388,0.529813
2876.0,717,0.528281
2880.0,717.619,0.526969
2884.0,718.234,0.525563
2888.0,718.846,0.524219
2892.0,719.465,0.523031
2896.0,720.08,0.521625
2900.0,720.698,0.520281
2904.0,721.309,0.518812
2908.0,721.93,0.517344
2912.0,722.543,0.516125
2916.0,723.152,0.514844
2920.0,723.775,0.513594
2924.0,724.385,0.512312
2928.0,725.002,0.511
2932.0,725.618,0.509594
2936.0,726.23,0.50825
2940.0,726.844,0.507281
2944.0,727.459,0.506281
2948.0,728.077,0.505031
2952.0,728.687,0.50375
2956.0,729.306,0.502625
2960.0,729.917,0.501406
2964.0,730.532,0.500406
2968.0,731.144,0.499281
2972.0,731.762,0.498281
2976.0,732.378,0.497187
2980.0,732.99,0.496125
2984.0,733.605,0.494938
2988.0,734.211,0.493844
2992.0,734.825,0.492813
2996.0,735.44,0.491937
3000.0,736.049,0.491
3004.0,736.662,0.489719
3008.0,737.272,0.488687
3012.0,737.884,0.487844
3016.0,738.499,0.486875
3020.0,739.117,0.485875
3024.0,739.73,0.485094
3028.0,740.343,0.484094
3032.0,740.953,0.483187
3036.0,741.57,0.48225
3040.0,742.177,0.48125
3044.0,742.787,0.480437
3048.0,743.401,0.479469
3052.0,744.014,0.478594
3056.0,744.624,0.477469
3060.0,745.238,0.476594
3064.0,745.847,0.475781
3068.0,746.454,0.475188
3072.0,747.063,0.474375
3076.0,747.676,0.473531
3080.0,748.287,0.472625
3084.0,748.893,0.471844
3088.0,749.504,0.471
3092.0,750.116,0.470156
3096.0,750.725,0.469312
3100.0,751.326,0.468531
3104.0,751.936,0.467906
3108.0,752.546,0.467094
3112.0,753.151,0.466375
3116.0,753.762,0.465469
3120.0,754.369,0.464812
3124.0,754.974,0.463875
3128.0,755.588,0.46325
3132.0,756.191,0.46225
3136.0,756.8,0.461563
3140.0,757.414,0.460875
3144.0,758.013,0.460281
3148.0,758.62,0.459281
3152.0,759.229,0.458375
3156.0,759.834,0.457812
3160.0,760.44,0.457156
3164.0,761.05,0.456469
3168.0,761.655,0.455813
3172.0,762.26,0.45525
3176.0,762.866,0.454531
3180.0,763.47,0.453906
3184.0,764.077,0.453094
3188.0,764.681,0.452344
3192.0,765.282,0.451594
3196.0,765.892,0.450844
3200.0,766.496,0.450281
3204.0,767.103,0.449688
3208.0,767.711,0.448938
3212.0,768.313,0.448156
3216.0,768.92,0.4475
3220.0,769.523,0.447
3224.0,770.126,0.446219
3228.0,770.73,0.445437
3232.0,771.331,0.44475
3236.0,771.937,0.444281
3240.0,772.545,0.443594
3244.0,773.145,0.443094
3248.0,773.742,0.442219
3252.0,774.348,0.44175
3256.0,774.951,0.441125
3260.0,775.555,0.440406
3264.0,776.161,0.439844
3268.0,776.768,0.439156
3272.0,777.365,0.438656
3276.0,777.971,0.437969
3280.0,778.578,0.437156
3284.0,779.178,0.436594
3288.0,779.783,0.436094
3292.0,780.383,0.4355
3296.0,780.981,0.434812
3300.0,781.582,0.434156
3304.0,782.188,0.433688
3308.0,782.79,0.432938
3312.0,783.395,0.432375
3316.0,783.995,0.431688
3320.0,784.593,0.430875
3324.0,785.201,0.430406
3328.0,785.795,0.429719
3332.0,786.396,0.429312
3336.0,786.997,0.428656
3340.0,787.594,0.428062
3344.0,788.201,0.427781
3348.0,788.8,0.427094
3352.0,789.405,0.4265
3356.0,790.008,0.425625
3360.0,790.607,0.425187
3364.0,791.204,0.424844
3368.0,791.804,0.424281
3372.0,792.412,0.423625
3376.0,793.008,0.423344
3380.0,793.604,0.422594
3384.0,794.204,0.422031
3388.0,794.806,0.421438
3392.0,795.399,0.420969
3396.0,795.996,0.420219
3400.0,796.592,0.41975
3404.0,797.189,0.419344
3408.0,797.783,0.418656
3412.0,798.376,0.417937
3416.0,798.974,0.417313
3420.0,799.575,0.416875
3424.0,800.17,0.416594
3428.0,800.763,0.415906
3432.0,801.362,0.415312
3436.0,801.954,0.414656
3440.0,802.55,0.414031
3444.0,803.138,0.413844
3448.0,803.736,0.413437
3452.0,804.329,0.41275
3456.0,804.916,0.412
3460.0,805.505,0.411469
3464.0,806.099,0.410812
3468.0,806.694,0.410531
3472.0,807.282,0.410156
3476.0,807.88,0.409594
3480.0,808.472,0.408906
3484.0,809.067,0.408312
3488.0,809.657,0.408062
3492.0,810.25,0.407375
3496.0,810.845,0.406687
3500.0,811.445,0.406125
3504.0,812.044,0.405813
3508.0,812.631,0.405313
3512.0,813.22,0.404781
3516.0,813.811,0.404219
3520.0,814.408,0.403656
3524.0,815.006,0.403281
3528.0,815.601,0.40275
3532.0,816.193,0.402187
3536.0,816.785,0.401625
3540.0,817.374,0.401125
3544.0,817.959,0.400531
3548.0,818.554,0.400125
3552.0,819.15,0.399656
3556.0,819.741,0.399031
3560.0,820.333,0.398406
3564.0,820.926,0.397938
3568.0,821.518,0.397469
3572.0,822.113,0.396781
3576.0,822.702,0.396406
3580.0,823.293,0.396125
3584.0,823.881,0.395594
3588.0,824.471,0.395156
3592.0,825.064,0.394781
3596.0,825.652,0.394094
3600.0,826.241,0.393375
3604.0,826.825,0.393281
3608.0,827.411,0.392844
3612.0,828.003,0.392281
3616.0,828.598,0.391625
3620.0,829.19,0.391125
3624.0,829.774,0.39075
3628.0,830.369,0.390188
3632.0,830.962,0.389625
3636.0,831.555,0.388969
3640.0,832.144,0.388469
3644.0,832.729,0.388125
3648.0,833.33,0.38775
3652.0,833.919,0.38725
3656.0,834.499,0.386687
3660.0,835.089,0.386469
3664.0,835.68,0.385812
3668.0,836.269,0.385156
3672.0,836.851,0.384906
3676.0,837.444,0.384625
3680.0,838.029,0.383906
3684.0,838.617,0.383531
3688.0,839.208,0.383063
3692.0,839.795,0.382406
3696.0,840.375,0.382156
3700.0,840.966,0.381781
3704.0,841.559,0.381406
3708.0,842.145,0.380656
3712.0,842.729,0.380188
3716.0,843.318,0.379594
3720.0,843.906,0.379031
3724.0,844.493,0.378563
3728.0,845.083,0.378094
3732.0,845.67,0.377688
3736.0,846.259,0.377281
3740.0,846.848,0.376969
3744.0,847.435,0.376469
3748.0,848.017,0.375906
3752.0,848.603,0.375469
3756.0,849.192,0.374969
3760.0,849.777,0.374531
3764.0,850.371,0.374031
3768.0,850.959,0.373531
3772.0,851.546,0.373094
3776.0,852.14,0.372562
3780.0,852.726,0.372094
3784.0,853.314,0.371437
3788.0,853.897,0.370969
3792.0,854.482,0.370531
3796.0,855.066,0.370219
3800.0,855.652,0.369656
3804.0,856.233,0.368969
3808.0,856.819,0.368469
3812.0,857.41,0.367938
3816.0,857.997,0.367656
3820.0,858.586,0.367
3824.0,859.176,0.366344
3828.0,859.768,0.365813
3832.0,860.353,0.365375
3836.0,860.939,0.364938
3840.0,861.525,0.364312
3844.0,862.123,0.363937
3848.0,862.703,0.363562
3852.0,863.289,0.362938
3856.0,863.872,0.362625
3860.0,864.46,0.362125
3864.0,865.047,0.361656
3868.0,865.637,0.361219
3872.0,866.224,0.360938
3876.0,866.804,0.360188
3880.0,867.39,0.359688
3884.0,867.977,0.359281
3888.0,868.563,0.358906
3892.0,869.151,0.358344
3896.0,869.734,0.357875
3900.0,870.319,0.357594
3904.0,870.9,0.357031
3908.0,871.487,0.356562
3912.0,872.071,0.356156
3916.0,872.653,0.355625
3920.0,873.231,0.355156
3924.0,873.817,0.354781
3928.0,874.407,0.354406
3932.0,874.991,0.354
3936.0,875.572,0.3535
3940.0,876.155,0.353125
3944.0,876.744,0.35275
3948.0,877.333,0.352062
3952.0,877.918,0.351563
3956.0,878.504,0.351187
3960.0,879.09,0.350688
3964.0,879.678,0.350188
3968.0,880.259,0.349781
3972.0,880.844,0.349125
3976.0,881.424,0.348844
3980.0,882.009,0.348406
3984.0,882.602,0.348062
3988.0,883.181,0.347531
3992.0,883.764,0.347062
3996.0,884.353,0.346594
4000.0,884.939,0.346219
4004.0,885.523,0.345906
4008.0,886.111,0.345469
4012.0,886.688,0.345031
4016.0,887.275,0.344656
4020.0,887.856,0.344125
4024.0,888.445,0.343719
4028.0,889.031,0.343188
4032.0,889.615,0.342813
4036.0,890.196,0.342031
4040.0,890.779,0.341688
4044.0,891.36,0.341406
4048.0,891.938,0.341
4052.0,892.518,0.340406
4056.0,893.1,0.340125
4060.0,893.683,0.339656
4064.0,894.271,0.339469
4068.0,894.852,0.339094
4072.0,895.438,0.338656
4076.0,896.019,0.338187
4080.0,896.601,0.337906
4084.0,897.183,0.337344
4088.0,897.768,0.336937
4092.0,898.351,0.336688
4096.0,898.939,0.33625
4100.0,899.516,0.335969
4104.0,900.099,0.335312
4108.0,900.681,0.334938
4112.0,901.268,0.334531
4116.0,901.846,0.334125
4120.0,902.432,0.333875
4124.0,903.015,0.333406
4128.0,903.602,0.332938
4132.0,904.184,0.332563
4136.0,904.769,0.332219
4140.0,905.351,0.331781
4144.0,905.929,0.331437
4148.0,906.515,0.331062
4152.0,907.095,0.330781
4156.0,907.676,0.330625
4160.0,908.259,0.330094
4164.0,908.843,0.329562
4168.0,909.419,0.329313
4172.0,910.003,0.328938
4176.0,910.587,0.32875
4180.0,911.166,0.328281
4184.0,911.751,0.327688
4188.0,912.331,0.327281
4192.0,912.918,0.327031
4196.0,913.505,0.326688
4200.0,914.089,0.326344
4204.0,914.672,0.325844
4208.0,915.258,0.325563
4212.0,915.845,0.325094
4216.0,916.426,0.324719
4220.0,917.01,0.324406
4224.0,917.59,0.324125
4228.0,918.171,0.323813
4232.0,918.753,0.323375
4236.0,919.335,0.323125
4240.0,919.919,0.32275
4244.0,920.506,0.322469
4248.0,921.089,0.322094
4252.0,921.67,0.321781
4256.0,922.254,0.321312
4260.0,922.837,0.320844
4264.0,923.417,0.320188
4268.0,923.998,0.32
4272.0,924.582,0.319719
4276.0,925.168,0.319375
4280.0,925.751,0.319031
4284.0,926.335,0.31875
4288.0,926.915,0.318312
4292.0,927.497,0.317969
4296.0,928.086,0.317594
4300.0,928.666,0.317375
4304.0,929.257,0.317094
4308.0,929.84,0.316812
4312.0,930.422,0.316438
4316.0,931,0.316
4320.0,931.589,0.315844
4324.0,932.173,0.315531
4328.0,932.765,0.315437
4332.0,933.349,0.315
4336.0,933.935,0.314531
4340.0,934.516,0.314063
4344.0,935.103,0.313719
4348.0,935.688,0.313406
4352.0,936.278,0.313125
4356.0,936.85,0.312813
4360.0,937.433,0.312344
4364.0,938.018,0.312063
4368.0,938.601,0.311531
4372.0,939.185,0.311188
4376.0,939.766,0.310906
4380.0,940.348,0.310594
4384.0,940.93,0.31025
4388.0,941.506,0.309875
4392.0,942.08,0.309781
4396.0,942.66,0.309438
4400.0,943.236,0.309156
4404.0,943.811,0.309094
4408.0,944.394,0.308719
4412.0,944.973,0.30825
4416.0,945.551,0.308125
4420.0,946.126,0.307875
4424.0,946.701,0.307687
4428.0,947.28,0.307219
4432.0,947.86,0.307063
4436.0,948.438,0.30675
4440.0,949.013,0.306281
4444.0,949.592,0.305969
4448.0,950.171,0.305781
4452.0,950.751,0.305594
4456.0,951.333,0.305219
4460.0,951.917,0.305
4464.0,952.497,0.30475
4468.0,953.071,0.304563
4472.0,953.651,0.304219
4476.0,954.234,0.303813
4480.0,954.813,0.303688
4484.0,955.391,0.303469
4488.0,955.974,0.303219
4492.0,956.554,0.302906
4496.0,957.135,0.302625
4500.0,957.717,0.302312
4504.0,958.301,0.302188
4508.0,958.879,0.301688
4512.0,959.461,0.301344
4516.0,960.043,0.301094
4520.0,960.627,0.300906
4524.0,961.203,0.300312
4528.0,961.782,0.300156
4532.0,962.36,0.299875
4536.0,962.939,0.299563
4540.0,963.525,0.299
4544.0,964.1,0.298781
4548.0,964.676,0.298656
4552.0,965.254,0.298187
4556.0,965.829,0.297719
4560.0,966.408,0.297563
4564.0,966.987,0.297219
4568.0,967.564,0.296969
4572.0,968.139,0.2965
4576.0,968.72,0.296219
4580.0,969.294,0.296219
4584.0,969.875,0.295844
4588.0,970.445,0.2955
4592.0,971.032,0.295281
4596.0,971.617,0.294844
4600.0,972.193,0.294781
4604.0,972.775,0.294375
4608.0,973.357,0.294094
4612.0,973.94,0.293875
4616.0,974.52,0.293844
4620.0,975.1,0.293563
4624.0,975.687,0.293531
4628.0,976.264,0.293063
4632.0,976.843,0.292688
4636.0,977.422,0.292281
4640.0,978.008,0.292
4644.0,978.587,0.29175
4648.0,979.174,0.291687
4652.0,979.756,0.291469
4656.0,980.339,0.291312
4660.0,980.925,0.291
4664.0,981.507,0.290437
4668.0,982.088,0.290188
4672.0,982.677,0.289969
4676.0,983.261,0.28975
4680.0,983.843,0.289281
4684.0,984.422,0.289031
4688.0,984.999,0.288906
4692.0,985.58,0.28875
4696.0,986.159,0.288594
4700.0,986.741,0.288281
4704.0,987.32,0.288125
4708.0,987.901,0.287562
4712.0,988.482,0.28725
4716.0,989.06,0.287031
4720.0,989.643,0.286813
4724.0,990.224,0.286687
4728.0,990.804,0.286312
4732,991.382,0.286
4736,991.962,0.28575
4740,992.548,0.2855
4744,993.123,0.285219
4748,993.702,0.285125
4752,994.288,0.284687
4756,994.865,0.284469
4760,995.445,0.284344
4764,996.033,0.284156
4768,996.61,0.283781
4772,997.186,0.283437
4776,997.766,0.28325
4780,998.345,0.283
4784,998.924,0.28275
4788,999.507,0.282719
4792,999.99,0.282406