File: Wood/Calibration_Data/TUT/TUT_TGA_N2_10K_40Pa_R3.csv
Time (s),Temperature (K),Mass (mg)
0.0,299.573,4.926406
4.0,299.57,4.926531
8.0,299.574,4.92675
12.0,299.572,4.92675
16.0,299.57,4.927125
20.0,299.57,4.927406
24.0,299.575,4.927875
28.0,299.577,4.928031
32.0,299.579,4.928406
36.0,299.57,4.928469
40.0,299.578,4.9285
44.0,299.578,4.9285
48.0,299.59,4.928531
52.0,299.599,4.928719
56.0,299.615,4.928844
60.0,299.627,4.929
64.0,299.649,4.928906
68.0,299.672,4.928937
72.0,299.712,4.928937
76.0,299.742,4.928969
80.0,299.784,4.928906
84.0,299.835,4.929031
88.0,299.884,4.929031
92.0,299.943,4.929
96.0,300.002,4.929
100.0,300.086,4.929094
104.0,300.165,4.929156
108.0,300.254,4.929281
112.0,300.356,4.929313
116.0,300.464,4.929469
120.0,300.58,4.929375
124.0,300.707,4.929469
128.0,300.849,4.929625
132.0,300.995,4.9295
136.0,301.158,4.929469
140.0,301.327,4.929625
144.0,301.501,4.9295
148.0,301.686,4.929438
152.0,301.875,4.929438
156.0,302.079,4.9295
160.0,302.295,4.9295
164.0,302.514,4.929563
168.0,302.749,4.929531
172.0,302.991,4.929563
176.0,303.248,4.92975
180.0,303.508,4.929531
184.0,303.78,4.929594
188.0,304.054,4.929563
192.0,304.338,4.9295
196.0,304.642,4.929469
200.0,304.943,4.929344
204.0,305.267,4.929438
208.0,305.588,4.929594
212.0,305.919,4.929375
216.0,306.248,4.929531
220.0,306.595,4.929469
224.0,306.961,4.929656
228.0,307.323,4.929688
232.0,307.688,4.929531
236.0,308.053,4.929281
240.0,308.443,4.929187
244.0,308.825,4.929187
248.0,309.222,4.929125
252.0,309.622,4.929156
256.0,310.025,4.929062
260.0,310.443,4.928906
264.0,310.861,4.929156
268.0,311.287,4.928969
272.0,311.713,4.928969
276.0,312.143,4.928969
280.0,312.582,4.92875
284.0,313.018,4.928688
288.0,313.48,4.928469
292.0,313.936,4.928563
296.0,314.404,4.928625
300.0,314.879,4.928625
304.0,315.35,4.928625
308.0,315.82,4.928438
312.0,316.303,4.928312
316.0,316.779,4.928219
320.0,317.276,4.928062
324.0,317.77,4.927844
328.0,318.275,4.92775
332.0,318.774,4.927656
336.0,319.282,4.927625
340.0,319.786,4.927563
344.0,320.297,4.927187
348.0,320.805,4.92725
352.0,321.328,4.927344
356.0,321.841,4.92725
360.0,322.362,4.926969
364.0,322.889,4.926906
368.0,323.425,4.9265
372.0,323.951,4.926437
376.0,324.486,4.926437
380.0,325.028,4.926469
384.0,325.564,4.926188
388.0,326.11,4.926
392.0,326.655,4.925906
396.0,327.204,4.925625
400.0,327.748,4.925594
404.0,328.304,4.925344
408.0,328.855,4.925281
412.0,329.41,4.924969
416.0,329.979,4.924812
420.0,330.54,4.924875
424.0,331.104,4.924594
428.0,331.663,4.924687
432.0,332.235,4.924406
436.0,332.809,4.924094
440.0,333.377,4.924
444.0,333.952,4.923844
448.0,334.524,4.923719
452.0,335.099,4.923531
456.0,335.663,4.923438
460.0,336.248,4.923438
464.0,336.832,4.923406
468.0,337.409,4.92325
472.0,337.99,4.923156
476.0,338.578,4.923
480.0,339.167,4.922812
484.0,339.745,4.922688
488.0,340.331,4.922563
492.0,340.921,4.922344
496.0,341.509,4.922281
500.0,342.098,4.922187
504.0,342.689,4.922031
508.0,343.289,4.921906
512.0,343.88,4.921875
516.0,344.479,4.921688
520.0,345.068,4.921563
524.0,345.667,4.921344
528.0,346.274,4.921094
532.0,346.868,4.921031
536.0,347.469,4.920813
540.0,348.068,4.920813
544.0,348.673,4.920656
548.0,349.272,4.920312
552.0,349.876,4.920156
556.0,350.475,4.920125
560.0,351.09,4.920031
564.0,351.696,4.919813
568.0,352.292,4.919781
572.0,352.892,4.919813
576.0,353.5,4.919406
580.0,354.109,4.919188
584.0,354.71,4.919188
588.0,355.312,4.919
592.0,355.924,4.918656
596.0,356.538,4.9185
600.0,357.146,4.918344
604.0,357.752,4.918188
608.0,358.358,4.917969
612.0,358.976,4.91775
616.0,359.588,4.917594
620.0,360.194,4.917438
624.0,360.802,4.917031
628.0,361.412,4.916844
632.0,362.019,4.916531
636.0,362.635,4.916469
640.0,363.248,4.916156
644.0,363.861,4.915875
648.0,364.479,4.915656
652.0,365.088,4.915125
656.0,365.699,4.914906
660.0,366.318,4.914594
664.0,366.929,4.914219
668.0,367.544,4.914094
672.0,368.158,4.913688
676.0,368.78,4.913281
680.0,369.398,4.912875
684.0,370.012,4.9125
688.0,370.632,4.912094
692.0,371.25,4.911656
696.0,371.867,4.911156
700.0,372.494,4.910594
704.0,373.098,4.910188
708.0,373.709,4.909688
712.0,374.331,4.909156
716.0,374.945,4.908719
720.0,375.565,4.908156
724.0,376.187,4.907563
728.0,376.806,4.907031
732.0,377.418,4.906469
736.0,378.036,4.905844
740.0,378.66,4.905094
744.0,379.282,4.904531
748.0,379.9,4.903594
752.0,380.536,4.902969
756.0,381.15,4.902219
760.0,381.764,4.90175
764.0,382.378,4.900844
768.0,383.002,4.900063
772.0,383.622,4.89925
776.0,384.245,4.898594
780.0,384.861,4.89775
784.0,385.482,4.896781
788.0,386.1,4.895937
792.0,386.72,4.895094
796.0,387.35,4.894031
800.0,387.978,4.893031
804.0,388.599,4.891938
808.0,389.223,4.890875
812.0,389.844,4.889844
816.0,390.467,4.888875
820.0,391.081,4.887719
824.0,391.706,4.8865
828.0,392.326,4.885344
832.0,392.95,4.884219
836.0,393.568,4.883062
840.0,394.191,4.881875
844.0,394.817,4.880594
848.0,395.437,4.87925
852.0,396.07,4.877906
856.0,396.687,4.876594
860.0,397.308,4.875438
864.0,397.932,4.874
868.0,398.56,4.87275
872.0,399.186,4.871406
876.0,399.814,4.870031
880.0,400.433,4.86875
884.0,401.054,4.867406
888.0,401.693,4.866125
892.0,402.315,4.864719
896.0,402.944,4.8635
900.0,403.564,4.862281
904.0,404.197,4.861125
908.0,404.822,4.859938
912.0,405.449,4.858812
916.0,406.076,4.857625
920.0,406.698,4.856438
924.0,407.327,4.855281
928.0,407.955,4.854469
932.0,408.585,4.853406
936.0,409.221,4.852281
940.0,409.852,4.851375
944.0,410.473,4.850406
948.0,411.104,4.849344
952.0,411.725,4.848344
956.0,412.354,4.847469
960.0,412.99,4.846562
964.0,413.617,4.846063
968.0,414.25,4.845156
972.0,414.869,4.844188
976.0,415.496,4.843438
980.0,416.129,4.842656
984.0,416.765,4.841969
988.0,417.392,4.841219
992.0,418.023,4.840531
996.0,418.663,4.839969
1000.0,419.29,4.839281
1004.0,419.919,4.838719
1008.0,420.549,4.838
1012.0,421.181,4.83725
1016.0,421.812,4.836719
1020.0,422.447,4.836031
1024.0,423.077,4.83525
1028.0,423.704,4.834406
1032.0,424.337,4.833687
1036.0,424.969,4.833313
1040.0,425.605,4.832625
1044.0,426.233,4.832
1048.0,426.861,4.831281
1052.0,427.495,4.830969
1056.0,428.135,4.83025
1060.0,428.765,4.829594
1064.0,429.394,4.828875
1068.0,430.031,4.828375
1072.0,430.663,4.827719
1076.0,431.301,4.827125
1080.0,431.926,4.826594
1084.0,432.56,4.825781
1088.0,433.198,4.824937
1092.0,433.824,4.824375
1096.0,434.456,4.823656
1100.0,435.078,4.822969
1104.0,435.709,4.822281
1108.0,436.356,4.821531
1112.0,436.993,4.820719
1116.0,437.621,4.819938
1120.0,438.253,4.81925
1124.0,438.884,4.818406
1128.0,439.522,4.817406
1132.0,440.151,4.816656
1136.0,440.787,4.815938
1140.0,441.422,4.815156
1144.0,442.052,4.814188
1148.0,442.693,4.813344
1152.0,443.318,4.812594
1156.0,443.957,4.811875
1160.0,444.602,4.811062
1164.0,445.236,4.810125
1168.0,445.865,4.80925
1172.0,446.499,4.808656
1176.0,447.137,4.807969
1180.0,447.777,4.80675
1184.0,448.418,4.805719
1188.0,449.049,4.804688
1192.0,449.686,4.803875
1196.0,450.324,4.802813
1200.0,450.967,4.801719
1204.0,451.597,4.800656
1208.0,452.233,4.799812
1212.0,452.867,4.798594
1216.0,453.5,4.7975
1220.0,454.143,4.796406
1224.0,454.772,4.795281
1228.0,455.411,4.794094
1232.0,456.044,4.793125
1236.0,456.685,4.792031
1240.0,457.323,4.790688
1244.0,457.966,4.789469
1248.0,458.599,4.788063
1252.0,459.236,4.787
1256.0,459.867,4.785375
1260.0,460.511,4.784125
1264.0,461.142,4.782875
1268.0,461.78,4.7815
1272.0,462.424,4.780156
1276.0,463.062,4.778781
1280.0,463.698,4.777281
1284.0,464.337,4.775688
1288.0,464.981,4.773969
1292.0,465.614,4.772344
1296.0,466.239,4.771
1300.0,466.882,4.769437
1304.0,467.511,4.767781
1308.0,468.153,4.765906
1312.0,468.794,4.764281
1316.0,469.431,4.762375
1320.0,470.067,4.760437
1324.0,470.705,4.758687
1328.0,471.345,4.756719
1332.0,471.984,4.755063
1336.0,472.623,4.753094
1340.0,473.263,4.751125
1344.0,473.9,4.749
1348.0,474.535,4.747125
1352.0,475.173,4.745
1356.0,475.812,4.742906
1360.0,476.447,4.740562
1364.0,477.088,4.7385
1368.0,477.731,4.736187
1372.0,478.364,4.734031
1376.0,479.002,4.73175
1380.0,479.636,4.729281
1384.0,480.271,4.726937
1388.0,480.914,4.724438
1392.0,481.551,4.72175
1396.0,482.193,4.719281
1400.0,482.835,4.716969
1404.0,483.471,4.714344
1408.0,484.106,4.711563
1412.0,484.742,4.708938
1416.0,485.387,4.706375
1420.0,486.027,4.703437
1424.0,486.667,4.700687
1428.0,487.307,4.69775
1432.0,487.942,4.694844
1436.0,488.58,4.691969
1440.0,489.219,4.689
1444.0,489.86,4.685906
1448.0,490.497,4.68275
1452.0,491.134,4.679563
1456.0,491.777,4.676625
1460.0,492.411,4.673469
1464.0,493.055,4.670063
1468.0,493.698,4.666812
1472.0,494.332,4.663531
1476.0,494.976,4.660438
1480.0,495.612,4.656719
1484.0,496.257,4.653156
1488.0,496.887,4.649813
1492.0,497.533,4.646156
1496.0,498.172,4.642594
1500.0,498.805,4.639
1504.0,499.447,4.635188
1508.0,500.099,4.631437
1512.0,500.728,4.627656
1516.0,501.366,4.62375
1520.0,502.007,4.619844
1524.0,502.647,4.615719
1528.0,503.286,4.611719
1532.0,503.932,4.607563
1536.0,504.573,4.603312
1540.0,505.213,4.599062
1544.0,505.853,4.594656
1548.0,506.493,4.590437
1552.0,507.131,4.586031
1556.0,507.772,4.581656
1560.0,508.412,4.577094
1564.0,509.048,4.572656
1568.0,509.693,4.568219
1572.0,510.332,4.563344
1576.0,510.969,4.558344
1580.0,511.617,4.553656
1584.0,512.254,4.548844
1588.0,512.891,4.54375
1592.0,513.533,4.538906
1596.0,514.165,4.533844
1600.0,514.803,4.528531
1604.0,515.45,4.523344
1608.0,516.084,4.518031
1612.0,516.722,4.512813
1616.0,517.37,4.507406
1620.0,518.002,4.501906
1624.0,518.636,4.4965
1628.0,519.285,4.490844
1632.0,519.922,4.485219
1636.0,520.565,4.479656
1640.0,521.21,4.473719
1644.0,521.847,4.467875
1648.0,522.486,4.462094
1652.0,523.125,4.456375
1656.0,523.767,4.450375
1660.0,524.409,4.444469
1664.0,525.046,4.438625
1668.0,525.682,4.432469
1672.0,526.321,4.426219
1676.0,526.962,4.420094
1680.0,527.599,4.413844
1684.0,528.237,4.407719
1688.0,528.877,4.401625
1692.0,529.515,4.39525
1696.0,530.153,4.388969
1700.0,530.799,4.382438
1704.0,531.44,4.376
1708.0,532.073,4.369563
1712.0,532.714,4.363031
1716.0,533.356,4.356406
1720.0,534.001,4.349719
1724.0,534.635,4.343344
1728.0,535.272,4.336594
1732.0,535.91,4.32975
1736.0,536.555,4.322875
1740.0,537.192,4.316
1744.0,537.832,4.308969
1748.0,538.479,4.301813
1752.0,539.111,4.29475
1756.0,539.75,4.287625
1760.0,540.388,4.280375
1764.0,541.021,4.273188
1768.0,541.658,4.265594
1772.0,542.294,4.258187
1776.0,542.938,4.250688
1780.0,543.572,4.243125
1784.0,544.21,4.235344
1788.0,544.849,4.22775
1792.0,545.484,4.22
1796.0,546.128,4.212219
1800.0,546.77,4.203844
1804.0,547.414,4.195844
1808.0,548.05,4.187531
1812.0,548.686,4.179344
1816.0,549.313,4.170844
1820.0,549.951,4.162375
1824.0,550.592,4.154062
1828.0,551.226,4.145438
1832.0,551.866,4.136406
1836.0,552.506,4.127406
1840.0,553.136,4.118406
1844.0,553.775,4.109188
1848.0,554.412,4.100219
1852.0,555.041,4.091031
1856.0,555.684,4.081469
1860.0,556.32,4.071875
1864.0,556.953,4.062094
1868.0,557.588,4.052531
1872.0,558.226,4.042687
1876.0,558.863,4.032563
1880.0,559.496,4.022313
1884.0,560.129,4.012
1888.0,560.767,4.001719
1892.0,561.398,3.991031
1896.0,562.037,3.980469
1900.0,562.676,3.969687
1904.0,563.31,3.958625
1908.0,563.944,3.947625
1912.0,564.578,3.9365
1916.0,565.21,3.92525
1920.0,565.846,3.913844
1924.0,566.486,3.901969
1928.0,567.113,3.89025
1932.0,567.755,3.878344
1936.0,568.383,3.866281
1940.0,569.019,3.854
1944.0,569.655,3.841656
1948.0,570.298,3.829094
1952.0,570.929,3.816469
1956.0,571.565,3.803531
1960.0,572.198,3.790812
1964.0,572.836,3.777563
1968.0,573.471,3.764031
1972.0,574.109,3.750813
1976.0,574.746,3.737313
1980.0,575.379,3.723438
1984.0,576.01,3.709625
1988.0,576.648,3.695344
1992.0,577.28,3.681094
1996.0,577.911,3.666687
2000.0,578.547,3.652281
2004.0,579.185,3.637406
2008.0,579.815,3.622469
2012.0,580.453,3.607219
2016.0,581.094,3.591938
2020.0,581.724,3.576688
2024.0,582.36,3.561125
2028.0,582.99,3.545344
2032.0,583.622,3.5295
2036.0,584.259,3.513313
2040.0,584.889,3.497219
2044.0,585.52,3.480781
2048.0,586.157,3.464313
2052.0,586.795,3.4475
2056.0,587.426,3.430719
2060.0,588.06,3.413687
2064.0,588.687,3.396344
2068.0,589.318,3.379094
2072.0,589.947,3.361375
2076.0,590.585,3.343531
2080.0,591.224,3.325875
2084.0,591.857,3.307781
2088.0,592.486,3.289469
2092.0,593.121,3.271125
2096.0,593.752,3.252531
2100.0,594.378,3.233875
2104.0,595.011,3.215
2108.0,595.647,3.196094
2112.0,596.271,3.177156
2116.0,596.908,3.157938
2120.0,597.538,3.1385
2124.0,598.171,3.119062
2128.0,598.807,3.099437
2132.0,599.44,3.079531
2136.0,600.07,3.059531
2140.0,600.709,3.039406
2144.0,601.342,3.019156
2148.0,601.973,2.998656
2152.0,602.605,2.978031
2156.0,603.231,2.957281
2160.0,603.863,2.936375
2164.0,604.494,2.915531
2168.0,605.123,2.89425
2172.0,605.763,2.87325
2176.0,606.402,2.851813
2180.0,607.03,2.830469
2184.0,607.66,2.808844
2188.0,608.29,2.787188
2192.0,608.916,2.765031
2196.0,609.554,2.743125
2200.0,610.184,2.721219
2204.0,610.81,2.698719
2208.0,611.439,2.676344
2212.0,612.072,2.653719
2216.0,612.707,2.631156
2220.0,613.339,2.608125
2224.0,613.966,2.585219
2228.0,614.595,2.562156
2232.0,615.228,2.538969
2236.0,615.861,2.5155
2240.0,616.492,2.491969
2244.0,617.121,2.468219
2248.0,617.749,2.444469
2252.0,618.382,2.420312
2256.0,619.012,2.396219
2260.0,619.643,2.371719
2264.0,620.275,2.347312
2268.0,620.895,2.322375
2272.0,621.529,2.297625
2276.0,622.158,2.2725
2280.0,622.787,2.247125
2284.0,623.413,2.221688
2288.0,624.038,2.195875
2292.0,624.667,2.169906
2296.0,625.299,2.143531
2300.0,625.918,2.117125
2304.0,626.55,2.090406
2308.0,627.176,2.063688
2312.0,627.806,2.036406
2316.0,628.423,2.009156
2320.0,629.049,1.981531
2324.0,629.681,1.95375
2328.0,630.301,1.925875
2332.0,630.921,1.897594
2336.0,631.545,1.869125
2340.0,632.176,1.840469
2344.0,632.8,1.811719
2348.0,633.421,1.782344
2352.0,634.049,1.752938
2356.0,634.679,1.723594
2360.0,635.301,1.693938
2364.0,635.927,1.663875
2368.0,636.557,1.633906
2372.0,637.187,1.603656
2376.0,637.809,1.57325
2380.0,638.437,1.542875
2384.0,639.06,1.512219
2388.0,639.689,1.481594
2392.0,640.32,1.451156
2396.0,640.951,1.420313
2400.0,641.583,1.389781
2404.0,642.206,1.359313
2408.0,642.837,1.329062
2412.0,643.469,1.298687
2416.0,644.097,1.268781
2420.0,644.731,1.239063
2424.0,645.365,1.209437
2428.0,645.995,1.180281
2432.0,646.633,1.151312
2436.0,647.264,1.123062
2440.0,647.902,1.095406
2444.0,648.544,1.068187
2448.0,649.183,1.041563
2452.0,649.82,1.015656
2456.0,650.457,0.9905
2460.0,651.104,0.966375
2464.0,651.746,0.943156
2468.0,652.396,0.920594
2472.0,653.045,0.899281
2476.0,653.69,0.879156
2480.0,654.339,0.86
2484.0,654.99,0.841906
2488.0,655.643,0.825094
2492.0,656.296,0.809469
2496.0,656.948,0.79525
2500.0,657.598,0.781937
2504.0,658.259,0.770031
2508.0,658.916,0.759313
2512.0,659.57,0.749625
2516.0,660.22,0.741
2520.0,660.873,0.733406
2524.0,661.53,0.726687
2528.0,662.179,0.720688
2532.0,662.827,0.715219
2536.0,663.48,0.710656
2540.0,664.124,0.706531
2544.0,664.771,0.702688
2548.0,665.418,0.699313
2552.0,666.053,0.69625
2556.0,666.698,0.693156
2560.0,667.337,0.690281
2564.0,667.979,0.687625
2568.0,668.614,0.684906
2572.0,669.252,0.682406
2576.0,669.883,0.679875
2580.0,670.516,0.677469
2584.0,671.15,0.674844
2588.0,671.78,0.672687
2592.0,672.411,0.670344
2596.0,673.043,0.668031
2600.0,673.666,0.665688
2604.0,674.294,0.663437
2608.0,674.924,0.661156
2612.0,675.565,0.658906
2616.0,676.199,0.65675
2620.0,676.826,0.654437
2624.0,677.449,0.652156
2628.0,678.08,0.650125
2632.0,678.707,0.647812
2636.0,679.334,0.645844
2640.0,679.961,0.643656
2644.0,680.579,0.641437
2648.0,681.204,0.639281
2652.0,681.83,0.637344
2656.0,682.458,0.635344
2660.0,683.083,0.633156
2664.0,683.711,0.631031
2668.0,684.333,0.629219
2672.0,684.965,0.627187
2676.0,685.591,0.625094
2680.0,686.214,0.62325
2684.0,686.84,0.62125
2688.0,687.461,0.619313
2692.0,688.087,0.617188
2696.0,688.709,0.615156
2700.0,689.337,0.613187
2704.0,689.966,0.611406
2708.0,690.585,0.609312
2712.0,691.211,0.607344
2716.0,691.836,0.605438
2720.0,692.457,0.603375
2724.0,693.082,0.601625
2728.0,693.704,0.599594
2732.0,694.324,0.597625
2736.0,694.941,0.595719
2740.0,695.564,0.593938
2744.0,696.188,0.592125
2748.0,696.811,0.590031
2752.0,697.423,0.588375
2756.0,698.048,0.5865
2760.0,698.671,0.584844
2764.0,699.289,0.583
2768.0,699.906,0.581125
2772.0,700.527,0.579313
2776.0,701.145,0.577438
2780.0,701.766,0.5755
2784.0,702.385,0.57375
2788.0,703.007,0.572125
2792.0,703.629,0.570437
2796.0,704.245,0.568625
2800.0,704.867,0.566781
2804.0,705.491,0.565031
2808.0,706.111,0.56325
2812.0,706.733,0.561469
2816.0,707.354,0.559875
2820.0,707.971,0.558312
2824.0,708.591,0.556469
2828.0,709.21,0.554656
2832.0,709.835,0.553062
2836.0,710.45,0.551375
2840.0,711.07,0.549812
2844.0,711.694,0.548063
2848.0,712.316,0.546375
2852.0,712.93,0.544844
2856.0,713.553,0.543312
2860.0,714.17,0.541625
2864.0,714.79,0.539937
2868.0,715.411,0.538344
2872.0,716.033,0.536625
2876.0,716.653,0.535281
2880.0,717.274,0.533594
2884.0,717.889,0.531969
2888.0,718.509,0.530594
2892.0,719.13,0.528844
2896.0,719.739,0.527375
2900.0,720.359,0.526156
2904.0,720.979,0.524688
2908.0,721.603,0.522844
2912.0,722.214,0.521344
2916.0,722.828,0.519875
2920.0,723.443,0.518125
2924.0,724.059,0.517
2928.0,724.678,0.515562
2932.0,725.291,0.51425
2936.0,725.916,0.512563
2940.0,726.533,0.511406
2944.0,727.149,0.509687
2948.0,727.769,0.507969
2952.0,728.388,0.506719
2956.0,729.005,0.505344
2960.0,729.618,0.503812
2964.0,730.239,0.502375
2968.0,730.855,0.50125
2972.0,731.465,0.49975
2976.0,732.088,0.49825
2980.0,732.702,0.497094
2984.0,733.313,0.495719
2988.0,733.925,0.494375
2992.0,734.54,0.492875
2996.0,735.154,0.491625
3000.0,735.767,0.490594
3004.0,736.382,0.489344
3008.0,736.988,0.487781
3012.0,737.607,0.486688
3016.0,738.22,0.485469
3020.0,738.835,0.484281
3024.0,739.448,0.483031
3028.0,740.056,0.481875
3032.0,740.664,0.48075
3036.0,741.279,0.479469
3040.0,741.884,0.478156
3044.0,742.496,0.477031
3048.0,743.106,0.476281
3052.0,743.719,0.475344
3056.0,744.329,0.474219
3060.0,744.935,0.473281
3064.0,745.547,0.472062
3068.0,746.157,0.471
3072.0,746.764,0.47025
3076.0,747.373,0.46925
3080.0,747.983,0.468375
3084.0,748.594,0.467438
3088.0,749.204,0.466437
3092.0,749.82,0.465656
3096.0,750.427,0.464812
3100.0,751.033,0.464
3104.0,751.643,0.463281
3108.0,752.256,0.462656
3112.0,752.86,0.461656
3116.0,753.472,0.460875
3120.0,754.083,0.460063
3124.0,754.691,0.459375
3128.0,755.308,0.458625
3132.0,755.916,0.458031
3136.0,756.517,0.457344
3140.0,757.129,0.456625
3144.0,757.742,0.455938
3148.0,758.355,0.455156
3152.0,758.97,0.454281
3156.0,759.581,0.453469
3160.0,760.191,0.453
3164.0,760.803,0.452406
3168.0,761.413,0.451813
3172.0,762.022,0.451156
3176.0,762.635,0.450312
3180.0,763.241,0.449656
3184.0,763.85,0.449219
3188.0,764.46,0.4485
3192.0,765.07,0.447688
3196.0,765.684,0.446938
3200.0,766.284,0.446406
3204.0,766.894,0.445625
3208.0,767.5,0.444781
3212.0,768.104,0.444125
3216.0,768.714,0.443375
3220.0,769.318,0.442969
3224.0,769.927,0.442469
3228.0,770.532,0.441844
3232.0,771.14,0.441219
3236.0,771.744,0.440625
3240.0,772.342,0.440125
3244.0,772.95,0.439281
3248.0,773.555,0.438656
3252.0,774.158,0.438
3256.0,774.763,0.437594
3260.0,775.372,0.437063
3264.0,775.976,0.436406
3268.0,776.588,0.43575
3272.0,777.186,0.435062
3276.0,777.795,0.434594
3280.0,778.401,0.434
3284.0,779.003,0.433562
3288.0,779.61,0.432781
3292.0,780.217,0.432063
3296.0,780.826,0.431625
3300.0,781.426,0.430781
3304.0,782.027,0.430344
3308.0,782.636,0.429656
3312.0,783.243,0.429094
3316.0,783.841,0.4285
3320.0,784.445,0.428
3324.0,785.05,0.427563
3328.0,785.659,0.426781
3332.0,786.263,0.426125
3336.0,786.868,0.4255
3340.0,787.47,0.425031
3344.0,788.073,0.424406
3348.0,788.68,0.42375
3352.0,789.285,0.423156
3356.0,789.894,0.422625
3360.0,790.497,0.421813
3364.0,791.109,0.42125
3368.0,791.708,0.420438
3372.0,792.314,0.419875
3376.0,792.914,0.419375
3380.0,793.518,0.418813
3384.0,794.119,0.418
3388.0,794.721,0.417469
3392.0,795.324,0.416906
3396.0,795.921,0.416219
3400.0,796.513,0.4155
3404.0,797.119,0.415
3408.0,797.721,0.414438
3412.0,798.321,0.413906
3416.0,798.924,0.413156
3420.0,799.524,0.412594
3424.0,800.122,0.412031
3428.0,800.72,0.411344
3432.0,801.323,0.410594
3436.0,801.923,0.410219
3440.0,802.526,0.409875
3444.0,803.125,0.409156
3448.0,803.729,0.408531
3452.0,804.331,0.407781
3456.0,804.929,0.407313
3460.0,805.534,0.406875
3464.0,806.14,0.406
3468.0,806.744,0.405281
3472.0,807.345,0.404656
3476.0,807.948,0.404125
3480.0,808.552,0.403594
3484.0,809.158,0.402781
3488.0,809.763,0.402125
3492.0,810.367,0.401469
3496.0,810.977,0.40075
3500.0,811.574,0.400094
3504.0,812.183,0.3995
3508.0,812.785,0.398937
3512.0,813.389,0.398313
3516.0,813.994,0.397656
3520.0,814.597,0.397094
3524.0,815.2,0.396344
3528.0,815.803,0.395875
3532.0,816.408,0.395187
3536.0,817.006,0.394625
3540.0,817.608,0.394031
3544.0,818.207,0.39325
3548.0,818.808,0.392687
3552.0,819.415,0.391969
3556.0,820.022,0.39125
3560.0,820.622,0.390719
3564.0,821.218,0.390188
3568.0,821.823,0.389375
3572.0,822.422,0.388844
3576.0,823.022,0.388
3580.0,823.619,0.387281
3584.0,824.221,0.386656
3588.0,824.822,0.385969
3592.0,825.426,0.385375
3596.0,826.028,0.384562
3600.0,826.635,0.383938
3604.0,827.231,0.383219
3608.0,827.834,0.382594
3612.0,828.436,0.381906
3616.0,829.035,0.381219
3620.0,829.637,0.380531
3624.0,830.24,0.37975
3628.0,830.842,0.379094
3632.0,831.442,0.378469
3636.0,832.04,0.377906
3640.0,832.642,0.377125
3644.0,833.241,0.376375
3648.0,833.835,0.375625
3652.0,834.433,0.375156
3656.0,835.03,0.374312
3660.0,835.629,0.37375
3664.0,836.225,0.372969
3668.0,836.828,0.37225
3672.0,837.423,0.371469
3676.0,838.018,0.370937
3680.0,838.611,0.370125
3684.0,839.208,0.369375
3688.0,839.803,0.368562
3692.0,840.394,0.367813
3696.0,840.986,0.367063
3700.0,841.584,0.366406
3704.0,842.18,0.365656
3708.0,842.771,0.365063
3712.0,843.362,0.36425
3716.0,843.959,0.363594
3720.0,844.55,0.362906
3724.0,845.143,0.362281
3728.0,845.729,0.361406
3732.0,846.325,0.360656
3736.0,846.924,0.359906
3740.0,847.515,0.359281
3744.0,848.109,0.358594
3748.0,848.703,0.357906
3752.0,849.294,0.357031
3756.0,849.891,0.356344
3760.0,850.482,0.355781
3764.0,851.073,0.355094
3768.0,851.671,0.354438
3772.0,852.271,0.353687
3776.0,852.867,0.352906
3780.0,853.459,0.352219
3784.0,854.056,0.351531
3788.0,854.65,0.350875
3792.0,855.244,0.350125
3796.0,855.839,0.349406
3800.0,856.431,0.348781
3804.0,857.031,0.347875
3808.0,857.621,0.347313
3812.0,858.218,0.346656
3816.0,858.817,0.345719
3820.0,859.414,0.344938
3824.0,860.009,0.34425
3828.0,860.603,0.3435
3832.0,861.201,0.342875
3836.0,861.799,0.341938
3840.0,862.397,0.341219
3844.0,862.988,0.340531
3848.0,863.581,0.33975
3852.0,864.177,0.339
3856.0,864.771,0.338375
3860.0,865.368,0.337625
3864.0,865.963,0.337031
3868.0,866.558,0.336375
3872.0,867.15,0.335781
3876.0,867.746,0.335
3880.0,868.344,0.334156
3884.0,868.931,0.333375
3888.0,869.525,0.332719
3892.0,870.114,0.332031
3896.0,870.703,0.3315
3900.0,871.293,0.330906
3904.0,871.882,0.330063
3908.0,872.476,0.329375
3912.0,873.063,0.328625
3916.0,873.65,0.327969
3920.0,874.236,0.327469
3924.0,874.823,0.326844
3928.0,875.41,0.325938
3932.0,875.995,0.325219
3936.0,876.589,0.3245
3940.0,877.174,0.323906
3944.0,877.766,0.323125
3948.0,878.357,0.322375
3952.0,878.947,0.32175
3956.0,879.544,0.321156
3960.0,880.137,0.320344
3964.0,880.731,0.319531
3968.0,881.322,0.318781
3972.0,881.92,0.318219
3976.0,882.512,0.317375
3980.0,883.106,0.316687
3984.0,883.7,0.316125
3988.0,884.29,0.315281
3992.0,884.883,0.314594
3996.0,885.488,0.314031
4000.0,886.084,0.313625
4004.0,886.681,0.312844
4008.0,887.271,0.312031
4012.0,887.86,0.311281
4016.0,888.465,0.310781
4020.0,889.059,0.309969
4024.0,889.654,0.309438
4028.0,890.252,0.308719
4032.0,890.845,0.307906
4036.0,891.441,0.307125
4040.0,892.037,0.306563
4044.0,892.629,0.306094
4048.0,893.222,0.305344
4052.0,893.818,0.304719
4056.0,894.418,0.304062
4060.0,895.011,0.303344
4064.0,895.614,0.302625
4068.0,896.205,0.302
4072.0,896.794,0.301344
4076.0,897.384,0.300656
4080.0,897.978,0.299969
4084.0,898.569,0.299219
4088.0,899.166,0.298469
4092.0,899.758,0.29775
4096.0,900.353,0.297188
4100.0,900.947,0.296688
4104.0,901.539,0.295812
4108.0,902.123,0.295406
4112.0,902.721,0.294594
4116.0,903.313,0.293813
4120.0,903.904,0.293125
4124.0,904.489,0.292437
4128.0,905.08,0.291875
4132.0,905.668,0.291219
4136.0,906.26,0.290781
4140.0,906.85,0.289937
4144.0,907.437,0.289406
4148.0,908.02,0.288594
4152.0,908.611,0.288
4156.0,909.197,0.28725
4160.0,909.785,0.286656
4164.0,910.376,0.286
4168.0,910.961,0.285437
4172.0,911.553,0.284813
4176.0,912.144,0.284031
4180.0,912.731,0.2835
4184.0,913.322,0.282969
4188.0,913.912,0.282125
4192.0,914.502,0.281594
4196.0,915.085,0.280969
4200.0,915.673,0.280313
4204.0,916.259,0.279844
4208.0,916.847,0.279094
4212.0,917.436,0.2785
4216.0,918.029,0.277656
4220.0,918.616,0.277031
4224.0,919.198,0.276563
4228.0,919.784,0.27575
4232.0,920.373,0.275125
4236.0,920.961,0.274375
4240.0,921.548,0.273781
4244.0,922.137,0.273281
4248.0,922.727,0.272656
4252.0,923.318,0.271937
4256.0,923.903,0.271219
4260.0,924.498,0.270687
4264.0,925.092,0.270187
4268.0,925.676,0.269625
4272.0,926.269,0.268844
4276.0,926.861,0.268406
4280.0,927.449,0.267719
4284.0,928.035,0.266906
4288.0,928.627,0.266438
4292.0,929.216,0.265906
4296.0,929.801,0.265094
4300.0,930.388,0.264469
4304.0,930.977,0.263844
4308.0,931.57,0.263187
4312.0,932.163,0.2625
4316.0,932.753,0.261781
4320.0,933.341,0.261219
4324.0,933.93,0.260812
4328.0,934.517,0.260594
4332.0,935.099,0.259656
4336.0,935.695,0.258906
4340.0,936.282,0.258125
4344.0,936.869,0.257688
4348.0,937.46,0.257281
4352.0,938.049,0.256687
4356.0,938.638,0.256063
4360.0,939.229,0.255313
4364.0,939.824,0.254781
4368.0,940.414,0.253969
4372.0,941.008,0.253406
4376.0,941.597,0.252906
4380.0,942.183,0.252406
4384.0,942.773,0.251812
4388.0,943.362,0.251063
4392.0,943.952,0.250625
4396.0,944.535,0.250062
4400.0,945.121,0.249406
4404.0,945.707,0.248594
4408.0,946.297,0.248437
4412.0,946.88,0.247812
4416.0,947.466,0.247187
4420.0,948.049,0.246531
4424.0,948.639,0.245969
4428.0,949.222,0.245094
4432.0,949.806,0.244594
4436.0,950.393,0.243844
4440.0,950.98,0.243406
4444.0,951.565,0.242812
4448.0,952.147,0.242281
4452.0,952.729,0.24175
4456.0,953.311,0.240969
4460.0,953.895,0.240313
4464.0,954.473,0.239719
4468.0,955.051,0.238937
4472.0,955.639,0.2385
4476.0,956.227,0.237813
4480.0,956.806,0.237219
4484.0,957.386,0.23675
4488.0,957.97,0.236062
4492.0,958.556,0.235344
4496.0,959.139,0.234844
4500.0,959.721,0.23425
4504.0,960.306,0.233406
4508.0,960.885,0.232844
4512.0,961.465,0.232344
4516.0,962.049,0.231656
4520.0,962.631,0.231063
4524.0,963.217,0.230281
4528.0,963.797,0.22975
4532.0,964.379,0.229156
4536.0,964.965,0.228656
4540.0,965.545,0.228156
4544.0,966.127,0.227531
4548.0,966.707,0.226844
4552.0,967.289,0.22625
4556.0,967.871,0.225781
4560.0,968.451,0.225187
4564.0,969.029,0.224562
4568.0,969.603,0.224031
4572.0,970.189,0.223406
4576.0,970.775,0.22275
4580.0,971.354,0.22225
4584.0,971.937,0.221625
4588.0,972.511,0.220875
4592.0,973.095,0.22025
4596.0,973.673,0.219656
4600.0,974.253,0.219219
4604.0,974.835,0.218562
4608.0,975.423,0.217906
4612.0,975.999,0.217219
4616.0,976.586,0.216594
4620.0,977.162,0.216125
4624.0,977.749,0.215687
4628.0,978.335,0.214906
4632.0,978.914,0.2145
4636.0,979.495,0.213687
4640.0,980.078,0.213125
4644.0,980.669,0.212688
4648.0,981.253,0.212
4652.0,981.836,0.211344
4656.0,982.426,0.210594
4660.0,983.008,0.210063
4664.0,983.59,0.209844
4668.0,984.179,0.209187
4672.0,984.762,0.2085
4676.0,985.347,0.208
4680.0,985.936,0.2075
4684.0,986.52,0.206938
4688.0,987.105,0.206437
4692.0,987.695,0.205938
4696.0,988.284,0.205094
4700.0,988.861,0.204469
4704.0,989.443,0.203969
4708.0,990.022,0.203438
4712.0,990.603,0.202969
4716.0,991.182,0.2025
4720.0,991.764,0.201687
4724,992.35,0.201031
4728,992.922,0.200438
4732,993.501,0.199719
4736,994.077,0.199281
4740,994.649,0.198719
4744,995.225,0.197938
4748,995.803,0.197437
4752,996.372,0.197094
4756,996.945,0.196562
4760,997.523,0.19575
4764,998.092,0.195344
4768,998.659,0.194875
4772,999.232,0.194156
4776,999.796,0.193469
4778,999.996,0.193312