File: Wood/Calibration_Data/TUBS/TUBS_Wood_TGA_N2_50K_R12.csv
Time (s),Temperature (K),Mass (mg)
0.0,305.002,1.01982
2.0,304.984,1.01965
4.0,304.986,1.01942
6.0,304.985,1.0192
8.0,304.969,1.01898
10.0,304.956,1.01874
12.0,304.946,1.0185
14.0,304.944,1.01825
16.0,304.935,1.01801
18.0,304.932,1.01778
20.0,304.912,1.01754
22.0,304.907,1.01731
24.0,304.899,1.01706
26.0,304.88,1.01682
28.0,304.873,1.01661
30.0,304.881,1.01642
32.0,304.857,1.01626
34.0,304.861,1.0161
36.0,304.86,1.01591
38.0,304.84,1.01574
40.0,304.821,1.01557
42.0,304.835,1.01539
44.0,304.835,1.01522
46.0,304.815,1.01504
48.0,304.815,1.01486
50.0,304.813,1.01467
52.0,304.804,1.01446
54.0,304.801,1.01426
56.0,304.78,1.01409
58.0,304.788,1.01394
60.0,304.778,1.0138
62.0,304.78,1.01368
64.0,304.757,1.01355
66.0,304.76,1.01343
68.0,304.749,1.0133
70.0,304.754,1.01317
72.0,304.746,1.01304
74.0,304.741,1.01291
76.0,304.761,1.01278
78.0,304.747,1.01265
80.0,304.732,1.01251
82.0,304.726,1.01236
84.0,304.728,1.01219
86.0,304.732,1.01202
88.0,304.723,1.01185
90.0,304.718,1.0117
92.0,304.719,1.01156
94.0,304.7,1.01142
96.0,304.706,1.01131
98.0,304.698,1.01119
100.0,304.696,1.01109
102.0,304.693,1.01098
104.0,304.677,1.01088
106.0,304.67,1.01079
108.0,304.684,1.0107
110.0,304.686,1.0106
112.0,304.68,1.01051
114.0,304.658,1.01041
116.0,304.663,1.01032
118.0,304.665,1.01024
120.0,304.65,1.01016
122.0,304.658,1.01009
124.0,304.669,1.01002
126.0,304.666,1.00994
128.0,304.641,1.00986
130.0,304.644,1.00979
132.0,304.64,1.00972
134.0,304.638,1.00964
136.0,304.637,1.00954
138.0,304.613,1.00945
140.0,304.614,1.00935
142.0,304.605,1.00925
144.0,304.626,1.00917
146.0,304.623,1.00909
148.0,304.606,1.00901
150.0,304.604,1.00892
152.0,304.602,1.00882
154.0,304.613,1.00872
156.0,304.615,1.00864
158.0,304.604,1.00856
160.0,304.62,1.0085
162.0,304.61,1.00844
164.0,304.604,1.00838
166.0,304.603,1.00833
168.0,304.6,1.00828
170.0,304.61,1.00824
172.0,304.603,1.00821
174.0,304.598,1.00819
176.0,304.59,1.00817
178.0,304.589,1.00814
180.0,304.582,1.0081
182.0,304.568,1.00804
184.0,304.587,1.00796
186.0,304.573,1.00789
188.0,304.566,1.0078
190.0,304.578,1.00773
192.0,304.577,1.00768
194.0,304.569,1.00763
196.0,304.567,1.00757
198.0,304.557,1.00751
200.0,304.555,1.00742
202.0,304.563,1.00735
204.0,304.552,1.0073
206.0,304.531,1.00726
208.0,304.545,1.00724
211.0,304.544,1.00722
213.0,304.547,1.0072
215.0,304.539,1.00717
217.0,304.538,1.00711
219.0,304.537,1.00705
221.0,304.525,1.00699
223.0,304.535,1.00693
225.0,304.533,1.00687
227.0,304.515,1.0068
229.0,304.533,1.00671
231.0,304.524,1.00664
233.0,304.535,1.00659
235.0,304.523,1.00655
237.0,304.528,1.00652
239.0,304.515,1.00648
241.0,304.526,1.00643
243.0,304.517,1.0064
246.0,304.516,1.00638
250.0,304.512,1.00635
252.0,304.515,1.00629
254.0,304.51,1.00623
256.0,304.52,1.00615
258.0,304.524,1.00607
260.0,304.511,1.00599
262.0,304.528,1.00592
264.0,304.496,1.00587
266.0,304.51,1.00583
268.0,304.507,1.0058
270.0,304.513,1.00577
273.0,304.501,1.00575
276.0,304.492,1.00573
280.0,304.482,1.0057
282.0,304.487,1.00567
284.0,304.494,1.00563
286.0,304.492,1.00559
288.0,304.486,1.00555
290.0,304.474,1.00551
292.0,304.461,1.00548
294.0,304.496,1.00545
296.0,304.484,1.00543
298.0,304.489,1.0054
300.0,304.484,1.00535
302.0,304.479,1.00531
304.0,304.471,1.00526
306.0,304.476,1.00521
308.0,304.474,1.00517
310.0,304.474,1.00512
312.0,304.466,1.00507
314.0,304.49,1.00504
317.0,304.48,1.00502
319.0,304.471,1.005
321.0,304.476,1.00497
323.0,304.474,1.00493
325.0,304.465,1.00487
327.0,304.467,1.00481
329.0,304.468,1.00477
331.0,304.473,1.00474
334.0,304.464,1.00472
336.0,304.481,1.00469
338.0,304.472,1.00467
340.0,304.464,1.00465
342.0,304.451,1.00462
344.0,304.459,1.00459
346.0,304.456,1.00456
348.0,304.458,1.00454
350.0,304.467,1.00451
352.0,304.47,1.00448
354.0,304.45,1.00445
358.0,304.451,1.00443
360.0,304.446,1.00439
362.0,304.462,1.00435
364.0,304.441,1.00431
366.0,304.458,1.00429
368.0,304.46,1.00427
371.0,304.445,1.00425
376.0,304.444,1.00425
379.0,304.461,1.00427
381.0,304.446,1.00429
383.0,304.448,1.00431
388.0,304.447,1.00429
390.0,304.461,1.00427
392.0,304.45,1.00425
395.0,304.46,1.00423
398.0,304.449,1.00421
400.0,304.459,1.00418
402.0,304.45,1.00415
406.0,304.449,1.00413
408.0,304.463,1.00411
410.0,304.442,1.00408
412.0,304.451,1.00404
414.0,304.458,1.00401
416.0,304.447,1.00397
418.0,304.446,1.00393
420.0,304.46,1.00389
422.0,304.441,1.00385
424.0,304.446,1.00383
426.0,304.439,1.0038
428.0,304.444,1.00376
430.0,304.446,1.00372
432.0,304.444,1.00369
434.0,304.433,1.00366
436.0,304.426,1.00364
438.0,304.439,1.00362
441.0,304.447,1.0036
446.0,304.431,1.00362
452.0,304.421,1.0036
454.0,304.444,1.00358
456.0,304.429,1.00354
458.0,304.423,1.0035
460.0,304.428,1.00344
462.0,304.429,1.00339
464.0,304.451,1.00336
467.0,304.44,1.00334
470.0,304.454,1.00336
476.0,304.445,1.00334
478.0,304.427,1.00332
480.0,304.438,1.0033
483.0,304.441,1.00328
488.0,304.435,1.00328
491.0,304.439,1.0033
494.0,304.431,1.0033
497.0,304.43,1.00328
499.0,304.431,1.00326
501.0,304.437,1.00324
505.0,304.431,1.00324
509.0,304.427,1.00326
513.0,304.413,1.00326
518.0,304.437,1.00323
522.0,304.428,1.00321
524.0,304.445,1.00319
526.0,304.452,1.00317
528.0,304.428,1.00315
532.0,304.442,1.00315
535.0,304.419,1.00317
537.0,304.417,1.00319
541.0,304.436,1.00319
543.0,304.423,1.00317
545.0,304.44,1.00312
547.0,304.415,1.00309
549.0,304.439,1.00307
552.0,304.425,1.00307
555.0,304.434,1.00309
558.0,304.43,1.00311
563.0,304.436,1.00311
565.0,304.431,1.00308
567.0,304.427,1.00304
569.0,304.434,1.00299
571.0,304.426,1.00294
573.0,304.43,1.00289
575.0,304.437,1.00286
578.0,304.438,1.00283
580.0,304.446,1.00281
583.0,304.432,1.00279
586.0,304.449,1.00277
589.0,304.428,1.00275
592.0,304.43,1.00277
594.0,304.442,1.00279
596.0,304.432,1.00281
600.0,304.433,1.00281
609.0,304.431,1.00283
614.0,304.43,1.00281
616.0,304.432,1.00278
618.0,304.436,1.00276
621.0,304.438,1.00274
626.0,304.447,1.00272
629.0,304.422,1.00269
631.0,304.425,1.00266
633.0,304.432,1.00262
635.0,304.445,1.0026
640.0,304.429,1.0026
644.0,304.439,1.00262
648.0,304.445,1.00262
650.0,304.437,1.0026
652.0,304.438,1.00257
656.0,304.439,1.00257
660.0,304.442,1.0026
662.0,304.453,1.00263
664.0,304.462,1.00267
666.0,304.446,1.00269
668.0,304.462,1.00269
672.0,304.44,1.00266
674.0,304.466,1.00264
679.0,304.446,1.00264
684.0,304.432,1.00262
686.0,304.435,1.00259
688.0,304.451,1.00256
690.0,304.434,1.00254
707.0,304.439,1.00252
709.0,304.445,1.0025
711.0,304.454,1.00246
713.0,304.438,1.0024
715.0,304.438,1.00237
717.0,304.449,1.00235
719.0,304.441,1.00233
721.0,304.448,1.00233
743.0,304.447,1.00231
745.0,304.441,1.00229
747.0,304.434,1.00226
750.0,304.429,1.00224
752.0,304.45,1.00222
754.0,304.442,1.00219
756.0,304.438,1.00216
758.0,304.443,1.00214
765.0,304.438,1.00216
767.0,304.422,1.00219
769.0,304.446,1.00223
771.0,304.443,1.00227
773.0,304.437,1.0023
775.0,304.436,1.00232
779.0,304.425,1.00234
781.0,304.429,1.00236
783.0,304.428,1.00238
786.0,304.441,1.0024
788.0,304.412,1.00238
790.0,304.423,1.00234
792.0,304.432,1.00227
794.0,304.425,1.0022
796.0,304.439,1.00214
798.0,304.435,1.00209
800.0,304.417,1.00206
802.0,304.431,1.00204
806.0,304.428,1.00202
808.0,304.437,1.00199
810.0,304.442,1.00197
812.0,304.423,1.00195
815.0,304.446,1.00193
838.0,304.45,1.00195
840.0,304.444,1.00197
842.0,304.431,1.00199
844.0,304.447,1.00201
846.0,304.431,1.00201
849.0,304.429,1.00198
852.0,304.443,1.00195
855.0,304.44,1.00193
866.0,304.436,1.00191
868.0,304.424,1.00189
870.0,304.438,1.00187
872.0,304.44,1.00185
875.0,304.433,1.00183
888.0,304.435,1.00181
890.0,304.432,1.00179
892.0,304.425,1.00177
894.0,304.43,1.00175
901.0,304.43,1.00177
903.0,304.431,1.00179
906.0,304.428,1.00181
912.0,304.429,1.00181
915.0,304.426,1.00178
917.0,304.417,1.00173
919.0,304.436,1.0017
921.0,304.428,1.00167
924.0,304.444,1.00168
926.0,304.429,1.00171
928.0,304.429,1.00177
930.0,304.437,1.00182
932.0,304.439,1.00187
935.0,304.444,1.00189
938.0,304.431,1.00186
941.0,304.416,1.00184
947.0,304.433,1.00182
960.0,304.433,1.00182
962.0,304.439,1.00179
964.0,304.437,1.00175
966.0,304.438,1.00171
968.0,304.453,1.00168
970.0,304.441,1.00165
973.0,304.441,1.00163
975.0,304.428,1.0016
977.0,304.451,1.00158
979.0,304.436,1.00155
982.0,304.439,1.00153
984.0,304.433,1.0015
986.0,304.432,1.00148
992.0,304.439,1.00148
994.0,304.432,1.0015
998.0,304.437,1.00152
1008.0,304.453,1.00154
1010.0,304.439,1.00156
1012.0,304.454,1.00158
1016.0,304.438,1.00154
1018.0,304.441,1.00151
1020.0,304.456,1.00149
1022.0,304.449,1.00147
1025.0,304.438,1.00145
1029.0,304.436,1.00143
1032.0,304.448,1.00145
1034.0,304.458,1.00147
1036.0,304.435,1.00149
1038.0,304.436,1.00151
1043.0,304.45,1.00153
1050.0,304.45,1.00155
1052.0,304.439,1.00158
1054.0,304.424,1.0016
1057.0,304.442,1.00162
1066.0,304.433,1.00164
1069.0,304.426,1.00167
1074.0,304.44,1.00167
1078.0,304.425,1.00164
1091.0,304.435,1.00162
1093.0,304.425,1.0016
1095.0,304.442,1.00158
1097.0,304.427,1.00155
1101.0,304.436,1.00153
1118.0,304.447,1.00151
1120.0,304.436,1.00149
1122.0,304.44,1.00147
1125.0,304.438,1.00145
1130.0,304.436,1.00143
1145.0,304.44,1.00145
1148.0,304.434,1.00147
1150.0,304.44,1.00149
1153.0,304.442,1.00151
1158.0,304.442,1.00153
1161.0,304.444,1.00151
1163.0,304.446,1.00149
1165.0,304.434,1.00147
1169.0,304.441,1.00149
1171.0,304.446,1.00151
1175.0,304.459,1.00153
1183.0,304.448,1.00151
1185.0,304.437,1.00149
1187.0,304.439,1.00147
1189.0,304.424,1.00145
1191.0,304.433,1.00142
1193.0,304.44,1.00139
1196.0,304.446,1.00137
1198.0,304.433,1.0013
1200.0,304.461,1.00099
1205.305,305.5,0.99927
1207.186,306.5,0.99886
1208.915,307.5,0.99882
1210.507,308.5,0.99932
1211.915,309.5,1.00034
1213.209,310.5,1.00124
1214.453,311.5,1.00194
1215.686,312.5,1.00267
1216.887,313.5,1.00322
1218.108,314.5,1.00351
1219.29,315.5,1.00359
1220.462,316.5,1.00341
1221.636,317.5,1.00334
1222.804,318.5,1.00323
1223.965,319.5,1.00307
1225.148,320.5,1.00287
1226.303,321.5,1.00259
1227.465,322.5,1.00224
1228.639,323.5,1.00186
1229.818,324.5,1.0015
1230.961,325.5,1.00111
1232.15,326.5,1.00074
1233.322,327.5,1.0004
1234.502,328.5,1.00006
1235.656,329.5,0.99977
1236.829,330.5,0.99951
1238.016,331.5,0.99924
1239.189,332.5,0.99898
1240.373,333.5,0.99876
1241.555,334.5,0.99853
1242.73,335.5,0.99829
1243.914,336.5,0.99807
1245.102,337.5,0.99785
1246.27,338.5,0.99763
1247.457,339.5,0.99741
1248.64,340.5,0.99719
1249.82,341.5,0.99697
1251.02,342.5,0.99673
1252.212,343.5,0.99649
1253.396,344.5,0.99624
1254.573,345.5,0.996
1255.763,346.5,0.99574
1256.961,347.5,0.99547
1258.152,348.5,0.99521
1259.333,349.5,0.99493
1260.531,350.5,0.99465
1261.731,351.5,0.99437
1262.924,352.5,0.9941
1264.114,353.5,0.99383
1265.312,354.5,0.99357
1266.502,355.5,0.99332
1267.688,356.5,0.99308
1268.889,357.5,0.99285
1270.083,358.5,0.99262
1271.262,359.5,0.99241
1272.454,360.5,0.99221
1273.663,361.5,0.99201
1274.856,362.5,0.99181
1276.037,363.5,0.99163
1277.236,364.5,0.99146
1278.439,365.5,0.99128
1279.635,366.5,0.99112
1280.825,367.5,0.99097
1282.019,368.5,0.99081
1283.221,369.5,0.99065
1284.412,370.5,0.9905
1285.601,371.5,0.99035
1286.798,372.5,0.9902
1287.979,373.5,0.99007
1289.176,374.5,0.98994
1290.376,375.5,0.98982
1291.575,376.5,0.98973
1292.772,377.5,0.98965
1293.967,378.5,0.98956
1295.179,379.5,0.98948
1296.363,380.5,0.98942
1297.554,381.5,0.98936
1298.743,382.5,0.98929
1299.945,383.5,0.98923
1301.14,384.5,0.98917
1302.333,385.5,0.98911
1303.521,386.5,0.98906
1304.715,387.5,0.98901
1305.91,388.5,0.98896
1307.093,389.5,0.98892
1308.299,390.5,0.98889
1309.491,391.5,0.98886
1310.671,392.5,0.98883
1311.87,393.5,0.98881
1313.082,394.5,0.98878
1314.247,395.5,0.98875
1315.442,396.5,0.98872
1316.633,397.5,0.98868
1317.81,398.5,0.98865
1319.012,399.5,0.98861
1320.211,400.5,0.98859
1321.394,401.5,0.98857
1322.582,402.5,0.98855
1323.765,403.5,0.98854
1324.952,404.5,0.98853
1326.156,405.5,0.98851
1327.342,406.5,0.98849
1328.525,407.5,0.98847
1329.703,408.5,0.98844
1330.902,409.5,0.98841
1332.093,410.5,0.98837
1333.273,411.5,0.98834
1334.459,412.5,0.98831
1335.637,413.5,0.98828
1336.832,414.5,0.98825
1338.007,415.5,0.98822
1339.206,416.5,0.98819
1340.381,417.5,0.98815
1341.559,418.5,0.98812
1342.743,419.5,0.98808
1343.921,420.5,0.98804
1345.116,421.5,0.98799
1346.295,422.5,0.98795
1347.477,423.5,0.98792
1348.655,424.5,0.98789
1349.837,425.5,0.98786
1351.02,426.5,0.98783
1352.19,427.5,0.9878
1353.383,428.5,0.98776
1354.567,429.5,0.98772
1355.742,430.5,0.98767
1356.922,431.5,0.98762
1358.11,432.5,0.98757
1359.284,433.5,0.98752
1360.454,434.5,0.98746
1361.622,435.5,0.98741
1362.812,436.5,0.98734
1363.996,437.5,0.98727
1365.165,438.5,0.98719
1366.345,439.5,0.9871
1367.519,440.5,0.98701
1368.692,441.5,0.98691
1369.872,442.5,0.98681
1371.043,443.5,0.98671
1372.219,444.5,0.9866
1373.396,445.5,0.98649
1374.563,446.5,0.98638
1375.741,447.5,0.98626
1376.915,448.5,0.98615
1378.076,449.5,0.98604
1379.256,450.5,0.98593
1380.424,451.5,0.98581
1381.595,452.5,0.98569
1382.778,453.5,0.98557
1383.948,454.5,0.98543
1385.1,455.5,0.98529
1386.274,456.5,0.98514
1387.446,457.5,0.98497
1388.614,458.5,0.98479
1389.782,459.5,0.98461
1390.953,460.5,0.98442
1392.135,461.5,0.9842
1393.296,462.5,0.98399
1394.457,463.5,0.98378
1395.629,464.5,0.98355
1396.803,465.5,0.98331
1397.963,466.5,0.98308
1399.128,467.5,0.98283
1400.287,468.5,0.98257
1401.458,469.5,0.98229
1402.629,470.5,0.982
1403.791,471.5,0.98169
1404.959,472.5,0.98136
1406.125,473.5,0.98103
1407.287,474.5,0.9807
1408.452,475.5,0.98034
1409.618,476.5,0.97999
1410.774,477.5,0.97964
1411.95,478.5,0.97926
1413.112,479.5,0.9789
1414.268,480.5,0.97852
1415.435,481.5,0.97813
1416.59,482.5,0.97773
1417.755,483.5,0.97733
1418.922,484.5,0.97692
1420.073,485.5,0.9765
1421.248,486.5,0.97606
1422.408,487.5,0.97564
1423.574,488.5,0.97519
1424.737,489.5,0.97475
1425.9,490.5,0.9743
1427.061,491.5,0.97384
1428.216,492.5,0.97338
1429.383,493.5,0.97291
1430.548,494.5,0.97244
1431.699,495.5,0.97197
1432.858,496.5,0.9715
1434.031,497.5,0.97102
1435.193,498.5,0.97054
1436.354,499.5,0.97006
1437.506,500.5,0.96958
1438.673,501.5,0.9691
1439.841,502.5,0.9686
1441.006,503.5,0.96811
1442.164,504.5,0.96761
1443.323,505.5,0.96711
1444.477,506.5,0.96659
1445.639,507.5,0.96606
1446.804,508.5,0.96553
1447.975,509.5,0.96496
1449.144,510.5,0.9644
1450.304,511.5,0.96384
1451.468,512.5,0.96326
1452.63,513.5,0.96267
1453.793,514.5,0.96208
1454.95,515.5,0.96147
1456.109,516.5,0.96084
1457.278,517.5,0.96019
1458.443,518.5,0.95954
1459.603,519.5,0.95887
1460.761,520.5,0.95818
1461.917,521.5,0.95749
1463.082,522.5,0.95678
1464.244,523.5,0.95602
1465.414,524.5,0.95526
1466.575,525.5,0.95449
1467.741,526.5,0.95367
1468.899,527.5,0.95285
1470.054,528.5,0.95202
1471.229,529.5,0.95115
1472.39,530.5,0.95025
1473.552,531.5,0.94935
1474.716,532.5,0.94842
1475.882,533.5,0.94744
1477.033,534.5,0.94646
1478.199,535.5,0.94545
1479.369,536.5,0.94441
1480.542,537.5,0.94333
1481.696,538.5,0.94227
1482.849,539.5,0.9412
1484.021,540.5,0.94006
1485.176,541.5,0.93892
1486.352,542.5,0.93774
1487.513,543.5,0.93654
1488.67,544.5,0.9353
1489.838,545.5,0.93404
1491.011,546.5,0.93275
1492.178,547.5,0.93139
1493.342,548.5,0.93004
1494.501,549.5,0.92868
1495.664,550.5,0.92726
1496.826,551.5,0.92582
1498.008,552.5,0.92436
1499.168,553.5,0.92291
1500.329,554.5,0.92142
1501.497,555.5,0.91992
1502.656,556.5,0.91842
1503.818,557.5,0.91689
1504.998,558.5,0.91532
1506.166,559.5,0.91375
1507.324,560.5,0.91218
1508.494,561.5,0.91055
1509.659,562.5,0.90893
1510.835,563.5,0.90729
1511.992,564.5,0.90564
1513.155,565.5,0.90398
1514.323,566.5,0.90229
1515.49,567.5,0.90059
1516.661,568.5,0.89885
1517.846,569.5,0.89707
1519.016,570.5,0.89531
1520.184,571.5,0.89348
1521.352,572.5,0.89166
1522.515,573.5,0.88984
1523.69,574.5,0.88796
1524.861,575.5,0.88607
1526.02,576.5,0.8842
1527.194,577.5,0.88228
1528.366,578.5,0.88031
1529.532,579.5,0.87835
1530.709,580.5,0.87635
1531.874,581.5,0.87432
1533.048,582.5,0.87226
1534.216,583.5,0.8702
1535.394,584.5,0.86809
1536.561,585.5,0.86595
1537.737,586.5,0.86378
1538.908,587.5,0.86161
1540.091,588.5,0.85933
1541.255,589.5,0.85708
1542.43,590.5,0.85479
1543.603,591.5,0.85243
1544.779,592.5,0.85002
1545.953,593.5,0.84759
1547.123,594.5,0.84513
1548.302,595.5,0.84253
1549.478,596.5,0.83994
1550.662,597.5,0.83731
1551.841,598.5,0.83458
1553.012,599.5,0.83184
1554.192,600.5,0.82905
1555.362,601.5,0.82622
1556.539,602.5,0.82328
1557.724,603.5,0.82031
1558.905,604.5,0.81731
1560.082,605.5,0.81417
1561.262,606.5,0.81102
1562.44,607.5,0.80783
1563.621,608.5,0.80452
1564.812,609.5,0.80111
1565.987,610.5,0.79774
1567.167,611.5,0.79428
1568.349,612.5,0.79068
1569.526,613.5,0.7871
1570.707,614.5,0.78347
1571.883,615.5,0.77971
1573.088,616.5,0.77582
1574.261,617.5,0.77199
1575.442,618.5,0.76803
1576.631,619.5,0.76392
1577.813,620.5,0.75983
1578.995,621.5,0.75569
1580.184,622.5,0.75135
1581.37,623.5,0.74703
1582.558,624.5,0.74267
1583.738,625.5,0.73823
1584.932,626.5,0.73369
1586.124,627.5,0.72912
1587.303,628.5,0.72453
1588.5,629.5,0.71977
1589.692,630.5,0.71502
1590.878,631.5,0.71026
1592.058,632.5,0.70537
1593.256,633.5,0.70041
1594.434,634.5,0.69549
1595.62,635.5,0.69043
1596.811,636.5,0.68529
1598.006,637.5,0.68011
1599.197,638.5,0.6749
1600.381,639.5,0.6696
1601.583,640.5,0.66422
1602.771,641.5,0.65888
1603.962,642.5,0.65342
1605.164,643.5,0.64789
1606.361,644.5,0.64235
1607.547,645.5,0.63678
1608.743,646.5,0.6311
1609.941,647.5,0.62539
1611.132,648.5,0.61967
1612.319,649.5,0.61383
1613.515,650.5,0.60793
1614.72,651.5,0.60196
1615.92,652.5,0.59588
1617.121,653.5,0.58976
1618.314,654.5,0.58365
1619.521,655.5,0.57737
1620.727,656.5,0.57101
1621.924,657.5,0.56467
1623.111,658.5,0.55832
1624.308,659.5,0.55174
1625.506,660.5,0.54515
1626.713,661.5,0.53845
1627.917,662.5,0.53158
1629.112,663.5,0.5247
1630.318,664.5,0.5177
1631.521,665.5,0.51054
1632.728,666.5,0.50323
1633.926,667.5,0.49593
1635.128,668.5,0.48851
1636.322,669.5,0.48088
1637.532,670.5,0.47315
1638.742,671.5,0.46535
1639.941,672.5,0.45735
1641.146,673.5,0.44931
1642.353,674.5,0.44119
1643.56,675.5,0.43294
1644.775,676.5,0.42455
1645.97,677.5,0.41629
1647.177,678.5,0.40791
1648.381,679.5,0.39947
1649.593,680.5,0.391
1650.798,681.5,0.3826
1651.996,682.5,0.37429
1653.202,683.5,0.36602
1654.415,684.5,0.3578
1655.614,685.5,0.34989
1656.818,686.5,0.34213
1658.025,687.5,0.33449
1659.228,688.5,0.32714
1660.44,689.5,0.32026
1661.638,690.5,0.31357
1662.84,691.5,0.30708
1664.048,692.5,0.30142
1665.249,693.5,0.29589
1666.455,694.5,0.2906
1667.644,695.5,0.28609
1668.851,696.5,0.28192
1670.06,697.5,0.27792
1671.268,698.5,0.27438
1672.482,699.5,0.2716
1673.687,700.5,0.26882
1674.891,701.5,0.26624
1676.089,702.5,0.2645
1677.302,703.5,0.26265
1678.51,704.5,0.26094
1679.715,705.5,0.25963
1680.926,706.5,0.25844
1682.121,707.5,0.25729
1683.34,708.5,0.25627
1684.548,709.5,0.25545
1685.756,710.5,0.2546
1686.967,711.5,0.25378
1688.169,712.5,0.25313
1689.379,713.5,0.25244
1690.579,714.5,0.25176
1691.796,715.5,0.25113
1693.001,716.5,0.25052
1694.218,717.5,0.24989
1695.422,718.5,0.24929
1696.633,719.5,0.2487
1697.855,720.5,0.2481
1699.053,721.5,0.24752
1700.259,722.5,0.24695
1701.468,723.5,0.24637
1702.69,724.5,0.24579
1703.891,725.5,0.24522
1705.103,726.5,0.24465
1706.317,727.5,0.24409
1707.529,728.5,0.24352
1708.746,729.5,0.24296
1709.954,730.5,0.24241
1711.168,731.5,0.24186
1712.383,732.5,0.24132
1713.596,733.5,0.24078
1714.804,734.5,0.24025
1716.012,735.5,0.23974
1717.236,736.5,0.23922
1718.45,737.5,0.23872
1719.663,738.5,0.23823
1720.861,739.5,0.23775
1722.077,740.5,0.23726
1723.294,741.5,0.23677
1724.507,742.5,0.23629
1725.722,743.5,0.2358
1726.936,744.5,0.23531
1728.146,745.5,0.23483
1729.361,746.5,0.23435
1730.572,747.5,0.23387
1731.787,748.5,0.2334
1732.994,749.5,0.23293
1734.217,750.5,0.23247
1735.425,751.5,0.23201
1736.635,752.5,0.23156
1737.858,753.5,0.23112
1739.073,754.5,0.23069
1740.288,755.5,0.23027
1741.498,756.5,0.22985
1742.713,757.5,0.22944
1743.933,758.5,0.22903
1745.145,759.5,0.22862
1746.363,760.5,0.22821
1747.578,761.5,0.22781
1748.792,762.5,0.22742
1749.995,763.5,0.22704
1751.216,764.5,0.22667
1752.436,765.5,0.22631
1753.648,766.5,0.22595
1754.867,767.5,0.2256
1756.083,768.5,0.22527
1757.3,769.5,0.22493
1758.515,770.5,0.22459
1759.734,771.5,0.22426
1760.942,772.5,0.22393
1762.158,773.5,0.2236
1763.366,774.5,0.22328
1764.585,775.5,0.22296
1765.806,776.5,0.22265
1767.022,777.5,0.22233
1768.235,778.5,0.22204
1769.45,779.5,0.22174
1770.656,780.5,0.22146
1771.873,781.5,0.22118
1773.1,782.5,0.22091
1774.315,783.5,0.22063
1775.531,784.5,0.22036
1776.745,785.5,0.2201
1777.953,786.5,0.21983
1779.173,787.5,0.21956
1780.394,788.5,0.2193
1781.606,789.5,0.21905
1782.817,790.5,0.2188
1784.039,791.5,0.21856
1785.256,792.5,0.21833
1786.468,793.5,0.21809
1787.687,794.5,0.21786
1788.903,795.5,0.21762
1790.115,796.5,0.21738
1791.326,797.5,0.21715
1792.541,798.5,0.21692
1793.756,799.5,0.21669
1794.967,800.5,0.21647
1796.176,801.5,0.21625
1797.394,802.5,0.21604
1798.617,803.5,0.21583
1799.832,804.5,0.21563
1801.038,805.5,0.21543
1802.251,806.5,0.21522
1803.467,807.5,0.21502
1804.687,808.5,0.21481
1805.906,809.5,0.21459
1807.113,810.5,0.21438
1808.334,811.5,0.21416
1809.547,812.5,0.21394
1810.76,813.5,0.21372
1811.978,814.5,0.2135
1813.183,815.5,0.21329
1814.408,816.5,0.21308
1815.621,817.5,0.21288
1816.83,818.5,0.21268
1818.044,819.5,0.21248
1819.263,820.5,0.21228
1820.47,821.5,0.21208
1821.681,822.5,0.21188
1822.898,823.5,0.21169
1824.12,824.5,0.2115
1825.33,825.5,0.21132
1826.543,826.5,0.21114
1827.758,827.5,0.21098
1828.976,828.5,0.21081
1830.181,829.5,0.21065
1831.4,830.5,0.21049
1832.606,831.5,0.21034
1833.826,832.5,0.21019
1835.054,833.5,0.21003
1836.263,834.5,0.20988
1837.479,835.5,0.20972
1838.698,836.5,0.20957
1839.907,837.5,0.20941
1841.117,838.5,0.20925
1842.339,839.5,0.20909
1843.547,840.5,0.20893
1844.77,841.5,0.20877
1845.987,842.5,0.20861
1847.202,843.5,0.20845
1848.421,844.5,0.2083
1849.638,845.5,0.20815
1850.847,846.5,0.208
1852.066,847.5,0.20786
1853.275,848.5,0.20771
1854.493,849.5,0.20757
1855.711,850.5,0.20742
1856.925,851.5,0.20727
1858.133,852.5,0.20712
1859.346,853.5,0.20697
1860.568,854.5,0.20682
1861.779,855.5,0.20666
1863.006,856.5,0.20651
1864.205,857.5,0.20635
1865.424,858.5,0.20619
1866.639,859.5,0.20603
1867.853,860.5,0.20588
1869.069,861.5,0.20572
1870.281,862.5,0.20556
1871.495,863.5,0.20541
1872.711,864.5,0.20525
1873.913,865.5,0.20509
1875.135,866.5,0.20493
1876.344,867.5,0.20477
1877.557,868.5,0.20462
1878.772,869.5,0.20446
1879.989,870.5,0.2043
1881.2,871.5,0.20414
1882.419,872.5,0.20397
1883.626,873.5,0.2038
1884.834,874.5,0.20363
1886.054,875.5,0.20346
1887.263,876.5,0.2033
1888.48,877.5,0.20314
1889.699,878.5,0.20299
1890.913,879.5,0.20284
1892.116,880.5,0.20272
1893.331,881.5,0.20259
1894.543,882.5,0.20246
1895.772,883.5,0.20233
1896.967,884.5,0.2022
1898.19,885.5,0.20206
1899.409,886.5,0.20192
1900.614,887.5,0.20178
1901.829,888.5,0.20165
1903.039,889.5,0.20152
1904.257,890.5,0.2014
1905.467,891.5,0.20128
1906.673,892.5,0.20117
1907.886,893.5,0.20105
1909.095,894.5,0.20093
1910.315,895.5,0.20081
1911.53,896.5,0.20069
1912.742,897.5,0.20057
1913.951,898.5,0.20043
1915.173,899.5,0.2003
1916.381,900.5,0.20015
1917.582,901.5,0.20001
1918.802,902.5,0.19986
1920.01,903.5,0.19971
1921.223,904.5,0.19957
1922.433,905.5,0.19943
1923.645,906.5,0.19931
1924.85,907.5,0.19919
1926.053,908.5,0.19907
1927.273,909.5,0.19895
1928.486,910.5,0.19884
1929.699,911.5,0.19873
1930.91,912.5,0.19861
1932.113,913.5,0.19851
1933.323,914.5,0.1984
1934.54,915.5,0.19831
1935.75,916.5,0.19822
1936.954,917.5,0.19813
1938.176,918.5,0.19803
1939.38,919.5,0.19794
1940.586,920.5,0.19784
1941.792,921.5,0.19774
1943.015,922.5,0.19763
1944.225,923.5,0.19752
1945.433,924.5,0.19741
1946.646,925.5,0.19731
1947.859,926.5,0.1972
1949.068,927.5,0.19711
1950.277,928.5,0.19701
1951.491,929.5,0.19693
1952.7,930.5,0.19684
1953.912,931.5,0.19676
1955.127,932.5,0.19667
1956.327,933.5,0.19659
1957.538,934.5,0.1965
1958.752,935.5,0.19641
1959.967,936.5,0.19631
1961.172,937.5,0.19621
1962.385,938.5,0.1961
1963.6,939.5,0.196
1964.799,940.5,0.19589
1966.008,941.5,0.19579
1967.221,942.5,0.19568
1968.43,943.5,0.19558
1969.641,944.5,0.19547
1970.848,945.5,0.19536
1972.059,946.5,0.19525
1973.271,947.5,0.19514
1974.476,948.5,0.19503
1975.68,949.5,0.19492
1976.897,950.5,0.19481
1978.108,951.5,0.1947
1979.312,952.5,0.19461
1980.52,953.5,0.19453
1981.728,954.5,0.19445
1982.927,955.5,0.19437
1984.147,956.5,0.1943
1985.354,957.5,0.19421
1986.568,958.5,0.19412
1987.776,959.5,0.19402
1988.989,960.5,0.19392
1990.196,961.5,0.19383
1991.398,962.5,0.19375
1992.605,963.5,0.19368
1993.814,964.5,0.19361
1995.028,965.5,0.19354
1996.233,966.5,0.19348
1997.439,967.5,0.19341
1998.649,968.5,0.19333
1999.864,969.5,0.19324
2001.062,970.5,0.19317
2002.275,971.5,0.19309
2003.488,972.5,0.19302
2004.701,973.5,0.19294
2005.907,974.5,0.19286
2007.115,975.5,0.19278
2008.324,976.5,0.1927
2009.53,977.5,0.19263
2010.743,978.5,0.19257
2011.944,979.5,0.19252
2013.156,980.5,0.19247
2014.371,981.5,0.19242
2015.582,982.5,0.19238
2016.786,983.5,0.19233
2017.995,984.5,0.19228
2019.199,985.5,0.19223
2020.409,986.5,0.19217
2021.616,987.5,0.1921
2022.825,988.5,0.19203
2024.048,989.5,0.19193
2025.246,990.5,0.19184
2026.452,991.5,0.19175
2027.665,992.5,0.19167
2028.886,993.5,0.19159
2030.09,994.5,0.19152
2031.291,995.5,0.19147
2032.498,996.5,0.19143
2033.71,997.5,0.19137
2034.919,998.5,0.19132
2036.128,999.5,0.19125
2037.337,1000.5,0.19119
2038.542,1001.5,0.19113
2039.741,1002.5,0.19106
2040.951,1003.5,0.191
2042.155,1004.5,0.19093
2043.356,1005.5,0.19086
2044.562,1006.5,0.19079
2045.772,1007.5,0.19071
2046.981,1008.5,0.19064
2048.187,1009.5,0.19056
2049.394,1010.5,0.19048
2050.597,1011.5,0.19041
2051.799,1012.5,0.19034
2052.999,1013.5,0.19027
2054.21,1014.5,0.19021
2055.424,1015.5,0.19016
2056.626,1016.5,0.19011
2057.832,1017.5,0.19006
2059.034,1018.5,0.19001
2060.245,1019.5,0.18995
2061.447,1020.5,0.18989
2062.649,1021.5,0.18983
2063.857,1022.5,0.18976
2065.064,1023.5,0.18969
2066.266,1024.5,0.18963
2067.468,1025.5,0.18958
2068.68,1026.5,0.18954
2069.888,1027.5,0.18949
2071.096,1028.5,0.18944
2072.297,1029.5,0.1894
2073.507,1030.5,0.18934
2074.712,1031.5,0.18928
2075.917,1032.5,0.18921
2077.113,1033.5,0.18914
2078.321,1034.5,0.18907
2079.536,1035.5,0.189
2080.741,1036.5,0.18893
2081.922,1037.5,0.18887
2083.137,1038.5,0.18881
2084.344,1039.5,0.18875
2085.544,1040.5,0.1887
2086.746,1041.5,0.18864
2087.959,1042.5,0.18859
2089.169,1043.5,0.18853
2090.367,1044.5,0.18847
2091.557,1045.5,0.18841
2092.765,1046.5,0.18835
2093.972,1047.5,0.18829
2095.17,1048.5,0.18824
2096.379,1049.5,0.18818
2097.581,1050.5,0.18812
2098.782,1051.5,0.18806
2099.986,1052.5,0.18799
2101.188,1053.5,0.18793
2102.38,1054.5,0.18787
2103.541,1055.5,0.18781
2105.321,1056.5,0.18773
2107.24,1057.5,0.18764
2109.055,1058.5,0.18757
2111.015,1059.5,0.18749
2113.166,1060.5,0.1874
2115.575,1061.5,0.18731
2118.243,1062.5,0.18723
2121.298,1063.5,0.18716
2124.0,1064.289,0.18708
2144.0,1068.002,0.18682
2164.0,1069.734,0.18651
2184.0,1070.623,0.18611
2204.0,1071.138,0.18593
2224.0,1071.481,0.18555
2244.0,1071.715,0.18524
2264.0,1071.899,0.18488
2284.0,1072.026,0.18464
2304.0,1072.138,0.18447
2324.0,1072.216,0.18412
2344.0,1072.27,0.18395
2364.0,1072.315,0.18368
2384.0,1072.351,0.18351
2404.0,1072.379,0.18323
2424.0,1072.403,0.18326