File: Wood/Calibration_Data/TUBS/TUBS_Wood_TGA_N2_20K_R2.csv
Time (s),Temperature (K),Mass (mg)
0.0,304.938,1.03
9.0,304.873,1.028
27.0,304.812,1.026
43.0,304.743,1.024
68.0,304.68,1.022
94.0,304.608,1.02
130.0,304.583,1.018
170.0,304.498,1.016
243.0,304.472,1.014
357.0,304.376,1.012
545.0,304.379,1.01
930.0,304.362,1.01
995.0,304.364,1.01
1015.0,304.365,1.01
1035.0,304.352,1.01
1072.0,304.354,1.01
1088.0,304.35,1.01
1206.253,305.0,1.007
1210.753,306.0,1.008
1214.654,307.0,1.011
1218.224,308.0,1.012
1221.755,309.0,1.011
1225.094,310.0,1.011
1228.422,311.0,1.01
1231.712,312.0,1.009
1234.997,313.0,1.009
1238.248,314.0,1.009
1241.484,315.0,1.009
1244.712,316.0,1.009
1247.926,317.0,1.009
1251.138,318.0,1.008
1254.335,319.0,1.008
1257.469,320.0,1.008
1260.642,321.0,1.008
1263.779,322.0,1.008
1266.881,323.0,1.008
1270.006,324.0,1.008
1273.148,325.0,1.007
1276.217,326.0,1.007
1279.353,327.0,1.007
1282.472,328.0,1.006
1285.53,329.0,1.006
1288.598,330.0,1.006
1291.663,331.0,1.006
1294.743,332.0,1.006
1297.764,333.0,1.005
1300.866,334.0,1.005
1303.881,335.0,1.005
1306.954,336.0,1.004
1310.003,337.0,1.004
1313.015,338.0,1.004
1316.032,339.0,1.004
1319.049,340.0,1.003
1322.067,341.0,1.003
1325.14,342.0,1.003
1328.176,343.0,1.003
1331.171,344.0,1.002
1334.188,345.0,1.002
1337.205,346.0,1.002
1340.226,347.0,1.002
1343.241,348.0,1.001
1346.237,349.0,1.001
1349.254,350.0,1.001
1352.235,351.0,1.001
1355.233,352.0,1.001
1358.233,353.0,1.0
1361.234,354.0,1.0
1364.228,355.0,1.0
1367.254,356.0,1.0
1370.206,357.0,0.999
1373.22,358.0,0.999
1376.203,359.0,0.999
1379.198,360.0,0.999
1382.171,361.0,0.999
1385.2,362.0,0.999
1388.154,363.0,0.998
1391.163,364.0,0.998
1394.152,365.0,0.998
1397.114,366.0,0.998
1400.092,367.0,0.998
1403.055,368.0,0.998
1406.036,369.0,0.998
1409.042,370.0,0.998
1411.982,371.0,0.998
1414.978,372.0,0.998
1417.935,373.0,0.998
1420.911,374.0,0.998
1423.928,375.0,0.998
1426.856,376.0,0.998
1429.814,377.0,0.998
1432.796,378.0,0.998
1435.778,379.0,0.998
1438.748,380.0,0.998
1441.691,381.0,0.997
1444.666,382.0,0.997
1447.617,383.0,0.997
1450.596,384.0,0.997
1453.552,385.0,0.997
1456.514,386.0,0.997
1459.458,387.0,0.997
1462.425,388.0,0.997
1465.37,389.0,0.997
1468.35,390.0,0.997
1471.309,391.0,0.997
1474.265,392.0,0.997
1477.214,393.0,0.997
1480.179,394.0,0.997
1483.123,395.0,0.997
1486.051,396.0,0.997
1488.974,397.0,0.997
1491.951,398.0,0.997
1494.89,399.0,0.997
1497.831,400.0,0.997
1500.776,401.0,0.997
1503.726,402.0,0.997
1506.668,403.0,0.997
1509.595,404.0,0.997
1512.553,405.0,0.997
1515.497,406.0,0.997
1518.44,407.0,0.997
1521.404,408.0,0.997
1524.33,409.0,0.997
1527.269,410.0,0.997
1530.196,411.0,0.997
1533.153,412.0,0.997
1536.074,413.0,0.997
1539.071,414.0,0.997
1541.997,415.0,0.997
1544.909,416.0,0.997
1547.85,417.0,0.997
1550.769,418.0,0.997
1553.7,419.0,0.996
1556.641,420.0,0.996
1559.596,421.0,0.996
1562.523,422.0,0.996
1565.482,423.0,0.996
1568.406,424.0,0.996
1571.34,425.0,0.996
1574.285,426.0,0.996
1577.22,427.0,0.996
1580.145,428.0,0.996
1583.064,429.0,0.996
1586.015,430.0,0.996
1588.931,431.0,0.996
1591.863,432.0,0.996
1594.775,433.0,0.996
1597.734,434.0,0.996
1600.667,435.0,0.996
1603.595,436.0,0.995
1606.518,437.0,0.995
1609.458,438.0,0.995
1612.375,439.0,0.995
1615.338,440.0,0.995
1618.228,441.0,0.995
1621.17,442.0,0.995
1624.119,443.0,0.994
1627.032,444.0,0.994
1629.991,445.0,0.994
1632.889,446.0,0.994
1635.82,447.0,0.994
1638.738,448.0,0.994
1641.679,449.0,0.993
1644.598,450.0,0.993
1647.507,451.0,0.993
1650.452,452.0,0.993
1653.385,453.0,0.993
1656.309,454.0,0.992
1659.246,455.0,0.992
1662.155,456.0,0.992
1665.043,457.0,0.992
1668.006,458.0,0.991
1670.939,459.0,0.991
1673.867,460.0,0.991
1676.77,461.0,0.99
1679.709,462.0,0.99
1682.631,463.0,0.99
1685.571,464.0,0.99
1688.487,465.0,0.99
1691.419,466.0,0.989
1694.324,467.0,0.989
1697.267,468.0,0.988
1700.197,469.0,0.988
1703.131,470.0,0.988
1706.069,471.0,0.987
1708.949,472.0,0.987
1711.903,473.0,0.987
1714.834,474.0,0.986
1717.736,475.0,0.986
1720.679,476.0,0.986
1723.618,477.0,0.986
1726.541,478.0,0.985
1729.485,479.0,0.985
1732.384,480.0,0.985
1735.293,481.0,0.984
1738.251,482.0,0.984
1741.163,483.0,0.984
1744.099,484.0,0.984
1747.017,485.0,0.983
1749.962,486.0,0.983
1752.895,487.0,0.983
1755.819,488.0,0.982
1758.773,489.0,0.982
1761.68,490.0,0.982
1764.612,491.0,0.981
1767.542,492.0,0.981
1770.475,493.0,0.981
1773.392,494.0,0.98
1776.374,495.0,0.98
1779.301,496.0,0.98
1782.206,497.0,0.979
1785.157,498.0,0.979
1788.078,499.0,0.978
1791.034,500.0,0.978
1793.953,501.0,0.977
1796.856,502.0,0.977
1799.816,503.0,0.977
1802.74,504.0,0.976
1805.701,505.0,0.976
1808.638,506.0,0.975
1811.601,507.0,0.975
1814.503,508.0,0.974
1817.449,509.0,0.974
1820.413,510.0,0.973
1823.322,511.0,0.973
1826.279,512.0,0.972
1829.234,513.0,0.972
1832.19,514.0,0.971
1835.116,515.0,0.97
1838.092,516.0,0.97
1840.989,517.0,0.969
1843.954,518.0,0.968
1846.911,519.0,0.968
1849.85,520.0,0.967
1852.814,521.0,0.966
1855.746,522.0,0.965
1858.661,523.0,0.965
1861.63,524.0,0.964
1864.553,525.0,0.963
1867.51,526.0,0.962
1870.44,527.0,0.962
1873.388,528.0,0.961
1876.355,529.0,0.959
1879.288,530.0,0.958
1882.259,531.0,0.957
1885.181,532.0,0.956
1888.145,533.0,0.955
1891.091,534.0,0.954
1894.044,535.0,0.953
1896.977,536.0,0.952
1899.935,537.0,0.951
1902.865,538.0,0.949
1905.86,539.0,0.948
1908.799,540.0,0.947
1911.776,541.0,0.945
1914.735,542.0,0.944
1917.662,543.0,0.943
1920.651,544.0,0.942
1923.599,545.0,0.94
1926.55,546.0,0.939
1929.491,547.0,0.937
1932.468,548.0,0.936
1935.42,549.0,0.934
1938.378,550.0,0.933
1941.335,551.0,0.931
1944.297,552.0,0.93
1947.281,553.0,0.928
1950.243,554.0,0.926
1953.179,555.0,0.925
1956.152,556.0,0.923
1959.111,557.0,0.921
1962.057,558.0,0.919
1965.038,559.0,0.918
1967.949,560.0,0.916
1970.908,561.0,0.914
1973.908,562.0,0.912
1976.839,563.0,0.91
1979.81,564.0,0.908
1982.796,565.0,0.906
1985.768,566.0,0.904
1988.726,567.0,0.902
1991.698,568.0,0.899
1994.69,569.0,0.897
1997.635,570.0,0.895
2000.602,571.0,0.893
2003.584,572.0,0.89
2006.567,573.0,0.888
2009.538,574.0,0.885
2012.49,575.0,0.884
2015.464,576.0,0.881
2018.447,577.0,0.878
2021.398,578.0,0.876
2024.379,579.0,0.873
2027.363,580.0,0.87
2030.307,581.0,0.867
2033.274,582.0,0.864
2036.264,583.0,0.861
2039.246,584.0,0.858
2042.209,585.0,0.855
2045.166,586.0,0.852
2048.154,587.0,0.849
2051.108,588.0,0.845
2054.093,589.0,0.842
2057.05,590.0,0.838
2060.043,591.0,0.835
2063.05,592.0,0.831
2066.015,593.0,0.827
2068.991,594.0,0.823
2071.96,595.0,0.819
2074.955,596.0,0.815
2077.934,597.0,0.811
2080.892,598.0,0.807
2083.865,599.0,0.803
2086.863,600.0,0.799
2089.845,601.0,0.794
2092.824,602.0,0.79
2095.802,603.0,0.785
2098.805,604.0,0.781
2101.785,605.0,0.776
2104.772,606.0,0.771
2107.76,607.0,0.766
2110.731,608.0,0.762
2113.731,609.0,0.757
2116.725,610.0,0.752
2119.703,611.0,0.747
2122.702,612.0,0.741
2125.693,613.0,0.736
2128.686,614.0,0.731
2131.672,615.0,0.725
2134.638,616.0,0.72
2137.622,617.0,0.714
2140.61,618.0,0.709
2143.599,619.0,0.703
2146.603,620.0,0.697
2149.603,621.0,0.691
2152.604,622.0,0.686
2155.584,623.0,0.68
2158.576,624.0,0.674
2161.59,625.0,0.668
2164.586,626.0,0.661
2167.586,627.0,0.655
2170.537,628.0,0.649
2173.567,629.0,0.643
2176.546,630.0,0.637
2179.556,631.0,0.63
2182.524,632.0,0.624
2185.541,633.0,0.617
2188.519,634.0,0.611
2191.524,635.0,0.604
2194.544,636.0,0.597
2197.54,637.0,0.59
2200.538,638.0,0.583
2203.544,639.0,0.576
2206.579,640.0,0.569
2209.566,641.0,0.562
2212.584,642.0,0.555
2215.613,643.0,0.547
2218.613,644.0,0.54
2221.628,645.0,0.533
2224.621,646.0,0.525
2227.639,647.0,0.517
2230.651,648.0,0.509
2233.647,649.0,0.501
2236.652,650.0,0.493
2239.673,651.0,0.484
2242.683,652.0,0.476
2245.686,653.0,0.467
2248.715,654.0,0.459
2251.718,655.0,0.45
2254.738,656.0,0.441
2257.738,657.0,0.432
2260.747,658.0,0.423
2263.767,659.0,0.414
2266.803,660.0,0.405
2269.812,661.0,0.396
2272.833,662.0,0.387
2275.816,663.0,0.378
2278.834,664.0,0.368
2281.842,665.0,0.36
2284.86,666.0,0.351
2287.865,667.0,0.343
2290.881,668.0,0.335
2293.893,669.0,0.328
2296.891,670.0,0.321
2299.92,671.0,0.315
2302.902,672.0,0.309
2305.904,673.0,0.303
2308.933,674.0,0.298
2311.924,675.0,0.293
2314.931,676.0,0.289
2317.936,677.0,0.286
2320.938,678.0,0.283
2323.981,679.0,0.28
2326.982,680.0,0.278
2329.991,681.0,0.276
2332.985,682.0,0.275
2335.994,683.0,0.274
2339.012,684.0,0.273
2341.974,685.0,0.272
2345.024,686.0,0.271
2348.009,687.0,0.27
2351.066,688.0,0.269
2354.068,689.0,0.268
2357.112,690.0,0.268
2360.114,691.0,0.267
2363.11,692.0,0.266
2366.104,693.0,0.266
2369.151,694.0,0.265
2372.174,695.0,0.264
2375.18,696.0,0.264
2378.187,697.0,0.263
2381.205,698.0,0.262
2384.214,699.0,0.262
2387.259,700.0,0.261
2390.276,701.0,0.26
2393.288,702.0,0.26
2396.306,703.0,0.259
2399.306,704.0,0.259
2402.312,705.0,0.258
2405.347,706.0,0.258
2408.365,707.0,0.257
2411.384,708.0,0.257
2414.429,709.0,0.256
2417.462,710.0,0.255
2420.479,711.0,0.255
2423.497,712.0,0.254
2426.514,713.0,0.253
2429.555,714.0,0.253
2432.581,715.0,0.252
2435.582,716.0,0.252
2438.627,717.0,0.251
2441.636,718.0,0.251
2444.664,719.0,0.25
2447.664,720.0,0.25
2450.686,721.0,0.249
2453.697,722.0,0.249
2456.732,723.0,0.248
2459.77,724.0,0.248
2462.751,725.0,0.247
2465.798,726.0,0.247
2468.828,727.0,0.246
2471.867,728.0,0.246
2474.887,729.0,0.245
2477.904,730.0,0.245
2480.923,731.0,0.244
2483.97,732.0,0.243
2486.982,733.0,0.243
2490.033,734.0,0.243
2493.054,735.0,0.242
2496.096,736.0,0.242
2499.109,737.0,0.241
2502.13,738.0,0.241
2505.16,739.0,0.24
2508.19,740.0,0.24
2511.199,741.0,0.24
2514.251,742.0,0.239
2517.265,743.0,0.239
2520.304,744.0,0.238
2523.323,745.0,0.238
2526.374,746.0,0.237
2529.408,747.0,0.237
2532.421,748.0,0.237
2535.446,749.0,0.236
2538.492,750.0,0.236
2541.513,751.0,0.236
2544.537,752.0,0.235
2547.587,753.0,0.235
2550.611,754.0,0.235
2553.619,755.0,0.234
2556.632,756.0,0.234
2559.666,757.0,0.234
2562.726,758.0,0.233
2565.742,759.0,0.233
2568.766,760.0,0.233
2571.79,761.0,0.232
2574.844,762.0,0.232
2577.844,763.0,0.232
2580.899,764.0,0.231
2583.918,765.0,0.231
2586.929,766.0,0.231
2589.97,767.0,0.231
2593.017,768.0,0.23
2596.018,769.0,0.23
2599.022,770.0,0.23
2602.079,771.0,0.229
2605.069,772.0,0.229
2608.11,773.0,0.229
2611.121,774.0,0.229
2614.153,775.0,0.228
2617.177,776.0,0.228
2620.171,777.0,0.228
2623.24,778.0,0.228
2626.264,779.0,0.228
2629.273,780.0,0.227
2632.328,781.0,0.227
2635.328,782.0,0.227
2638.36,783.0,0.227
2641.375,784.0,0.226
2644.381,785.0,0.226
2647.409,786.0,0.226
2650.434,787.0,0.225
2653.48,788.0,0.225
2656.477,789.0,0.225
2659.498,790.0,0.225
2662.527,791.0,0.225
2665.559,792.0,0.224
2668.568,793.0,0.224
2671.603,794.0,0.224
2674.649,795.0,0.224
2677.654,796.0,0.224
2680.684,797.0,0.223
2683.719,798.0,0.223
2686.727,799.0,0.223
2689.759,800.0,0.223
2692.769,801.0,0.222
2695.771,802.0,0.222
2698.802,803.0,0.222
2701.834,804.0,0.222
2704.839,805.0,0.222
2707.858,806.0,0.221
2710.866,807.0,0.221
2713.899,808.0,0.221
2716.912,809.0,0.221
2719.926,810.0,0.221
2722.966,811.0,0.221
2725.976,812.0,0.22
2728.994,813.0,0.22
2732.021,814.0,0.22
2735.036,815.0,0.22
2738.063,816.0,0.22
2741.11,817.0,0.22
2744.098,818.0,0.219
2747.12,819.0,0.219
2750.133,820.0,0.219
2753.173,821.0,0.219
2756.201,822.0,0.219
2759.224,823.0,0.218
2762.234,824.0,0.218
2765.24,825.0,0.218
2768.261,826.0,0.218
2771.29,827.0,0.218
2774.286,828.0,0.217
2777.32,829.0,0.217
2780.343,830.0,0.217
2783.353,831.0,0.217
2786.372,832.0,0.217
2789.408,833.0,0.217
2792.438,834.0,0.217
2795.441,835.0,0.216
2798.455,836.0,0.216
2801.471,837.0,0.216
2804.487,838.0,0.216
2807.498,839.0,0.216
2810.53,840.0,0.215
2813.526,841.0,0.215
2816.564,842.0,0.215
2819.573,843.0,0.215
2822.595,844.0,0.215
2825.617,845.0,0.215
2828.637,846.0,0.215
2831.662,847.0,0.214
2834.675,848.0,0.214
2837.695,849.0,0.214
2840.709,850.0,0.214
2843.745,851.0,0.214
2846.741,852.0,0.214
2849.751,853.0,0.213
2852.793,854.0,0.213
2855.8,855.0,0.213
2858.82,856.0,0.213
2861.85,857.0,0.213
2864.867,858.0,0.213
2867.87,859.0,0.213
2870.875,860.0,0.213
2873.903,861.0,0.212
2876.909,862.0,0.212
2879.926,863.0,0.212
2882.942,864.0,0.212
2885.976,865.0,0.212
2888.966,866.0,0.212
2891.978,867.0,0.211
2895.021,868.0,0.211
2898.021,869.0,0.211
2901.069,870.0,0.211
2904.075,871.0,0.211
2907.098,872.0,0.211
2910.111,873.0,0.211
2913.111,874.0,0.211
2916.111,875.0,0.21
2919.123,876.0,0.21
2922.133,877.0,0.21
2925.169,878.0,0.21
2928.175,879.0,0.21
2931.181,880.0,0.21
2934.221,881.0,0.21
2937.249,882.0,0.209
2940.271,883.0,0.209
2943.259,884.0,0.209
2946.299,885.0,0.209
2949.314,886.0,0.209
2952.328,887.0,0.209
2955.336,888.0,0.209
2958.381,889.0,0.208
2961.367,890.0,0.208
2964.411,891.0,0.208
2967.415,892.0,0.208
2970.433,893.0,0.208
2973.445,894.0,0.208
2976.466,895.0,0.208
2979.484,896.0,0.208
2982.497,897.0,0.207
2985.537,898.0,0.207
2988.533,899.0,0.207
2991.554,900.0,0.207
2994.572,901.0,0.207
2997.579,902.0,0.207
3000.61,903.0,0.206
3003.617,904.0,0.206
3006.648,905.0,0.206
3009.633,906.0,0.206
3012.668,907.0,0.206
3015.661,908.0,0.206
3018.671,909.0,0.206
3021.69,910.0,0.206
3024.72,911.0,0.206
3027.745,912.0,0.206
3030.765,913.0,0.206
3033.784,914.0,0.205
3036.78,915.0,0.205
3039.813,916.0,0.205
3042.813,917.0,0.205
3045.835,918.0,0.205
3048.828,919.0,0.205
3051.865,920.0,0.205
3054.855,921.0,0.205
3057.865,922.0,0.205
3060.886,923.0,0.205
3063.915,924.0,0.204
3066.948,925.0,0.204
3069.951,926.0,0.204
3072.958,927.0,0.204
3075.978,928.0,0.204
3079.006,929.0,0.204
3082.012,930.0,0.204
3085.0,931.0,0.204
3088.044,932.0,0.203
3091.037,933.0,0.203
3094.048,934.0,0.204
3097.084,935.0,0.204
3100.089,936.0,0.204
3103.12,937.0,0.203
3106.123,938.0,0.203
3109.127,939.0,0.203
3112.178,940.0,0.203
3115.157,941.0,0.203
3118.174,942.0,0.203
3121.209,943.0,0.203
3124.224,944.0,0.203
3127.225,945.0,0.203
3130.255,946.0,0.203
3133.282,947.0,0.202
3136.301,948.0,0.202
3139.317,949.0,0.202
3142.332,950.0,0.202
3145.357,951.0,0.202
3148.37,952.0,0.202
3151.388,953.0,0.202
3154.435,954.0,0.202
3157.453,955.0,0.202
3160.467,956.0,0.202
3163.455,957.0,0.202
3166.5,958.0,0.202
3169.506,959.0,0.202
3172.495,960.0,0.202
3175.547,961.0,0.202
3178.561,962.0,0.201
3181.596,963.0,0.201
3184.616,964.0,0.201
3187.627,965.0,0.201
3190.655,966.0,0.201
3193.645,967.0,0.201
3196.681,968.0,0.201
3199.694,969.0,0.201
3202.709,970.0,0.201
3205.719,971.0,0.201
3208.75,972.0,0.201
3211.745,973.0,0.201
3214.773,974.0,0.201
3217.805,975.0,0.201
3220.794,976.0,0.2
3223.849,977.0,0.2
3226.861,978.0,0.2
3229.864,979.0,0.2
3232.885,980.0,0.2
3235.89,981.0,0.2
3238.882,982.0,0.2
3241.927,983.0,0.2
3244.931,984.0,0.2
3247.935,985.0,0.2
3250.979,986.0,0.2
3253.967,987.0,0.2
3256.985,988.0,0.2
3259.979,989.0,0.2
3263.006,990.0,0.2
3266.009,991.0,0.2
3269.028,992.0,0.199
3272.056,993.0,0.199
3275.07,994.0,0.199
3278.053,995.0,0.199
3281.107,996.0,0.199
3284.122,997.0,0.199
3287.127,998.0,0.199
3290.159,999.0,0.199
3293.158,1000.0,0.199
3296.191,1001.0,0.199
3299.192,1002.0,0.199
3302.193,1003.0,0.199
3305.217,1004.0,0.199
3308.209,1005.0,0.199
3311.245,1006.0,0.198
3314.238,1007.0,0.198
3317.252,1008.0,0.198
3320.289,1009.0,0.198
3323.304,1010.0,0.198
3326.311,1011.0,0.198
3329.334,1012.0,0.198
3332.347,1013.0,0.198
3335.343,1014.0,0.198
3338.366,1015.0,0.198
3341.366,1016.0,0.198
3344.357,1017.0,0.198
3347.376,1018.0,0.198
3350.414,1019.0,0.198
3353.415,1020.0,0.198
3356.429,1021.0,0.198
3359.453,1022.0,0.198
3362.455,1023.0,0.198
3365.476,1024.0,0.198
3368.475,1025.0,0.197
3371.503,1026.0,0.197
3374.526,1027.0,0.197
3377.526,1028.0,0.197
3380.534,1029.0,0.197
3383.539,1030.0,0.197
3386.549,1031.0,0.197
3389.549,1032.0,0.197
3392.571,1033.0,0.197
3395.576,1034.0,0.197
3398.579,1035.0,0.197
3401.569,1036.0,0.197
3404.606,1037.0,0.197
3407.607,1038.0,0.197
3410.624,1039.0,0.197
3413.608,1040.0,0.196
3416.613,1041.0,0.196
3419.601,1042.0,0.196
3422.622,1043.0,0.196
3425.622,1044.0,0.196
3428.627,1045.0,0.196
3431.608,1046.0,0.196
3434.614,1047.0,0.196
3437.632,1048.0,0.196
3440.623,1049.0,0.196
3443.618,1050.0,0.196
3446.634,1051.0,0.196
3449.648,1052.0,0.196
3452.657,1053.0,0.196
3455.685,1054.0,0.196
3458.679,1055.0,0.196
3461.682,1056.0,0.196
3464.696,1057.0,0.196
3467.71,1058.0,0.195
3470.696,1059.0,0.195
3473.713,1060.0,0.195
3476.713,1061.0,0.195
3479.733,1062.0,0.195
3482.757,1063.0,0.195
3485.739,1064.0,0.195
3488.758,1065.0,0.195
3493.127,1066.0,0.195
3497.805,1067.0,0.195
3503.52,1068.0,0.195
3520.0,1069.894,0.195
3540.0,1071.046,0.194
3560.0,1071.597,0.194
3580.0,1071.899,0.194
3600.0,1072.076,0.193
3620.0,1072.181,0.193
3640.0,1072.269,0.193
3660.0,1072.322,0.193
3680.0,1072.371,0.193
3700.0,1072.406,0.192
3720.0,1072.45,0.192
3740.0,1072.468,0.192
3760.0,1072.488,0.192
3780.0,1072.497,0.192
3800.0,1072.516,0.191
3810.0,1072.531,0.191