File: Wood/Calibration_Data/TUBS/TUBS_TGA_N2_5K_R1.csv
Time (s),Temperature (K),Mass (mg)
0.0,304.008,0.94
2.0,305.057,0.94
4.0,305.052,0.94
6.0,305.064,0.94
8.0,305.031,0.939
10.0,305.023,0.939
12.0,305.029,0.939
14.0,305.006,0.939
16.0,304.99,0.939
18.0,304.987,0.939
20.0,304.972,0.938
22.0,304.96,0.938
24.0,304.962,0.938
26.0,304.949,0.938
28.0,304.937,0.937
30.0,304.925,0.937
32.0,304.921,0.937
34.0,304.894,0.937
36.0,304.897,0.937
38.0,304.9,0.937
40.0,304.893,0.936
42.0,304.891,0.936
44.0,304.896,0.936
46.0,304.88,0.936
48.0,304.863,0.936
50.0,304.847,0.936
52.0,304.853,0.936
54.0,304.833,0.935
56.0,304.849,0.935
58.0,304.831,0.935
60.0,304.825,0.935
62.0,304.822,0.935
64.0,304.818,0.935
66.0,304.814,0.935
68.0,304.81,0.935
70.0,304.811,0.934
72.0,304.794,0.934
74.0,304.794,0.934
76.0,304.781,0.934
78.0,304.787,0.934
80.0,304.767,0.934
82.0,304.781,0.934
84.0,304.779,0.934
86.0,304.772,0.933
88.0,304.763,0.933
90.0,304.752,0.933
92.0,304.741,0.933
94.0,304.742,0.933
96.0,304.75,0.933
98.0,304.733,0.933
100.0,304.718,0.933
102.0,304.715,0.933
104.0,304.737,0.933
106.0,304.734,0.933
108.0,304.711,0.933
110.0,304.717,0.933
112.0,304.712,0.932
114.0,304.702,0.932
116.0,304.708,0.932
118.0,304.696,0.932
120.0,304.706,0.932
122.0,304.713,0.932
124.0,304.696,0.932
126.0,304.69,0.932
128.0,304.681,0.932
130.0,304.677,0.932
132.0,304.68,0.931
134.0,304.684,0.931
136.0,304.68,0.931
138.0,304.681,0.931
140.0,304.677,0.931
142.0,304.671,0.931
144.0,304.674,0.931
146.0,304.674,0.931
148.0,304.674,0.931
150.0,304.676,0.931
152.0,304.678,0.931
154.0,304.664,0.931
156.0,304.648,0.931
158.0,304.648,0.931
160.0,304.656,0.931
162.0,304.658,0.931
164.0,304.643,0.931
166.0,304.636,0.931
168.0,304.636,0.931
170.0,304.633,0.931
172.0,304.631,0.931
174.0,304.63,0.93
176.0,304.626,0.93
178.0,304.629,0.93
180.0,304.613,0.93
182.0,304.624,0.93
184.0,304.614,0.93
186.0,304.609,0.93
188.0,304.606,0.93
190.0,304.586,0.93
192.0,304.597,0.93
194.0,304.6,0.93
196.0,304.609,0.93
198.0,304.595,0.929
200.0,304.6,0.929
202.0,304.594,0.929
204.0,304.595,0.93
206.0,304.602,0.93
208.0,304.607,0.93
210.0,304.581,0.93
212.0,304.598,0.93
214.0,304.575,0.929
216.0,304.569,0.929
218.0,304.582,0.929
220.0,304.569,0.929
222.0,304.565,0.929
224.0,304.572,0.929
226.0,304.579,0.929
228.0,304.57,0.929
230.0,304.569,0.929
232.0,304.569,0.929
234.0,304.57,0.929
236.0,304.563,0.929
238.0,304.574,0.929
240.0,304.559,0.929
242.0,304.56,0.929
244.0,304.555,0.929
246.0,304.563,0.929
248.0,304.557,0.929
250.0,304.551,0.929
252.0,304.558,0.929
254.0,304.545,0.929
256.0,304.547,0.929
258.0,304.55,0.929
260.0,304.548,0.929
262.0,304.537,0.929
264.0,304.538,0.929
266.0,304.541,0.929
268.0,304.534,0.929
270.0,304.532,0.929
272.0,304.526,0.929
274.0,304.536,0.929
276.0,304.528,0.929
278.0,304.538,0.928
280.0,304.522,0.928
282.0,304.525,0.928
284.0,304.54,0.928
286.0,304.528,0.928
288.0,304.537,0.928
290.0,304.534,0.928
292.0,304.546,0.928
294.0,304.534,0.928
296.0,304.545,0.928
298.0,304.539,0.928
300.0,304.547,0.928
302.0,304.545,0.928
304.0,304.538,0.928
306.0,304.529,0.928
308.0,304.534,0.928
310.0,304.519,0.928
312.0,304.528,0.928
314.0,304.53,0.928
316.0,304.536,0.928
318.0,304.534,0.928
320.0,304.525,0.928
322.0,304.526,0.928
324.0,304.519,0.928
326.0,304.519,0.928
328.0,304.524,0.928
330.0,304.52,0.928
332.0,304.518,0.928
334.0,304.519,0.928
336.0,304.521,0.928
338.0,304.506,0.928
340.0,304.493,0.928
342.0,304.508,0.928
344.0,304.503,0.927
346.0,304.497,0.927
348.0,304.486,0.927
350.0,304.481,0.927
352.0,304.494,0.927
354.0,304.485,0.927
356.0,304.495,0.927
358.0,304.496,0.927
360.0,304.483,0.927
362.0,304.5,0.927
364.0,304.504,0.927
366.0,304.502,0.927
368.0,304.488,0.927
370.0,304.502,0.927
372.0,304.49,0.927
374.0,304.496,0.927
376.0,304.493,0.927
378.0,304.491,0.927
380.0,304.482,0.927
382.0,304.462,0.927
384.0,304.481,0.927
386.0,304.494,0.927
388.0,304.49,0.927
390.0,304.484,0.927
392.0,304.485,0.927
394.0,304.493,0.927
396.0,304.487,0.927
398.0,304.488,0.927
400.0,304.494,0.927
402.0,304.486,0.927
404.0,304.489,0.927
406.0,304.482,0.927
408.0,304.48,0.927
410.0,304.47,0.927
412.0,304.483,0.927
414.0,304.468,0.927
416.0,304.477,0.927
418.0,304.475,0.927
420.0,304.476,0.927
422.0,304.491,0.927
424.0,304.466,0.927
426.0,304.483,0.927
428.0,304.496,0.927
430.0,304.478,0.927
432.0,304.486,0.927
434.0,304.477,0.927
436.0,304.483,0.927
438.0,304.48,0.927
440.0,304.472,0.927
442.0,304.474,0.927
444.0,304.478,0.927
446.0,304.472,0.927
448.0,304.476,0.927
450.0,304.494,0.927
452.0,304.485,0.927
454.0,304.486,0.927
456.0,304.472,0.927
458.0,304.486,0.927
460.0,304.471,0.927
462.0,304.481,0.927
464.0,304.477,0.927
466.0,304.493,0.927
468.0,304.479,0.927
470.0,304.472,0.927
472.0,304.48,0.927
474.0,304.465,0.927
476.0,304.47,0.927
478.0,304.476,0.927
480.0,304.477,0.927
482.0,304.485,0.927
484.0,304.47,0.927
486.0,304.472,0.927
488.0,304.467,0.927
490.0,304.477,0.927
492.0,304.487,0.927
494.0,304.487,0.927
496.0,304.475,0.927
498.0,304.477,0.927
500.0,304.484,0.927
502.0,304.469,0.927
504.0,304.47,0.927
506.0,304.468,0.927
508.0,304.465,0.927
510.0,304.469,0.927
512.0,304.472,0.927
514.0,304.47,0.927
516.0,304.472,0.927
518.0,304.467,0.927
520.0,304.471,0.927
522.0,304.465,0.927
524.0,304.475,0.927
526.0,304.463,0.927
528.0,304.47,0.927
530.0,304.48,0.927
532.0,304.466,0.926
534.0,304.474,0.926
536.0,304.471,0.926
538.0,304.477,0.926
540.0,304.467,0.926
542.0,304.471,0.926
544.0,304.489,0.926
546.0,304.474,0.926
548.0,304.478,0.926
550.0,304.472,0.926
552.0,304.475,0.926
554.0,304.467,0.926
556.0,304.465,0.926
558.0,304.474,0.926
560.0,304.486,0.926
562.0,304.474,0.926
564.0,304.479,0.926
566.0,304.472,0.926
568.0,304.47,0.926
570.0,304.474,0.926
572.0,304.47,0.926
574.0,304.467,0.926
576.0,304.468,0.926
578.0,304.47,0.926
580.0,304.475,0.926
582.0,304.472,0.926
584.0,304.474,0.926
586.0,304.469,0.926
588.0,304.457,0.926
590.0,304.463,0.926
592.0,304.466,0.926
594.0,304.453,0.926
596.0,304.465,0.926
598.0,304.47,0.926
600.0,304.467,0.926
602.0,304.467,0.926
604.0,304.46,0.926
606.0,304.473,0.926
608.0,304.476,0.926
610.0,304.474,0.926
612.0,304.468,0.926
614.0,304.468,0.926
616.0,304.461,0.926
618.0,304.45,0.926
620.0,304.458,0.926
622.0,304.444,0.926
624.0,304.454,0.926
626.0,304.459,0.926
628.0,304.46,0.926
630.0,304.448,0.926
632.0,304.469,0.926
634.0,304.453,0.926
636.0,304.453,0.926
638.0,304.457,0.926
640.0,304.462,0.926
642.0,304.451,0.926
644.0,304.465,0.926
646.0,304.467,0.926
648.0,304.463,0.926
650.0,304.457,0.926
652.0,304.463,0.926
654.0,304.46,0.926
656.0,304.464,0.926
658.0,304.455,0.926
660.0,304.474,0.926
662.0,304.467,0.926
664.0,304.464,0.926
666.0,304.478,0.926
668.0,304.458,0.926
670.0,304.468,0.926
672.0,304.473,0.926
674.0,304.469,0.926
676.0,304.463,0.926
678.0,304.468,0.926
680.0,304.462,0.926
682.0,304.463,0.926
684.0,304.463,0.926
686.0,304.463,0.926
688.0,304.474,0.926
690.0,304.469,0.926
692.0,304.469,0.926
694.0,304.481,0.926
696.0,304.476,0.926
698.0,304.467,0.926
700.0,304.478,0.926
702.0,304.486,0.926
704.0,304.475,0.926
706.0,304.479,0.926
708.0,304.482,0.926
710.0,304.478,0.926
712.0,304.471,0.926
714.0,304.464,0.926
716.0,304.469,0.926
718.0,304.479,0.926
720.0,304.483,0.926
722.0,304.471,0.926
724.0,304.458,0.926
726.0,304.479,0.926
728.0,304.464,0.926
730.0,304.466,0.926
732.0,304.472,0.926
734.0,304.456,0.926
736.0,304.474,0.926
738.0,304.476,0.926
740.0,304.465,0.926
742.0,304.462,0.926
744.0,304.464,0.926
746.0,304.47,0.926
748.0,304.464,0.926
750.0,304.475,0.926
752.0,304.466,0.926
754.0,304.465,0.926
756.0,304.458,0.926
758.0,304.489,0.926
760.0,304.478,0.926
762.0,304.47,0.926
764.0,304.461,0.926
766.0,304.466,0.926
768.0,304.465,0.926
770.0,304.475,0.926
772.0,304.466,0.926
774.0,304.475,0.926
776.0,304.457,0.926
778.0,304.465,0.926
780.0,304.466,0.926
782.0,304.46,0.926
784.0,304.474,0.926
786.0,304.464,0.926
788.0,304.479,0.926
790.0,304.472,0.926
792.0,304.476,0.926
794.0,304.472,0.926
796.0,304.483,0.926
798.0,304.472,0.926
800.0,304.469,0.926
802.0,304.47,0.926
804.0,304.47,0.926
806.0,304.458,0.926
808.0,304.469,0.926
810.0,304.467,0.926
812.0,304.476,0.926
814.0,304.466,0.926
816.0,304.478,0.926
818.0,304.467,0.926
820.0,304.477,0.926
822.0,304.477,0.926
824.0,304.468,0.926
826.0,304.475,0.926
828.0,304.478,0.926
830.0,304.466,0.926
832.0,304.467,0.926
834.0,304.465,0.926
836.0,304.463,0.926
838.0,304.476,0.926
840.0,304.474,0.926
842.0,304.475,0.926
844.0,304.443,0.926
846.0,304.464,0.926
848.0,304.47,0.926
850.0,304.468,0.926
852.0,304.465,0.926
854.0,304.453,0.926
856.0,304.468,0.926
858.0,304.465,0.926
860.0,304.465,0.926
862.0,304.472,0.926
864.0,304.458,0.926
866.0,304.457,0.926
868.0,304.458,0.926
870.0,304.468,0.926
872.0,304.455,0.926
874.0,304.47,0.926
876.0,304.473,0.926
878.0,304.452,0.926
880.0,304.462,0.926
882.0,304.474,0.926
884.0,304.475,0.926
886.0,304.472,0.926
888.0,304.478,0.926
890.0,304.486,0.926
892.0,304.47,0.926
894.0,304.484,0.926
896.0,304.474,0.926
898.0,304.471,0.926
900.0,304.47,0.926
902.0,304.482,0.926
904.0,304.468,0.926
906.0,304.478,0.926
908.0,304.464,0.926
910.0,304.464,0.926
912.0,304.488,0.926
914.0,304.469,0.926
916.0,304.467,0.926
918.0,304.48,0.926
920.0,304.462,0.926
922.0,304.468,0.926
924.0,304.478,0.926
926.0,304.483,0.926
928.0,304.466,0.926
930.0,304.479,0.926
932.0,304.472,0.926
934.0,304.475,0.926
936.0,304.467,0.926
938.0,304.476,0.926
940.0,304.474,0.926
942.0,304.468,0.926
944.0,304.479,0.926
946.0,304.492,0.926
948.0,304.474,0.926
950.0,304.464,0.926
952.0,304.47,0.926
954.0,304.461,0.926
956.0,304.472,0.926
958.0,304.477,0.926
960.0,304.485,0.926
962.0,304.461,0.926
964.0,304.459,0.926
966.0,304.487,0.926
968.0,304.454,0.926
970.0,304.464,0.926
972.0,304.46,0.926
974.0,304.456,0.926
976.0,304.453,0.926
978.0,304.478,0.926
980.0,304.476,0.926
982.0,304.484,0.926
984.0,304.474,0.926
986.0,304.463,0.926
988.0,304.46,0.926
990.0,304.48,0.926
992.0,304.481,0.926
994.0,304.457,0.926
996.0,304.479,0.926
998.0,304.479,0.926
1000.0,304.468,0.926
1002.0,304.474,0.926
1004.0,304.473,0.926
1006.0,304.467,0.926
1008.0,304.472,0.926
1010.0,304.478,0.926
1012.0,304.475,0.926
1014.0,304.466,0.926
1016.0,304.467,0.926
1018.0,304.469,0.926
1020.0,304.472,0.926
1022.0,304.465,0.926
1024.0,304.461,0.925
1026.0,304.478,0.925
1028.0,304.473,0.925
1030.0,304.468,0.925
1032.0,304.478,0.925
1034.0,304.479,0.925
1036.0,304.474,0.925
1038.0,304.479,0.925
1040.0,304.468,0.925
1042.0,304.466,0.925
1044.0,304.464,0.925
1046.0,304.478,0.925
1048.0,304.47,0.925
1050.0,304.47,0.925
1052.0,304.466,0.925
1054.0,304.479,0.925
1056.0,304.464,0.925
1058.0,304.483,0.925
1060.0,304.468,0.925
1062.0,304.472,0.925
1064.0,304.474,0.926
1066.0,304.481,0.926
1068.0,304.474,0.926
1070.0,304.484,0.926
1072.0,304.468,0.926
1074.0,304.475,0.926
1076.0,304.48,0.926
1078.0,304.483,0.926
1080.0,304.477,0.925
1082.0,304.458,0.925
1084.0,304.461,0.925
1086.0,304.476,0.925
1088.0,304.477,0.925
1090.0,304.462,0.926
1092.0,304.465,0.926
1094.0,304.463,0.926
1096.0,304.471,0.926
1098.0,304.462,0.926
1100.0,304.473,0.926
1102.0,304.472,0.926
1104.0,304.456,0.926
1106.0,304.466,0.926
1108.0,304.464,0.926
1110.0,304.461,0.926
1112.0,304.466,0.926
1114.0,304.469,0.926
1116.0,304.479,0.926
1118.0,304.485,0.926
1120.0,304.478,0.925
1122.0,304.476,0.925
1124.0,304.466,0.925
1126.0,304.478,0.925
1128.0,304.491,0.925
1130.0,304.466,0.925
1132.0,304.461,0.925
1134.0,304.464,0.925
1136.0,304.464,0.926
1138.0,304.46,0.926
1140.0,304.478,0.926
1142.0,304.478,0.926
1144.0,304.471,0.926
1146.0,304.471,0.926
1148.0,304.472,0.926
1150.0,304.478,0.926
1152.0,304.469,0.926
1154.0,304.481,0.926
1156.0,304.475,0.926
1158.0,304.484,0.926
1160.0,304.48,0.926
1162.0,304.472,0.926
1164.0,304.477,0.926
1166.0,304.48,0.926
1168.0,304.467,0.926
1170.0,304.471,0.926
1172.0,304.476,0.926
1174.0,304.46,0.926
1176.0,304.479,0.926
1178.0,304.478,0.926
1180.0,304.465,0.926
1182.0,304.47,0.926
1184.0,304.477,0.925
1186.0,304.453,0.925
1188.0,304.466,0.925
1190.0,304.466,0.925
1192.0,304.479,0.926
1194.0,304.472,0.926
1196.0,304.47,0.926
1198.0,304.474,0.926
1200.0,304.472,0.925
1202.0,304.57,0.925
1204.0,305.18,0.924
1206.0,305.961,0.923
1208.0,306.541,0.923
1210.0,307.461,0.924
1212.0,308.525,0.925
1214.0,309.664,0.927
1216.0,310.871,0.928
1218.0,312.136,0.929
1220.0,313.403,0.929
1222.0,314.673,0.929
1224.0,315.99,0.929
1226.0,317.289,0.929
1228.0,318.584,0.928
1230.0,319.902,0.928
1232.0,321.228,0.928
1234.0,322.553,0.927
1236.0,323.868,0.927
1238.0,325.199,0.927
1240.0,326.509,0.927
1242.0,327.825,0.926
1244.0,329.167,0.926
1246.0,330.483,0.926
1248.0,331.793,0.926
1250.0,333.129,0.926
1252.0,334.439,0.925
1254.0,335.77,0.925
1256.0,337.084,0.925
1258.0,338.384,0.924
1260.0,339.713,0.924
1262.0,341.039,0.924
1264.0,342.363,0.924
1266.0,343.683,0.923
1268.0,345.002,0.923
1270.0,346.328,0.923
1272.0,347.638,0.922
1274.0,348.979,0.922
1276.0,350.291,0.922
1278.0,351.615,0.921
1280.0,352.919,0.921
1282.0,354.237,0.921
1284.0,355.571,0.921
1286.0,356.904,0.92
1288.0,358.213,0.92
1290.0,359.556,0.92
1292.0,360.865,0.919
1294.0,362.2,0.919
1296.0,363.516,0.919
1298.0,364.827,0.919
1300.0,366.166,0.919
1302.0,367.501,0.918
1304.0,368.811,0.918
1306.0,370.132,0.918
1308.0,371.472,0.918
1310.0,372.796,0.918
1312.0,374.124,0.918
1314.0,375.452,0.918
1316.0,376.766,0.918
1318.0,378.108,0.918
1320.0,379.435,0.918
1322.0,380.768,0.918
1324.0,382.096,0.917
1326.0,383.428,0.917
1328.0,384.763,0.917
1330.0,386.091,0.917
1332.0,387.405,0.917
1334.0,388.758,0.917
1336.0,390.084,0.917
1338.0,391.43,0.917
1340.0,392.758,0.917
1342.0,394.09,0.917
1344.0,395.427,0.917
1346.0,396.768,0.917
1348.0,398.118,0.917
1350.0,399.46,0.917
1352.0,400.787,0.917
1354.0,402.121,0.917
1356.0,403.461,0.917
1358.0,404.808,0.917
1360.0,406.14,0.917
1362.0,407.484,0.917
1364.0,408.832,0.917
1366.0,410.176,0.917
1368.0,411.53,0.917
1370.0,412.886,0.917
1372.0,414.23,0.917
1374.0,415.576,0.917
1376.0,416.922,0.917
1378.0,418.277,0.917
1380.0,419.612,0.917
1382.0,420.955,0.917
1384.0,422.321,0.917
1386.0,423.663,0.917
1388.0,425.016,0.917
1390.0,426.374,0.917
1392.0,427.72,0.917
1394.0,429.076,0.917
1396.0,430.425,0.917
1398.0,431.789,0.917
1400.0,433.139,0.916
1402.0,434.496,0.916
1404.0,435.851,0.916
1406.0,437.21,0.916
1408.0,438.558,0.916
1410.0,439.933,0.916
1412.0,441.273,0.916
1414.0,442.636,0.916
1416.0,443.997,0.916
1418.0,445.365,0.916
1420.0,446.723,0.916
1422.0,448.081,0.915
1424.0,449.449,0.915
1426.0,450.795,0.915
1428.0,452.161,0.915
1430.0,453.522,0.915
1432.0,454.894,0.915
1434.0,456.248,0.915
1436.0,457.615,0.914
1438.0,458.979,0.914
1440.0,460.352,0.914
1442.0,461.731,0.914
1444.0,463.084,0.914
1446.0,464.44,0.913
1448.0,465.82,0.913
1450.0,467.182,0.913
1452.0,468.554,0.912
1454.0,469.916,0.912
1456.0,471.293,0.911
1458.0,472.657,0.911
1460.0,474.021,0.911
1462.0,475.395,0.91
1464.0,476.776,0.91
1466.0,478.131,0.909
1468.0,479.506,0.909
1470.0,480.865,0.908
1472.0,482.247,0.908
1474.0,483.617,0.907
1476.0,484.989,0.907
1478.0,486.365,0.907
1480.0,487.734,0.906
1482.0,489.111,0.906
1484.0,490.487,0.905
1486.0,491.851,0.905
1488.0,493.223,0.904
1490.0,494.603,0.904
1492.0,495.968,0.903
1494.0,497.33,0.903
1496.0,498.71,0.902
1498.0,500.076,0.902
1500.0,501.45,0.901
1502.0,502.824,0.9
1504.0,504.188,0.9
1506.0,505.567,0.899
1508.0,506.935,0.898
1510.0,508.303,0.897
1512.0,509.681,0.897
1514.0,511.038,0.896
1516.0,512.422,0.895
1518.0,513.788,0.894
1520.0,515.156,0.894
1522.0,516.524,0.893
1524.0,517.895,0.892
1526.0,519.28,0.891
1528.0,520.653,0.89
1530.0,522.003,0.889
1532.0,523.373,0.888
1534.0,524.737,0.887
1536.0,526.115,0.886
1538.0,527.497,0.885
1540.0,528.865,0.883
1542.0,530.22,0.882
1544.0,531.586,0.881
1546.0,532.957,0.88
1548.0,534.321,0.878
1550.0,535.69,0.877
1552.0,537.061,0.875
1554.0,538.425,0.874
1556.0,539.788,0.872
1558.0,541.16,0.871
1560.0,542.518,0.869
1562.0,543.889,0.867
1564.0,545.261,0.866
1566.0,546.626,0.864
1568.0,547.989,0.862
1570.0,549.361,0.86
1572.0,550.716,0.858
1574.0,552.088,0.856
1576.0,553.451,0.854
1578.0,554.815,0.852
1580.0,556.169,0.85
1582.0,557.529,0.848
1584.0,558.9,0.846
1586.0,560.256,0.844
1588.0,561.627,0.842
1590.0,562.98,0.839
1592.0,564.351,0.837
1594.0,565.711,0.835
1596.0,567.06,0.832
1598.0,568.429,0.83
1600.0,569.786,0.828
1602.0,571.153,0.825
1604.0,572.523,0.822
1606.0,573.88,0.82
1608.0,575.241,0.817
1610.0,576.596,0.814
1612.0,577.966,0.812
1614.0,579.328,0.809
1616.0,580.704,0.806
1618.0,582.062,0.803
1620.0,583.447,0.799
1622.0,584.797,0.796
1624.0,586.153,0.792
1626.0,587.513,0.788
1628.0,588.882,0.784
1630.0,590.243,0.78
1632.0,591.596,0.776
1634.0,592.955,0.773
1636.0,594.311,0.769
1638.0,595.67,0.764
1640.0,597.03,0.76
1642.0,598.385,0.755
1644.0,599.741,0.751
1646.0,601.094,0.747
1648.0,602.441,0.742
1650.0,603.796,0.738
1652.0,605.151,0.733
1654.0,606.504,0.728
1656.0,607.846,0.723
1658.0,609.197,0.719
1660.0,610.553,0.713
1662.0,611.909,0.708
1664.0,613.243,0.703
1666.0,614.589,0.697
1668.0,615.924,0.692
1670.0,617.276,0.686
1672.0,618.616,0.68
1674.0,619.959,0.674
1676.0,621.31,0.668
1678.0,622.647,0.662
1680.0,623.992,0.656
1682.0,625.329,0.65
1684.0,626.671,0.643
1686.0,628.0,0.637
1688.0,629.336,0.63
1690.0,630.671,0.623
1692.0,632.007,0.616
1694.0,633.357,0.609
1696.0,634.679,0.602
1698.0,636.017,0.595
1700.0,637.358,0.588
1702.0,638.697,0.581
1704.0,640.019,0.574
1706.0,641.352,0.566
1708.0,642.701,0.559
1710.0,644.033,0.551
1712.0,645.358,0.544
1714.0,646.698,0.536
1716.0,648.022,0.529
1718.0,649.363,0.52
1720.0,650.687,0.512
1722.0,652.028,0.504
1724.0,653.357,0.496
1726.0,654.682,0.487
1728.0,656.012,0.479
1730.0,657.342,0.47
1732.0,658.665,0.461
1734.0,659.992,0.452
1736.0,661.327,0.443
1738.0,662.65,0.433
1740.0,663.972,0.424
1742.0,665.295,0.414
1744.0,666.635,0.404
1746.0,667.95,0.394
1748.0,669.277,0.384
1750.0,670.6,0.373
1752.0,671.92,0.362
1754.0,673.256,0.352
1756.0,674.574,0.341
1758.0,675.895,0.33
1760.0,677.233,0.319
1762.0,678.547,0.308
1764.0,679.864,0.298
1766.0,681.2,0.287
1768.0,682.519,0.278
1770.0,683.847,0.268
1772.0,685.179,0.259
1774.0,686.497,0.251
1776.0,687.823,0.244
1778.0,689.149,0.237
1780.0,690.473,0.231
1782.0,691.795,0.225
1784.0,693.128,0.221
1786.0,694.434,0.217
1788.0,695.773,0.214
1790.0,697.096,0.211
1792.0,698.424,0.209
1794.0,699.746,0.207
1796.0,701.064,0.205
1798.0,702.406,0.204
1800.0,703.72,0.203
1802.0,705.036,0.201
1804.0,706.362,0.201
1806.0,707.694,0.2
1808.0,709.001,0.199
1810.0,710.328,0.198
1812.0,711.651,0.197
1814.0,712.979,0.196
1816.0,714.296,0.196
1818.0,715.612,0.195
1820.0,716.942,0.194
1822.0,718.268,0.193
1824.0,719.58,0.192
1826.0,720.893,0.192
1828.0,722.215,0.191
1830.0,723.54,0.19
1832.0,724.854,0.189
1834.0,726.171,0.189
1836.0,727.495,0.188
1838.0,728.819,0.187
1840.0,730.139,0.187
1842.0,731.456,0.186
1844.0,732.772,0.185
1846.0,734.09,0.184
1848.0,735.412,0.184
1850.0,736.73,0.183
1852.0,738.048,0.182
1854.0,739.365,0.182
1856.0,740.678,0.181
1858.0,741.989,0.18
1860.0,743.316,0.18
1862.0,744.63,0.179
1864.0,745.942,0.178
1866.0,747.26,0.178
1868.0,748.576,0.177
1870.0,749.886,0.176
1872.0,751.213,0.176
1874.0,752.525,0.175
1876.0,753.838,0.174
1878.0,755.158,0.174
1880.0,756.476,0.173
1882.0,757.783,0.173
1884.0,759.095,0.172
1886.0,760.42,0.171
1888.0,761.739,0.171
1890.0,763.046,0.17
1892.0,764.359,0.17
1894.0,765.684,0.169
1896.0,766.985,0.169
1898.0,768.293,0.168
1900.0,769.615,0.168
1902.0,770.927,0.167
1904.0,772.242,0.167
1906.0,773.557,0.166
1908.0,774.866,0.166
1910.0,776.173,0.166
1912.0,777.497,0.165
1914.0,778.813,0.165
1916.0,780.117,0.165
1918.0,781.436,0.164
1920.0,782.751,0.164
1922.0,784.062,0.164
1924.0,785.37,0.163
1926.0,786.687,0.163
1928.0,788.0,0.162
1930.0,789.317,0.162
1932.0,790.632,0.162
1934.0,791.942,0.161
1936.0,793.262,0.161
1938.0,794.574,0.16
1940.0,795.897,0.16
1942.0,797.206,0.16
1944.0,798.523,0.159
1946.0,799.836,0.159
1948.0,801.143,0.159
1950.0,802.471,0.158
1952.0,803.78,0.158
1954.0,805.101,0.158
1956.0,806.416,0.157
1958.0,807.734,0.157
1960.0,809.042,0.157
1962.0,810.365,0.157
1964.0,811.686,0.156
1966.0,812.992,0.156
1968.0,814.318,0.156
1970.0,815.632,0.156
1972.0,816.947,0.155
1974.0,818.266,0.155
1976.0,819.582,0.155
1978.0,820.892,0.155
1980.0,822.209,0.155
1982.0,823.537,0.154
1984.0,824.845,0.154
1986.0,826.156,0.154
1988.0,827.475,0.154
1990.0,828.795,0.153
1992.0,830.119,0.153
1994.0,831.436,0.153
1996.0,832.75,0.153
1998.0,834.066,0.153
2000.0,835.394,0.152
2002.0,836.708,0.152
2004.0,838.02,0.152
2006.0,839.343,0.152
2008.0,840.657,0.152
2010.0,841.98,0.151
2012.0,843.298,0.151
2014.0,844.618,0.151
2016.0,845.936,0.151
2018.0,847.242,0.15
2020.0,848.568,0.15
2022.0,849.888,0.15
2024.0,851.213,0.15
2026.0,852.531,0.149
2028.0,853.843,0.149
2030.0,855.162,0.149
2032.0,856.478,0.149
2034.0,857.806,0.149
2036.0,859.125,0.149
2038.0,860.441,0.149
2040.0,861.763,0.148
2042.0,863.084,0.148
2044.0,864.406,0.148
2046.0,865.71,0.148
2048.0,867.046,0.148
2050.0,868.369,0.147
2052.0,869.676,0.147
2054.0,871.005,0.147
2056.0,872.322,0.147
2058.0,873.636,0.147
2060.0,874.961,0.146
2062.0,876.292,0.146
2064.0,877.61,0.146
2066.0,878.926,0.146
2068.0,880.253,0.146
2070.0,881.574,0.146
2072.0,882.896,0.146
2074.0,884.22,0.145
2076.0,885.535,0.145
2078.0,886.862,0.145
2080.0,888.188,0.145
2082.0,889.507,0.145
2084.0,890.838,0.145
2086.0,892.156,0.144
2088.0,893.475,0.144
2090.0,894.805,0.144
2092.0,896.132,0.144
2094.0,897.443,0.144
2096.0,898.774,0.144
2098.0,900.09,0.143
2100.0,901.418,0.143
2102.0,902.739,0.143
2104.0,904.068,0.143
2106.0,905.389,0.143
2108.0,906.706,0.143
2110.0,908.033,0.143
2112.0,909.361,0.142
2114.0,910.685,0.142
2116.0,912.014,0.142
2118.0,913.332,0.142
2120.0,914.65,0.142
2122.0,915.977,0.142
2124.0,917.3,0.142
2126.0,918.629,0.141
2128.0,919.95,0.141
2130.0,921.275,0.141
2132.0,922.61,0.141
2134.0,923.94,0.141
2136.0,925.258,0.141
2138.0,926.577,0.141
2140.0,927.915,0.14
2142.0,929.236,0.14
2144.0,930.564,0.14
2146.0,931.886,0.14
2148.0,933.218,0.14
2150.0,934.534,0.14
2152.0,935.87,0.14
2154.0,937.192,0.14
2156.0,938.518,0.139
2158.0,939.84,0.139
2160.0,941.171,0.139
2162.0,942.494,0.139
2164.0,943.824,0.139
2166.0,945.156,0.139
2168.0,946.475,0.139
2170.0,947.803,0.139
2172.0,949.133,0.138
2174.0,950.46,0.138
2176.0,951.781,0.138
2178.0,953.113,0.138
2180.0,954.437,0.138
2182.0,955.771,0.138
2184.0,957.086,0.138
2186.0,958.412,0.138
2188.0,959.752,0.137
2190.0,961.071,0.137
2192.0,962.391,0.137
2194.0,963.732,0.137
2196.0,965.049,0.137
2198.0,966.364,0.137
2200.0,967.7,0.137
2202.0,969.026,0.137
2204.0,970.353,0.136
2206.0,971.675,0.136
2208.0,973.007,0.136
2210.0,974.326,0.136
2212.0,975.656,0.136
2214.0,976.991,0.136
2216.0,978.31,0.136
2218.0,979.644,0.136
2220.0,980.96,0.136
2222.0,982.289,0.136
2224.0,983.618,0.136
2226.0,984.95,0.135
2228.0,986.271,0.135
2230.0,987.604,0.135
2232.0,988.921,0.135
2234.0,990.248,0.135
2236.0,991.573,0.135
2238.0,992.894,0.135
2240.0,994.232,0.135
2242.0,995.554,0.135
2244.0,996.887,0.135
2246.0,998.211,0.135
2248.0,999.538,0.134
2250.0,1000.859,0.134
2252.0,1002.191,0.134
2254.0,1003.505,0.134
2256.0,1004.829,0.134
2258.0,1006.166,0.134
2260.0,1007.487,0.134
2262.0,1008.816,0.134
2264.0,1010.144,0.134
2266.0,1011.479,0.134
2268.0,1012.802,0.134
2270.0,1014.128,0.133
2272.0,1015.459,0.133
2274.0,1016.779,0.133
2276.0,1018.121,0.133
2278.0,1019.432,0.133
2280.0,1020.766,0.133
2282.0,1022.09,0.133
2284.0,1023.421,0.133
2286.0,1024.751,0.133
2288.0,1026.08,0.133
2290.0,1027.413,0.133
2292.0,1028.733,0.133
2294.0,1030.058,0.132
2296.0,1031.394,0.132
2298.0,1032.712,0.132
2300.0,1034.041,0.132
2302.0,1035.375,0.132
2304.0,1036.698,0.132
2306.0,1038.027,0.132
2308.0,1039.36,0.132
2310.0,1040.684,0.132
2312.0,1042.02,0.132
2314.0,1043.346,0.132
2316.0,1044.685,0.132
2318.0,1046.01,0.131
2320.0,1047.334,0.131
2322.0,1048.666,0.131
2324.0,1050.005,0.131
2326.0,1051.322,0.131
2328.0,1052.655,0.131
2330.0,1053.984,0.131
2332.0,1055.3,0.131
2334.0,1056.634,0.13
2336.0,1057.613,0.13
2338.0,1058.373,0.13
2340.0,1059.311,0.13
2342.0,1060.175,0.13
2344.0,1060.975,0.13
2346.0,1061.707,0.13
2348.0,1062.389,0.13
2350.0,1063.016,0.13
2352.0,1063.606,0.13
2354.0,1064.138,0.13
2356.0,1064.639,0.13
2358.0,1065.095,0.13
2360.0,1065.525,0.13
2362.0,1065.91,0.13
2364.0,1066.288,0.13
2366.0,1066.625,0.129
2368.0,1066.947,0.129
2370.0,1067.242,0.129
2372.0,1067.513,0.129
2374.0,1067.763,0.129
2376.0,1068.0,0.129
2378.0,1068.22,0.129
2380.0,1068.43,0.129
2382.0,1068.612,0.129
2384.0,1068.793,0.129
2386.0,1068.963,0.129
2388.0,1069.129,0.129
2390.0,1069.271,0.129
2392.0,1069.409,0.129
2394.0,1069.529,0.129
2396.0,1069.643,0.129
2398.0,1069.756,0.129
2400.0,1069.86,0.129
2402.0,1069.959,0.129
2404.0,1070.047,0.129
2406.0,1070.14,0.128
2408.0,1070.22,0.128
2410.0,1070.308,0.128
2412.0,1070.376,0.128
2414.0,1070.44,0.128
2416.0,1070.513,0.128
2418.0,1070.571,0.128
2420.0,1070.625,0.128
2422.0,1070.685,0.128
2424.0,1070.738,0.128
2426.0,1070.793,0.128
2428.0,1070.828,0.128
2430.0,1070.875,0.128
2432.0,1070.919,0.128
2434.0,1070.964,0.128
2436.0,1071.0,0.128
2438.0,1071.043,0.128
2440.0,1071.085,0.128
2442.0,1071.116,0.128
2444.0,1071.149,0.128
2446.0,1071.18,0.128
2448.0,1071.213,0.128
2450.0,1071.24,0.128
2452.0,1071.261,0.128
2454.0,1071.288,0.128
2456.0,1071.315,0.128
2458.0,1071.338,0.128
2460.0,1071.36,0.128
2462.0,1071.388,0.128
2464.0,1071.41,0.128
2466.0,1071.432,0.128
2468.0,1071.458,0.127
2470.0,1071.477,0.127
2472.0,1071.5,0.127
2474.0,1071.521,0.127
2476.0,1071.533,0.127
2478.0,1071.552,0.127
2480.0,1071.575,0.127
2482.0,1071.584,0.127
2484.0,1071.597,0.127
2486.0,1071.625,0.127
2488.0,1071.644,0.127
2490.0,1071.657,0.127
2492.0,1071.663,0.127
2494.0,1071.687,0.127
2496.0,1071.693,0.127
2498.0,1071.712,0.127
2500.0,1071.71,0.127
2502.0,1071.729,0.127
2504.0,1071.749,0.127
2506.0,1071.755,0.127
2508.0,1071.773,0.127
2510.0,1071.792,0.127
2512.0,1071.798,0.127
2514.0,1071.809,0.127
2516.0,1071.823,0.127
2518.0,1071.832,0.127
2520.0,1071.842,0.127
2522.0,1071.848,0.127
2524.0,1071.866,0.127
2526.0,1071.867,0.127
2528.0,1071.877,0.127
2530.0,1071.883,0.127
2532.0,1071.896,0.127
2534.0,1071.91,0.127
2536.0,1071.914,0.127
2538.0,1071.927,0.127
2540.0,1071.939,0.127
2542.0,1071.95,0.127
2544.0,1071.955,0.127
2546.0,1071.959,0.127
2548.0,1071.973,0.127
2550.0,1071.974,0.126
2552.0,1071.987,0.126
2554.0,1071.992,0.126
2556.0,1071.998,0.126
2558.0,1072.001,0.126
2560.0,1072.005,0.126
2562.0,1072.016,0.126
2564.0,1072.03,0.126
2566.0,1072.024,0.126
2568.0,1072.033,0.126
2570.0,1072.042,0.126
2572.0,1072.048,0.126
2574.0,1072.056,0.126
2576.0,1072.06,0.126
2578.0,1072.061,0.126
2580.0,1072.072,0.126
2582.0,1072.074,0.126
2584.0,1072.084,0.126
2586.0,1072.085,0.126
2588.0,1072.092,0.126
2590.0,1072.098,0.126
2592.0,1072.106,0.126
2594.0,1072.109,0.126
2596.0,1072.118,0.126
2598.0,1072.123,0.126
2600.0,1072.12,0.126
2602.0,1072.126,0.126
2604.0,1072.132,0.126
2606.0,1072.131,0.126
2608.0,1072.129,0.126
2610.0,1072.141,0.126
2612.0,1072.144,0.126
2614.0,1072.151,0.126
2616.0,1072.153,0.126
2618.0,1072.156,0.126
2620.0,1072.164,0.126
2622.0,1072.17,0.126
2624.0,1072.173,0.126
2626.0,1072.18,0.126
2628.0,1072.172,0.126
2630.0,1072.183,0.126
2632.0,1072.198,0.126
2634.0,1072.193,0.126
2636.0,1072.197,0.126
2638.0,1072.194,0.126
2640.0,1072.197,0.126
2642.0,1072.199,0.126
2644.0,1072.209,0.126
2646.0,1072.212,0.126
2648.0,1072.216,0.126
2650.0,1072.214,0.126
2652.0,1072.216,0.126
2654.0,1072.223,0.126
2655.0,1072.224,0.126