File: Wood/Calibration_Data/TUBS/TUBS_TGA_N2_5K_R2.csv
Time (s),Temperature (K),Mass (mg)
0.0,305.128,0.99
2.0,305.102,0.99
4.0,305.102,0.99
6.0,305.09,0.989
8.0,305.078,0.989
10.0,305.077,0.989
12.0,305.064,0.989
14.0,305.056,0.989
16.0,305.055,0.988
18.0,305.027,0.988
20.0,305.016,0.988
22.0,305.022,0.988
24.0,304.993,0.987
26.0,304.992,0.987
28.0,304.978,0.987
30.0,304.965,0.987
32.0,304.964,0.987
34.0,304.962,0.986
36.0,304.941,0.986
38.0,304.932,0.986
40.0,304.927,0.986
42.0,304.934,0.986
44.0,304.919,0.986
46.0,304.92,0.985
48.0,304.913,0.985
50.0,304.898,0.985
52.0,304.888,0.985
54.0,304.893,0.985
56.0,304.884,0.984
58.0,304.884,0.984
60.0,304.868,0.984
62.0,304.863,0.984
64.0,304.862,0.984
66.0,304.863,0.984
68.0,304.858,0.984
70.0,304.841,0.984
72.0,304.822,0.984
74.0,304.833,0.983
76.0,304.829,0.983
78.0,304.817,0.983
80.0,304.83,0.983
82.0,304.816,0.983
84.0,304.808,0.983
86.0,304.798,0.983
88.0,304.817,0.983
90.0,304.801,0.983
92.0,304.798,0.983
94.0,304.79,0.983
96.0,304.793,0.982
98.0,304.786,0.982
100.0,304.785,0.982
102.0,304.775,0.982
104.0,304.774,0.982
106.0,304.77,0.982
108.0,304.772,0.982
110.0,304.761,0.982
112.0,304.761,0.982
114.0,304.753,0.982
116.0,304.763,0.982
118.0,304.753,0.981
120.0,304.739,0.981
122.0,304.738,0.981
124.0,304.738,0.981
126.0,304.747,0.981
128.0,304.736,0.981
130.0,304.725,0.981
132.0,304.706,0.98
134.0,304.698,0.98
136.0,304.702,0.98
138.0,304.712,0.98
140.0,304.708,0.98
142.0,304.693,0.98
144.0,304.698,0.98
146.0,304.7,0.98
148.0,304.697,0.98
150.0,304.687,0.98
152.0,304.7,0.98
154.0,304.701,0.98
156.0,304.678,0.98
158.0,304.684,0.98
160.0,304.668,0.98
162.0,304.676,0.98
164.0,304.674,0.98
166.0,304.678,0.98
168.0,304.672,0.98
170.0,304.663,0.98
172.0,304.665,0.98
174.0,304.662,0.979
176.0,304.666,0.979
178.0,304.658,0.979
180.0,304.662,0.979
182.0,304.664,0.979
184.0,304.644,0.979
186.0,304.642,0.979
188.0,304.65,0.979
190.0,304.649,0.979
192.0,304.624,0.979
194.0,304.645,0.979
196.0,304.617,0.979
198.0,304.623,0.979
200.0,304.635,0.979
202.0,304.632,0.979
204.0,304.624,0.979
206.0,304.613,0.979
208.0,304.611,0.979
210.0,304.615,0.979
212.0,304.633,0.978
214.0,304.621,0.978
216.0,304.603,0.978
218.0,304.608,0.978
220.0,304.598,0.978
222.0,304.595,0.978
224.0,304.599,0.978
226.0,304.606,0.978
228.0,304.594,0.978
230.0,304.616,0.978
232.0,304.599,0.978
234.0,304.602,0.978
236.0,304.6,0.978
238.0,304.597,0.978
240.0,304.592,0.978
242.0,304.609,0.978
244.0,304.585,0.978
246.0,304.582,0.978
248.0,304.592,0.978
250.0,304.582,0.978
252.0,304.591,0.978
254.0,304.591,0.978
256.0,304.58,0.978
258.0,304.568,0.978
260.0,304.588,0.978
262.0,304.574,0.977
264.0,304.571,0.977
266.0,304.561,0.977
268.0,304.563,0.977
270.0,304.568,0.977
272.0,304.562,0.977
274.0,304.563,0.977
276.0,304.571,0.977
278.0,304.563,0.977
280.0,304.564,0.977
282.0,304.574,0.977
284.0,304.557,0.977
286.0,304.561,0.977
288.0,304.551,0.977
290.0,304.566,0.977
292.0,304.542,0.977
294.0,304.548,0.977
296.0,304.538,0.977
298.0,304.54,0.977
300.0,304.547,0.977
302.0,304.528,0.977
304.0,304.55,0.977
306.0,304.542,0.977
308.0,304.538,0.977
310.0,304.552,0.977
312.0,304.561,0.977
314.0,304.531,0.977
316.0,304.543,0.977
318.0,304.54,0.977
320.0,304.518,0.977
322.0,304.522,0.977
324.0,304.534,0.977
326.0,304.54,0.977
328.0,304.529,0.977
330.0,304.544,0.977
332.0,304.54,0.977
334.0,304.543,0.977
336.0,304.542,0.977
338.0,304.539,0.977
340.0,304.556,0.977
342.0,304.537,0.976
344.0,304.55,0.976
346.0,304.538,0.976
348.0,304.526,0.976
350.0,304.522,0.976
352.0,304.516,0.976
354.0,304.541,0.976
356.0,304.54,0.976
358.0,304.549,0.976
360.0,304.54,0.976
362.0,304.529,0.976
364.0,304.534,0.976
366.0,304.533,0.976
368.0,304.53,0.976
370.0,304.528,0.976
372.0,304.517,0.976
374.0,304.539,0.976
376.0,304.515,0.976
378.0,304.522,0.976
380.0,304.52,0.976
382.0,304.513,0.976
384.0,304.531,0.976
386.0,304.527,0.976
388.0,304.535,0.976
390.0,304.532,0.976
392.0,304.52,0.976
394.0,304.53,0.976
396.0,304.519,0.975
398.0,304.518,0.975
400.0,304.516,0.975
402.0,304.533,0.975
404.0,304.511,0.975
406.0,304.519,0.975
408.0,304.524,0.975
410.0,304.523,0.975
412.0,304.509,0.975
414.0,304.509,0.975
416.0,304.518,0.975
418.0,304.515,0.975
420.0,304.512,0.975
422.0,304.504,0.975
424.0,304.521,0.975
426.0,304.519,0.975
428.0,304.511,0.975
430.0,304.514,0.975
432.0,304.511,0.975
434.0,304.514,0.975
436.0,304.499,0.975
438.0,304.529,0.975
440.0,304.528,0.975
442.0,304.521,0.975
444.0,304.513,0.975
446.0,304.506,0.975
448.0,304.513,0.975
450.0,304.497,0.975
452.0,304.513,0.975
454.0,304.512,0.975
456.0,304.521,0.975
458.0,304.506,0.975
460.0,304.51,0.975
462.0,304.494,0.975
464.0,304.502,0.975
466.0,304.502,0.975
468.0,304.508,0.975
470.0,304.482,0.975
472.0,304.494,0.975
474.0,304.512,0.975
476.0,304.509,0.975
478.0,304.517,0.975
480.0,304.507,0.975
482.0,304.499,0.975
484.0,304.492,0.975
486.0,304.505,0.975
488.0,304.497,0.975
490.0,304.483,0.975
492.0,304.493,0.975
494.0,304.499,0.975
496.0,304.497,0.975
498.0,304.515,0.975
500.0,304.499,0.975
502.0,304.509,0.975
504.0,304.499,0.975
506.0,304.499,0.975
508.0,304.496,0.975
510.0,304.492,0.975
512.0,304.493,0.975
514.0,304.496,0.975
516.0,304.491,0.975
518.0,304.487,0.975
520.0,304.502,0.975
522.0,304.503,0.975
524.0,304.498,0.975
526.0,304.507,0.975
528.0,304.486,0.975
530.0,304.482,0.975
532.0,304.491,0.975
534.0,304.499,0.975
536.0,304.485,0.975
538.0,304.498,0.975
540.0,304.5,0.975
542.0,304.495,0.974
544.0,304.497,0.974
546.0,304.508,0.974
548.0,304.484,0.974
550.0,304.496,0.974
552.0,304.484,0.974
554.0,304.486,0.974
556.0,304.489,0.974
558.0,304.484,0.974
560.0,304.503,0.974
562.0,304.5,0.974
564.0,304.49,0.974
566.0,304.501,0.974
568.0,304.508,0.974
570.0,304.485,0.974
572.0,304.509,0.974
574.0,304.505,0.974
576.0,304.489,0.974
578.0,304.5,0.974
580.0,304.493,0.974
582.0,304.503,0.974
584.0,304.501,0.974
586.0,304.518,0.974
588.0,304.501,0.974
590.0,304.491,0.974
592.0,304.504,0.974
594.0,304.508,0.974
596.0,304.505,0.974
598.0,304.494,0.974
600.0,304.499,0.974
602.0,304.48,0.974
604.0,304.488,0.974
606.0,304.505,0.974
608.0,304.496,0.974
610.0,304.505,0.974
612.0,304.499,0.974
614.0,304.493,0.974
616.0,304.505,0.974
618.0,304.491,0.974
620.0,304.484,0.974
622.0,304.506,0.974
624.0,304.486,0.974
626.0,304.489,0.974
628.0,304.5,0.974
630.0,304.49,0.974
632.0,304.486,0.974
634.0,304.485,0.974
636.0,304.501,0.974
638.0,304.478,0.974
640.0,304.474,0.974
642.0,304.464,0.974
644.0,304.492,0.974
646.0,304.486,0.974
648.0,304.49,0.974
650.0,304.48,0.974
652.0,304.473,0.974
654.0,304.482,0.974
656.0,304.489,0.974
658.0,304.471,0.974
660.0,304.485,0.974
662.0,304.482,0.974
664.0,304.495,0.974
666.0,304.483,0.973
668.0,304.491,0.973
670.0,304.494,0.973
672.0,304.475,0.973
674.0,304.486,0.974
676.0,304.482,0.974
678.0,304.489,0.974
680.0,304.484,0.974
682.0,304.482,0.974
684.0,304.5,0.974
686.0,304.484,0.974
688.0,304.481,0.974
690.0,304.482,0.974
692.0,304.498,0.974
694.0,304.491,0.974
696.0,304.491,0.973
698.0,304.494,0.973
700.0,304.487,0.973
702.0,304.487,0.973
704.0,304.485,0.973
706.0,304.482,0.973
708.0,304.473,0.973
710.0,304.473,0.973
712.0,304.478,0.973
714.0,304.476,0.973
716.0,304.476,0.973
718.0,304.475,0.973
720.0,304.483,0.973
722.0,304.497,0.973
724.0,304.476,0.973
726.0,304.49,0.973
728.0,304.482,0.973
730.0,304.473,0.973
732.0,304.484,0.973
734.0,304.478,0.973
736.0,304.481,0.973
738.0,304.475,0.973
740.0,304.476,0.973
742.0,304.468,0.973
744.0,304.46,0.973
746.0,304.486,0.973
748.0,304.483,0.973
750.0,304.477,0.973
752.0,304.473,0.973
754.0,304.475,0.973
756.0,304.471,0.973
758.0,304.482,0.973
760.0,304.472,0.973
762.0,304.474,0.973
764.0,304.47,0.973
766.0,304.469,0.973
768.0,304.479,0.973
770.0,304.475,0.973
772.0,304.471,0.973
774.0,304.47,0.973
776.0,304.485,0.973
778.0,304.467,0.973
780.0,304.495,0.973
782.0,304.484,0.973
784.0,304.477,0.973
786.0,304.486,0.973
788.0,304.47,0.973
790.0,304.456,0.973
792.0,304.466,0.973
794.0,304.479,0.973
796.0,304.479,0.973
798.0,304.459,0.973
800.0,304.468,0.973
802.0,304.478,0.973
804.0,304.463,0.973
806.0,304.471,0.973
808.0,304.483,0.973
810.0,304.487,0.973
812.0,304.471,0.973
814.0,304.465,0.973
816.0,304.458,0.973
818.0,304.479,0.973
820.0,304.46,0.973
822.0,304.488,0.973
824.0,304.468,0.973
826.0,304.465,0.973
828.0,304.467,0.973
830.0,304.458,0.973
832.0,304.479,0.973
834.0,304.465,0.973
836.0,304.457,0.973
838.0,304.461,0.973
840.0,304.46,0.973
842.0,304.464,0.973
844.0,304.465,0.973
846.0,304.464,0.973
848.0,304.454,0.973
850.0,304.459,0.973
852.0,304.46,0.973
854.0,304.476,0.973
856.0,304.477,0.973
858.0,304.468,0.973
860.0,304.469,0.973
862.0,304.466,0.973
864.0,304.483,0.973
866.0,304.474,0.973
868.0,304.469,0.973
870.0,304.479,0.973
872.0,304.472,0.973
874.0,304.464,0.973
876.0,304.468,0.973
878.0,304.463,0.973
880.0,304.472,0.973
882.0,304.472,0.973
884.0,304.479,0.973
886.0,304.469,0.973
888.0,304.474,0.973
890.0,304.466,0.973
892.0,304.47,0.973
894.0,304.47,0.973
896.0,304.46,0.973
898.0,304.48,0.973
900.0,304.466,0.973
902.0,304.472,0.973
904.0,304.47,0.973
906.0,304.47,0.973
908.0,304.464,0.973
910.0,304.47,0.973
912.0,304.47,0.973
914.0,304.467,0.973
916.0,304.481,0.973
918.0,304.475,0.973
920.0,304.473,0.973
922.0,304.481,0.973
924.0,304.475,0.973
926.0,304.488,0.973
928.0,304.468,0.973
930.0,304.488,0.973
932.0,304.476,0.973
934.0,304.476,0.973
936.0,304.485,0.973
938.0,304.473,0.973
940.0,304.469,0.973
942.0,304.47,0.973
944.0,304.472,0.973
946.0,304.474,0.973
948.0,304.473,0.973
950.0,304.481,0.973
952.0,304.482,0.973
954.0,304.465,0.973
956.0,304.472,0.973
958.0,304.47,0.973
960.0,304.464,0.973
962.0,304.475,0.973
964.0,304.472,0.973
966.0,304.483,0.973
968.0,304.481,0.973
970.0,304.474,0.973
972.0,304.478,0.973
974.0,304.48,0.973
976.0,304.478,0.973
978.0,304.476,0.973
980.0,304.478,0.973
982.0,304.487,0.973
984.0,304.466,0.973
986.0,304.478,0.973
988.0,304.479,0.973
990.0,304.473,0.973
992.0,304.464,0.973
994.0,304.478,0.973
996.0,304.481,0.973
998.0,304.486,0.973
1000.0,304.474,0.973
1002.0,304.467,0.973
1004.0,304.465,0.973
1006.0,304.488,0.973
1008.0,304.468,0.973
1010.0,304.482,0.973
1012.0,304.479,0.973
1014.0,304.466,0.973
1016.0,304.472,0.973
1018.0,304.473,0.973
1020.0,304.483,0.973
1022.0,304.481,0.973
1024.0,304.474,0.973
1026.0,304.487,0.973
1028.0,304.482,0.973
1030.0,304.469,0.973
1032.0,304.477,0.973
1034.0,304.486,0.973
1036.0,304.478,0.973
1038.0,304.485,0.973
1040.0,304.472,0.973
1042.0,304.468,0.973
1044.0,304.473,0.973
1046.0,304.47,0.973
1048.0,304.463,0.973
1050.0,304.487,0.973
1052.0,304.492,0.973
1054.0,304.474,0.973
1056.0,304.479,0.973
1058.0,304.468,0.973
1060.0,304.49,0.973
1062.0,304.474,0.973
1064.0,304.46,0.973
1066.0,304.46,0.973
1068.0,304.485,0.973
1070.0,304.497,0.973
1072.0,304.484,0.973
1074.0,304.459,0.972
1076.0,304.455,0.972
1078.0,304.478,0.972
1080.0,304.496,0.972
1082.0,304.477,0.972
1084.0,304.476,0.972
1086.0,304.474,0.972
1088.0,304.475,0.972
1090.0,304.482,0.972
1092.0,304.467,0.972
1094.0,304.469,0.972
1096.0,304.483,0.972
1098.0,304.483,0.973
1100.0,304.484,0.973
1102.0,304.482,0.973
1104.0,304.477,0.973
1106.0,304.465,0.973
1108.0,304.475,0.973
1110.0,304.477,0.973
1112.0,304.464,0.973
1114.0,304.472,0.973
1116.0,304.491,0.973
1118.0,304.482,0.973
1120.0,304.468,0.973
1122.0,304.467,0.973
1124.0,304.484,0.973
1126.0,304.493,0.973
1128.0,304.482,0.973
1130.0,304.476,0.973
1132.0,304.491,0.973
1134.0,304.475,0.973
1136.0,304.478,0.973
1138.0,304.471,0.973
1140.0,304.473,0.973
1142.0,304.478,0.973
1144.0,304.468,0.973
1146.0,304.476,0.973
1148.0,304.472,0.973
1150.0,304.479,0.973
1152.0,304.483,0.973
1154.0,304.478,0.973
1156.0,304.474,0.973
1158.0,304.48,0.973
1160.0,304.474,0.973
1162.0,304.466,0.973
1164.0,304.464,0.973
1166.0,304.461,0.973
1168.0,304.463,0.973
1170.0,304.477,0.973
1172.0,304.47,0.973
1174.0,304.473,0.973
1176.0,304.452,0.973
1178.0,304.479,0.973
1180.0,304.487,0.973
1182.0,304.488,0.973
1184.0,304.464,0.973
1186.0,304.475,0.973
1188.0,304.487,0.973
1190.0,304.481,0.973
1192.0,304.495,0.973
1194.0,304.466,0.973
1196.0,304.476,0.973
1198.0,304.487,0.973
1200.0,304.496,0.972
1202.0,304.538,0.972
1204.0,305.126,0.971
1206.0,305.941,0.97
1208.0,306.704,0.97
1210.0,307.678,0.971
1212.0,308.813,0.972
1214.0,310.006,0.973
1216.0,311.26,0.974
1218.0,312.534,0.975
1220.0,313.839,0.975
1222.0,315.146,0.975
1224.0,316.445,0.975
1226.0,317.774,0.975
1228.0,319.07,0.974
1230.0,320.41,0.974
1232.0,321.73,0.973
1234.0,323.049,0.973
1236.0,324.372,0.973
1238.0,325.694,0.973
1240.0,327.025,0.972
1242.0,328.343,0.972
1244.0,329.659,0.972
1246.0,330.986,0.972
1248.0,332.303,0.972
1250.0,333.625,0.972
1252.0,334.956,0.971
1254.0,336.272,0.971
1256.0,337.587,0.971
1258.0,338.906,0.97
1260.0,340.228,0.97
1262.0,341.544,0.97
1264.0,342.876,0.97
1266.0,344.203,0.969
1268.0,345.52,0.969
1270.0,346.834,0.969
1272.0,348.158,0.968
1274.0,349.478,0.968
1276.0,350.808,0.967
1278.0,352.118,0.967
1280.0,353.444,0.967
1282.0,354.77,0.966
1284.0,356.093,0.966
1286.0,357.416,0.966
1288.0,358.735,0.966
1290.0,360.059,0.965
1292.0,361.381,0.965
1294.0,362.708,0.965
1296.0,364.026,0.965
1298.0,365.363,0.964
1300.0,366.69,0.964
1302.0,368.011,0.964
1304.0,369.343,0.964
1306.0,370.669,0.964
1308.0,372.011,0.963
1310.0,373.321,0.963
1312.0,374.646,0.963
1314.0,375.983,0.963
1316.0,377.311,0.963
1318.0,378.638,0.963
1320.0,379.968,0.963
1322.0,381.293,0.963
1324.0,382.635,0.963
1326.0,383.972,0.962
1328.0,385.299,0.962
1330.0,386.631,0.962
1332.0,387.968,0.962
1334.0,389.303,0.962
1336.0,390.636,0.962
1338.0,391.975,0.962
1340.0,393.306,0.962
1342.0,394.633,0.962
1344.0,395.996,0.962
1346.0,397.333,0.962
1348.0,398.641,0.962
1350.0,400.0,0.962
1352.0,401.344,0.962
1354.0,402.683,0.962
1356.0,404.03,0.962
1358.0,405.371,0.962
1360.0,406.702,0.962
1362.0,408.044,0.962
1364.0,409.396,0.962
1366.0,410.736,0.962
1368.0,412.1,0.962
1370.0,413.427,0.962
1372.0,414.781,0.962
1374.0,416.129,0.962
1376.0,417.477,0.962
1378.0,418.834,0.962
1380.0,420.175,0.962
1382.0,421.528,0.962
1384.0,422.867,0.962
1386.0,424.224,0.961
1388.0,425.585,0.961
1390.0,426.919,0.961
1392.0,428.28,0.961
1394.0,429.627,0.961
1396.0,430.979,0.961
1398.0,432.333,0.961
1400.0,433.686,0.961
1402.0,435.045,0.961
1404.0,436.402,0.961
1406.0,437.768,0.961
1408.0,439.122,0.961
1410.0,440.471,0.961
1412.0,441.834,0.96
1414.0,443.202,0.96
1416.0,444.551,0.96
1418.0,445.912,0.96
1420.0,447.263,0.96
1422.0,448.64,0.96
1424.0,449.994,0.96
1426.0,451.356,0.959
1428.0,452.73,0.959
1430.0,454.085,0.959
1432.0,455.452,0.959
1434.0,456.8,0.959
1436.0,458.175,0.958
1438.0,459.536,0.958
1440.0,460.907,0.958
1442.0,462.265,0.958
1444.0,463.634,0.957
1446.0,465.011,0.957
1448.0,466.374,0.957
1450.0,467.734,0.956
1452.0,469.12,0.956
1454.0,470.485,0.956
1456.0,471.85,0.956
1458.0,473.212,0.955
1460.0,474.583,0.955
1462.0,475.956,0.954
1464.0,477.318,0.954
1466.0,478.685,0.953
1468.0,480.063,0.953
1470.0,481.424,0.952
1472.0,482.8,0.952
1474.0,484.155,0.951
1476.0,485.533,0.951
1478.0,486.906,0.951
1480.0,488.278,0.95
1482.0,489.64,0.95
1484.0,491.013,0.949
1486.0,492.387,0.948
1488.0,493.751,0.948
1490.0,495.119,0.947
1492.0,496.487,0.947
1494.0,497.858,0.946
1496.0,499.231,0.945
1498.0,500.589,0.945
1500.0,501.973,0.944
1502.0,503.338,0.943
1504.0,504.718,0.943
1506.0,506.086,0.942
1508.0,507.446,0.941
1510.0,508.817,0.94
1512.0,510.201,0.94
1514.0,511.557,0.939
1516.0,512.934,0.938
1518.0,514.295,0.937
1520.0,515.664,0.936
1522.0,517.032,0.935
1524.0,518.399,0.934
1526.0,519.762,0.933
1528.0,521.133,0.932
1530.0,522.504,0.931
1532.0,523.869,0.93
1534.0,525.229,0.929
1536.0,526.598,0.928
1538.0,527.97,0.927
1540.0,529.331,0.925
1542.0,530.696,0.924
1544.0,532.064,0.923
1546.0,533.429,0.921
1548.0,534.801,0.92
1550.0,536.161,0.918
1552.0,537.53,0.917
1554.0,538.902,0.915
1556.0,540.271,0.914
1558.0,541.63,0.912
1560.0,542.995,0.91
1562.0,544.365,0.908
1564.0,545.716,0.907
1566.0,547.089,0.905
1568.0,548.456,0.903
1570.0,549.812,0.901
1572.0,551.168,0.899
1574.0,552.543,0.897
1576.0,553.893,0.894
1578.0,555.265,0.892
1580.0,556.622,0.89
1582.0,557.983,0.888
1584.0,559.341,0.886
1586.0,560.697,0.883
1588.0,562.063,0.881
1590.0,563.42,0.879
1592.0,564.775,0.876
1594.0,566.143,0.874
1596.0,567.508,0.871
1598.0,568.86,0.869
1600.0,570.217,0.866
1602.0,571.575,0.863
1604.0,572.928,0.861
1606.0,574.291,0.858
1608.0,575.644,0.855
1610.0,577.004,0.853
1612.0,578.36,0.85
1614.0,579.712,0.847
1616.0,581.075,0.844
1618.0,582.428,0.841
1620.0,583.778,0.838
1622.0,585.134,0.834
1624.0,586.489,0.831
1626.0,587.84,0.828
1628.0,589.196,0.824
1630.0,590.534,0.821
1632.0,591.891,0.817
1634.0,593.237,0.814
1636.0,594.58,0.81
1638.0,595.94,0.806
1640.0,597.293,0.802
1642.0,598.643,0.798
1644.0,599.987,0.794
1646.0,601.326,0.79
1648.0,602.692,0.785
1650.0,604.025,0.781
1652.0,605.373,0.776
1654.0,606.723,0.771
1656.0,608.065,0.766
1658.0,609.409,0.761
1660.0,610.758,0.756
1662.0,612.106,0.751
1664.0,613.444,0.746
1666.0,614.782,0.74
1668.0,616.129,0.735
1670.0,617.475,0.729
1672.0,618.81,0.723
1674.0,620.147,0.717
1676.0,621.494,0.711
1678.0,622.818,0.705
1680.0,624.175,0.698
1682.0,625.506,0.692
1684.0,626.845,0.685
1686.0,628.178,0.678
1688.0,629.522,0.671
1690.0,630.859,0.665
1692.0,632.196,0.657
1694.0,633.542,0.65
1696.0,634.869,0.643
1698.0,636.21,0.636
1700.0,637.544,0.628
1702.0,638.875,0.621
1704.0,640.209,0.613
1706.0,641.546,0.606
1708.0,642.868,0.598
1710.0,644.203,0.59
1712.0,645.533,0.582
1714.0,646.862,0.574
1716.0,648.2,0.566
1718.0,649.528,0.558
1720.0,650.864,0.549
1722.0,652.187,0.541
1724.0,653.508,0.532
1726.0,654.84,0.523
1728.0,656.168,0.514
1730.0,657.487,0.505
1732.0,658.823,0.495
1734.0,660.145,0.486
1736.0,661.471,0.476
1738.0,662.792,0.466
1740.0,664.113,0.455
1742.0,665.435,0.445
1744.0,666.766,0.434
1746.0,668.077,0.423
1748.0,669.402,0.412
1750.0,670.723,0.401
1752.0,672.046,0.39
1754.0,673.377,0.378
1756.0,674.684,0.367
1758.0,675.999,0.355
1760.0,677.332,0.344
1762.0,678.657,0.333
1764.0,679.966,0.322
1766.0,681.296,0.311
1768.0,682.621,0.301
1770.0,683.94,0.291
1772.0,685.272,0.282
1774.0,686.591,0.273
1776.0,687.91,0.266
1778.0,689.237,0.259
1780.0,690.563,0.252
1782.0,691.889,0.247
1784.0,693.221,0.242
1786.0,694.534,0.239
1788.0,695.865,0.235
1790.0,697.18,0.233
1792.0,698.508,0.231
1794.0,699.832,0.229
1796.0,701.146,0.227
1798.0,702.473,0.226
1800.0,703.788,0.225
1802.0,705.111,0.224
1804.0,706.434,0.223
1806.0,707.751,0.222
1808.0,709.067,0.221
1810.0,710.386,0.22
1812.0,711.705,0.219
1814.0,713.034,0.218
1816.0,714.359,0.217
1818.0,715.674,0.217
1820.0,716.991,0.216
1822.0,718.31,0.215
1824.0,719.638,0.214
1826.0,720.962,0.214
1828.0,722.264,0.213
1830.0,723.596,0.212
1832.0,724.895,0.211
1834.0,726.209,0.211
1836.0,727.531,0.21
1838.0,728.848,0.209
1840.0,730.168,0.208
1842.0,731.482,0.208
1844.0,732.796,0.207
1846.0,734.124,0.206
1848.0,735.44,0.206
1850.0,736.762,0.205
1852.0,738.08,0.204
1854.0,739.392,0.203
1856.0,740.705,0.203
1858.0,742.022,0.202
1860.0,743.342,0.201
1862.0,744.649,0.201
1864.0,745.968,0.2
1866.0,747.287,0.2
1868.0,748.605,0.199
1870.0,749.92,0.198
1872.0,751.245,0.198
1874.0,752.553,0.197
1876.0,753.866,0.196
1878.0,755.18,0.196
1880.0,756.505,0.195
1882.0,757.817,0.195
1884.0,759.139,0.194
1886.0,760.445,0.194
1888.0,761.762,0.193
1890.0,763.083,0.193
1892.0,764.397,0.192
1894.0,765.713,0.192
1896.0,767.031,0.191
1898.0,768.345,0.191
1900.0,769.663,0.19
1902.0,770.974,0.19
1904.0,772.296,0.189
1906.0,773.607,0.189
1908.0,774.927,0.188
1910.0,776.245,0.188
1912.0,777.567,0.188
1914.0,778.881,0.187
1916.0,780.195,0.187
1918.0,781.518,0.187
1920.0,782.836,0.186
1922.0,784.141,0.186
1924.0,785.465,0.186
1926.0,786.787,0.185
1928.0,788.118,0.185
1930.0,789.417,0.184
1932.0,790.74,0.184
1934.0,792.05,0.184
1936.0,793.379,0.184
1938.0,794.702,0.183
1940.0,796.009,0.183
1942.0,797.324,0.183
1944.0,798.64,0.182
1946.0,799.957,0.182
1948.0,801.279,0.182
1950.0,802.594,0.181
1952.0,803.927,0.181
1954.0,805.239,0.181
1956.0,806.559,0.18
1958.0,807.874,0.18
1960.0,809.194,0.18
1962.0,810.505,0.18
1964.0,811.83,0.179
1966.0,813.147,0.179
1968.0,814.456,0.179
1970.0,815.781,0.178
1972.0,817.095,0.178
1974.0,818.419,0.178
1976.0,819.729,0.178
1978.0,821.048,0.177
1980.0,822.375,0.177
1982.0,823.693,0.177
1984.0,825.008,0.176
1986.0,826.326,0.176
1988.0,827.647,0.176
1990.0,828.969,0.176
1992.0,830.289,0.175
1994.0,831.606,0.175
1996.0,832.921,0.175
1998.0,834.256,0.175
2000.0,835.564,0.175
2002.0,836.891,0.174
2004.0,838.207,0.174
2006.0,839.532,0.174
2008.0,840.843,0.174
2010.0,842.17,0.174
2012.0,843.488,0.173
2014.0,844.808,0.173
2016.0,846.129,0.173
2018.0,847.461,0.173
2020.0,848.769,0.172
2022.0,850.096,0.172
2024.0,851.419,0.172
2026.0,852.736,0.172
2028.0,854.058,0.171
2030.0,855.374,0.171
2032.0,856.695,0.171
2034.0,858.01,0.171
2036.0,859.34,0.171
2038.0,860.659,0.17
2040.0,861.971,0.17
2042.0,863.296,0.17
2044.0,864.622,0.17
2046.0,865.941,0.17
2048.0,867.263,0.169
2050.0,868.584,0.169
2052.0,869.911,0.169
2054.0,871.24,0.169
2056.0,872.559,0.168
2058.0,873.872,0.168
2060.0,875.195,0.168
2062.0,876.523,0.168
2064.0,877.835,0.168
2066.0,879.164,0.168
2068.0,880.489,0.167
2070.0,881.814,0.167
2072.0,883.129,0.167
2074.0,884.461,0.167
2076.0,885.777,0.167
2078.0,887.097,0.167
2080.0,888.426,0.166
2082.0,889.745,0.166
2084.0,891.079,0.166
2086.0,892.397,0.166
2088.0,893.721,0.166
2090.0,895.043,0.166
2092.0,896.373,0.165
2094.0,897.694,0.165
2096.0,899.022,0.165
2098.0,900.344,0.165
2100.0,901.667,0.165
2102.0,902.988,0.165
2104.0,904.313,0.165
2106.0,905.631,0.165
2108.0,906.952,0.165
2110.0,908.272,0.164
2112.0,909.608,0.164
2114.0,910.935,0.163
2116.0,912.26,0.163
2118.0,913.585,0.163
2120.0,914.901,0.163
2122.0,916.236,0.163
2124.0,917.554,0.163
2126.0,918.884,0.162
2128.0,920.203,0.162
2130.0,921.533,0.162
2132.0,922.855,0.162
2134.0,924.183,0.162
2136.0,925.508,0.162
2138.0,926.841,0.162
2140.0,928.164,0.162
2142.0,929.488,0.161
2144.0,930.81,0.161
2146.0,932.136,0.161
2148.0,933.462,0.161
2150.0,934.794,0.161
2152.0,936.12,0.161
2154.0,937.438,0.161
2156.0,938.768,0.161
2158.0,940.093,0.16
2160.0,941.421,0.16
2162.0,942.741,0.16
2164.0,944.073,0.16
2166.0,945.409,0.16
2168.0,946.723,0.16
2170.0,948.054,0.16
2172.0,949.377,0.159
2174.0,950.706,0.159
2176.0,952.029,0.159
2178.0,953.346,0.159
2180.0,954.675,0.159
2182.0,955.998,0.159
2184.0,957.324,0.159
2186.0,958.663,0.159
2188.0,959.973,0.159
2190.0,961.305,0.158
2192.0,962.636,0.158
2194.0,963.953,0.158
2196.0,965.272,0.158
2198.0,966.6,0.158
2200.0,967.929,0.158
2202.0,969.253,0.158
2204.0,970.576,0.158
2206.0,971.899,0.158
2208.0,973.227,0.157
2210.0,974.557,0.157
2212.0,975.881,0.157
2214.0,977.215,0.157
2216.0,978.544,0.157
2218.0,979.855,0.157
2220.0,981.181,0.157
2222.0,982.514,0.157
2224.0,983.84,0.157
2226.0,985.163,0.157
2228.0,986.486,0.156
2230.0,987.808,0.156
2232.0,989.137,0.156
2234.0,990.463,0.156
2236.0,991.787,0.156
2238.0,993.121,0.156
2240.0,994.439,0.156
2242.0,995.772,0.156
2244.0,997.092,0.156
2246.0,998.43,0.156
2248.0,999.751,0.156
2250.0,1001.077,0.156
2252.0,1002.403,0.155
2254.0,1003.731,0.155
2256.0,1005.052,0.155
2258.0,1006.38,0.155
2260.0,1007.718,0.155
2262.0,1009.044,0.155
2264.0,1010.354,0.155
2266.0,1011.694,0.155
2268.0,1013.02,0.155
2270.0,1014.346,0.155
2272.0,1015.671,0.154
2274.0,1017.002,0.154
2276.0,1018.335,0.154
2278.0,1019.665,0.154
2280.0,1020.997,0.154
2282.0,1022.324,0.154
2284.0,1023.653,0.154
2286.0,1024.979,0.154
2288.0,1026.301,0.154
2290.0,1027.638,0.154
2292.0,1028.965,0.154
2294.0,1030.299,0.154
2296.0,1031.629,0.154
2298.0,1032.961,0.153
2300.0,1034.289,0.153
2302.0,1035.613,0.153
2304.0,1036.955,0.153
2306.0,1038.262,0.154
2308.0,1039.602,0.154
2310.0,1040.932,0.154
2312.0,1042.265,0.153
2314.0,1043.599,0.153
2316.0,1044.93,0.153
2318.0,1046.266,0.152
2320.0,1047.586,0.152
2322.0,1048.92,0.152
2324.0,1050.259,0.152
2326.0,1051.583,0.152
2328.0,1052.917,0.152
2330.0,1054.254,0.152
2332.0,1055.587,0.152
2334.0,1056.905,0.152
2336.0,1057.937,0.152
2338.0,1058.679,0.152
2340.0,1059.59,0.152
2342.0,1060.45,0.152
2344.0,1061.239,0.151
2346.0,1061.969,0.151
2348.0,1062.636,0.151
2350.0,1063.258,0.151
2352.0,1063.823,0.151
2354.0,1064.345,0.151
2356.0,1064.837,0.151
2358.0,1065.295,0.151
2360.0,1065.712,0.151
2362.0,1066.096,0.151
2364.0,1066.468,0.151
2366.0,1066.794,0.151
2368.0,1067.106,0.151
2370.0,1067.394,0.151
2372.0,1067.653,0.151
2374.0,1067.906,0.151
2376.0,1068.135,0.15
2378.0,1068.343,0.15
2380.0,1068.54,0.15
2382.0,1068.736,0.15
2384.0,1068.91,0.15
2386.0,1069.064,0.15
2388.0,1069.212,0.15
2390.0,1069.362,0.15
2392.0,1069.496,0.15
2394.0,1069.616,0.15
2396.0,1069.73,0.15
2398.0,1069.832,0.15
2400.0,1069.935,0.15
2402.0,1070.025,0.15
2404.0,1070.12,0.15
2406.0,1070.202,0.15
2408.0,1070.286,0.15
2410.0,1070.357,0.15
2412.0,1070.429,0.15
2414.0,1070.491,0.15
2416.0,1070.549,0.15
2418.0,1070.606,0.15
2420.0,1070.671,0.15
2422.0,1070.717,0.15
2424.0,1070.768,0.15
2426.0,1070.817,0.15
2428.0,1070.862,0.15
2430.0,1070.902,0.15
2432.0,1070.943,0.15
2434.0,1070.989,0.149
2436.0,1071.023,0.149
2438.0,1071.058,0.149
2440.0,1071.091,0.149
2442.0,1071.126,0.149
2444.0,1071.154,0.149
2446.0,1071.184,0.149
2448.0,1071.212,0.149
2450.0,1071.245,0.149
2452.0,1071.266,0.149
2454.0,1071.285,0.149
2456.0,1071.322,0.149
2458.0,1071.34,0.149
2460.0,1071.359,0.149
2462.0,1071.385,0.149
2464.0,1071.407,0.149
2466.0,1071.415,0.149
2468.0,1071.443,0.149
2470.0,1071.465,0.149
2472.0,1071.467,0.149
2474.0,1071.49,0.149
2476.0,1071.505,0.149
2478.0,1071.519,0.149
2480.0,1071.54,0.149
2482.0,1071.55,0.149
2484.0,1071.577,0.149
2486.0,1071.597,0.149
2488.0,1071.6,0.149
2490.0,1071.616,0.149
2492.0,1071.633,0.149
2494.0,1071.644,0.149
2496.0,1071.65,0.149
2498.0,1071.663,0.149
2500.0,1071.671,0.149
2502.0,1071.692,0.149
2504.0,1071.691,0.149
2506.0,1071.707,0.148
2508.0,1071.719,0.148
2510.0,1071.727,0.148
2512.0,1071.731,0.148
2514.0,1071.758,0.148
2516.0,1071.767,0.148
2518.0,1071.773,0.148
2520.0,1071.78,0.148
2522.0,1071.791,0.148
2524.0,1071.796,0.148
2526.0,1071.801,0.148
2528.0,1071.802,0.148
2530.0,1071.826,0.148
2532.0,1071.836,0.148
2534.0,1071.835,0.148
2536.0,1071.843,0.148
2538.0,1071.845,0.148
2540.0,1071.861,0.148
2542.0,1071.866,0.148
2544.0,1071.865,0.148
2546.0,1071.877,0.148
2548.0,1071.89,0.148
2550.0,1071.892,0.148
2552.0,1071.901,0.148
2554.0,1071.904,0.148
2556.0,1071.912,0.148
2558.0,1071.905,0.148
2560.0,1071.914,0.147
2562.0,1071.923,0.147
2564.0,1071.93,0.147
2566.0,1071.938,0.147
2568.0,1071.946,0.147
2570.0,1071.948,0.148
2572.0,1071.959,0.148
2574.0,1071.967,0.147
2576.0,1071.968,0.147
2578.0,1071.965,0.147
2580.0,1071.976,0.147
2582.0,1071.975,0.147
2584.0,1071.983,0.147
2586.0,1071.985,0.147
2588.0,1071.994,0.147
2590.0,1071.998,0.147
2592.0,1071.999,0.147
2594.0,1072.007,0.147
2596.0,1072.014,0.147
2598.0,1072.013,0.147
2600.0,1072.026,0.147
2602.0,1072.021,0.147
2604.0,1072.035,0.147
2606.0,1072.022,0.147
2608.0,1072.033,0.147
2610.0,1072.04,0.147
2612.0,1072.039,0.147
2614.0,1072.037,0.147
2616.0,1072.041,0.147
2618.0,1072.048,0.147
2620.0,1072.047,0.147
2622.0,1072.052,0.147
2624.0,1072.06,0.147
2626.0,1072.067,0.147
2628.0,1072.071,0.147
2630.0,1072.072,0.147
2632.0,1072.074,0.147
2634.0,1072.066,0.147
2636.0,1072.08,0.147
2638.0,1072.083,0.147
2640.0,1072.085,0.147
2642.0,1072.088,0.147
2644.0,1072.086,0.147
2646.0,1072.087,0.147
2648.0,1072.089,0.147
2650.0,1072.096,0.147
2652.0,1072.095,0.147
2654.0,1072.099,0.147
2655.0,1072.096,0.147