File: Wood/Calibration_Data/TUBS/TUBS_Wood_TGA_N2_50K_R13.csv
Time (s),Temperature (K),Mass (mg)
0.0,305.047,0.4999
2.0,305.034,0.49984
4.0,305.034,0.49976
6.0,305.036,0.49968
8.0,305.002,0.4996
10.0,305.018,0.49949
12.0,305.015,0.49937
14.0,304.98,0.49925
16.0,304.979,0.49914
18.0,304.978,0.49903
20.0,304.961,0.49894
22.0,304.957,0.49884
24.0,304.953,0.49875
26.0,304.929,0.49867
28.0,304.94,0.49859
30.0,304.929,0.49852
32.0,304.904,0.49846
34.0,304.913,0.49839
36.0,304.907,0.49831
38.0,304.904,0.49823
40.0,304.892,0.49816
42.0,304.876,0.4981
44.0,304.882,0.49805
46.0,304.86,0.49799
48.0,304.862,0.49794
50.0,304.858,0.49789
52.0,304.848,0.49784
54.0,304.844,0.4978
56.0,304.84,0.49774
58.0,304.837,0.49767
60.0,304.835,0.49758
62.0,304.819,0.4975
64.0,304.798,0.49742
66.0,304.809,0.49734
68.0,304.803,0.49728
70.0,304.804,0.49721
72.0,304.809,0.49714
74.0,304.791,0.49709
76.0,304.788,0.49704
78.0,304.782,0.49698
80.0,304.787,0.49692
82.0,304.779,0.49685
84.0,304.77,0.49679
86.0,304.778,0.49672
88.0,304.77,0.49666
90.0,304.764,0.49661
92.0,304.772,0.49656
94.0,304.762,0.49651
96.0,304.772,0.49646
98.0,304.756,0.49642
100.0,304.735,0.49637
102.0,304.727,0.49632
104.0,304.728,0.49628
106.0,304.728,0.49624
108.0,304.729,0.4962
110.0,304.719,0.49617
112.0,304.719,0.49615
114.0,304.724,0.49614
116.0,304.726,0.49613
118.0,304.711,0.49613
120.0,304.692,0.49613
129.0,304.708,0.49613
131.0,304.679,0.49612
133.0,304.678,0.49608
135.0,304.669,0.49604
137.0,304.671,0.49599
139.0,304.691,0.49596
141.0,304.677,0.49594
143.0,304.684,0.49593
145.0,304.682,0.49591
147.0,304.669,0.49587
149.0,304.676,0.4958
151.0,304.66,0.49574
153.0,304.655,0.49567
155.0,304.658,0.49561
157.0,304.672,0.49558
159.0,304.665,0.49555
161.0,304.651,0.49554
163.0,304.635,0.49552
165.0,304.644,0.49549
167.0,304.627,0.49544
169.0,304.644,0.4954
171.0,304.632,0.49538
173.0,304.638,0.49541
175.0,304.644,0.49543
177.0,304.625,0.49546
179.0,304.633,0.49549
181.0,304.63,0.49551
183.0,304.625,0.49552
185.0,304.604,0.49552
187.0,304.623,0.49553
189.0,304.614,0.49552
191.0,304.607,0.4955
193.0,304.602,0.49546
195.0,304.609,0.49542
197.0,304.595,0.49536
199.0,304.59,0.4953
201.0,304.606,0.49524
203.0,304.602,0.4952
205.0,304.611,0.49518
207.0,304.592,0.49516
210.0,304.581,0.49515
212.0,304.59,0.49514
214.0,304.585,0.49512
216.0,304.578,0.4951
218.0,304.584,0.49508
220.0,304.58,0.49504
222.0,304.581,0.495
224.0,304.591,0.49497
226.0,304.586,0.49494
228.0,304.568,0.49494
230.0,304.574,0.49493
234.0,304.552,0.49493
237.0,304.554,0.49492
239.0,304.58,0.49491
241.0,304.553,0.49488
243.0,304.56,0.49487
245.0,304.56,0.49488
247.0,304.55,0.4949
249.0,304.534,0.49493
251.0,304.54,0.49495
253.0,304.55,0.49494
255.0,304.553,0.49491
257.0,304.534,0.49487
259.0,304.545,0.49485
261.0,304.556,0.49484
263.0,304.561,0.49482
265.0,304.544,0.49478
267.0,304.541,0.49474
269.0,304.541,0.49467
271.0,304.532,0.49461
273.0,304.546,0.49458
275.0,304.541,0.49456
277.0,304.53,0.49457
279.0,304.541,0.49458
281.0,304.539,0.49456
283.0,304.544,0.49454
285.0,304.531,0.4945
287.0,304.518,0.49447
289.0,304.533,0.49445
291.0,304.524,0.49444
294.0,304.513,0.49443
297.0,304.518,0.49443
301.0,304.511,0.49443
303.0,304.515,0.49442
305.0,304.502,0.4944
307.0,304.501,0.49436
309.0,304.514,0.49432
311.0,304.512,0.49429
313.0,304.507,0.49429
316.0,304.507,0.4943
318.0,304.501,0.49431
320.0,304.482,0.49432
322.0,304.5,0.49432
325.0,304.495,0.49432
327.0,304.511,0.49431
329.0,304.495,0.49428
331.0,304.494,0.49426
333.0,304.502,0.49424
335.0,304.497,0.49423
337.0,304.496,0.49422
339.0,304.496,0.4942
341.0,304.505,0.49417
343.0,304.509,0.49415
345.0,304.492,0.49416
347.0,304.499,0.49417
349.0,304.492,0.49418
351.0,304.508,0.49418
353.0,304.481,0.49416
355.0,304.497,0.49414
357.0,304.499,0.49414
359.0,304.497,0.49413
362.0,304.492,0.49413
364.0,304.5,0.49414
367.0,304.494,0.49414
369.0,304.494,0.49414
371.0,304.487,0.49413
373.0,304.48,0.49413
375.0,304.486,0.49413
377.0,304.492,0.49415
379.0,304.487,0.49415
381.0,304.486,0.49415
383.0,304.489,0.49414
385.0,304.47,0.49413
387.0,304.463,0.49413
390.0,304.482,0.49413
392.0,304.475,0.49411
394.0,304.487,0.49409
396.0,304.474,0.49406
398.0,304.481,0.49404
400.0,304.482,0.49404
402.0,304.473,0.49403
406.0,304.468,0.49403
409.0,304.466,0.49402
411.0,304.472,0.49399
413.0,304.487,0.49395
415.0,304.486,0.49391
417.0,304.482,0.49388
419.0,304.486,0.49386
421.0,304.486,0.49388
423.0,304.466,0.4939
425.0,304.469,0.49392
427.0,304.472,0.4939
429.0,304.469,0.49382
431.0,304.445,0.49376
433.0,304.474,0.4937
435.0,304.465,0.49369
437.0,304.482,0.49371
439.0,304.471,0.49374
441.0,304.467,0.4938
443.0,304.469,0.49384
445.0,304.475,0.49388
447.0,304.462,0.49391
449.0,304.469,0.49391
451.0,304.475,0.4939
453.0,304.468,0.49389
455.0,304.472,0.49387
457.0,304.464,0.49385
459.0,304.462,0.49384
461.0,304.466,0.49384
463.0,304.469,0.49383
467.0,304.465,0.49383
469.0,304.471,0.49382
471.0,304.464,0.49381
473.0,304.458,0.49381
478.0,304.451,0.49381
480.0,304.472,0.4938
482.0,304.473,0.49378
484.0,304.465,0.49376
486.0,304.466,0.49374
488.0,304.459,0.49372
490.0,304.458,0.49369
492.0,304.469,0.49366
494.0,304.455,0.49365
496.0,304.45,0.49365
498.0,304.448,0.49366
500.0,304.46,0.49369
502.0,304.458,0.49371
504.0,304.466,0.49372
506.0,304.456,0.49373
508.0,304.452,0.49375
510.0,304.439,0.49376
512.0,304.452,0.49378
514.0,304.448,0.4938
516.0,304.448,0.4938
518.0,304.458,0.49379
520.0,304.454,0.49376
522.0,304.436,0.49373
524.0,304.459,0.4937
526.0,304.449,0.49367
528.0,304.459,0.49365
530.0,304.472,0.49364
532.0,304.468,0.49366
534.0,304.45,0.4937
536.0,304.452,0.49374
538.0,304.446,0.49378
540.0,304.456,0.4938
542.0,304.452,0.49383
544.0,304.442,0.49383
546.0,304.457,0.49382
548.0,304.453,0.49378
550.0,304.457,0.49374
552.0,304.447,0.49372
554.0,304.45,0.4937
556.0,304.456,0.49371
558.0,304.446,0.49372
560.0,304.456,0.49372
562.0,304.465,0.49372
565.0,304.457,0.49373
569.0,304.463,0.49373
575.0,304.455,0.49373
577.0,304.465,0.49374
579.0,304.457,0.49375
581.0,304.453,0.49375
583.0,304.459,0.49374
585.0,304.45,0.49371
587.0,304.467,0.49368
589.0,304.453,0.49366
591.0,304.447,0.49364
593.0,304.466,0.49364
596.0,304.46,0.49365
598.0,304.452,0.49366
600.0,304.445,0.49368
602.0,304.455,0.49369
604.0,304.46,0.49371
606.0,304.463,0.49372
608.0,304.443,0.49372
610.0,304.444,0.49373
613.0,304.448,0.49373
617.0,304.447,0.49371
619.0,304.443,0.49369
621.0,304.446,0.49366
623.0,304.442,0.49364
625.0,304.443,0.49363
627.0,304.455,0.49362
629.0,304.451,0.49363
631.0,304.444,0.49363
633.0,304.442,0.49364
635.0,304.448,0.49365
637.0,304.452,0.49367
639.0,304.447,0.49368
641.0,304.435,0.4937
643.0,304.439,0.49371
645.0,304.447,0.49372
647.0,304.434,0.49373
650.0,304.445,0.49373
652.0,304.432,0.49373
654.0,304.445,0.49374
656.0,304.442,0.49376
658.0,304.449,0.49377
660.0,304.455,0.49379
662.0,304.45,0.49381
664.0,304.457,0.49382
666.0,304.435,0.49382
668.0,304.465,0.49383
670.0,304.453,0.49381
672.0,304.45,0.49379
674.0,304.428,0.49377
676.0,304.441,0.49376
678.0,304.438,0.49376
680.0,304.451,0.49377
682.0,304.461,0.49379
684.0,304.455,0.49382
686.0,304.446,0.49386
688.0,304.44,0.49389
690.0,304.46,0.49391
692.0,304.463,0.49392
694.0,304.457,0.49393
696.0,304.439,0.49393
698.0,304.443,0.49393
700.0,304.441,0.49392
702.0,304.456,0.49389
704.0,304.459,0.49386
706.0,304.448,0.49384
709.0,304.449,0.49384
711.0,304.446,0.49383
716.0,304.456,0.49382
718.0,304.464,0.4938
720.0,304.458,0.49377
722.0,304.44,0.49375
724.0,304.446,0.49374
726.0,304.448,0.49373
728.0,304.442,0.49372
730.0,304.446,0.4937
732.0,304.459,0.49367
734.0,304.457,0.49365
736.0,304.45,0.49364
738.0,304.45,0.49363
740.0,304.453,0.49363
743.0,304.461,0.49363
761.0,304.463,0.49363
763.0,304.454,0.49364
765.0,304.438,0.49366
767.0,304.437,0.49367
769.0,304.43,0.49369
771.0,304.462,0.49371
773.0,304.441,0.49372
775.0,304.459,0.49372
777.0,304.45,0.49373
779.0,304.46,0.49374
781.0,304.455,0.49376
783.0,304.451,0.49377
786.0,304.453,0.49376
788.0,304.442,0.49373
790.0,304.457,0.4937
792.0,304.453,0.49368
794.0,304.459,0.49367
796.0,304.458,0.49368
798.0,304.449,0.49369
800.0,304.453,0.49371
802.0,304.451,0.49372
804.0,304.477,0.49373
806.0,304.45,0.49372
808.0,304.447,0.49369
810.0,304.459,0.49367
812.0,304.463,0.49365
814.0,304.448,0.49364
817.0,304.454,0.49363
819.0,304.458,0.49363
821.0,304.44,0.49363
826.0,304.464,0.49363
828.0,304.46,0.49361
830.0,304.449,0.49358
832.0,304.445,0.49356
834.0,304.454,0.49354
836.0,304.455,0.49354
838.0,304.434,0.49354
840.0,304.442,0.49357
842.0,304.447,0.49359
844.0,304.441,0.49361
846.0,304.444,0.49362
849.0,304.45,0.49363
851.0,304.448,0.49363
854.0,304.445,0.49363
884.0,304.442,0.49363
886.0,304.437,0.49362
888.0,304.438,0.49361
890.0,304.451,0.49359
892.0,304.438,0.49355
894.0,304.434,0.49352
896.0,304.45,0.49348
898.0,304.442,0.49346
900.0,304.443,0.49347
902.0,304.436,0.49348
904.0,304.436,0.4935
906.0,304.434,0.49351
908.0,304.436,0.49352
910.0,304.434,0.49352
912.0,304.441,0.49351
914.0,304.436,0.4935
916.0,304.422,0.49348
918.0,304.443,0.49347
920.0,304.448,0.49345
922.0,304.439,0.49344
924.0,304.431,0.49346
926.0,304.433,0.49347
928.0,304.438,0.4935
930.0,304.45,0.49352
932.0,304.445,0.49352
934.0,304.458,0.49351
936.0,304.438,0.49349
938.0,304.438,0.49348
940.0,304.439,0.49349
942.0,304.45,0.4935
944.0,304.454,0.49351
946.0,304.438,0.49352
948.0,304.439,0.49352
950.0,304.445,0.49353
953.0,304.453,0.49353
956.0,304.46,0.49353
959.0,304.444,0.49353
961.0,304.447,0.49351
963.0,304.446,0.49349
965.0,304.445,0.49344
967.0,304.452,0.4934
969.0,304.442,0.49337
971.0,304.442,0.49334
974.0,304.45,0.49334
977.0,304.461,0.49333
979.0,304.442,0.49333
981.0,304.434,0.49333
986.0,304.459,0.49332
988.0,304.448,0.49331
990.0,304.457,0.4933
992.0,304.422,0.4933
994.0,304.449,0.4933
996.0,304.47,0.49331
998.0,304.464,0.49332
1000.0,304.46,0.49332
1002.0,304.453,0.49333
1004.0,304.462,0.49333
1012.0,304.456,0.49333
1014.0,304.463,0.49332
1016.0,304.483,0.49331
1018.0,304.461,0.49329
1020.0,304.455,0.49328
1022.0,304.464,0.49327
1025.0,304.453,0.49328
1027.0,304.446,0.4933
1029.0,304.45,0.49332
1031.0,304.448,0.49333
1033.0,304.444,0.49336
1035.0,304.45,0.49338
1037.0,304.45,0.4934
1039.0,304.447,0.49341
1041.0,304.458,0.49342
1043.0,304.446,0.49341
1045.0,304.462,0.49338
1047.0,304.467,0.49336
1049.0,304.465,0.49334
1051.0,304.447,0.49333
1054.0,304.456,0.49333
1056.0,304.463,0.49333
1111.0,304.461,0.49333
1113.0,304.463,0.49335
1115.0,304.453,0.49337
1117.0,304.461,0.49339
1119.0,304.447,0.49339
1121.0,304.462,0.49337
1123.0,304.451,0.49334
1125.0,304.456,0.49329
1127.0,304.465,0.49326
1129.0,304.45,0.49325
1131.0,304.442,0.49324
1133.0,304.456,0.49323
1135.0,304.442,0.49323
1140.0,304.462,0.49322
1142.0,304.452,0.4932
1144.0,304.456,0.49318
1146.0,304.455,0.49317
1148.0,304.454,0.49318
1150.0,304.459,0.49319
1152.0,304.452,0.49321
1154.0,304.445,0.49322
1156.0,304.461,0.49322
1158.0,304.456,0.49323
1162.0,304.443,0.49322
1164.0,304.446,0.4932
1166.0,304.45,0.49318
1168.0,304.459,0.49316
1171.0,304.447,0.49315
1173.0,304.462,0.49318
1175.0,304.464,0.49321
1177.0,304.448,0.49326
1179.0,304.457,0.49329
1181.0,304.456,0.4933
1183.0,304.445,0.49331
1185.0,304.458,0.49328
1187.0,304.474,0.49324
1189.0,304.455,0.4932
1191.0,304.448,0.49318
1193.0,304.465,0.4932
1195.0,304.461,0.49321
1197.0,304.477,0.49323
1199.0,304.454,0.49313
1203.996,305.0,0.49154
1206.383,306.0,0.49083
1208.205,307.0,0.49055
1209.958,308.0,0.49082
1211.467,309.0,0.4917
1212.845,310.0,0.4928
1214.158,311.0,0.49361
1215.436,312.0,0.49434
1216.681,313.0,0.49501
1217.906,314.0,0.49537
1219.15,315.0,0.49556
1220.367,316.0,0.49537
1221.571,317.0,0.49535
1222.791,318.0,0.49528
1223.987,319.0,0.49518
1225.189,320.0,0.49503
1226.384,321.0,0.4948
1227.582,322.0,0.49452
1228.764,323.0,0.49423
1229.978,324.0,0.49393
1231.187,325.0,0.49362
1232.383,326.0,0.49336
1233.575,327.0,0.49311
1234.776,328.0,0.49286
1235.977,329.0,0.49269
1237.177,330.0,0.49251
1238.379,331.0,0.49234
1239.577,332.0,0.4922
1240.775,333.0,0.49208
1241.967,334.0,0.49196
1243.164,335.0,0.49185
1244.376,336.0,0.49177
1245.568,337.0,0.49168
1246.778,338.0,0.49158
1247.976,339.0,0.4915
1249.178,340.0,0.49141
1250.386,341.0,0.49132
1251.592,342.0,0.49122
1252.79,343.0,0.49112
1254.001,344.0,0.49103
1255.193,345.0,0.49093
1256.407,346.0,0.49083
1257.609,347.0,0.49074
1258.806,348.0,0.49065
1260.03,349.0,0.49055
1261.227,350.0,0.49046
1262.426,351.0,0.49037
1263.636,352.0,0.49029
1264.846,353.0,0.49021
1266.051,354.0,0.49013
1267.258,355.0,0.49005
1268.465,356.0,0.48997
1269.676,357.0,0.48989
1270.883,358.0,0.4898
1272.099,359.0,0.48972
1273.296,360.0,0.48964
1274.492,361.0,0.48957
1275.716,362.0,0.4895
1276.919,363.0,0.48943
1278.132,364.0,0.48937
1279.327,365.0,0.4893
1280.532,366.0,0.48924
1281.741,367.0,0.48917
1282.952,368.0,0.4891
1284.157,369.0,0.48903
1285.362,370.0,0.48897
1286.56,371.0,0.4889
1287.763,372.0,0.48885
1288.98,373.0,0.4888
1290.176,374.0,0.48876
1291.373,375.0,0.48873
1292.574,376.0,0.4887
1293.789,377.0,0.48867
1294.988,378.0,0.48864
1296.197,379.0,0.48862
1297.416,380.0,0.4886
1298.623,381.0,0.48858
1299.828,382.0,0.48856
1301.032,383.0,0.48854
1302.233,384.0,0.48853
1303.424,385.0,0.48852
1304.627,386.0,0.48851
1305.835,387.0,0.48851
1307.05,388.0,0.48851
1308.235,389.0,0.48852
1309.429,390.0,0.48853
1310.635,391.0,0.48854
1311.834,392.0,0.48856
1313.037,393.0,0.48857
1314.242,394.0,0.48857
1315.44,395.0,0.48856
1316.647,396.0,0.48856
1317.839,397.0,0.48856
1319.025,398.0,0.48857
1320.222,399.0,0.48858
1321.427,400.0,0.4886
1322.629,401.0,0.48861
1323.828,402.0,0.48862
1325.011,403.0,0.48862
1326.218,404.0,0.48862
1327.416,405.0,0.48861
1328.602,406.0,0.4886
1329.806,407.0,0.48859
1331.014,408.0,0.48858
1332.198,409.0,0.48858
1333.385,410.0,0.48857
1334.581,411.0,0.48857
1335.769,412.0,0.48857
1336.957,413.0,0.48857
1338.159,414.0,0.48857
1339.347,415.0,0.48856
1340.526,416.0,0.48855
1341.727,417.0,0.48854
1342.92,418.0,0.48853
1344.122,419.0,0.48852
1345.307,420.0,0.4885
1346.504,421.0,0.48848
1347.694,422.0,0.48845
1348.863,423.0,0.48842
1350.051,424.0,0.48839
1351.232,425.0,0.48836
1352.428,426.0,0.48834
1353.622,427.0,0.48832
1354.809,428.0,0.48831
1356.001,429.0,0.48831
1357.186,430.0,0.4883
1358.367,431.0,0.48831
1359.548,432.0,0.48831
1360.743,433.0,0.48831
1361.92,434.0,0.48831
1363.104,435.0,0.48831
1364.292,436.0,0.4883
1365.474,437.0,0.48828
1366.659,438.0,0.48826
1367.847,439.0,0.48822
1369.029,440.0,0.48817
1370.203,441.0,0.48812
1371.387,442.0,0.48806
1372.572,443.0,0.48799
1373.749,444.0,0.48793
1374.933,445.0,0.48787
1376.11,446.0,0.48781
1377.293,447.0,0.48775
1378.467,448.0,0.4877
1379.654,449.0,0.48765
1380.826,450.0,0.4876
1382.021,451.0,0.48754
1383.179,452.0,0.48748
1384.358,453.0,0.4874
1385.53,454.0,0.48732
1386.72,455.0,0.48724
1387.89,456.0,0.48714
1389.069,457.0,0.48705
1390.234,458.0,0.48696
1391.419,459.0,0.48686
1392.592,460.0,0.48677
1393.769,461.0,0.48667
1394.933,462.0,0.48657
1396.114,463.0,0.48647
1397.282,464.0,0.48636
1398.455,465.0,0.48624
1399.629,466.0,0.48611
1400.802,467.0,0.48598
1401.977,468.0,0.48586
1403.146,469.0,0.48574
1404.314,470.0,0.48561
1405.489,471.0,0.48547
1406.651,472.0,0.48534
1407.816,473.0,0.48519
1408.992,474.0,0.48503
1410.159,475.0,0.48488
1411.334,476.0,0.48473
1412.503,477.0,0.48457
1413.68,478.0,0.48441
1414.841,479.0,0.48426
1416.022,480.0,0.4841
1417.183,481.0,0.48394
1418.351,482.0,0.48378
1419.52,483.0,0.48362
1420.686,484.0,0.48346
1421.849,485.0,0.48329
1423.023,486.0,0.48312
1424.194,487.0,0.48294
1425.354,488.0,0.48276
1426.526,489.0,0.48258
1427.69,490.0,0.48239
1428.853,491.0,0.48219
1430.028,492.0,0.48199
1431.196,493.0,0.48178
1432.364,494.0,0.48157
1433.532,495.0,0.48136
1434.698,496.0,0.48115
1435.861,497.0,0.48094
1437.019,498.0,0.48073
1438.188,499.0,0.48051
1439.351,500.0,0.48029
1440.524,501.0,0.48006
1441.691,502.0,0.47984
1442.863,503.0,0.47962
1444.015,504.0,0.47939
1445.193,505.0,0.47914
1446.349,506.0,0.47889
1447.521,507.0,0.47862
1448.683,508.0,0.47834
1449.848,509.0,0.47805
1451.006,510.0,0.47777
1452.189,511.0,0.47745
1453.35,512.0,0.47715
1454.513,513.0,0.47685
1455.68,514.0,0.47654
1456.85,515.0,0.47623
1458.013,516.0,0.47591
1459.182,517.0,0.47559
1460.345,518.0,0.47527
1461.514,519.0,0.47494
1462.684,520.0,0.47461
1463.852,521.0,0.47425
1465.02,522.0,0.47389
1466.183,523.0,0.47353
1467.35,524.0,0.47314
1468.518,525.0,0.47274
1469.682,526.0,0.47233
1470.844,527.0,0.47191
1472.02,528.0,0.47146
1473.188,529.0,0.47101
1474.353,530.0,0.47055
1475.52,531.0,0.47008
1476.689,532.0,0.46959
1477.855,533.0,0.4691
1479.027,534.0,0.46861
1480.184,535.0,0.4681
1481.353,536.0,0.46758
1482.525,537.0,0.46706
1483.683,538.0,0.46652
1484.853,539.0,0.46597
1486.03,540.0,0.46542
1487.191,541.0,0.46486
1488.365,542.0,0.46427
1489.525,543.0,0.46368
1490.696,544.0,0.46308
1491.874,545.0,0.46244
1493.041,546.0,0.4618
1494.195,547.0,0.46116
1495.371,548.0,0.46048
1496.537,549.0,0.45979
1497.706,550.0,0.4591
1498.877,551.0,0.4584
1500.052,552.0,0.45768
1501.217,553.0,0.45696
1502.386,554.0,0.45624
1503.556,555.0,0.45551
1504.724,556.0,0.45476
1505.888,557.0,0.45402
1507.061,558.0,0.45326
1508.234,559.0,0.45248
1509.41,560.0,0.45171
1510.579,561.0,0.45093
1511.751,562.0,0.45013
1512.917,563.0,0.44933
1514.095,564.0,0.44852
1515.264,565.0,0.4477
1516.435,566.0,0.44686
1517.609,567.0,0.44601
1518.785,568.0,0.44516
1519.953,569.0,0.44427
1521.132,570.0,0.44339
1522.303,571.0,0.4425
1523.467,572.0,0.4416
1524.643,573.0,0.44068
1525.822,574.0,0.43976
1526.992,575.0,0.43884
1528.162,576.0,0.43789
1529.337,577.0,0.43693
1530.514,578.0,0.43597
1531.685,579.0,0.43499
1532.862,580.0,0.43398
1534.034,581.0,0.43298
1535.218,582.0,0.43194
1536.39,583.0,0.43088
1537.572,584.0,0.42981
1538.746,585.0,0.42873
1539.916,586.0,0.42762
1541.096,587.0,0.4265
1542.276,588.0,0.42538
1543.45,589.0,0.42424
1544.627,590.0,0.42306
1545.799,591.0,0.42189
1546.971,592.0,0.4207
1548.158,593.0,0.41943
1549.342,594.0,0.41817
1550.518,595.0,0.41689
1551.701,596.0,0.41556
1552.875,597.0,0.41421
1554.056,598.0,0.41285
1555.244,599.0,0.41146
1556.416,600.0,0.41003
1557.597,601.0,0.40857
1558.773,602.0,0.40711
1559.964,603.0,0.40555
1561.144,604.0,0.40401
1562.323,605.0,0.40244
1563.505,606.0,0.40082
1564.682,607.0,0.39917
1565.869,608.0,0.3975
1567.048,609.0,0.39581
1568.243,610.0,0.39402
1569.429,611.0,0.39225
1570.61,612.0,0.39045
1571.801,613.0,0.38858
1572.989,614.0,0.38669
1574.161,615.0,0.38481
1575.343,616.0,0.38287
1576.53,617.0,0.38088
1577.716,618.0,0.37887
1578.909,619.0,0.37684
1580.086,620.0,0.37475
1581.277,621.0,0.37263
1582.459,622.0,0.37051
1583.645,623.0,0.36831
1584.839,624.0,0.36606
1586.032,625.0,0.36379
1587.208,626.0,0.36152
1588.397,627.0,0.35914
1589.584,628.0,0.35677
1590.774,629.0,0.35438
1591.975,630.0,0.35189
1593.158,631.0,0.34944
1594.349,632.0,0.34696
1595.537,633.0,0.34444
1596.73,634.0,0.34188
1597.924,635.0,0.33932
1599.116,636.0,0.33673
1600.306,637.0,0.3341
1601.496,638.0,0.33146
1602.697,639.0,0.32877
1603.884,640.0,0.32606
1605.081,641.0,0.32331
1606.277,642.0,0.32055
1607.471,643.0,0.31774
1608.658,644.0,0.31491
1609.86,645.0,0.31203
1611.059,646.0,0.30913
1612.248,647.0,0.30617
1613.439,648.0,0.30321
1614.646,649.0,0.3002
1615.831,650.0,0.29719
1617.032,651.0,0.29413
1618.227,652.0,0.29107
1619.424,653.0,0.28797
1620.62,654.0,0.28482
1621.816,655.0,0.28167
1623.02,656.0,0.27847
1624.218,657.0,0.2752
1625.415,658.0,0.27193
1626.616,659.0,0.26863
1627.824,660.0,0.26522
1629.026,661.0,0.26181
1630.226,662.0,0.25837
1631.433,663.0,0.25484
1632.633,664.0,0.25125
1633.835,665.0,0.24764
1635.04,666.0,0.24399
1636.251,667.0,0.24018
1637.449,668.0,0.23641
1638.64,669.0,0.23263
1639.842,670.0,0.2287
1641.053,671.0,0.22471
1642.265,672.0,0.22069
1643.461,673.0,0.21666
1644.666,674.0,0.21253
1645.872,675.0,0.20839
1647.074,676.0,0.20424
1648.287,677.0,0.19995
1649.493,678.0,0.1957
1650.701,679.0,0.19143
1651.9,680.0,0.18715
1653.119,681.0,0.18282
1654.311,682.0,0.1786
1655.519,683.0,0.17436
1656.723,684.0,0.17019
1657.932,685.0,0.16605
1659.144,686.0,0.16197
1660.354,687.0,0.15809
1661.559,688.0,0.15428
1662.758,689.0,0.15057
1663.967,690.0,0.14714
1665.171,691.0,0.14382
1666.377,692.0,0.14061
1667.58,693.0,0.13771
1668.79,694.0,0.13503
1670.0,695.0,0.13243
1671.202,696.0,0.13007
1672.417,697.0,0.12812
1673.624,698.0,0.12619
1674.823,699.0,0.1244
1676.043,700.0,0.12307
1677.246,701.0,0.12175
1678.447,702.0,0.12054
1679.659,703.0,0.11959
1680.863,704.0,0.11876
1682.072,705.0,0.11795
1683.284,706.0,0.11725
1684.502,707.0,0.11673
1685.705,708.0,0.11619
1686.923,709.0,0.11567
1688.132,710.0,0.11529
1689.339,711.0,0.11489
1690.55,712.0,0.1145
1691.762,713.0,0.11417
1692.971,714.0,0.11385
1694.18,715.0,0.11352
1695.391,716.0,0.1132
1696.607,717.0,0.11288
1697.819,718.0,0.11256
1699.029,719.0,0.11225
1700.236,720.0,0.11194
1701.45,721.0,0.11163
1702.665,722.0,0.11133
1703.863,723.0,0.11104
1705.079,724.0,0.11075
1706.3,725.0,0.11046
1707.504,726.0,0.11017
1708.715,727.0,0.10988
1709.935,728.0,0.10959
1711.149,729.0,0.1093
1712.358,730.0,0.10903
1713.56,731.0,0.10876
1714.773,732.0,0.10849
1715.989,733.0,0.10824
1717.209,734.0,0.10798
1718.417,735.0,0.10772
1719.631,736.0,0.10747
1720.847,737.0,0.10722
1722.05,738.0,0.10697
1723.274,739.0,0.10671
1724.492,740.0,0.10645
1725.709,741.0,0.10619
1726.907,742.0,0.10593
1728.135,743.0,0.10568
1729.346,744.0,0.10542
1730.557,745.0,0.10517
1731.769,746.0,0.10493
1732.988,747.0,0.10469
1734.207,748.0,0.10445
1735.426,749.0,0.10421
1736.633,750.0,0.10398
1737.84,751.0,0.10375
1739.058,752.0,0.10353
1740.278,753.0,0.10331
1741.487,754.0,0.10309
1742.7,755.0,0.10287
1743.916,756.0,0.10266
1745.126,757.0,0.10244
1746.355,758.0,0.10222
1747.566,759.0,0.10201
1748.777,760.0,0.10181
1749.987,761.0,0.10161
1751.201,762.0,0.10141
1752.42,763.0,0.10123
1753.64,764.0,0.10106
1754.854,765.0,0.10088
1756.065,766.0,0.10072
1757.27,767.0,0.10056
1758.491,768.0,0.1004
1759.712,769.0,0.10024
1760.915,770.0,0.10007
1762.136,771.0,0.09991
1763.353,772.0,0.09973
1764.578,773.0,0.09956
1765.784,774.0,0.09939
1766.999,775.0,0.09922
1768.205,776.0,0.09905
1769.423,777.0,0.09888
1770.634,778.0,0.09871
1771.853,779.0,0.09855
1773.055,780.0,0.09839
1774.278,781.0,0.09824
1775.497,782.0,0.09809
1776.706,783.0,0.09795
1777.919,784.0,0.09782
1779.137,785.0,0.09768
1780.347,786.0,0.09757
1781.568,787.0,0.09745
1782.79,788.0,0.09733
1784.007,789.0,0.09722
1785.214,790.0,0.0971
1786.442,791.0,0.09698
1787.661,792.0,0.09687
1788.871,793.0,0.09675
1790.081,794.0,0.09663
1791.303,795.0,0.09651
1792.51,796.0,0.09639
1793.722,797.0,0.09627
1794.939,798.0,0.09615
1796.156,799.0,0.09603
1797.364,800.0,0.09591
1798.591,801.0,0.09581
1799.799,802.0,0.09571
1801.013,803.0,0.09561
1802.223,804.0,0.0955
1803.441,805.0,0.0954
1804.658,806.0,0.09528
1805.88,807.0,0.09517
1807.091,808.0,0.09506
1808.309,809.0,0.09494
1809.523,810.0,0.09482
1810.739,811.0,0.09471
1811.948,812.0,0.09461
1813.167,813.0,0.09451
1814.38,814.0,0.09441
1815.597,815.0,0.09432
1816.814,816.0,0.09422
1818.027,817.0,0.09413
1819.246,818.0,0.09405
1820.454,819.0,0.09396
1821.666,820.0,0.09387
1822.883,821.0,0.09378
1824.093,822.0,0.09369
1825.307,823.0,0.09359
1826.536,824.0,0.09349
1827.75,825.0,0.0934
1828.955,826.0,0.09331
1830.173,827.0,0.09322
1831.384,828.0,0.09313
1832.604,829.0,0.09305
1833.822,830.0,0.09296
1835.038,831.0,0.09287
1836.255,832.0,0.09278
1837.465,833.0,0.09269
1838.683,834.0,0.0926
1839.902,835.0,0.0925
1841.109,836.0,0.0924
1842.322,837.0,0.09231
1843.53,838.0,0.09222
1844.75,839.0,0.09213
1845.966,840.0,0.09205
1847.177,841.0,0.09198
1848.398,842.0,0.09192
1849.612,843.0,0.09185
1850.819,844.0,0.09179
1852.04,845.0,0.09172
1853.252,846.0,0.09164
1854.469,847.0,0.09156
1855.682,848.0,0.09148
1856.894,849.0,0.0914
1858.113,850.0,0.09132
1859.322,851.0,0.09125
1860.537,852.0,0.09119
1861.755,853.0,0.09112
1862.963,854.0,0.09106
1864.188,855.0,0.09101
1865.407,856.0,0.09095
1866.623,857.0,0.09089
1867.837,858.0,0.09083
1869.047,859.0,0.09077
1870.258,860.0,0.09071
1871.472,861.0,0.09064
1872.684,862.0,0.09056
1873.895,863.0,0.09049
1875.119,864.0,0.09041
1876.328,865.0,0.09033
1877.544,866.0,0.09025
1878.749,867.0,0.09017
1879.98,868.0,0.0901
1881.182,869.0,0.09002
1882.397,870.0,0.08994
1883.603,871.0,0.08987
1884.819,872.0,0.08979
1886.024,873.0,0.08971
1887.24,874.0,0.08963
1888.447,875.0,0.08955
1889.665,876.0,0.08948
1890.873,877.0,0.0894
1892.085,878.0,0.08932
1893.294,879.0,0.08924
1894.512,880.0,0.08916
1895.719,881.0,0.08906
1896.933,882.0,0.08896
1898.142,883.0,0.08887
1899.356,884.0,0.08877
1900.554,885.0,0.08868
1901.772,886.0,0.0886
1902.98,887.0,0.08853
1904.189,888.0,0.08848
1905.399,889.0,0.08843
1906.612,890.0,0.08838
1907.823,891.0,0.08834
1909.035,892.0,0.08829
1910.247,893.0,0.08825
1911.451,894.0,0.0882
1912.662,895.0,0.08815
1913.884,896.0,0.0881
1915.085,897.0,0.08805
1916.297,898.0,0.088
1917.502,899.0,0.08795
1918.715,900.0,0.0879
1919.921,901.0,0.08785
1921.129,902.0,0.0878
1922.342,903.0,0.08774
1923.551,904.0,0.08769
1924.767,905.0,0.08763
1925.971,906.0,0.08758
1927.173,907.0,0.08752
1928.382,908.0,0.08747
1929.598,909.0,0.08742
1930.807,910.0,0.08736
1932.029,911.0,0.0873
1933.223,912.0,0.08724
1934.437,913.0,0.08718
1935.644,914.0,0.08711
1936.848,915.0,0.08704
1938.061,916.0,0.08698
1939.273,917.0,0.08691
1940.479,918.0,0.08685
1941.685,919.0,0.08678
1942.895,920.0,0.08671
1944.099,921.0,0.08664
1945.308,922.0,0.08657
1946.516,923.0,0.08651
1947.727,924.0,0.08645
1948.935,925.0,0.08641
1950.15,926.0,0.08637
1951.351,927.0,0.08635
1952.564,928.0,0.08633
1953.769,929.0,0.08631
1954.979,930.0,0.08628
1956.187,931.0,0.08625
1957.398,932.0,0.08621
1958.609,933.0,0.08617
1959.817,934.0,0.08611
1961.022,935.0,0.08605
1962.236,936.0,0.08598
1963.436,937.0,0.08591
1964.639,938.0,0.08584
1965.847,939.0,0.08577
1967.053,940.0,0.08571
1968.255,941.0,0.08567
1969.468,942.0,0.08561
1970.678,943.0,0.08556
1971.88,944.0,0.08551
1973.085,945.0,0.08546
1974.29,946.0,0.08542
1975.509,947.0,0.08538
1976.718,948.0,0.08534
1977.93,949.0,0.08529
1979.126,950.0,0.08524
1980.345,951.0,0.0852
1981.549,952.0,0.08515
1982.758,953.0,0.08511
1983.956,954.0,0.08507
1985.174,955.0,0.08503
1986.374,956.0,0.08499
1987.576,957.0,0.08495
1988.789,958.0,0.08492
1989.994,959.0,0.08488
1991.209,960.0,0.08484
1992.409,961.0,0.0848
1993.61,962.0,0.08476
1994.813,963.0,0.08471
1996.035,964.0,0.08466
1997.23,965.0,0.08461
1998.434,966.0,0.08456
1999.641,967.0,0.0845
2000.843,968.0,0.08445
2002.055,969.0,0.0844
2003.263,970.0,0.08436
2004.473,971.0,0.08432
2005.685,972.0,0.08428
2006.881,973.0,0.08424
2008.093,974.0,0.0842
2009.297,975.0,0.08417
2010.499,976.0,0.08414
2011.694,977.0,0.08411
2012.894,978.0,0.08408
2014.106,979.0,0.08405
2015.31,980.0,0.08402
2016.516,981.0,0.08399
2017.726,982.0,0.08396
2018.93,983.0,0.08392
2020.129,984.0,0.08388
2021.337,985.0,0.08385
2022.539,986.0,0.08382
2023.742,987.0,0.0838
2024.947,988.0,0.08378
2026.157,989.0,0.08376
2027.358,990.0,0.08374
2028.562,991.0,0.08372
2029.767,992.0,0.08369
2030.977,993.0,0.08367
2032.176,994.0,0.08362
2033.379,995.0,0.08358
2034.58,996.0,0.08353
2035.787,997.0,0.08348
2036.99,998.0,0.08343
2038.186,999.0,0.08339
2039.391,1000.0,0.08335
2040.599,1001.0,0.08331
2041.798,1002.0,0.08326
2043.006,1003.0,0.08322
2044.209,1004.0,0.08318
2045.415,1005.0,0.08314
2046.612,1006.0,0.0831
2047.813,1007.0,0.08305
2049.01,1008.0,0.08301
2050.215,1009.0,0.08297
2051.421,1010.0,0.08292
2052.616,1011.0,0.08288
2053.819,1012.0,0.08283
2055.031,1013.0,0.0828
2056.222,1014.0,0.08277
2057.423,1015.0,0.08274
2058.618,1016.0,0.08272
2059.83,1017.0,0.0827
2061.032,1018.0,0.08269
2062.219,1019.0,0.08267
2063.419,1020.0,0.08265
2064.622,1021.0,0.08263
2065.823,1022.0,0.0826
2067.024,1023.0,0.08258
2068.222,1024.0,0.08255
2069.424,1025.0,0.08253
2070.627,1026.0,0.0825
2071.826,1027.0,0.08248
2073.024,1028.0,0.08246
2074.224,1029.0,0.08244
2075.419,1030.0,0.08241
2076.614,1031.0,0.08239
2077.813,1032.0,0.08236
2079.026,1033.0,0.08233
2080.212,1034.0,0.08231
2081.416,1035.0,0.08228
2082.616,1036.0,0.08226
2083.813,1037.0,0.08223
2085.01,1038.0,0.0822
2086.21,1039.0,0.08217
2087.411,1040.0,0.08214
2088.61,1041.0,0.08211
2089.813,1042.0,0.08208
2091.007,1043.0,0.08205
2092.211,1044.0,0.08202
2093.408,1045.0,0.08199
2094.61,1046.0,0.08195
2095.806,1047.0,0.0819
2097.004,1048.0,0.08186
2098.209,1049.0,0.08183
2099.405,1050.0,0.0818
2100.603,1051.0,0.08177
2101.801,1052.0,0.08175
2103.001,1053.0,0.08172
2104.148,1054.0,0.0817
2106.24,1055.0,0.08166
2107.972,1056.0,0.08163
2109.72,1057.0,0.08161
2111.598,1058.0,0.08159
2113.665,1059.0,0.08155
2115.91,1060.0,0.08146
2118.379,1061.0,0.08136
2121.118,1062.0,0.08125
2134.0,1065.465,0.08118
2154.0,1068.394,0.08105
2174.0,1069.857,0.0809
2194.0,1070.651,0.08081
2214.0,1071.135,0.08073
2234.0,1071.461,0.08049
2254.0,1071.693,0.08024
2274.0,1071.855,0.08021
2294.0,1071.982,0.08006
2314.0,1072.079,0.07989
2334.0,1072.151,0.07992
2354.0,1072.215,0.07971
2374.0,1072.254,0.07959
2394.0,1072.283,0.07975
2414.0,1072.308,0.07946
2424.0,1072.327,0.07944