File: Wood/Calibration_Data/TUBS/TUBS_Wood_TGA_N2_50K_R7.csv
Time (s),Temperature (K),Mass (mg)
0.0,304.994,2.03
6.0,304.954,2.028
14.0,304.924,2.026
24.0,304.889,2.024
32.0,304.846,2.022
43.0,304.821,2.02
54.0,304.781,2.018
67.0,304.759,2.016
80.0,304.706,2.014
94.0,304.683,2.012
110.0,304.668,2.01
129.0,304.631,2.008
147.0,304.614,2.006
169.0,304.581,2.004
194.0,304.564,2.002
218.0,304.544,2.0
253.0,304.496,1.998
288.0,304.497,1.996
330.0,304.47,1.994
385.0,304.444,1.992
445.0,304.426,1.99
522.0,304.437,1.988
636.0,304.433,1.986
818.0,304.443,1.984
1123.0,304.452,1.982
1156.0,304.434,1.982
1204.902,305.5,1.98
1206.753,306.5,1.98
1208.433,307.5,1.98
1210.175,308.5,1.98
1211.691,309.5,1.981
1213.072,310.5,1.981
1214.382,311.5,1.982
1215.659,312.5,1.983
1216.911,313.5,1.983
1218.142,314.5,1.984
1219.366,315.5,1.984
1220.587,316.5,1.984
1221.801,317.5,1.983
1222.999,318.5,1.983
1224.202,319.5,1.983
1225.406,320.5,1.983
1226.596,321.5,1.983
1227.792,322.5,1.982
1229.009,323.5,1.982
1230.195,324.5,1.982
1231.395,325.5,1.981
1232.595,326.5,1.981
1233.79,327.5,1.98
1234.989,328.5,1.98
1236.189,329.5,1.98
1237.385,330.5,1.98
1238.578,331.5,1.979
1239.765,332.5,1.979
1240.971,333.5,1.979
1242.177,334.5,1.979
1243.368,335.5,1.978
1244.564,336.5,1.978
1245.763,337.5,1.978
1246.967,338.5,1.977
1248.173,339.5,1.977
1249.368,340.5,1.977
1250.577,341.5,1.976
1251.773,342.5,1.976
1252.963,343.5,1.976
1254.187,344.5,1.975
1255.384,345.5,1.975
1256.591,346.5,1.974
1257.78,347.5,1.974
1258.98,348.5,1.973
1260.19,349.5,1.973
1261.401,350.5,1.973
1262.6,351.5,1.972
1263.804,352.5,1.971
1265.008,353.5,1.971
1266.217,354.5,1.971
1267.419,355.5,1.97
1268.616,356.5,1.969
1269.827,357.5,1.969
1271.023,358.5,1.969
1272.232,359.5,1.968
1273.438,360.5,1.968
1274.652,361.5,1.967
1275.849,362.5,1.967
1277.035,363.5,1.966
1278.243,364.5,1.966
1279.463,365.5,1.965
1280.654,366.5,1.965
1281.853,367.5,1.964
1283.062,368.5,1.964
1284.263,369.5,1.964
1285.464,370.5,1.963
1286.672,371.5,1.963
1287.874,372.5,1.962
1289.052,373.5,1.962
1290.28,374.5,1.962
1291.474,375.5,1.961
1292.67,376.5,1.961
1293.86,377.5,1.961
1295.079,378.5,1.961
1296.265,379.5,1.96
1297.459,380.5,1.96
1298.657,381.5,1.96
1299.86,382.5,1.96
1301.076,383.5,1.96
1302.269,384.5,1.959
1303.47,385.5,1.959
1304.665,386.5,1.959
1305.863,387.5,1.959
1307.051,388.5,1.959
1308.254,389.5,1.959
1309.448,390.5,1.959
1310.64,391.5,1.959
1311.849,392.5,1.958
1313.044,393.5,1.958
1314.248,394.5,1.958
1315.439,395.5,1.958
1316.633,396.5,1.958
1317.835,397.5,1.958
1319.031,398.5,1.958
1320.218,399.5,1.958
1321.41,400.5,1.958
1322.609,401.5,1.958
1323.802,402.5,1.958
1325.012,403.5,1.958
1326.198,404.5,1.958
1327.383,405.5,1.958
1328.577,406.5,1.958
1329.779,407.5,1.958
1330.974,408.5,1.958
1332.158,409.5,1.958
1333.345,410.5,1.958
1334.549,411.5,1.958
1335.745,412.5,1.958
1336.928,413.5,1.958
1338.105,414.5,1.958
1339.302,415.5,1.958
1340.504,416.5,1.957
1341.685,417.5,1.957
1342.88,418.5,1.957
1344.059,419.5,1.957
1345.253,420.5,1.957
1346.438,421.5,1.957
1347.637,422.5,1.957
1348.825,423.5,1.957
1349.998,424.5,1.957
1351.178,425.5,1.957
1352.375,426.5,1.957
1353.55,427.5,1.957
1354.742,428.5,1.957
1355.933,429.5,1.957
1357.121,430.5,1.957
1358.298,431.5,1.957
1359.486,432.5,1.957
1360.675,433.5,1.957
1361.859,434.5,1.957
1363.033,435.5,1.956
1364.219,436.5,1.956
1365.406,437.5,1.956
1366.584,438.5,1.956
1367.764,439.5,1.956
1368.948,440.5,1.956
1370.129,441.5,1.956
1371.311,442.5,1.956
1372.492,443.5,1.956
1373.671,444.5,1.955
1374.844,445.5,1.955
1376.025,446.5,1.955
1377.204,447.5,1.955
1378.388,448.5,1.955
1379.567,449.5,1.955
1380.736,450.5,1.954
1381.915,451.5,1.954
1383.095,452.5,1.954
1384.273,453.5,1.954
1385.443,454.5,1.954
1386.613,455.5,1.954
1387.795,456.5,1.953
1388.97,457.5,1.953
1390.142,458.5,1.953
1391.31,459.5,1.953
1392.483,460.5,1.953
1393.655,461.5,1.952
1394.837,462.5,1.952
1395.997,463.5,1.952
1397.173,464.5,1.951
1398.349,465.5,1.951
1399.518,466.5,1.951
1400.696,467.5,1.95
1401.863,468.5,1.95
1403.037,469.5,1.95
1404.208,470.5,1.949
1405.379,471.5,1.949
1406.546,472.5,1.948
1407.716,473.5,1.948
1408.889,474.5,1.947
1410.047,475.5,1.947
1411.222,476.5,1.946
1412.396,477.5,1.946
1413.563,478.5,1.945
1414.734,479.5,1.945
1415.902,480.5,1.944
1417.069,481.5,1.943
1418.237,482.5,1.943
1419.41,483.5,1.942
1420.583,484.5,1.941
1421.749,485.5,1.941
1422.919,486.5,1.94
1424.081,487.5,1.939
1425.244,488.5,1.939
1426.422,489.5,1.938
1427.589,490.5,1.936
1428.75,491.5,1.936
1429.914,492.5,1.935
1431.079,493.5,1.934
1432.254,494.5,1.933
1433.421,495.5,1.933
1434.59,496.5,1.931
1435.744,497.5,1.93
1436.917,498.5,1.929
1438.082,499.5,1.929
1439.243,500.5,1.928
1440.408,501.5,1.927
1441.578,502.5,1.925
1442.755,503.5,1.924
1443.92,504.5,1.923
1445.088,505.5,1.922
1446.251,506.5,1.922
1447.414,507.5,1.921
1448.584,508.5,1.919
1449.755,509.5,1.918
1450.911,510.5,1.917
1452.079,511.5,1.916
1453.246,512.5,1.915
1454.41,513.5,1.914
1455.579,514.5,1.912
1456.741,515.5,1.911
1457.914,516.5,1.91
1459.087,517.5,1.909
1460.24,518.5,1.908
1461.409,519.5,1.906
1462.573,520.5,1.904
1463.74,521.5,1.903
1464.923,522.5,1.902
1466.079,523.5,1.901
1467.252,524.5,1.899
1468.413,525.5,1.898
1469.572,526.5,1.896
1470.744,527.5,1.894
1471.911,528.5,1.893
1473.08,529.5,1.891
1474.244,530.5,1.89
1475.418,531.5,1.888
1476.585,532.5,1.886
1477.749,533.5,1.884
1478.902,534.5,1.882
1480.079,535.5,1.881
1481.236,536.5,1.879
1482.411,537.5,1.877
1483.579,538.5,1.875
1484.758,539.5,1.872
1485.916,540.5,1.87
1487.074,541.5,1.868
1488.253,542.5,1.865
1489.419,543.5,1.863
1490.584,544.5,1.861
1491.759,545.5,1.858
1492.926,546.5,1.856
1494.101,547.5,1.854
1495.279,548.5,1.851
1496.447,549.5,1.848
1497.609,550.5,1.846
1498.782,551.5,1.843
1499.955,552.5,1.84
1501.127,553.5,1.837
1502.293,554.5,1.834
1503.461,555.5,1.831
1504.628,556.5,1.828
1505.797,557.5,1.825
1506.972,558.5,1.822
1508.144,559.5,1.819
1509.319,560.5,1.815
1510.487,561.5,1.812
1511.655,562.5,1.808
1512.825,563.5,1.805
1513.999,564.5,1.801
1515.177,565.5,1.797
1516.349,566.5,1.794
1517.521,567.5,1.79
1518.696,568.5,1.787
1519.868,569.5,1.783
1521.04,570.5,1.779
1522.206,571.5,1.775
1523.387,572.5,1.771
1524.556,573.5,1.767
1525.73,574.5,1.764
1526.9,575.5,1.759
1528.079,576.5,1.755
1529.257,577.5,1.751
1530.43,578.5,1.746
1531.607,579.5,1.742
1532.776,580.5,1.738
1533.957,581.5,1.733
1535.121,582.5,1.729
1536.305,583.5,1.724
1537.482,584.5,1.719
1538.656,585.5,1.714
1539.828,586.5,1.71
1541.014,587.5,1.705
1542.172,588.5,1.7
1543.362,589.5,1.695
1544.539,590.5,1.69
1545.719,591.5,1.685
1546.909,592.5,1.679
1548.089,593.5,1.675
1549.273,594.5,1.669
1550.449,595.5,1.663
1551.619,596.5,1.658
1552.791,597.5,1.652
1553.981,598.5,1.646
1555.161,599.5,1.64
1556.347,600.5,1.634
1557.534,601.5,1.628
1558.72,602.5,1.622
1559.91,603.5,1.615
1561.084,604.5,1.609
1562.264,605.5,1.602
1563.446,606.5,1.595
1564.63,607.5,1.589
1565.818,608.5,1.582
1567.004,609.5,1.575
1568.177,610.5,1.568
1569.367,611.5,1.56
1570.553,612.5,1.553
1571.74,613.5,1.545
1572.923,614.5,1.537
1574.119,615.5,1.529
1575.308,616.5,1.521
1576.492,617.5,1.513
1577.677,618.5,1.504
1578.867,619.5,1.496
1580.054,620.5,1.488
1581.238,621.5,1.478
1582.424,622.5,1.47
1583.615,623.5,1.461
1584.816,624.5,1.451
1585.996,625.5,1.442
1587.195,626.5,1.432
1588.385,627.5,1.423
1589.573,628.5,1.413
1590.756,629.5,1.403
1591.953,630.5,1.393
1593.159,631.5,1.383
1594.348,632.5,1.373
1595.534,633.5,1.362
1596.736,634.5,1.351
1597.917,635.5,1.341
1599.11,636.5,1.331
1600.304,637.5,1.319
1601.505,638.5,1.308
1602.699,639.5,1.298
1603.89,640.5,1.286
1605.09,641.5,1.275
1606.281,642.5,1.263
1607.478,643.5,1.252
1608.674,644.5,1.24
1609.876,645.5,1.229
1611.071,646.5,1.217
1612.264,647.5,1.205
1613.465,648.5,1.193
1614.664,649.5,1.181
1615.868,650.5,1.168
1617.075,651.5,1.155
1618.274,652.5,1.143
1619.473,653.5,1.13
1620.678,654.5,1.118
1621.882,655.5,1.104
1623.088,656.5,1.091
1624.294,657.5,1.077
1625.493,658.5,1.064
1626.697,659.5,1.05
1627.9,660.5,1.035
1629.119,661.5,1.021
1630.324,662.5,1.006
1631.53,663.5,0.992
1632.734,664.5,0.976
1633.949,665.5,0.962
1635.153,666.5,0.946
1636.357,667.5,0.93
1637.562,668.5,0.914
1638.774,669.5,0.898
1639.975,670.5,0.881
1641.195,671.5,0.864
1642.387,672.5,0.848
1643.597,673.5,0.831
1644.808,674.5,0.814
1646.008,675.5,0.796
1647.219,676.5,0.779
1648.429,677.5,0.761
1649.642,678.5,0.743
1650.859,679.5,0.726
1652.065,680.5,0.708
1653.267,681.5,0.691
1654.47,682.5,0.674
1655.673,683.5,0.658
1656.882,684.5,0.642
1658.071,685.5,0.626
1659.274,686.5,0.611
1660.478,687.5,0.596
1661.676,688.5,0.583
1662.879,689.5,0.569
1664.079,690.5,0.557
1665.283,691.5,0.546
1666.478,692.5,0.536
1667.683,693.5,0.526
1668.887,694.5,0.518
1670.087,695.5,0.509
1671.29,696.5,0.502
1672.487,697.5,0.497
1673.684,698.5,0.491
1674.891,699.5,0.485
1676.102,700.5,0.482
1677.311,701.5,0.478
1678.519,702.5,0.474
1679.721,703.5,0.472
1680.915,704.5,0.469
1682.128,705.5,0.467
1683.34,706.5,0.464
1684.545,707.5,0.462
1685.761,708.5,0.46
1686.969,709.5,0.459
1688.18,710.5,0.458
1689.382,711.5,0.456
1690.597,712.5,0.454
1691.803,713.5,0.453
1693.004,714.5,0.451
1694.21,715.5,0.45
1695.427,716.5,0.449
1696.642,717.5,0.447
1697.847,718.5,0.446
1699.058,719.5,0.445
1700.271,720.5,0.443
1701.48,721.5,0.442
1702.692,722.5,0.44
1703.899,723.5,0.439
1705.1,724.5,0.438
1706.312,725.5,0.437
1707.526,726.5,0.435
1708.747,727.5,0.434
1709.946,728.5,0.433
1711.164,729.5,0.432
1712.378,730.5,0.431
1713.586,731.5,0.429
1714.807,732.5,0.428
1716.017,733.5,0.427
1717.227,734.5,0.427
1718.435,735.5,0.426
1719.652,736.5,0.424
1720.865,737.5,0.423
1722.085,738.5,0.422
1723.294,739.5,0.421
1724.506,740.5,0.419
1725.72,741.5,0.418
1726.925,742.5,0.418
1728.153,743.5,0.417
1729.365,744.5,0.416
1730.572,745.5,0.414
1731.785,746.5,0.413
1732.992,747.5,0.413
1734.207,748.5,0.412
1735.416,749.5,0.411
1736.628,750.5,0.409
1737.849,751.5,0.409
1739.069,752.5,0.408
1740.28,753.5,0.407
1741.493,754.5,0.406
1742.707,755.5,0.405
1743.935,756.5,0.404
1745.144,757.5,0.403
1746.356,758.5,0.402
1747.571,759.5,0.401
1748.784,760.5,0.4
1749.998,761.5,0.4
1751.222,762.5,0.399
1752.43,763.5,0.398
1753.642,764.5,0.397
1754.865,765.5,0.396
1756.075,766.5,0.396
1757.291,767.5,0.395
1758.51,768.5,0.394
1759.726,769.5,0.393
1760.944,770.5,0.393
1762.151,771.5,0.392
1763.369,772.5,0.392
1764.583,773.5,0.391
1765.79,774.5,0.39
1767.012,775.5,0.389
1768.227,776.5,0.389
1769.446,777.5,0.388
1770.665,778.5,0.387
1771.883,779.5,0.387
1773.095,780.5,0.386
1774.309,781.5,0.386
1775.522,782.5,0.385
1776.733,783.5,0.384
1777.947,784.5,0.384
1779.163,785.5,0.383
1780.379,786.5,0.383
1781.593,787.5,0.382
1782.809,788.5,0.381
1784.028,789.5,0.381
1785.242,790.5,0.381
1786.455,791.5,0.38
1787.668,792.5,0.379
1788.882,793.5,0.379
1790.098,794.5,0.378
1791.311,795.5,0.378
1792.527,796.5,0.377
1793.747,797.5,0.377
1794.967,798.5,0.376
1796.179,799.5,0.376
1797.395,800.5,0.376
1798.603,801.5,0.375
1799.819,802.5,0.375
1801.028,803.5,0.374
1802.241,804.5,0.374
1803.46,805.5,0.373
1804.669,806.5,0.373
1805.883,807.5,0.372
1807.103,808.5,0.372
1808.327,809.5,0.372
1809.539,810.5,0.371
1810.764,811.5,0.37
1811.965,812.5,0.37
1813.182,813.5,0.37
1814.401,814.5,0.369
1815.613,815.5,0.369
1816.825,816.5,0.368
1818.032,817.5,0.368
1819.261,818.5,0.368
1820.476,819.5,0.367
1821.679,820.5,0.367
1822.904,821.5,0.366
1824.113,822.5,0.366
1825.331,823.5,0.366
1826.543,824.5,0.365
1827.754,825.5,0.365
1828.98,826.5,0.364
1830.194,827.5,0.364
1831.408,828.5,0.364
1832.618,829.5,0.363
1833.837,830.5,0.363
1835.061,831.5,0.362
1836.266,832.5,0.362
1837.483,833.5,0.362
1838.692,834.5,0.361
1839.911,835.5,0.361
1841.119,836.5,0.361
1842.338,837.5,0.36
1843.554,838.5,0.36
1844.775,839.5,0.359
1845.982,840.5,0.359
1847.192,841.5,0.359
1848.412,842.5,0.358
1849.626,843.5,0.358
1850.838,844.5,0.358
1852.048,845.5,0.357
1853.259,846.5,0.357
1854.47,847.5,0.357
1855.695,848.5,0.356
1856.914,849.5,0.356
1858.126,850.5,0.355
1859.334,851.5,0.355
1860.552,852.5,0.355
1861.766,853.5,0.354
1862.991,854.5,0.354
1864.187,855.5,0.354
1865.409,856.5,0.354
1866.622,857.5,0.353
1867.837,858.5,0.353
1869.052,859.5,0.353
1870.255,860.5,0.352
1871.467,861.5,0.352
1872.678,862.5,0.352
1873.898,863.5,0.351
1875.105,864.5,0.351
1876.318,865.5,0.351
1877.55,866.5,0.35
1878.763,867.5,0.35
1879.973,868.5,0.35
1881.191,869.5,0.349
1882.405,870.5,0.349
1883.616,871.5,0.349
1884.828,872.5,0.348
1886.033,873.5,0.348
1887.249,874.5,0.348
1888.459,875.5,0.347
1889.675,876.5,0.347
1890.882,877.5,0.347
1892.093,878.5,0.346
1893.309,879.5,0.346
1894.518,880.5,0.346
1895.728,881.5,0.345
1896.938,882.5,0.345
1898.152,883.5,0.345
1899.364,884.5,0.345
1900.572,885.5,0.344
1901.782,886.5,0.344
1902.996,887.5,0.344
1904.206,888.5,0.343
1905.418,889.5,0.343
1906.626,890.5,0.343
1907.843,891.5,0.342
1909.046,892.5,0.342
1910.256,893.5,0.342
1911.462,894.5,0.342
1912.673,895.5,0.341
1913.881,896.5,0.341
1915.088,897.5,0.341
1916.297,898.5,0.341
1917.502,899.5,0.34
1918.713,900.5,0.34
1919.928,901.5,0.34
1921.129,902.5,0.339
1922.348,903.5,0.339
1923.559,904.5,0.339
1924.761,905.5,0.339
1925.979,906.5,0.338
1927.184,907.5,0.338
1928.388,908.5,0.338
1929.593,909.5,0.338
1930.801,910.5,0.337
1932.016,911.5,0.337
1933.22,912.5,0.337
1934.423,913.5,0.337
1935.635,914.5,0.336
1936.844,915.5,0.336
1938.043,916.5,0.336
1939.257,917.5,0.336
1940.468,918.5,0.336
1941.679,919.5,0.335
1942.869,920.5,0.335
1944.088,921.5,0.335
1945.287,922.5,0.335
1946.495,923.5,0.334
1947.69,924.5,0.334
1948.895,925.5,0.334
1950.109,926.5,0.334
1951.312,927.5,0.333
1952.522,928.5,0.333
1953.717,929.5,0.333
1954.93,930.5,0.333
1956.143,931.5,0.333
1957.339,932.5,0.332
1958.543,933.5,0.332
1959.751,934.5,0.332
1960.966,935.5,0.332
1962.166,936.5,0.331
1963.37,937.5,0.331
1964.571,938.5,0.331
1965.777,939.5,0.331
1966.975,940.5,0.331
1968.186,941.5,0.331
1969.39,942.5,0.33
1970.597,943.5,0.33
1971.803,944.5,0.33
1972.995,945.5,0.33
1974.206,946.5,0.33
1975.409,947.5,0.329
1976.608,948.5,0.329
1977.818,949.5,0.329
1979.012,950.5,0.329
1980.212,951.5,0.329
1981.415,952.5,0.329
1982.622,953.5,0.328
1983.824,954.5,0.328
1985.024,955.5,0.328
1986.235,956.5,0.328
1987.434,957.5,0.328
1988.635,958.5,0.327
1989.838,959.5,0.327
1991.041,960.5,0.327
1992.25,961.5,0.327
1993.45,962.5,0.327
1994.654,963.5,0.326
1995.851,964.5,0.326
1997.05,965.5,0.326
1998.262,966.5,0.326
1999.467,967.5,0.326
2000.663,968.5,0.326
2001.86,969.5,0.326
2003.061,970.5,0.325
2004.261,971.5,0.325
2005.467,972.5,0.325
2006.677,973.5,0.325
2007.863,974.5,0.325
2009.059,975.5,0.325
2010.27,976.5,0.324
2011.471,977.5,0.324
2012.669,978.5,0.324
2013.87,979.5,0.324
2015.066,980.5,0.324
2016.271,981.5,0.324
2017.479,982.5,0.324
2018.677,983.5,0.323
2019.868,984.5,0.323
2021.066,985.5,0.323
2022.279,986.5,0.323
2023.475,987.5,0.323
2024.68,988.5,0.323
2025.871,989.5,0.323
2027.072,990.5,0.322
2028.266,991.5,0.322
2029.471,992.5,0.322
2030.672,993.5,0.322
2031.869,994.5,0.322
2033.068,995.5,0.322
2034.265,996.5,0.322
2035.468,997.5,0.322
2036.666,998.5,0.321
2037.871,999.5,0.321
2039.071,1000.5,0.321
2040.268,1001.5,0.321
2041.458,1002.5,0.321
2042.658,1003.5,0.32
2043.861,1004.5,0.32
2045.064,1005.5,0.32
2046.258,1006.5,0.32
2047.462,1007.5,0.32
2048.655,1008.5,0.32
2049.846,1009.5,0.32
2051.05,1010.5,0.32
2052.247,1011.5,0.319
2053.443,1012.5,0.319
2054.643,1013.5,0.319
2055.844,1014.5,0.319
2057.036,1015.5,0.319
2058.229,1016.5,0.319
2059.427,1017.5,0.319
2060.627,1018.5,0.319
2061.825,1019.5,0.319
2063.02,1020.5,0.318
2064.218,1021.5,0.318
2065.419,1022.5,0.318
2066.616,1023.5,0.318
2067.811,1024.5,0.318
2069.013,1025.5,0.318
2070.203,1026.5,0.318
2071.398,1027.5,0.318
2072.587,1028.5,0.318
2073.781,1029.5,0.317
2074.989,1030.5,0.317
2076.181,1031.5,0.317
2077.375,1032.5,0.317
2078.576,1033.5,0.317
2079.771,1034.5,0.317
2080.963,1035.5,0.317
2082.159,1036.5,0.317
2083.357,1037.5,0.317
2084.547,1038.5,0.316
2085.743,1039.5,0.316
2086.946,1040.5,0.316
2088.141,1041.5,0.316
2089.334,1042.5,0.316
2090.523,1043.5,0.316
2091.716,1044.5,0.316
2092.912,1045.5,0.315
2094.114,1046.5,0.315
2095.305,1047.5,0.315
2096.504,1048.5,0.315
2097.693,1049.5,0.315
2098.887,1050.5,0.315
2100.09,1051.5,0.315
2101.285,1052.5,0.315
2102.48,1053.5,0.315
2103.603,1054.5,0.314
2105.545,1055.5,0.314
2107.476,1056.5,0.314
2109.29,1057.5,0.314
2111.225,1058.5,0.314
2113.331,1059.5,0.314
2115.683,1060.5,0.313
2118.266,1061.5,0.313
2121.149,1062.5,0.313
2124.0,1063.376,0.313
2144.0,1067.381,0.312
2164.0,1069.28,0.311
2184.0,1070.264,0.31
2204.0,1070.819,0.309
2224.0,1071.172,0.308
2244.0,1071.416,0.308
2264.0,1071.596,0.307
2284.0,1071.721,0.307
2304.0,1071.827,0.306
2324.0,1071.898,0.306
2344.0,1071.958,0.305
2364.0,1071.996,0.305
2384.0,1072.033,0.304
2404.0,1072.063,0.304
2424.0,1072.082,0.303