File: Wood/Calibration_Data/TUBS/TUBS_Wood_TGA_N2_50K_R4.csv
Time (s),Temperature (K),Mass (mg)
0.0,303.875,4.02
4.0,304.929,4.018
10.0,304.912,4.016
15.0,304.873,4.014
21.0,304.858,4.012
27.0,304.843,4.01
33.0,304.817,4.008
39.0,304.798,4.006
45.0,304.782,4.004
52.0,304.736,4.002
59.0,304.749,4.0
66.0,304.719,3.998
73.0,304.699,3.996
81.0,304.694,3.994
89.0,304.668,3.992
97.0,304.664,3.99
106.0,304.652,3.988
115.0,304.636,3.986
124.0,304.6,3.984
133.0,304.59,3.982
142.0,304.602,3.98
153.0,304.572,3.978
164.0,304.559,3.976
176.0,304.549,3.974
187.0,304.534,3.972
199.0,304.531,3.97
211.0,304.517,3.968
225.0,304.51,3.966
239.0,304.481,3.964
254.0,304.488,3.962
269.0,304.468,3.96
286.0,304.451,3.958
302.0,304.447,3.956
319.0,304.443,3.954
338.0,304.423,3.952
358.0,304.425,3.95
381.0,304.426,3.948
405.0,304.43,3.946
429.0,304.426,3.944
452.0,304.422,3.942
479.0,304.41,3.94
507.0,304.401,3.938
545.0,304.409,3.936
581.0,304.415,3.934
619.0,304.416,3.932
664.0,304.432,3.93
712.0,304.43,3.928
763.0,304.423,3.926
824.0,304.422,3.924
891.0,304.41,3.922
960.0,304.426,3.92
1062.0,304.452,3.918
1167.0,304.421,3.916
1204.675,305.5,3.914
1206.455,306.5,3.914
1208.015,307.5,3.913
1209.83,308.5,3.913
1211.386,309.5,3.913
1212.801,310.5,3.915
1214.152,311.5,3.915
1215.436,312.5,3.915
1216.717,313.5,3.916
1217.976,314.5,3.917
1219.22,315.5,3.917
1220.446,316.5,3.916
1221.655,317.5,3.916
1222.876,318.5,3.916
1224.096,319.5,3.916
1225.29,320.5,3.916
1226.505,321.5,3.915
1227.705,322.5,3.915
1228.913,323.5,3.915
1230.117,324.5,3.914
1231.324,325.5,3.914
1232.516,326.5,3.913
1233.713,327.5,3.913
1234.916,328.5,3.912
1236.123,329.5,3.912
1237.313,330.5,3.912
1238.528,331.5,3.911
1239.731,332.5,3.911
1240.938,333.5,3.91
1242.141,334.5,3.91
1243.338,335.5,3.909
1244.554,336.5,3.909
1245.762,337.5,3.908
1246.951,338.5,3.908
1248.15,339.5,3.907
1249.356,340.5,3.907
1250.569,341.5,3.906
1251.768,342.5,3.905
1252.988,343.5,3.905
1254.189,344.5,3.904
1255.379,345.5,3.903
1256.593,346.5,3.902
1257.812,347.5,3.901
1259.012,348.5,3.901
1260.213,349.5,3.9
1261.431,350.5,3.899
1262.634,351.5,3.898
1263.823,352.5,3.897
1265.062,353.5,3.896
1266.272,354.5,3.895
1267.482,355.5,3.894
1268.687,356.5,3.892
1269.893,357.5,3.892
1271.098,358.5,3.891
1272.301,359.5,3.89
1273.498,360.5,3.889
1274.706,361.5,3.887
1275.914,362.5,3.886
1277.122,363.5,3.885
1278.318,364.5,3.884
1279.526,365.5,3.882
1280.729,366.5,3.881
1281.951,367.5,3.881
1283.143,368.5,3.88
1284.343,369.5,3.879
1285.541,370.5,3.877
1286.748,371.5,3.876
1287.955,372.5,3.875
1289.16,373.5,3.874
1290.362,374.5,3.874
1291.561,375.5,3.872
1292.755,376.5,3.871
1293.963,377.5,3.871
1295.161,378.5,3.87
1296.351,379.5,3.869
1297.553,380.5,3.868
1298.76,381.5,3.867
1299.966,382.5,3.867
1301.156,383.5,3.866
1302.357,384.5,3.866
1303.554,385.5,3.865
1304.744,386.5,3.865
1305.932,387.5,3.864
1307.121,388.5,3.864
1308.316,389.5,3.863
1309.514,390.5,3.863
1310.71,391.5,3.863
1311.903,392.5,3.862
1313.11,393.5,3.862
1314.292,394.5,3.862
1315.485,395.5,3.862
1316.668,396.5,3.861
1317.86,397.5,3.861
1319.062,398.5,3.861
1320.25,399.5,3.861
1321.445,400.5,3.861
1322.64,401.5,3.86
1323.818,402.5,3.86
1325.012,403.5,3.86
1326.209,404.5,3.86
1327.404,405.5,3.86
1328.601,406.5,3.86
1329.8,407.5,3.86
1330.983,408.5,3.86
1332.163,409.5,3.86
1333.356,410.5,3.86
1334.539,411.5,3.86
1335.731,412.5,3.86
1336.92,413.5,3.86
1338.111,414.5,3.859
1339.294,415.5,3.859
1340.483,416.5,3.859
1341.665,417.5,3.859
1342.85,418.5,3.859
1344.048,419.5,3.859
1345.24,420.5,3.859
1346.42,421.5,3.859
1347.598,422.5,3.859
1348.78,423.5,3.859
1349.97,424.5,3.859
1351.15,425.5,3.859
1352.34,426.5,3.858
1353.523,427.5,3.858
1354.71,428.5,3.858
1355.898,429.5,3.858
1357.072,430.5,3.858
1358.252,431.5,3.858
1359.442,432.5,3.858
1360.617,433.5,3.858
1361.803,434.5,3.858
1362.984,435.5,3.857
1364.159,436.5,3.857
1365.35,437.5,3.857
1366.53,438.5,3.857
1367.711,439.5,3.857
1368.886,440.5,3.857
1370.064,441.5,3.857
1371.247,442.5,3.856
1372.426,443.5,3.856
1373.608,444.5,3.856
1374.79,445.5,3.856
1375.959,446.5,3.856
1377.143,447.5,3.855
1378.306,448.5,3.855
1379.48,449.5,3.855
1380.664,450.5,3.855
1381.84,451.5,3.854
1383.016,452.5,3.854
1384.193,453.5,3.854
1385.366,454.5,3.854
1386.543,455.5,3.853
1387.712,456.5,3.853
1388.875,457.5,3.853
1390.055,458.5,3.852
1391.235,459.5,3.852
1392.404,460.5,3.852
1393.576,461.5,3.851
1394.733,462.5,3.851
1395.904,463.5,3.85
1397.079,464.5,3.85
1398.254,465.5,3.85
1399.421,466.5,3.849
1400.6,467.5,3.848
1401.772,468.5,3.848
1402.931,469.5,3.847
1404.111,470.5,3.847
1405.275,471.5,3.846
1406.435,472.5,3.846
1407.609,473.5,3.845
1408.789,474.5,3.844
1409.951,475.5,3.843
1411.109,476.5,3.843
1412.279,477.5,3.842
1413.451,478.5,3.841
1414.62,479.5,3.84
1415.789,480.5,3.839
1416.966,481.5,3.838
1418.125,482.5,3.837
1419.288,483.5,3.837
1420.453,484.5,3.836
1421.624,485.5,3.834
1422.795,486.5,3.833
1423.948,487.5,3.832
1425.122,488.5,3.831
1426.288,489.5,3.83
1427.446,490.5,3.828
1428.611,491.5,3.826
1429.786,492.5,3.825
1430.947,493.5,3.824
1432.113,494.5,3.822
1433.279,495.5,3.821
1434.445,496.5,3.819
1435.597,497.5,3.817
1436.763,498.5,3.815
1437.931,499.5,3.814
1439.101,500.5,3.812
1440.267,501.5,3.81
1441.427,502.5,3.809
1442.591,503.5,3.807
1443.757,504.5,3.804
1444.935,505.5,3.803
1446.096,506.5,3.801
1447.248,507.5,3.799
1448.417,508.5,3.796
1449.582,509.5,3.794
1450.751,510.5,3.792
1451.915,511.5,3.79
1453.085,512.5,3.788
1454.247,513.5,3.786
1455.409,514.5,3.783
1456.566,515.5,3.781
1457.725,516.5,3.779
1458.893,517.5,3.776
1460.057,518.5,3.774
1461.227,519.5,3.772
1462.391,520.5,3.769
1463.555,521.5,3.767
1464.71,522.5,3.764
1465.879,523.5,3.761
1467.044,524.5,3.759
1468.206,525.5,3.756
1469.37,526.5,3.753
1470.533,527.5,3.751
1471.696,528.5,3.748
1472.859,529.5,3.744
1474.022,530.5,3.742
1475.19,531.5,3.739
1476.352,532.5,3.736
1477.516,533.5,3.732
1478.678,534.5,3.729
1479.847,535.5,3.725
1481.01,536.5,3.723
1482.175,537.5,3.719
1483.347,538.5,3.716
1484.503,539.5,3.711
1485.666,540.5,3.708
1486.841,541.5,3.704
1488.009,542.5,3.7
1489.176,543.5,3.696
1490.341,544.5,3.692
1491.506,545.5,3.687
1492.671,546.5,3.683
1493.827,547.5,3.679
1494.996,548.5,3.674
1496.16,549.5,3.669
1497.333,550.5,3.665
1498.497,551.5,3.66
1499.664,552.5,3.654
1500.825,553.5,3.65
1501.994,554.5,3.644
1503.145,555.5,3.639
1504.314,556.5,3.633
1505.471,557.5,3.628
1506.633,558.5,3.622
1507.798,559.5,3.616
1508.955,560.5,3.61
1510.125,561.5,3.604
1511.291,562.5,3.599
1512.454,563.5,3.592
1513.614,564.5,3.586
1514.787,565.5,3.579
1515.956,566.5,3.572
1517.12,567.5,3.565
1518.275,568.5,3.558
1519.443,569.5,3.551
1520.615,570.5,3.544
1521.779,571.5,3.536
1522.947,572.5,3.528
1524.109,573.5,3.52
1525.269,574.5,3.512
1526.427,575.5,3.504
1527.602,576.5,3.496
1528.774,577.5,3.487
1529.938,578.5,3.478
1531.106,579.5,3.469
1532.281,580.5,3.46
1533.454,581.5,3.45
1534.625,582.5,3.441
1535.811,583.5,3.431
1536.991,584.5,3.421
1538.169,585.5,3.411
1539.349,586.5,3.401
1540.523,587.5,3.391
1541.709,588.5,3.381
1542.893,589.5,3.37
1544.063,590.5,3.359
1545.247,591.5,3.349
1546.428,592.5,3.337
1547.605,593.5,3.327
1548.787,594.5,3.315
1549.97,595.5,3.303
1551.155,596.5,3.292
1552.339,597.5,3.28
1553.522,598.5,3.268
1554.704,599.5,3.256
1555.88,600.5,3.243
1557.064,601.5,3.231
1558.243,602.5,3.218
1559.423,603.5,3.205
1560.607,604.5,3.192
1561.781,605.5,3.179
1562.969,606.5,3.165
1564.156,607.5,3.151
1565.336,608.5,3.137
1566.517,609.5,3.123
1567.706,610.5,3.108
1568.89,611.5,3.093
1570.063,612.5,3.078
1571.248,613.5,3.063
1572.43,614.5,3.047
1573.618,615.5,3.031
1574.82,616.5,3.015
1576.004,617.5,2.998
1577.183,618.5,2.981
1578.376,619.5,2.964
1579.565,620.5,2.947
1580.746,621.5,2.929
1581.929,622.5,2.911
1583.115,623.5,2.893
1584.303,624.5,2.875
1585.498,625.5,2.856
1586.69,626.5,2.837
1587.879,627.5,2.818
1589.073,628.5,2.799
1590.266,629.5,2.779
1591.46,630.5,2.759
1592.654,631.5,2.738
1593.854,632.5,2.717
1595.042,633.5,2.697
1596.231,634.5,2.676
1597.426,635.5,2.655
1598.622,636.5,2.634
1599.821,637.5,2.611
1601.01,638.5,2.59
1602.215,639.5,2.567
1603.405,640.5,2.545
1604.601,641.5,2.523
1605.799,642.5,2.5
1607.002,643.5,2.476
1608.19,644.5,2.453
1609.393,645.5,2.429
1610.587,646.5,2.405
1611.786,647.5,2.381
1612.987,648.5,2.357
1614.197,649.5,2.332
1615.397,650.5,2.307
1616.607,651.5,2.281
1617.803,652.5,2.256
1619.005,653.5,2.23
1620.214,654.5,2.203
1621.428,655.5,2.177
1622.625,656.5,2.15
1623.832,657.5,2.123
1625.049,658.5,2.095
1626.249,659.5,2.066
1627.465,660.5,2.037
1628.666,661.5,2.008
1629.878,662.5,1.978
1631.085,663.5,1.949
1632.298,664.5,1.917
1633.509,665.5,1.886
1634.726,666.5,1.854
1635.933,667.5,1.822
1637.151,668.5,1.789
1638.361,669.5,1.756
1639.58,670.5,1.722
1640.79,671.5,1.687
1642.007,672.5,1.653
1643.219,673.5,1.617
1644.424,674.5,1.582
1645.631,675.5,1.547
1646.83,676.5,1.511
1648.049,677.5,1.476
1649.244,678.5,1.44
1650.45,679.5,1.405
1651.655,680.5,1.37
1652.851,681.5,1.336
1654.051,682.5,1.303
1655.242,683.5,1.27
1656.437,684.5,1.239
1657.63,685.5,1.207
1658.822,686.5,1.176
1660.018,687.5,1.15
1661.212,688.5,1.122
1662.397,689.5,1.097
1663.587,690.5,1.074
1664.784,691.5,1.053
1665.972,692.5,1.033
1667.168,693.5,1.015
1668.352,694.5,1.0
1669.544,695.5,0.985
1670.738,696.5,0.972
1671.935,697.5,0.962
1673.139,698.5,0.952
1674.322,699.5,0.943
1675.531,700.5,0.936
1676.722,701.5,0.93
1677.927,702.5,0.923
1679.128,703.5,0.917
1680.331,704.5,0.913
1681.531,705.5,0.908
1682.731,706.5,0.903
1683.929,707.5,0.899
1685.135,708.5,0.896
1686.341,709.5,0.892
1687.543,710.5,0.888
1688.745,711.5,0.886
1689.947,712.5,0.882
1691.16,713.5,0.879
1692.364,714.5,0.876
1693.568,715.5,0.873
1694.77,716.5,0.87
1695.971,717.5,0.867
1697.18,718.5,0.864
1698.385,719.5,0.861
1699.593,720.5,0.859
1700.798,721.5,0.856
1702.012,722.5,0.853
1703.228,723.5,0.851
1704.434,724.5,0.848
1705.63,725.5,0.845
1706.846,726.5,0.842
1708.06,727.5,0.84
1709.257,728.5,0.837
1710.467,729.5,0.835
1711.682,730.5,0.832
1712.882,731.5,0.829
1714.104,732.5,0.827
1715.306,733.5,0.824
1716.518,734.5,0.822
1717.724,735.5,0.82
1718.944,736.5,0.817
1720.154,737.5,0.815
1721.362,738.5,0.812
1722.573,739.5,0.81
1723.783,740.5,0.808
1724.989,741.5,0.806
1726.197,742.5,0.804
1727.407,743.5,0.801
1728.621,744.5,0.799
1729.834,745.5,0.796
1731.054,746.5,0.795
1732.261,747.5,0.792
1733.479,748.5,0.79
1734.688,749.5,0.788
1735.901,750.5,0.786
1737.11,751.5,0.784
1738.32,752.5,0.782
1739.532,753.5,0.78
1740.751,754.5,0.777
1741.963,755.5,0.776
1743.176,756.5,0.774
1744.389,757.5,0.772
1745.607,758.5,0.77
1746.818,759.5,0.768
1748.034,760.5,0.766
1749.247,761.5,0.765
1750.45,762.5,0.763
1751.665,763.5,0.761
1752.878,764.5,0.759
1754.092,765.5,0.758
1755.31,766.5,0.756
1756.522,767.5,0.754
1757.736,768.5,0.753
1758.948,769.5,0.751
1760.158,770.5,0.75
1761.371,771.5,0.748
1762.58,772.5,0.746
1763.797,773.5,0.744
1765.011,774.5,0.743
1766.22,775.5,0.742
1767.436,776.5,0.741
1768.649,777.5,0.739
1769.858,778.5,0.737
1771.076,779.5,0.736
1772.291,780.5,0.735
1773.506,781.5,0.733
1774.718,782.5,0.732
1775.922,783.5,0.73
1777.145,784.5,0.729
1778.349,785.5,0.728
1779.557,786.5,0.726
1780.764,787.5,0.725
1781.985,788.5,0.724
1783.201,789.5,0.723
1784.407,790.5,0.721
1785.625,791.5,0.719
1786.836,792.5,0.718
1788.049,793.5,0.717
1789.253,794.5,0.716
1790.461,795.5,0.715
1791.669,796.5,0.713
1792.888,797.5,0.712
1794.095,798.5,0.711
1795.313,799.5,0.71
1796.522,800.5,0.708
1797.739,801.5,0.707
1798.939,802.5,0.706
1800.145,803.5,0.705
1801.353,804.5,0.704
1802.56,805.5,0.702
1803.77,806.5,0.701
1804.995,807.5,0.7
1806.193,808.5,0.699
1807.4,809.5,0.698
1808.609,810.5,0.696
1809.812,811.5,0.695
1811.035,812.5,0.695
1812.247,813.5,0.694
1813.447,814.5,0.693
1814.652,815.5,0.691
1815.868,816.5,0.69
1817.079,817.5,0.689
1818.283,818.5,0.688
1819.489,819.5,0.687
1820.696,820.5,0.686
1821.904,821.5,0.685
1823.121,822.5,0.684
1824.332,823.5,0.683
1825.535,824.5,0.681
1826.748,825.5,0.68
1827.949,826.5,0.68
1829.154,827.5,0.679
1830.369,828.5,0.678
1831.573,829.5,0.676
1832.781,830.5,0.675
1833.988,831.5,0.675
1835.197,832.5,0.674
1836.402,833.5,0.673
1837.609,834.5,0.672
1838.813,835.5,0.671
1840.024,836.5,0.67
1841.239,837.5,0.669
1842.449,838.5,0.669
1843.654,839.5,0.667
1844.861,840.5,0.666
1846.075,841.5,0.666
1847.282,842.5,0.665
1848.493,843.5,0.664
1849.697,844.5,0.663
1850.901,845.5,0.662
1852.119,846.5,0.661
1853.319,847.5,0.661
1854.529,848.5,0.659
1855.733,849.5,0.659
1856.945,850.5,0.658
1858.152,851.5,0.657
1859.361,852.5,0.657
1860.575,853.5,0.655
1861.783,854.5,0.655
1862.986,855.5,0.654
1864.195,856.5,0.654
1865.4,857.5,0.653
1866.607,858.5,0.652
1867.818,859.5,0.651
1869.028,860.5,0.651
1870.236,861.5,0.65
1871.438,862.5,0.649
1872.645,863.5,0.648
1873.86,864.5,0.648
1875.074,865.5,0.647
1876.275,866.5,0.646
1877.48,867.5,0.646
1878.691,868.5,0.644
1879.897,869.5,0.644
1881.112,870.5,0.643
1882.32,871.5,0.643
1883.526,872.5,0.641
1884.737,873.5,0.641
1885.943,874.5,0.64
1887.152,875.5,0.64
1888.36,876.5,0.639
1889.571,877.5,0.638
1890.812,878.5,0.638
1892.046,879.5,0.637
1893.259,880.5,0.636
1894.471,881.5,0.636
1895.687,882.5,0.635
1896.895,883.5,0.634
1898.102,884.5,0.634
1899.316,885.5,0.633
1900.528,886.5,0.632
1901.741,887.5,0.632
1902.948,888.5,0.631
1904.147,889.5,0.63
1905.352,890.5,0.63
1906.566,891.5,0.629
1907.777,892.5,0.628
1908.982,893.5,0.628
1910.19,894.5,0.627
1911.402,895.5,0.627
1912.609,896.5,0.626
1913.805,897.5,0.625
1915.027,898.5,0.625
1916.242,899.5,0.624
1917.443,900.5,0.624
1918.644,901.5,0.623
1919.853,902.5,0.622
1921.061,903.5,0.622
1922.272,904.5,0.621
1923.468,905.5,0.621
1924.679,906.5,0.62
1925.881,907.5,0.619
1927.081,908.5,0.619
1928.29,909.5,0.618
1929.507,910.5,0.617
1930.708,911.5,0.617
1931.916,912.5,0.616
1933.13,913.5,0.616
1934.325,914.5,0.616
1935.528,915.5,0.615
1936.729,916.5,0.614
1937.942,917.5,0.614
1939.146,918.5,0.613
1940.35,919.5,0.613
1941.556,920.5,0.612
1942.764,921.5,0.612
1943.964,922.5,0.611
1945.173,923.5,0.611
1946.369,924.5,0.61
1947.575,925.5,0.609
1948.782,926.5,0.609
1949.98,927.5,0.609
1951.196,928.5,0.608
1952.39,929.5,0.608
1953.595,930.5,0.607
1954.801,931.5,0.606
1956.006,932.5,0.606
1957.205,933.5,0.606
1958.409,934.5,0.605
1959.62,935.5,0.604
1960.828,936.5,0.604
1962.035,937.5,0.604
1963.245,938.5,0.603
1964.445,939.5,0.603
1965.646,940.5,0.602
1966.855,941.5,0.602
1968.062,942.5,0.601
1969.262,943.5,0.601
1970.465,944.5,0.6
1971.675,945.5,0.6
1972.885,946.5,0.599
1974.079,947.5,0.599
1975.29,948.5,0.598
1976.489,949.5,0.598
1977.694,950.5,0.597
1978.901,951.5,0.597
1980.103,952.5,0.596
1981.31,953.5,0.596
1982.513,954.5,0.595
1983.721,955.5,0.595
1984.927,956.5,0.595
1986.121,957.5,0.594
1987.335,958.5,0.594
1988.539,959.5,0.593
1989.742,960.5,0.593
1990.945,961.5,0.593
1992.158,962.5,0.592
1993.355,963.5,0.592
1994.557,964.5,0.591
1995.758,965.5,0.591
1996.97,966.5,0.591
1998.174,967.5,0.591
1999.377,968.5,0.59
2000.588,969.5,0.59
2001.792,970.5,0.589
2002.99,971.5,0.589
2004.199,972.5,0.589
2005.402,973.5,0.588
2006.618,974.5,0.588
2007.821,975.5,0.588
2009.022,976.5,0.587
2010.227,977.5,0.587
2011.434,978.5,0.587
2012.647,979.5,0.586
2013.85,980.5,0.586
2015.061,981.5,0.586
2016.255,982.5,0.585
2017.458,983.5,0.585
2018.667,984.5,0.585
2019.875,985.5,0.584
2021.081,986.5,0.584
2022.285,987.5,0.584
2023.489,988.5,0.584
2024.7,989.5,0.583
2025.902,990.5,0.583
2027.102,991.5,0.583
2028.313,992.5,0.582
2029.511,993.5,0.582
2030.708,994.5,0.582
2031.921,995.5,0.581
2033.134,996.5,0.581
2034.335,997.5,0.581
2035.536,998.5,0.581
2036.742,999.5,0.58
2037.95,1000.5,0.58
2039.153,1001.5,0.58
2040.353,1002.5,0.58
2041.548,1003.5,0.579
2042.76,1004.5,0.579
2043.961,1005.5,0.579
2045.163,1006.5,0.578
2046.369,1007.5,0.578
2047.573,1008.5,0.578
2048.78,1009.5,0.577
2049.987,1010.5,0.577
2051.179,1011.5,0.577
2052.38,1012.5,0.577
2053.589,1013.5,0.576
2054.793,1014.5,0.576
2055.998,1015.5,0.576
2057.203,1016.5,0.576
2058.41,1017.5,0.575
2059.604,1018.5,0.575
2060.811,1019.5,0.575
2062.01,1020.5,0.575
2063.201,1021.5,0.574
2064.408,1022.5,0.574
2065.615,1023.5,0.574
2066.813,1024.5,0.574
2068.016,1025.5,0.573
2069.218,1026.5,0.573
2070.421,1027.5,0.573
2071.621,1028.5,0.572
2072.828,1029.5,0.572
2074.025,1030.5,0.572
2075.23,1031.5,0.572
2076.428,1032.5,0.572
2077.63,1033.5,0.571
2078.841,1034.5,0.571
2080.041,1035.5,0.571
2081.242,1036.5,0.57
2082.45,1037.5,0.57
2083.651,1038.5,0.57
2084.845,1039.5,0.57
2086.043,1040.5,0.569
2087.24,1041.5,0.569
2088.452,1042.5,0.569
2089.647,1043.5,0.569
2090.847,1044.5,0.568
2092.061,1045.5,0.568
2093.256,1046.5,0.568
2094.456,1047.5,0.568
2095.667,1048.5,0.567
2096.871,1049.5,0.567
2098.066,1050.5,0.567
2099.271,1051.5,0.567
2100.475,1052.5,0.566
2101.677,1053.5,0.566
2102.875,1054.5,0.566
2103.957,1055.5,0.565
2106.541,1056.5,0.565
2108.466,1057.5,0.565
2110.425,1058.5,0.564
2112.59,1059.5,0.564
2114.945,1060.5,0.563
2117.614,1061.5,0.563
2120.579,1062.5,0.562
2124.0,1063.513,0.562
2144.0,1067.326,0.559
2164.0,1069.113,0.557
2184.0,1070.041,0.555
2204.0,1070.568,0.554
2224.0,1070.891,0.552
2244.0,1071.12,0.551
2264.0,1071.3,0.55
2284.0,1071.427,0.549
2304.0,1071.525,0.548
2324.0,1071.595,0.547
2344.0,1071.661,0.546
2364.0,1071.711,0.546
2384.0,1071.746,0.545
2404.0,1071.769,0.544
2424.0,1071.796,0.543