File: Wood/Calibration_Data/TUBS/TUBS_TGA_N2_20K_R3.csv
Time (s),Temperature (K),Mass (mg)
0.0,305.115,0.98
2.0,305.085,0.98
4.0,305.08,0.98
6.0,305.075,0.979
8.0,305.059,0.979
10.0,305.056,0.979
12.0,305.023,0.979
14.0,305.012,0.979
16.0,305.025,0.978
18.0,305.009,0.978
20.0,305.002,0.978
22.0,304.986,0.978
24.0,304.981,0.978
26.0,304.966,0.977
28.0,304.962,0.977
30.0,304.952,0.977
32.0,304.962,0.977
34.0,304.944,0.976
36.0,304.936,0.976
38.0,304.924,0.976
40.0,304.922,0.976
42.0,304.928,0.976
44.0,304.912,0.976
46.0,304.906,0.976
48.0,304.894,0.975
50.0,304.898,0.975
52.0,304.889,0.975
54.0,304.881,0.975
56.0,304.883,0.975
58.0,304.853,0.975
60.0,304.861,0.975
62.0,304.848,0.974
64.0,304.844,0.974
66.0,304.838,0.974
68.0,304.834,0.974
70.0,304.826,0.974
72.0,304.829,0.974
74.0,304.828,0.974
76.0,304.816,0.974
78.0,304.803,0.974
80.0,304.82,0.973
82.0,304.808,0.973
84.0,304.786,0.973
86.0,304.798,0.973
88.0,304.792,0.973
90.0,304.774,0.973
92.0,304.791,0.973
94.0,304.78,0.973
96.0,304.788,0.973
98.0,304.761,0.973
100.0,304.766,0.973
102.0,304.755,0.973
104.0,304.764,0.972
106.0,304.742,0.972
108.0,304.737,0.972
110.0,304.74,0.972
112.0,304.747,0.972
114.0,304.746,0.972
116.0,304.731,0.972
118.0,304.725,0.972
120.0,304.726,0.971
122.0,304.721,0.971
124.0,304.716,0.971
126.0,304.707,0.971
128.0,304.703,0.971
130.0,304.721,0.971
132.0,304.721,0.971
134.0,304.698,0.971
136.0,304.673,0.971
138.0,304.698,0.971
140.0,304.688,0.971
142.0,304.684,0.971
144.0,304.68,0.971
146.0,304.674,0.971
148.0,304.694,0.971
150.0,304.666,0.97
152.0,304.654,0.97
154.0,304.668,0.97
156.0,304.654,0.97
158.0,304.667,0.97
160.0,304.653,0.97
162.0,304.652,0.97
164.0,304.653,0.97
166.0,304.663,0.97
168.0,304.629,0.97
170.0,304.628,0.97
172.0,304.63,0.97
174.0,304.627,0.97
176.0,304.651,0.97
178.0,304.623,0.97
180.0,304.634,0.97
182.0,304.636,0.969
184.0,304.624,0.969
186.0,304.626,0.969
188.0,304.639,0.969
190.0,304.64,0.969
192.0,304.617,0.969
194.0,304.617,0.969
196.0,304.618,0.969
198.0,304.607,0.969
200.0,304.614,0.969
202.0,304.594,0.969
204.0,304.602,0.969
206.0,304.588,0.969
208.0,304.611,0.969
210.0,304.604,0.969
212.0,304.598,0.969
214.0,304.599,0.969
216.0,304.599,0.969
218.0,304.588,0.969
220.0,304.574,0.969
222.0,304.582,0.969
224.0,304.575,0.969
226.0,304.577,0.968
228.0,304.576,0.968
230.0,304.559,0.968
232.0,304.594,0.968
234.0,304.569,0.968
236.0,304.582,0.968
238.0,304.57,0.968
240.0,304.583,0.968
242.0,304.569,0.968
244.0,304.555,0.968
246.0,304.567,0.968
248.0,304.555,0.968
250.0,304.552,0.968
252.0,304.557,0.968
254.0,304.553,0.968
256.0,304.547,0.968
258.0,304.55,0.968
260.0,304.547,0.968
262.0,304.541,0.968
264.0,304.548,0.968
266.0,304.541,0.968
268.0,304.55,0.968
270.0,304.55,0.968
272.0,304.555,0.968
274.0,304.55,0.968
276.0,304.55,0.968
278.0,304.528,0.968
280.0,304.533,0.968
282.0,304.539,0.968
284.0,304.528,0.968
286.0,304.523,0.968
288.0,304.544,0.967
290.0,304.531,0.967
292.0,304.528,0.967
294.0,304.529,0.967
296.0,304.527,0.967
298.0,304.508,0.968
300.0,304.514,0.967
302.0,304.516,0.967
304.0,304.512,0.967
306.0,304.514,0.967
308.0,304.508,0.967
310.0,304.502,0.967
312.0,304.509,0.967
314.0,304.511,0.967
316.0,304.511,0.967
318.0,304.503,0.967
320.0,304.522,0.967
322.0,304.538,0.967
324.0,304.51,0.967
326.0,304.506,0.967
328.0,304.512,0.967
330.0,304.505,0.967
332.0,304.517,0.967
334.0,304.503,0.967
336.0,304.493,0.967
338.0,304.492,0.967
340.0,304.495,0.967
342.0,304.507,0.967
344.0,304.497,0.967
346.0,304.509,0.967
348.0,304.506,0.967
350.0,304.502,0.967
352.0,304.49,0.967
354.0,304.511,0.967
356.0,304.494,0.967
358.0,304.503,0.967
360.0,304.494,0.967
362.0,304.488,0.966
364.0,304.505,0.967
366.0,304.499,0.967
368.0,304.495,0.967
370.0,304.497,0.966
372.0,304.494,0.966
374.0,304.483,0.966
376.0,304.491,0.966
378.0,304.487,0.966
380.0,304.494,0.966
382.0,304.48,0.966
384.0,304.505,0.966
386.0,304.488,0.966
388.0,304.49,0.966
390.0,304.483,0.966
392.0,304.476,0.966
394.0,304.481,0.966
396.0,304.494,0.966
398.0,304.487,0.966
400.0,304.477,0.966
402.0,304.485,0.966
404.0,304.486,0.966
406.0,304.484,0.966
408.0,304.481,0.966
410.0,304.497,0.966
412.0,304.492,0.966
414.0,304.49,0.966
416.0,304.489,0.966
418.0,304.506,0.966
420.0,304.514,0.966
422.0,304.497,0.966
424.0,304.484,0.966
426.0,304.498,0.966
428.0,304.487,0.966
430.0,304.49,0.966
432.0,304.497,0.966
434.0,304.469,0.966
436.0,304.483,0.966
438.0,304.485,0.966
440.0,304.484,0.966
442.0,304.481,0.966
444.0,304.476,0.966
446.0,304.483,0.966
448.0,304.485,0.966
450.0,304.493,0.966
452.0,304.481,0.966
454.0,304.495,0.966
456.0,304.485,0.966
458.0,304.485,0.966
460.0,304.468,0.966
462.0,304.471,0.966
464.0,304.478,0.966
466.0,304.47,0.966
468.0,304.477,0.966
470.0,304.477,0.966
472.0,304.487,0.966
474.0,304.473,0.966
476.0,304.482,0.966
478.0,304.461,0.966
480.0,304.47,0.966
482.0,304.477,0.966
484.0,304.452,0.966
486.0,304.466,0.966
488.0,304.464,0.966
490.0,304.472,0.966
492.0,304.455,0.966
494.0,304.475,0.966
496.0,304.463,0.966
498.0,304.467,0.966
500.0,304.457,0.966
502.0,304.47,0.966
504.0,304.467,0.966
506.0,304.463,0.966
508.0,304.457,0.966
510.0,304.469,0.967
512.0,304.474,0.967
514.0,304.492,0.967
516.0,304.47,0.967
518.0,304.474,0.967
520.0,304.476,0.967
522.0,304.468,0.967
524.0,304.464,0.967
526.0,304.467,0.967
528.0,304.475,0.966
530.0,304.475,0.966
532.0,304.469,0.966
534.0,304.476,0.966
536.0,304.475,0.966
538.0,304.478,0.965
540.0,304.466,0.965
542.0,304.48,0.965
544.0,304.464,0.965
546.0,304.463,0.965
548.0,304.459,0.965
550.0,304.471,0.965
552.0,304.457,0.965
554.0,304.473,0.965
556.0,304.466,0.965
558.0,304.458,0.965
560.0,304.461,0.965
562.0,304.46,0.965
564.0,304.469,0.965
566.0,304.455,0.965
568.0,304.473,0.965
570.0,304.467,0.965
572.0,304.483,0.965
574.0,304.498,0.965
576.0,304.475,0.965
578.0,304.465,0.965
580.0,304.484,0.965
582.0,304.475,0.965
584.0,304.481,0.964
586.0,304.474,0.964
588.0,304.484,0.964
590.0,304.47,0.964
592.0,304.495,0.964
594.0,304.483,0.964
596.0,304.474,0.964
598.0,304.478,0.964
600.0,304.468,0.964
602.0,304.483,0.964
604.0,304.464,0.964
606.0,304.472,0.964
608.0,304.474,0.964
610.0,304.476,0.964
612.0,304.476,0.964
614.0,304.463,0.964
616.0,304.466,0.964
618.0,304.48,0.964
620.0,304.479,0.965
622.0,304.475,0.965
624.0,304.475,0.965
626.0,304.459,0.965
628.0,304.468,0.965
630.0,304.477,0.965
632.0,304.468,0.965
634.0,304.464,0.964
636.0,304.478,0.964
638.0,304.471,0.964
640.0,304.471,0.964
642.0,304.469,0.964
644.0,304.455,0.964
646.0,304.467,0.964
648.0,304.467,0.964
650.0,304.474,0.964
652.0,304.461,0.964
654.0,304.461,0.964
656.0,304.473,0.964
658.0,304.47,0.964
660.0,304.468,0.964
662.0,304.48,0.964
664.0,304.47,0.964
666.0,304.447,0.964
668.0,304.465,0.964
670.0,304.473,0.964
672.0,304.466,0.964
674.0,304.472,0.965
676.0,304.486,0.965
678.0,304.478,0.965
680.0,304.469,0.965
682.0,304.469,0.965
684.0,304.469,0.965
686.0,304.475,0.965
688.0,304.466,0.965
690.0,304.456,0.965
692.0,304.474,0.965
694.0,304.481,0.964
696.0,304.47,0.964
698.0,304.458,0.964
700.0,304.46,0.964
702.0,304.461,0.964
704.0,304.479,0.964
706.0,304.464,0.964
708.0,304.472,0.964
710.0,304.457,0.964
712.0,304.462,0.964
714.0,304.472,0.964
716.0,304.462,0.964
718.0,304.462,0.964
720.0,304.467,0.964
722.0,304.462,0.964
724.0,304.457,0.964
726.0,304.462,0.964
728.0,304.466,0.964
730.0,304.483,0.964
732.0,304.473,0.964
734.0,304.455,0.964
736.0,304.46,0.964
738.0,304.45,0.964
740.0,304.465,0.964
742.0,304.462,0.964
744.0,304.46,0.964
746.0,304.471,0.964
748.0,304.464,0.964
750.0,304.456,0.964
752.0,304.456,0.964
754.0,304.466,0.964
756.0,304.452,0.964
758.0,304.466,0.964
760.0,304.462,0.964
762.0,304.462,0.964
764.0,304.451,0.964
766.0,304.459,0.964
768.0,304.458,0.964
770.0,304.465,0.964
772.0,304.455,0.964
774.0,304.448,0.964
776.0,304.45,0.964
778.0,304.45,0.964
780.0,304.444,0.964
782.0,304.467,0.964
784.0,304.457,0.964
786.0,304.456,0.964
788.0,304.462,0.964
790.0,304.474,0.964
792.0,304.467,0.964
794.0,304.458,0.964
796.0,304.461,0.964
798.0,304.452,0.964
800.0,304.461,0.964
802.0,304.464,0.964
804.0,304.453,0.964
806.0,304.443,0.964
808.0,304.446,0.964
810.0,304.462,0.964
812.0,304.465,0.964
814.0,304.463,0.964
816.0,304.456,0.964
818.0,304.453,0.964
820.0,304.473,0.964
822.0,304.466,0.964
824.0,304.471,0.964
826.0,304.475,0.964
828.0,304.467,0.964
830.0,304.477,0.964
832.0,304.479,0.964
834.0,304.462,0.964
836.0,304.475,0.964
838.0,304.481,0.964
840.0,304.469,0.964
842.0,304.478,0.964
844.0,304.448,0.964
846.0,304.458,0.964
848.0,304.472,0.964
850.0,304.461,0.964
852.0,304.477,0.964
854.0,304.467,0.964
856.0,304.454,0.964
858.0,304.472,0.964
860.0,304.461,0.964
862.0,304.482,0.964
864.0,304.475,0.964
866.0,304.467,0.964
868.0,304.462,0.964
870.0,304.472,0.964
872.0,304.463,0.964
874.0,304.491,0.964
876.0,304.457,0.964
878.0,304.461,0.964
880.0,304.483,0.964
882.0,304.48,0.964
884.0,304.464,0.964
886.0,304.456,0.964
888.0,304.491,0.964
890.0,304.481,0.964
892.0,304.468,0.964
894.0,304.46,0.964
896.0,304.475,0.964
898.0,304.462,0.964
900.0,304.478,0.964
902.0,304.466,0.964
904.0,304.478,0.964
906.0,304.458,0.964
908.0,304.486,0.964
910.0,304.468,0.964
912.0,304.479,0.964
914.0,304.468,0.964
916.0,304.464,0.964
918.0,304.468,0.964
920.0,304.483,0.964
922.0,304.478,0.964
924.0,304.461,0.964
926.0,304.478,0.964
928.0,304.48,0.964
930.0,304.467,0.964
932.0,304.483,0.964
934.0,304.473,0.964
936.0,304.462,0.964
938.0,304.469,0.964
940.0,304.473,0.964
942.0,304.469,0.964
944.0,304.462,0.964
946.0,304.468,0.964
948.0,304.476,0.964
950.0,304.481,0.964
952.0,304.481,0.964
954.0,304.472,0.964
956.0,304.481,0.964
958.0,304.478,0.964
960.0,304.476,0.964
962.0,304.471,0.964
964.0,304.452,0.964
966.0,304.477,0.964
968.0,304.474,0.964
970.0,304.468,0.964
972.0,304.462,0.964
974.0,304.478,0.964
976.0,304.476,0.964
978.0,304.473,0.964
980.0,304.478,0.964
982.0,304.488,0.964
984.0,304.476,0.964
986.0,304.466,0.964
988.0,304.483,0.964
990.0,304.456,0.964
992.0,304.467,0.964
994.0,304.477,0.964
996.0,304.483,0.964
998.0,304.47,0.964
1000.0,304.463,0.964
1002.0,304.481,0.964
1004.0,304.467,0.964
1006.0,304.468,0.964
1008.0,304.462,0.964
1010.0,304.474,0.964
1012.0,304.476,0.964
1014.0,304.474,0.964
1016.0,304.471,0.964
1018.0,304.475,0.964
1020.0,304.473,0.964
1022.0,304.478,0.964
1024.0,304.464,0.964
1026.0,304.452,0.964
1028.0,304.466,0.964
1030.0,304.458,0.964
1032.0,304.477,0.964
1034.0,304.45,0.964
1036.0,304.469,0.964
1038.0,304.463,0.964
1040.0,304.463,0.964
1042.0,304.479,0.964
1044.0,304.46,0.964
1046.0,304.452,0.963
1048.0,304.458,0.963
1050.0,304.45,0.963
1052.0,304.465,0.963
1054.0,304.48,0.963
1056.0,304.466,0.963
1058.0,304.483,0.963
1060.0,304.471,0.963
1062.0,304.461,0.963
1064.0,304.46,0.963
1066.0,304.458,0.963
1068.0,304.461,0.963
1070.0,304.452,0.963
1072.0,304.461,0.963
1074.0,304.45,0.963
1076.0,304.458,0.963
1078.0,304.457,0.963
1080.0,304.462,0.963
1082.0,304.46,0.963
1084.0,304.467,0.964
1086.0,304.474,0.964
1088.0,304.465,0.964
1090.0,304.464,0.964
1092.0,304.463,0.964
1094.0,304.47,0.964
1096.0,304.457,0.964
1098.0,304.447,0.964
1100.0,304.453,0.964
1102.0,304.465,0.964
1104.0,304.447,0.964
1106.0,304.446,0.964
1108.0,304.465,0.964
1110.0,304.468,0.964
1112.0,304.45,0.964
1114.0,304.46,0.964
1116.0,304.465,0.964
1118.0,304.469,0.964
1120.0,304.465,0.964
1122.0,304.464,0.964
1124.0,304.478,0.964
1126.0,304.466,0.964
1128.0,304.452,0.964
1130.0,304.471,0.964
1132.0,304.468,0.964
1134.0,304.474,0.964
1136.0,304.463,0.964
1138.0,304.456,0.964
1140.0,304.454,0.964
1142.0,304.464,0.964
1144.0,304.451,0.964
1146.0,304.458,0.964
1148.0,304.46,0.964
1150.0,304.468,0.964
1152.0,304.475,0.964
1154.0,304.461,0.964
1156.0,304.463,0.964
1158.0,304.465,0.964
1160.0,304.464,0.964
1162.0,304.451,0.964
1164.0,304.464,0.964
1166.0,304.459,0.964
1168.0,304.465,0.964
1170.0,304.47,0.964
1172.0,304.464,0.964
1174.0,304.462,0.964
1176.0,304.454,0.964
1178.0,304.456,0.964
1180.0,304.453,0.964
1182.0,304.458,0.964
1184.0,304.448,0.964
1186.0,304.454,0.964
1188.0,304.463,0.964
1190.0,304.447,0.964
1192.0,304.47,0.964
1194.0,304.472,0.964
1196.0,304.467,0.964
1198.0,304.462,0.963
1200.0,304.462,0.963
1202.0,304.53,0.963
1204.0,305.072,0.962
1206.0,305.823,0.961
1208.0,306.514,0.961
1210.0,307.473,0.962
1212.0,308.563,0.963
1214.0,309.718,0.964
1216.0,310.928,0.965
1218.0,312.198,0.966
1220.0,313.452,0.967
1222.0,314.727,0.967
1224.0,316.011,0.967
1226.0,317.304,0.966
1228.0,318.606,0.966
1230.0,319.914,0.965
1232.0,321.215,0.965
1234.0,322.507,0.965
1236.0,323.828,0.965
1238.0,325.121,0.964
1240.0,326.422,0.964
1242.0,327.762,0.964
1244.0,329.05,0.964
1246.0,330.368,0.964
1248.0,331.667,0.964
1250.0,332.975,0.963
1252.0,334.29,0.963
1254.0,335.617,0.963
1256.0,336.927,0.963
1258.0,338.236,0.962
1260.0,339.534,0.962
1262.0,340.851,0.962
1264.0,342.185,0.962
1266.0,343.502,0.961
1268.0,344.806,0.961
1270.0,346.129,0.961
1272.0,347.439,0.96
1274.0,348.755,0.96
1276.0,350.064,0.96
1278.0,351.378,0.959
1280.0,352.7,0.959
1282.0,354.016,0.959
1284.0,355.333,0.959
1286.0,356.643,0.958
1288.0,357.964,0.958
1290.0,359.304,0.958
1292.0,360.63,0.957
1294.0,361.911,0.957
1296.0,363.262,0.957
1298.0,364.57,0.957
1300.0,365.88,0.957
1302.0,367.21,0.957
1304.0,368.537,0.956
1306.0,369.859,0.956
1308.0,371.175,0.956
1310.0,372.529,0.956
1312.0,373.835,0.956
1314.0,375.156,0.956
1316.0,376.486,0.956
1318.0,377.812,0.956
1320.0,379.151,0.956
1322.0,380.476,0.956
1324.0,381.788,0.955
1326.0,383.119,0.955
1328.0,384.46,0.955
1330.0,385.79,0.955
1332.0,387.111,0.955
1334.0,388.438,0.955
1336.0,389.787,0.955
1338.0,391.124,0.955
1340.0,392.443,0.955
1342.0,393.78,0.955
1344.0,395.114,0.955
1346.0,396.465,0.955
1348.0,397.79,0.955
1350.0,399.128,0.955
1352.0,400.476,0.955
1354.0,401.802,0.955
1356.0,403.154,0.955
1358.0,404.488,0.955
1360.0,405.839,0.955
1362.0,407.181,0.955
1364.0,408.52,0.955
1366.0,409.851,0.955
1368.0,411.199,0.955
1370.0,412.552,0.955
1372.0,413.894,0.955
1374.0,415.251,0.955
1376.0,416.594,0.955
1378.0,417.944,0.955
1380.0,419.292,0.955
1382.0,420.632,0.955
1384.0,421.984,0.955
1386.0,423.334,0.955
1388.0,424.665,0.955
1390.0,426.033,0.955
1392.0,427.396,0.955
1394.0,428.741,0.955
1396.0,430.102,0.955
1398.0,431.464,0.954
1400.0,432.815,0.954
1402.0,434.161,0.954
1404.0,435.519,0.954
1406.0,436.877,0.954
1408.0,438.232,0.954
1410.0,439.579,0.954
1412.0,440.94,0.954
1414.0,442.292,0.954
1416.0,443.648,0.954
1418.0,445.022,0.954
1420.0,446.382,0.953
1422.0,447.743,0.953
1424.0,449.102,0.953
1426.0,450.463,0.953
1428.0,451.819,0.953
1430.0,453.184,0.952
1432.0,454.543,0.952
1434.0,455.903,0.952
1436.0,457.279,0.952
1438.0,458.636,0.952
1440.0,460.012,0.952
1442.0,461.371,0.951
1444.0,462.73,0.951
1446.0,464.11,0.951
1448.0,465.476,0.95
1450.0,466.836,0.95
1452.0,468.204,0.95
1454.0,469.566,0.949
1456.0,470.956,0.949
1458.0,472.314,0.948
1460.0,473.686,0.948
1462.0,475.059,0.948
1464.0,476.429,0.947
1466.0,477.791,0.947
1468.0,479.166,0.946
1470.0,480.529,0.946
1472.0,481.912,0.945
1474.0,483.273,0.945
1476.0,484.65,0.945
1478.0,486.02,0.944
1480.0,487.382,0.944
1482.0,488.764,0.943
1484.0,490.132,0.942
1486.0,491.514,0.942
1488.0,492.873,0.941
1490.0,494.249,0.941
1492.0,495.613,0.94
1494.0,496.99,0.94
1496.0,498.354,0.939
1498.0,499.728,0.938
1500.0,501.095,0.938
1502.0,502.477,0.937
1504.0,503.858,0.936
1506.0,505.232,0.935
1508.0,506.584,0.935
1510.0,507.969,0.934
1512.0,509.337,0.933
1514.0,510.707,0.932
1516.0,512.071,0.931
1518.0,513.443,0.931
1520.0,514.814,0.93
1522.0,516.19,0.929
1524.0,517.55,0.928
1526.0,518.928,0.927
1528.0,520.299,0.926
1530.0,521.663,0.925
1532.0,523.04,0.924
1534.0,524.398,0.922
1536.0,525.765,0.921
1538.0,527.136,0.92
1540.0,528.52,0.919
1542.0,529.881,0.917
1544.0,531.251,0.916
1546.0,532.62,0.915
1548.0,533.993,0.913
1550.0,535.358,0.912
1552.0,536.732,0.91
1554.0,538.092,0.908
1556.0,539.463,0.907
1558.0,540.834,0.905
1560.0,542.189,0.903
1562.0,543.552,0.902
1564.0,544.919,0.9
1566.0,546.277,0.898
1568.0,547.646,0.896
1570.0,549.009,0.894
1572.0,550.367,0.892
1574.0,551.745,0.889
1576.0,553.127,0.887
1578.0,554.473,0.885
1580.0,555.837,0.883
1582.0,557.192,0.881
1584.0,558.566,0.878
1586.0,559.924,0.876
1588.0,561.295,0.874
1590.0,562.654,0.872
1592.0,564.008,0.869
1594.0,565.369,0.867
1596.0,566.736,0.864
1598.0,568.09,0.862
1600.0,569.447,0.859
1602.0,570.813,0.857
1604.0,572.167,0.854
1606.0,573.532,0.851
1608.0,574.9,0.848
1610.0,576.237,0.846
1612.0,577.612,0.843
1614.0,578.967,0.84
1616.0,580.314,0.837
1618.0,581.673,0.834
1620.0,583.034,0.831
1622.0,584.394,0.828
1624.0,585.747,0.825
1626.0,587.092,0.821
1628.0,588.444,0.818
1630.0,589.8,0.815
1632.0,591.161,0.811
1634.0,592.514,0.808
1636.0,593.874,0.804
1638.0,595.224,0.8
1640.0,596.575,0.796
1642.0,597.919,0.792
1644.0,599.266,0.788
1646.0,600.626,0.784
1648.0,601.969,0.78
1650.0,603.324,0.775
1652.0,604.672,0.77
1654.0,606.021,0.766
1656.0,607.357,0.761
1658.0,608.698,0.756
1660.0,610.057,0.751
1662.0,611.399,0.746
1664.0,612.753,0.741
1666.0,614.092,0.735
1668.0,615.442,0.73
1670.0,616.781,0.724
1672.0,618.136,0.718
1674.0,619.467,0.712
1676.0,620.812,0.706
1678.0,622.155,0.7
1680.0,623.498,0.693
1682.0,624.84,0.687
1684.0,626.173,0.681
1686.0,627.522,0.674
1688.0,628.864,0.667
1690.0,630.201,0.66
1692.0,631.542,0.653
1694.0,632.883,0.646
1696.0,634.226,0.639
1698.0,635.543,0.632
1700.0,636.884,0.625
1702.0,638.224,0.617
1704.0,639.56,0.61
1706.0,640.9,0.602
1708.0,642.244,0.595
1710.0,643.564,0.587
1712.0,644.908,0.579
1714.0,646.237,0.571
1716.0,647.572,0.563
1718.0,648.907,0.555
1720.0,650.233,0.546
1722.0,651.562,0.538
1724.0,652.902,0.529
1726.0,654.233,0.52
1728.0,655.543,0.511
1730.0,656.881,0.502
1732.0,658.209,0.493
1734.0,659.539,0.483
1736.0,660.862,0.474
1738.0,662.201,0.464
1740.0,663.523,0.454
1742.0,664.843,0.443
1744.0,666.167,0.433
1746.0,667.489,0.422
1748.0,668.821,0.411
1750.0,670.148,0.4
1752.0,671.465,0.389
1754.0,672.788,0.378
1756.0,674.118,0.367
1758.0,675.436,0.355
1760.0,676.768,0.344
1762.0,678.084,0.333
1764.0,679.413,0.322
1766.0,680.74,0.312
1768.0,682.07,0.302
1770.0,683.396,0.292
1772.0,684.723,0.283
1774.0,686.052,0.274
1776.0,687.378,0.267
1778.0,688.69,0.26
1780.0,690.038,0.254
1782.0,691.354,0.248
1784.0,692.68,0.244
1786.0,694.013,0.24
1788.0,695.328,0.236
1790.0,696.661,0.234
1792.0,697.98,0.232
1794.0,699.307,0.23
1796.0,700.63,0.228
1798.0,701.955,0.227
1800.0,703.289,0.226
1802.0,704.605,0.224
1804.0,705.934,0.224
1806.0,707.249,0.223
1808.0,708.576,0.222
1810.0,709.898,0.221
1812.0,711.216,0.22
1814.0,712.544,0.219
1816.0,713.855,0.219
1818.0,715.179,0.218
1820.0,716.499,0.217
1822.0,717.826,0.216
1824.0,719.139,0.215
1826.0,720.461,0.215
1828.0,721.778,0.214
1830.0,723.097,0.213
1832.0,724.418,0.212
1834.0,725.736,0.212
1836.0,727.057,0.211
1838.0,728.373,0.21
1840.0,729.702,0.209
1842.0,731.015,0.209
1844.0,732.333,0.208
1846.0,733.645,0.207
1848.0,734.969,0.207
1850.0,736.294,0.206
1852.0,737.602,0.205
1854.0,738.925,0.205
1856.0,740.239,0.204
1858.0,741.558,0.204
1860.0,742.864,0.203
1862.0,744.186,0.202
1864.0,745.514,0.202
1866.0,746.834,0.201
1868.0,748.152,0.201
1870.0,749.464,0.2
1872.0,750.786,0.199
1874.0,752.098,0.199
1876.0,753.417,0.198
1878.0,754.727,0.197
1880.0,756.05,0.197
1882.0,757.37,0.196
1884.0,758.687,0.196
1886.0,760.002,0.195
1888.0,761.32,0.195
1890.0,762.642,0.194
1892.0,763.953,0.194
1894.0,765.266,0.194
1896.0,766.597,0.193
1898.0,767.908,0.193
1900.0,769.236,0.192
1902.0,770.547,0.192
1904.0,771.868,0.191
1906.0,773.174,0.191
1908.0,774.508,0.19
1910.0,775.814,0.19
1912.0,777.134,0.19
1914.0,778.455,0.189
1916.0,779.767,0.189
1918.0,781.089,0.189
1920.0,782.411,0.188
1922.0,783.73,0.188
1924.0,785.05,0.188
1926.0,786.359,0.188
1928.0,787.681,0.187
1930.0,788.997,0.187
1932.0,790.311,0.186
1934.0,791.633,0.186
1936.0,792.952,0.186
1938.0,794.268,0.185
1940.0,795.586,0.185
1942.0,796.906,0.185
1944.0,798.221,0.185
1946.0,799.543,0.184
1948.0,800.867,0.184
1950.0,802.19,0.184
1952.0,803.495,0.183
1954.0,804.823,0.183
1956.0,806.138,0.183
1958.0,807.465,0.182
1960.0,808.775,0.182
1962.0,810.104,0.182
1964.0,811.418,0.182
1966.0,812.731,0.181
1968.0,814.058,0.181
1970.0,815.373,0.181
1972.0,816.698,0.181
1974.0,818.017,0.18
1976.0,819.343,0.18
1978.0,820.655,0.18
1980.0,821.972,0.18
1982.0,823.297,0.179
1984.0,824.615,0.179
1986.0,825.926,0.179
1988.0,827.254,0.179
1990.0,828.569,0.178
1992.0,829.886,0.178
1994.0,831.21,0.178
1996.0,832.528,0.178
1998.0,833.85,0.177
2000.0,835.169,0.177
2002.0,836.491,0.177
2004.0,837.817,0.177
2006.0,839.127,0.177
2008.0,840.456,0.176
2010.0,841.775,0.176
2012.0,843.095,0.176
2014.0,844.416,0.176
2016.0,845.738,0.176
2018.0,847.059,0.175
2020.0,848.378,0.175
2022.0,849.688,0.175
2024.0,851.02,0.175
2026.0,852.337,0.175
2028.0,853.66,0.174
2030.0,854.973,0.174
2032.0,856.302,0.174
2034.0,857.623,0.174
2036.0,858.936,0.174
2038.0,860.251,0.173
2040.0,861.577,0.173
2042.0,862.906,0.173
2044.0,864.231,0.173
2046.0,865.548,0.173
2048.0,866.864,0.172
2050.0,868.19,0.172
2052.0,869.52,0.172
2054.0,870.831,0.172
2056.0,872.149,0.172
2058.0,873.473,0.171
2060.0,874.79,0.171
2062.0,876.117,0.171
2064.0,877.438,0.171
2066.0,878.756,0.171
2068.0,880.08,0.171
2070.0,881.403,0.17
2072.0,882.727,0.17
2074.0,884.056,0.17
2076.0,885.369,0.17
2078.0,886.696,0.17
2080.0,888.016,0.17
2082.0,889.338,0.169
2084.0,890.669,0.169
2086.0,891.99,0.169
2088.0,893.304,0.169
2090.0,894.632,0.169
2092.0,895.956,0.169
2094.0,897.281,0.168
2096.0,898.611,0.168
2098.0,899.939,0.168
2100.0,901.258,0.168
2102.0,902.583,0.168
2104.0,903.91,0.168
2106.0,905.227,0.168
2108.0,906.561,0.167
2110.0,907.877,0.167
2112.0,909.209,0.167
2114.0,910.528,0.167
2116.0,911.857,0.167
2118.0,913.175,0.167
2120.0,914.501,0.166
2122.0,915.831,0.166
2124.0,917.156,0.166
2126.0,918.479,0.166
2128.0,919.804,0.166
2130.0,921.131,0.166
2132.0,922.456,0.166
2134.0,923.775,0.165
2136.0,925.105,0.165
2138.0,926.427,0.165
2140.0,927.761,0.165
2142.0,929.08,0.165
2144.0,930.417,0.165
2146.0,931.737,0.165
2148.0,933.066,0.164
2150.0,934.394,0.164
2152.0,935.715,0.164
2154.0,937.045,0.164
2156.0,938.374,0.164
2158.0,939.698,0.164
2160.0,941.018,0.164
2162.0,942.345,0.164
2164.0,943.677,0.164
2166.0,945.001,0.164
2168.0,946.32,0.163
2170.0,947.651,0.163
2172.0,948.984,0.163
2174.0,950.318,0.163
2176.0,951.635,0.163
2178.0,952.969,0.163
2180.0,954.303,0.163
2182.0,955.625,0.162
2184.0,956.947,0.162
2186.0,958.275,0.162
2188.0,959.604,0.162
2190.0,960.923,0.162
2192.0,962.245,0.162
2194.0,963.581,0.162
2196.0,964.899,0.162
2198.0,966.228,0.162
2200.0,967.556,0.161
2202.0,968.88,0.161
2204.0,970.208,0.161
2206.0,971.543,0.161
2208.0,972.876,0.161
2210.0,974.202,0.161
2212.0,975.524,0.161
2214.0,976.852,0.161
2216.0,978.169,0.161
2218.0,979.495,0.161
2220.0,980.832,0.161
2222.0,982.155,0.161
2224.0,983.48,0.16
2226.0,984.804,0.16
2228.0,986.136,0.16
2230.0,987.47,0.16
2232.0,988.798,0.16
2234.0,990.126,0.16
2236.0,991.455,0.16
2238.0,992.779,0.16
2240.0,994.109,0.16
2242.0,995.437,0.16
2244.0,996.76,0.16
2246.0,998.091,0.16
2248.0,999.421,0.159
2250.0,1000.752,0.159
2252.0,1002.076,0.159
2254.0,1003.407,0.159
2256.0,1004.731,0.159
2258.0,1006.068,0.159
2260.0,1007.399,0.159
2262.0,1008.729,0.159
2264.0,1010.054,0.159
2266.0,1011.383,0.159
2268.0,1012.72,0.159
2270.0,1014.042,0.159
2272.0,1015.375,0.158
2274.0,1016.702,0.158
2276.0,1018.036,0.158
2278.0,1019.377,0.158
2280.0,1020.705,0.158
2282.0,1022.037,0.158
2284.0,1023.369,0.158
2286.0,1024.705,0.158
2288.0,1026.048,0.158
2290.0,1027.377,0.158
2292.0,1028.711,0.158
2294.0,1030.046,0.158
2296.0,1031.377,0.158
2298.0,1032.713,0.157
2300.0,1034.031,0.157
2302.0,1035.361,0.157
2304.0,1036.706,0.157
2306.0,1038.041,0.157
2308.0,1039.374,0.157
2310.0,1040.704,0.157
2312.0,1042.035,0.157
2314.0,1043.373,0.157
2316.0,1044.705,0.157
2318.0,1046.035,0.157
2320.0,1047.365,0.157
2322.0,1048.705,0.157
2324.0,1050.042,0.156
2326.0,1051.369,0.156
2328.0,1052.715,0.156
2330.0,1054.048,0.156
2332.0,1055.378,0.156
2334.0,1056.711,0.156
2336.0,1057.821,0.156
2338.0,1058.645,0.156
2340.0,1059.579,0.156
2342.0,1060.456,0.156
2344.0,1061.263,0.155
2346.0,1061.999,0.155
2348.0,1062.687,0.155
2350.0,1063.307,0.155
2352.0,1063.897,0.155
2354.0,1064.434,0.155
2356.0,1064.933,0.155
2358.0,1065.388,0.155
2360.0,1065.809,0.155
2362.0,1066.205,0.155
2364.0,1066.567,0.155
2366.0,1066.906,0.155
2368.0,1067.212,0.155
2370.0,1067.497,0.155
2372.0,1067.772,0.155
2374.0,1068.018,0.155
2376.0,1068.258,0.155
2378.0,1068.468,0.155
2380.0,1068.67,0.155
2382.0,1068.861,0.155
2384.0,1069.027,0.155
2386.0,1069.19,0.155
2388.0,1069.338,0.155
2390.0,1069.483,0.155
2392.0,1069.622,0.155
2394.0,1069.733,0.155
2396.0,1069.849,0.155
2398.0,1069.951,0.155
2400.0,1070.055,0.155
2402.0,1070.161,0.154
2404.0,1070.242,0.154
2406.0,1070.325,0.154
2408.0,1070.403,0.154
2410.0,1070.483,0.154
2412.0,1070.555,0.154
2414.0,1070.622,0.154
2416.0,1070.67,0.154
2418.0,1070.736,0.154
2420.0,1070.789,0.154
2422.0,1070.846,0.154
2424.0,1070.895,0.154
2426.0,1070.944,0.154
2428.0,1070.989,0.154
2430.0,1071.035,0.154
2432.0,1071.072,0.154
2434.0,1071.112,0.154
2436.0,1071.152,0.154
2438.0,1071.186,0.154
2440.0,1071.223,0.154
2442.0,1071.253,0.154
2444.0,1071.291,0.154
2446.0,1071.311,0.154
2448.0,1071.348,0.154
2450.0,1071.375,0.154
2452.0,1071.404,0.154
2454.0,1071.436,0.154
2456.0,1071.455,0.154
2458.0,1071.472,0.154
2460.0,1071.5,0.154
2462.0,1071.523,0.154
2464.0,1071.547,0.154
2466.0,1071.556,0.154
2468.0,1071.577,0.153
2470.0,1071.599,0.153
2472.0,1071.619,0.153
2474.0,1071.643,0.153
2476.0,1071.649,0.153
2478.0,1071.666,0.153
2480.0,1071.689,0.153
2482.0,1071.702,0.153
2484.0,1071.722,0.153
2486.0,1071.732,0.153
2488.0,1071.739,0.153
2490.0,1071.752,0.153
2492.0,1071.772,0.153
2494.0,1071.783,0.153
2496.0,1071.798,0.153
2498.0,1071.814,0.153
2500.0,1071.82,0.153
2502.0,1071.842,0.153
2504.0,1071.845,0.153
2506.0,1071.863,0.153
2508.0,1071.871,0.153
2510.0,1071.881,0.153
2512.0,1071.892,0.153
2514.0,1071.901,0.153
2516.0,1071.906,0.153
2518.0,1071.92,0.153
2520.0,1071.916,0.153
2522.0,1071.939,0.153
2524.0,1071.943,0.153
2526.0,1071.953,0.153
2528.0,1071.962,0.153
2530.0,1071.967,0.153
2532.0,1071.978,0.153
2534.0,1071.986,0.153
2536.0,1071.993,0.153
2538.0,1072.001,0.153
2540.0,1072.006,0.153
2542.0,1072.012,0.153
2544.0,1072.019,0.153
2546.0,1072.028,0.153
2548.0,1072.038,0.153
2550.0,1072.048,0.153
2552.0,1072.046,0.152
2554.0,1072.056,0.152
2556.0,1072.065,0.152
2558.0,1072.065,0.152
2560.0,1072.072,0.152
2562.0,1072.08,0.152
2564.0,1072.077,0.152
2566.0,1072.083,0.152
2568.0,1072.091,0.152
2570.0,1072.103,0.152
2572.0,1072.101,0.152
2574.0,1072.11,0.152
2576.0,1072.112,0.152
2578.0,1072.128,0.152
2580.0,1072.125,0.152
2582.0,1072.129,0.152
2584.0,1072.133,0.152
2586.0,1072.141,0.152
2588.0,1072.147,0.152
2590.0,1072.148,0.152
2592.0,1072.151,0.152
2594.0,1072.154,0.152
2596.0,1072.164,0.152
2598.0,1072.163,0.152
2600.0,1072.17,0.152
2602.0,1072.169,0.152
2604.0,1072.179,0.152
2606.0,1072.188,0.152
2608.0,1072.178,0.152
2610.0,1072.182,0.152
2612.0,1072.18,0.152
2614.0,1072.187,0.152
2616.0,1072.192,0.152
2618.0,1072.202,0.152
2620.0,1072.202,0.152
2622.0,1072.206,0.152
2624.0,1072.206,0.152
2626.0,1072.213,0.152
2628.0,1072.202,0.152
2630.0,1072.217,0.152
2632.0,1072.213,0.152
2634.0,1072.214,0.151
2636.0,1072.212,0.151
2638.0,1072.223,0.151
2640.0,1072.224,0.151
2642.0,1072.226,0.151
2644.0,1072.227,0.151
2646.0,1072.231,0.151
2648.0,1072.234,0.151
2650.0,1072.231,0.151
2652.0,1072.239,0.151
2654.0,1072.232,0.151
2655.0,1072.241,0.151