File: Wood/Calibration_Data/TUBS/TUBS_TGA_N2_30K_R2.csv
Time (s),Temperature (K),Mass (mg)
0.0,304.98,1.0
10.0,304.909,0.998
26.0,304.856,0.996
45.0,304.796,0.994
68.0,304.712,0.992
98.0,304.672,0.99
137.0,304.607,0.988
194.0,304.526,0.986
277.0,304.465,0.984
458.0,304.392,0.982
498.0,304.398,0.982
667.0,304.397,0.982
701.0,304.401,0.982
1050.0,304.41,0.98
1075.0,304.409,0.98
1117.0,304.422,0.98
1206.298,305.5,0.978
1209.464,306.5,0.978
1212.066,307.5,0.98
1214.43,308.5,0.982
1216.749,309.5,0.983
1218.966,310.5,0.983
1221.124,311.5,0.983
1223.292,312.5,0.983
1225.449,313.5,0.982
1227.565,314.5,0.982
1229.681,315.5,0.981
1231.816,316.5,0.981
1233.891,317.5,0.981
1236.0,318.5,0.98
1238.077,319.5,0.98
1240.172,320.5,0.98
1242.245,321.5,0.98
1244.348,322.5,0.98
1246.415,323.5,0.979
1248.444,324.5,0.979
1250.536,325.5,0.979
1252.611,326.5,0.979
1254.643,327.5,0.979
1256.727,328.5,0.979
1258.754,329.5,0.978
1260.801,330.5,0.978
1262.868,331.5,0.978
1264.93,332.5,0.978
1266.962,333.5,0.978
1269.016,334.5,0.977
1271.069,335.5,0.977
1273.085,336.5,0.977
1275.138,337.5,0.977
1277.156,338.5,0.976
1279.192,339.5,0.976
1281.233,340.5,0.976
1283.278,341.5,0.976
1285.317,342.5,0.976
1287.345,343.5,0.975
1289.374,344.5,0.975
1291.416,345.5,0.975
1293.454,346.5,0.975
1295.473,347.5,0.974
1297.488,348.5,0.974
1299.516,349.5,0.974
1301.536,350.5,0.973
1303.581,351.5,0.973
1305.607,352.5,0.973
1307.635,353.5,0.973
1309.627,354.5,0.973
1311.661,355.5,0.973
1313.683,356.5,0.972
1315.698,357.5,0.972
1317.713,358.5,0.972
1319.735,359.5,0.972
1321.734,360.5,0.972
1323.747,361.5,0.972
1325.761,362.5,0.971
1327.759,363.5,0.971
1329.766,364.5,0.971
1331.782,365.5,0.971
1333.785,366.5,0.971
1335.804,367.5,0.971
1337.804,368.5,0.971
1339.802,369.5,0.971
1341.797,370.5,0.971
1343.809,371.5,0.97
1345.81,372.5,0.97
1347.813,373.5,0.97
1349.81,374.5,0.97
1351.8,375.5,0.97
1353.807,376.5,0.97
1355.812,377.5,0.97
1357.801,378.5,0.97
1359.796,379.5,0.97
1361.772,380.5,0.97
1363.775,381.5,0.97
1365.805,382.5,0.97
1367.776,383.5,0.97
1369.785,384.5,0.97
1371.759,385.5,0.97
1373.735,386.5,0.97
1375.722,387.5,0.97
1377.706,388.5,0.97
1379.691,389.5,0.97
1381.672,390.5,0.97
1383.647,391.5,0.97
1385.637,392.5,0.97
1387.623,393.5,0.97
1389.607,394.5,0.97
1391.585,395.5,0.97
1393.558,396.5,0.97
1395.543,397.5,0.97
1397.538,398.5,0.97
1399.51,399.5,0.97
1401.481,400.5,0.97
1403.466,401.5,0.97
1405.453,402.5,0.97
1407.419,403.5,0.97
1409.388,404.5,0.97
1411.356,405.5,0.97
1413.35,406.5,0.97
1415.305,407.5,0.97
1417.272,408.5,0.97
1419.257,409.5,0.97
1421.224,410.5,0.97
1423.19,411.5,0.97
1425.151,412.5,0.97
1427.125,413.5,0.97
1429.091,414.5,0.97
1431.046,415.5,0.97
1433.033,416.5,0.97
1434.971,417.5,0.97
1436.948,418.5,0.97
1438.926,419.5,0.97
1440.899,420.5,0.969
1442.838,421.5,0.969
1444.828,422.5,0.969
1446.775,423.5,0.969
1448.73,424.5,0.969
1450.695,425.5,0.969
1452.662,426.5,0.969
1454.627,427.5,0.969
1456.557,428.5,0.969
1458.548,429.5,0.969
1460.504,430.5,0.969
1462.455,431.5,0.969
1464.423,432.5,0.969
1466.375,433.5,0.969
1468.327,434.5,0.969
1470.288,435.5,0.969
1472.22,436.5,0.969
1474.196,437.5,0.969
1476.143,438.5,0.968
1478.101,439.5,0.968
1480.052,440.5,0.968
1482.025,441.5,0.968
1483.976,442.5,0.968
1485.923,443.5,0.968
1487.873,444.5,0.968
1489.82,445.5,0.968
1491.787,446.5,0.968
1493.734,447.5,0.968
1495.675,448.5,0.967
1497.627,449.5,0.967
1499.58,450.5,0.967
1501.512,451.5,0.967
1503.465,452.5,0.967
1505.411,453.5,0.967
1507.354,454.5,0.967
1509.304,455.5,0.966
1511.247,456.5,0.966
1513.179,457.5,0.966
1515.152,458.5,0.966
1517.087,459.5,0.966
1519.014,460.5,0.965
1520.973,461.5,0.965
1522.917,462.5,0.965
1524.877,463.5,0.965
1526.825,464.5,0.964
1528.76,465.5,0.964
1530.709,466.5,0.964
1532.65,467.5,0.964
1534.62,468.5,0.963
1536.545,469.5,0.963
1538.478,470.5,0.963
1540.428,471.5,0.963
1542.379,472.5,0.962
1544.309,473.5,0.962
1546.263,474.5,0.962
1548.212,475.5,0.961
1550.143,476.5,0.961
1552.087,477.5,0.961
1554.018,478.5,0.96
1555.956,479.5,0.96
1557.92,480.5,0.96
1559.876,481.5,0.959
1561.796,482.5,0.959
1563.74,483.5,0.959
1565.688,484.5,0.958
1567.639,485.5,0.958
1569.568,486.5,0.958
1571.525,487.5,0.957
1573.483,488.5,0.957
1575.406,489.5,0.957
1577.354,490.5,0.957
1579.293,491.5,0.956
1581.232,492.5,0.956
1583.171,493.5,0.956
1585.134,494.5,0.955
1587.067,495.5,0.955
1589.018,496.5,0.955
1590.971,497.5,0.955
1592.915,498.5,0.954
1594.843,499.5,0.954
1596.795,500.5,0.953
1598.756,501.5,0.953
1600.686,502.5,0.953
1602.635,503.5,0.952
1604.586,504.5,0.952
1606.528,505.5,0.951
1608.487,506.5,0.951
1610.41,507.5,0.951
1612.356,508.5,0.95
1614.307,509.5,0.95
1616.272,510.5,0.95
1618.218,511.5,0.949
1620.163,512.5,0.949
1622.122,513.5,0.948
1624.061,514.5,0.948
1625.998,515.5,0.947
1627.958,516.5,0.947
1629.888,517.5,0.946
1631.859,518.5,0.945
1633.793,519.5,0.945
1635.745,520.5,0.944
1637.685,521.5,0.944
1639.645,522.5,0.943
1641.596,523.5,0.942
1643.553,524.5,0.941
1645.498,525.5,0.941
1647.462,526.5,0.94
1649.4,527.5,0.94
1651.373,528.5,0.939
1653.324,529.5,0.938
1655.281,530.5,0.937
1657.222,531.5,0.937
1659.178,532.5,0.936
1661.148,533.5,0.935
1663.098,534.5,0.934
1665.05,535.5,0.933
1667.0,536.5,0.932
1668.968,537.5,0.931
1670.917,538.5,0.93
1672.873,539.5,0.929
1674.822,540.5,0.928
1676.766,541.5,0.927
1678.744,542.5,0.926
1680.689,543.5,0.925
1682.667,544.5,0.923
1684.62,545.5,0.922
1686.575,546.5,0.921
1688.536,547.5,0.92
1690.482,548.5,0.919
1692.462,549.5,0.918
1694.403,550.5,0.916
1696.373,551.5,0.915
1698.352,552.5,0.914
1700.291,553.5,0.912
1702.255,554.5,0.911
1704.226,555.5,0.909
1706.165,556.5,0.908
1708.154,557.5,0.906
1710.103,558.5,0.905
1712.066,559.5,0.903
1714.037,560.5,0.902
1715.99,561.5,0.9
1717.963,562.5,0.898
1719.925,563.5,0.897
1721.869,564.5,0.895
1723.831,565.5,0.893
1725.82,566.5,0.891
1727.781,567.5,0.89
1729.748,568.5,0.888
1731.707,569.5,0.886
1733.686,570.5,0.884
1735.649,571.5,0.882
1737.627,572.5,0.88
1739.593,573.5,0.878
1741.561,574.5,0.876
1743.532,575.5,0.874
1745.5,576.5,0.872
1747.464,577.5,0.871
1749.438,578.5,0.868
1751.403,579.5,0.866
1753.375,580.5,0.864
1755.349,581.5,0.861
1757.333,582.5,0.859
1759.305,583.5,0.857
1761.276,584.5,0.854
1763.229,585.5,0.852
1765.218,586.5,0.849
1767.186,587.5,0.847
1769.16,588.5,0.844
1771.148,589.5,0.841
1773.115,590.5,0.838
1775.084,591.5,0.835
1777.073,592.5,0.832
1779.072,593.5,0.829
1781.03,594.5,0.826
1783.017,595.5,0.823
1784.98,596.5,0.82
1786.966,597.5,0.817
1788.933,598.5,0.813
1790.922,599.5,0.81
1792.913,600.5,0.806
1794.901,601.5,0.803
1796.865,602.5,0.799
1798.849,603.5,0.795
1800.846,604.5,0.791
1802.804,605.5,0.788
1804.792,606.5,0.784
1806.773,607.5,0.78
1808.759,608.5,0.775
1810.736,609.5,0.772
1812.734,610.5,0.768
1814.713,611.5,0.763
1816.688,612.5,0.759
1818.679,613.5,0.754
1820.665,614.5,0.75
1822.654,615.5,0.745
1824.649,616.5,0.74
1826.633,617.5,0.736
1828.629,618.5,0.731
1830.617,619.5,0.726
1832.598,620.5,0.721
1834.585,621.5,0.716
1836.554,622.5,0.711
1838.564,623.5,0.706
1840.562,624.5,0.7
1842.547,625.5,0.695
1844.541,626.5,0.69
1846.535,627.5,0.685
1848.538,628.5,0.679
1850.534,629.5,0.674
1852.518,630.5,0.668
1854.524,631.5,0.663
1856.508,632.5,0.657
1858.507,633.5,0.651
1860.526,634.5,0.646
1862.508,635.5,0.64
1864.514,636.5,0.634
1866.503,637.5,0.628
1868.487,638.5,0.623
1870.496,639.5,0.617
1872.501,640.5,0.61
1874.502,641.5,0.604
1876.493,642.5,0.599
1878.493,643.5,0.593
1880.509,644.5,0.586
1882.509,645.5,0.579
1884.512,646.5,0.573
1886.511,647.5,0.566
1888.518,648.5,0.56
1890.516,649.5,0.553
1892.54,650.5,0.546
1894.541,651.5,0.539
1896.544,652.5,0.532
1898.56,653.5,0.525
1900.558,654.5,0.518
1902.559,655.5,0.511
1904.572,656.5,0.503
1906.587,657.5,0.496
1908.595,658.5,0.488
1910.603,659.5,0.481
1912.62,660.5,0.473
1914.643,661.5,0.464
1916.647,662.5,0.456
1918.636,663.5,0.448
1920.652,664.5,0.439
1922.673,665.5,0.431
1924.677,666.5,0.422
1926.689,667.5,0.414
1928.697,668.5,0.406
1930.707,669.5,0.397
1932.724,670.5,0.389
1934.728,671.5,0.38
1936.745,672.5,0.372
1938.763,673.5,0.364
1940.759,674.5,0.356
1942.782,675.5,0.349
1944.794,676.5,0.341
1946.815,677.5,0.334
1948.814,678.5,0.328
1950.818,679.5,0.321
1952.826,680.5,0.316
1954.838,681.5,0.309
1956.831,682.5,0.305
1958.846,683.5,0.3
1960.851,684.5,0.296
1962.867,685.5,0.292
1964.861,686.5,0.289
1966.866,687.5,0.287
1968.876,688.5,0.284
1970.901,689.5,0.282
1972.905,690.5,0.281
1974.921,691.5,0.279
1976.921,692.5,0.278
1978.933,693.5,0.277
1980.957,694.5,0.276
1982.958,695.5,0.275
1984.972,696.5,0.274
1986.994,697.5,0.273
1989.018,698.5,0.273
1991.002,699.5,0.272
1993.034,700.5,0.271
1995.043,701.5,0.271
1997.057,702.5,0.27
1999.072,703.5,0.269
2001.085,704.5,0.269
2003.091,705.5,0.268
2005.11,706.5,0.268
2007.116,707.5,0.267
2009.146,708.5,0.267
2011.158,709.5,0.266
2013.167,710.5,0.266
2015.213,711.5,0.265
2017.209,712.5,0.265
2019.229,713.5,0.264
2021.245,714.5,0.264
2023.268,715.5,0.263
2025.278,716.5,0.262
2027.303,717.5,0.262
2029.337,718.5,0.261
2031.347,719.5,0.261
2033.374,720.5,0.26
2035.388,721.5,0.259
2037.395,722.5,0.259
2039.425,723.5,0.258
2041.441,724.5,0.258
2043.46,725.5,0.257
2045.479,726.5,0.257
2047.493,727.5,0.257
2049.515,728.5,0.256
2051.537,729.5,0.256
2053.566,730.5,0.255
2055.588,731.5,0.255
2057.606,732.5,0.254
2059.621,733.5,0.254
2061.649,734.5,0.253
2063.659,735.5,0.252
2065.697,736.5,0.252
2067.707,737.5,0.252
2069.729,738.5,0.251
2071.75,739.5,0.251
2073.777,740.5,0.25
2075.791,741.5,0.25
2077.821,742.5,0.249
2079.836,743.5,0.249
2081.852,744.5,0.248
2083.888,745.5,0.248
2085.922,746.5,0.248
2087.928,747.5,0.247
2089.958,748.5,0.247
2091.972,749.5,0.246
2094.0,750.5,0.246
2096.008,751.5,0.246
2098.032,752.5,0.245
2100.065,753.5,0.245
2102.092,754.5,0.245
2104.097,755.5,0.244
2106.123,756.5,0.244
2108.142,757.5,0.244
2110.159,758.5,0.243
2112.187,759.5,0.243
2114.198,760.5,0.243
2116.216,761.5,0.242
2118.256,762.5,0.242
2120.278,763.5,0.242
2122.285,764.5,0.241
2124.302,765.5,0.241
2126.33,766.5,0.241
2128.349,767.5,0.241
2130.367,768.5,0.24
2132.392,769.5,0.24
2134.405,770.5,0.24
2136.435,771.5,0.239
2138.44,772.5,0.239
2140.459,773.5,0.239
2142.489,774.5,0.239
2144.521,775.5,0.238
2146.53,776.5,0.238
2148.563,777.5,0.238
2150.572,778.5,0.237
2152.588,779.5,0.237
2154.616,780.5,0.237
2156.64,781.5,0.237
2158.663,782.5,0.236
2160.682,783.5,0.236
2162.692,784.5,0.236
2164.715,785.5,0.236
2166.745,786.5,0.236
2168.756,787.5,0.235
2170.781,788.5,0.235
2172.793,789.5,0.235
2174.81,790.5,0.235
2176.841,791.5,0.234
2178.847,792.5,0.234
2180.86,793.5,0.234
2182.893,794.5,0.234
2184.897,795.5,0.233
2186.914,796.5,0.233
2188.928,797.5,0.233
2190.943,798.5,0.233
2192.958,799.5,0.233
2194.96,800.5,0.233
2196.988,801.5,0.232
2199.006,802.5,0.232
2201.029,803.5,0.232
2203.035,804.5,0.232
2205.066,805.5,0.232
2207.083,806.5,0.231
2209.095,807.5,0.231
2211.113,808.5,0.231
2213.14,809.5,0.231
2215.161,810.5,0.231
2217.166,811.5,0.23
2219.158,812.5,0.23
2221.178,813.5,0.23
2223.189,814.5,0.23
2225.211,815.5,0.23
2227.239,816.5,0.229
2229.248,817.5,0.229
2231.27,818.5,0.229
2233.285,819.5,0.229
2235.298,820.5,0.229
2237.309,821.5,0.229
2239.318,822.5,0.228
2241.343,823.5,0.228
2243.362,824.5,0.228
2245.37,825.5,0.228
2247.401,826.5,0.228
2249.414,827.5,0.228
2251.427,828.5,0.227
2253.455,829.5,0.227
2255.441,830.5,0.227
2257.477,831.5,0.227
2259.476,832.5,0.227
2261.493,833.5,0.227
2263.511,834.5,0.227
2265.525,835.5,0.226
2267.544,836.5,0.226
2269.563,837.5,0.226
2271.575,838.5,0.226
2273.602,839.5,0.226
2275.614,840.5,0.225
2277.623,841.5,0.225
2279.646,842.5,0.225
2281.665,843.5,0.225
2283.674,844.5,0.225
2285.699,845.5,0.225
2287.715,846.5,0.225
2289.731,847.5,0.224
2291.756,848.5,0.224
2293.764,849.5,0.224
2295.795,850.5,0.224
2297.791,851.5,0.224
2299.831,852.5,0.224
2301.834,853.5,0.223
2303.837,854.5,0.223
2305.863,855.5,0.223
2307.875,856.5,0.223
2309.908,857.5,0.223
2311.908,858.5,0.223
2313.922,859.5,0.223
2315.925,860.5,0.222
2317.96,861.5,0.222
2319.976,862.5,0.222
2321.984,863.5,0.222
2324.004,864.5,0.222
2326.006,865.5,0.222
2328.032,866.5,0.221
2330.054,867.5,0.221
2332.045,868.5,0.221
2334.065,869.5,0.221
2336.076,870.5,0.221
2338.084,871.5,0.221
2340.102,872.5,0.221
2342.109,873.5,0.221
2344.13,874.5,0.22
2346.145,875.5,0.22
2348.144,876.5,0.22
2350.163,877.5,0.22
2352.179,878.5,0.22
2354.186,879.5,0.22
2356.193,880.5,0.22
2358.215,881.5,0.219
2360.219,882.5,0.219
2362.236,883.5,0.219
2364.232,884.5,0.219
2366.262,885.5,0.219
2368.27,886.5,0.219
2370.293,887.5,0.219
2372.296,888.5,0.219
2374.31,889.5,0.219
2376.325,890.5,0.218
2378.339,891.5,0.218
2380.361,892.5,0.218
2382.383,893.5,0.218
2384.373,894.5,0.218
2386.389,895.5,0.218
2388.404,896.5,0.218
2390.425,897.5,0.218
2392.412,898.5,0.217
2394.44,899.5,0.217
2396.443,900.5,0.217
2398.462,901.5,0.217
2400.462,902.5,0.217
2402.479,903.5,0.217
2404.478,904.5,0.217
2406.486,905.5,0.217
2408.492,906.5,0.216
2410.521,907.5,0.216
2412.513,908.5,0.216
2414.511,909.5,0.216
2416.533,910.5,0.216
2418.538,911.5,0.216
2420.549,912.5,0.216
2422.566,913.5,0.216
2424.574,914.5,0.216
2426.574,915.5,0.216
2428.581,916.5,0.215
2430.589,917.5,0.215
2432.601,918.5,0.215
2434.614,919.5,0.215
2436.613,920.5,0.215
2438.624,921.5,0.215
2440.631,922.5,0.215
2442.644,923.5,0.215
2444.66,924.5,0.215
2446.671,925.5,0.214
2448.674,926.5,0.214
2450.69,927.5,0.214
2452.687,928.5,0.214
2454.706,929.5,0.214
2456.723,930.5,0.214
2458.72,931.5,0.214
2460.729,932.5,0.214
2462.742,933.5,0.214
2464.758,934.5,0.214
2466.762,935.5,0.214
2468.764,936.5,0.214
2470.764,937.5,0.213
2472.783,938.5,0.213
2474.795,939.5,0.213
2476.79,940.5,0.213
2478.8,941.5,0.213
2480.826,942.5,0.213
2482.822,943.5,0.213
2484.831,944.5,0.213
2486.837,945.5,0.213
2488.857,946.5,0.213
2490.871,947.5,0.212
2492.891,948.5,0.212
2494.878,949.5,0.212
2496.906,950.5,0.212
2498.903,951.5,0.212
2500.9,952.5,0.212
2502.908,953.5,0.212
2504.905,954.5,0.212
2506.913,955.5,0.212
2508.923,956.5,0.212
2510.925,957.5,0.212
2512.939,958.5,0.212
2514.943,959.5,0.212
2516.955,960.5,0.212
2518.962,961.5,0.211
2520.965,962.5,0.211
2522.984,963.5,0.211
2524.978,964.5,0.211
2526.998,965.5,0.211
2529.002,966.5,0.211
2531.014,967.5,0.211
2533.012,968.5,0.211
2535.018,969.5,0.211
2537.028,970.5,0.211
2539.029,971.5,0.211
2541.056,972.5,0.211
2543.052,973.5,0.211
2545.056,974.5,0.211
2547.063,975.5,0.211
2549.089,976.5,0.211
2551.084,977.5,0.211
2553.097,978.5,0.21
2555.117,979.5,0.21
2557.123,980.5,0.21
2559.124,981.5,0.21
2561.124,982.5,0.21
2563.151,983.5,0.21
2565.141,984.5,0.21
2567.152,985.5,0.21
2569.141,986.5,0.21
2571.153,987.5,0.21
2573.171,988.5,0.21
2575.164,989.5,0.21
2577.164,990.5,0.21
2579.173,991.5,0.21
2581.184,992.5,0.21
2583.19,993.5,0.209
2585.195,994.5,0.209
2587.196,995.5,0.209
2589.194,996.5,0.209
2591.2,997.5,0.209
2593.198,998.5,0.209
2595.194,999.5,0.209
2597.192,1000.5,0.209
2599.202,1001.5,0.209
2601.204,1002.5,0.209
2603.202,1003.5,0.209
2605.209,1004.5,0.209
2607.203,1005.5,0.209
2609.22,1006.5,0.209
2611.223,1007.5,0.209
2613.208,1008.5,0.208
2615.22,1009.5,0.208
2617.231,1010.5,0.208
2619.238,1011.5,0.208
2621.23,1012.5,0.208
2623.243,1013.5,0.208
2625.246,1014.5,0.208
2627.239,1015.5,0.208
2629.248,1016.5,0.208
2631.232,1017.5,0.208
2633.23,1018.5,0.208
2635.243,1019.5,0.208
2637.256,1020.5,0.208
2639.255,1021.5,0.208
2641.257,1022.5,0.208
2643.247,1023.5,0.208
2645.252,1024.5,0.208
2647.262,1025.5,0.207
2649.26,1026.5,0.207
2651.272,1027.5,0.207
2653.258,1028.5,0.207
2655.273,1029.5,0.207
2657.27,1030.5,0.207
2659.264,1031.5,0.207
2661.272,1032.5,0.207
2663.274,1033.5,0.207
2665.281,1034.5,0.207
2667.285,1035.5,0.207
2669.269,1036.5,0.207
2671.287,1037.5,0.207
2673.295,1038.5,0.207
2675.303,1039.5,0.207
2677.294,1040.5,0.207
2679.301,1041.5,0.207
2681.296,1042.5,0.207
2683.304,1043.5,0.207
2685.299,1044.5,0.207
2687.31,1045.5,0.207
2689.31,1046.5,0.206
2691.313,1047.5,0.206
2693.311,1048.5,0.206
2695.319,1049.5,0.206
2697.329,1050.5,0.206
2699.328,1051.5,0.206
2701.32,1052.5,0.206
2703.333,1053.5,0.206
2705.34,1054.5,0.206
2707.345,1055.5,0.206
2709.331,1056.5,0.206
2711.338,1057.5,0.206
2713.343,1058.5,0.206
2715.347,1059.5,0.206
2717.356,1060.5,0.206
2719.304,1061.5,0.205
2722.445,1062.5,0.205
2725.439,1063.5,0.205
2728.714,1064.5,0.205
2732.517,1065.5,0.205
2740.0,1067.067,0.205
2760.0,1069.597,0.205
2780.0,1070.803,0.204
2800.0,1071.42,0.204
2820.0,1071.759,0.204
2840.0,1071.979,0.204
2860.0,1072.127,0.203
2880.0,1072.249,0.203
2900.0,1072.321,0.203
2920.0,1072.386,0.203
2940.0,1072.44,0.203
2960.0,1072.482,0.202
2980.0,1072.511,0.202
3000.0,1072.538,0.202
3020.0,1072.561,0.202
3040.0,1072.576,0.202