File: Wood/Calibration_Data/TUBS/TUBS_Wood_TGA_N2_50K_R10.csv
Time (s),Temperature (K),Mass (mg)
0.0,305.033,1.02984
2.0,305.014,1.02971
4.0,305.008,1.02954
6.0,304.996,1.02937
8.0,304.987,1.02919
10.0,304.969,1.02899
12.0,304.976,1.02875
14.0,304.964,1.02849
16.0,304.944,1.02822
18.0,304.943,1.02796
20.0,304.921,1.02775
22.0,304.911,1.02756
24.0,304.919,1.0274
26.0,304.915,1.02723
28.0,304.915,1.02705
30.0,304.893,1.02689
32.0,304.885,1.02675
34.0,304.887,1.02662
36.0,304.853,1.0265
38.0,304.849,1.02637
40.0,304.866,1.02622
42.0,304.844,1.02605
44.0,304.824,1.02587
46.0,304.84,1.0257
48.0,304.829,1.02553
50.0,304.818,1.02536
52.0,304.819,1.02522
54.0,304.818,1.02508
56.0,304.806,1.02494
58.0,304.806,1.02479
60.0,304.794,1.0246
62.0,304.8,1.02442
64.0,304.79,1.02427
66.0,304.788,1.02415
68.0,304.782,1.02405
70.0,304.776,1.02394
72.0,304.769,1.02382
74.0,304.763,1.02368
76.0,304.761,1.02352
78.0,304.754,1.02338
80.0,304.76,1.02325
82.0,304.744,1.02312
84.0,304.744,1.02299
86.0,304.748,1.02286
88.0,304.735,1.02272
90.0,304.747,1.02259
92.0,304.724,1.02248
94.0,304.724,1.02238
96.0,304.709,1.02229
98.0,304.711,1.0222
100.0,304.709,1.02213
102.0,304.7,1.02205
104.0,304.698,1.02199
106.0,304.693,1.02191
108.0,304.704,1.02182
110.0,304.681,1.02173
112.0,304.691,1.02165
114.0,304.688,1.02159
116.0,304.673,1.02152
118.0,304.683,1.02146
120.0,304.668,1.02138
122.0,304.664,1.0213
124.0,304.665,1.02121
126.0,304.666,1.02112
128.0,304.662,1.02103
130.0,304.657,1.02093
132.0,304.66,1.02084
134.0,304.647,1.02076
136.0,304.668,1.02068
138.0,304.648,1.02059
140.0,304.649,1.0205
142.0,304.642,1.02042
144.0,304.644,1.02036
146.0,304.643,1.0203
148.0,304.639,1.02024
150.0,304.63,1.02019
152.0,304.644,1.02012
154.0,304.621,1.02007
156.0,304.626,1.02001
158.0,304.613,1.01996
160.0,304.613,1.01989
162.0,304.623,1.01983
164.0,304.607,1.01976
166.0,304.624,1.01969
168.0,304.598,1.01963
170.0,304.598,1.01957
172.0,304.601,1.01951
174.0,304.582,1.01945
176.0,304.58,1.0194
178.0,304.595,1.01935
180.0,304.6,1.01933
182.0,304.598,1.0193
184.0,304.57,1.01928
186.0,304.583,1.01924
188.0,304.587,1.01917
190.0,304.575,1.0191
192.0,304.577,1.01902
194.0,304.575,1.01895
196.0,304.573,1.0189
198.0,304.571,1.01884
200.0,304.566,1.01878
202.0,304.571,1.01875
205.0,304.566,1.01872
207.0,304.556,1.0187
209.0,304.576,1.01865
211.0,304.566,1.0186
213.0,304.553,1.01853
215.0,304.555,1.01847
217.0,304.554,1.01842
219.0,304.567,1.01838
221.0,304.552,1.01835
223.0,304.55,1.01831
225.0,304.549,1.01828
227.0,304.561,1.01825
229.0,304.544,1.01821
231.0,304.55,1.01817
233.0,304.536,1.01813
235.0,304.533,1.01808
237.0,304.536,1.01805
239.0,304.539,1.01801
241.0,304.531,1.01798
243.0,304.532,1.01796
250.0,304.518,1.01794
252.0,304.522,1.01789
254.0,304.519,1.01782
256.0,304.519,1.01775
258.0,304.511,1.01768
260.0,304.514,1.01765
262.0,304.523,1.01762
264.0,304.517,1.0176
266.0,304.526,1.01758
268.0,304.52,1.01754
270.0,304.51,1.01747
272.0,304.505,1.01739
274.0,304.508,1.01732
276.0,304.508,1.01728
278.0,304.516,1.01726
282.0,304.508,1.01724
284.0,304.51,1.01719
286.0,304.488,1.01711
288.0,304.497,1.01702
290.0,304.497,1.01692
292.0,304.492,1.01684
294.0,304.473,1.01678
296.0,304.489,1.01674
298.0,304.5,1.01672
302.0,304.51,1.0167
306.0,304.509,1.01668
308.0,304.488,1.01665
310.0,304.489,1.0166
312.0,304.507,1.01655
314.0,304.49,1.0165
316.0,304.504,1.01646
318.0,304.487,1.01643
320.0,304.486,1.01641
322.0,304.497,1.01639
324.0,304.492,1.01636
326.0,304.486,1.01633
328.0,304.486,1.0163
330.0,304.49,1.01626
332.0,304.493,1.01621
334.0,304.486,1.01616
336.0,304.491,1.01614
338.0,304.504,1.01612
347.0,304.48,1.0161
351.0,304.486,1.01608
353.0,304.472,1.01605
355.0,304.485,1.01603
358.0,304.489,1.01601
364.0,304.481,1.01599
366.0,304.471,1.01597
368.0,304.486,1.01594
370.0,304.472,1.01591
372.0,304.467,1.01587
374.0,304.467,1.01583
376.0,304.473,1.01579
378.0,304.48,1.01577
380.0,304.471,1.01577
384.0,304.47,1.01579
394.0,304.458,1.01579
396.0,304.477,1.01577
398.0,304.455,1.01574
401.0,304.463,1.01572
405.0,304.456,1.0157
407.0,304.466,1.01568
409.0,304.461,1.01565
411.0,304.459,1.01562
413.0,304.458,1.01557
415.0,304.457,1.01551
417.0,304.467,1.01544
419.0,304.462,1.01538
421.0,304.458,1.01536
425.0,304.456,1.01534
428.0,304.46,1.0153
430.0,304.473,1.01526
432.0,304.461,1.01521
434.0,304.455,1.01517
437.0,304.469,1.01514
441.0,304.457,1.01517
443.0,304.458,1.0152
445.0,304.456,1.01524
449.0,304.455,1.01522
451.0,304.462,1.0152
453.0,304.464,1.01514
455.0,304.455,1.01508
457.0,304.474,1.01501
459.0,304.442,1.01494
461.0,304.45,1.01488
463.0,304.452,1.01484
466.0,304.473,1.01482
469.0,304.449,1.01484
471.0,304.455,1.01488
473.0,304.447,1.01493
475.0,304.454,1.01496
478.0,304.454,1.01498
481.0,304.466,1.01496
484.0,304.452,1.01493
486.0,304.441,1.0149
488.0,304.452,1.01486
490.0,304.434,1.01483
492.0,304.448,1.0148
494.0,304.462,1.01477
496.0,304.444,1.01474
498.0,304.438,1.01472
508.0,304.459,1.01472
513.0,304.444,1.01469
515.0,304.452,1.01467
517.0,304.455,1.01464
519.0,304.442,1.01462
523.0,304.451,1.0146
525.0,304.448,1.01458
527.0,304.44,1.01456
529.0,304.44,1.01453
532.0,304.441,1.01453
536.0,304.441,1.01456
539.0,304.441,1.01458
544.0,304.437,1.01456
546.0,304.439,1.01454
549.0,304.451,1.01452
551.0,304.436,1.0145
554.0,304.441,1.01448
558.0,304.438,1.01448
561.0,304.442,1.01446
563.0,304.441,1.01444
565.0,304.434,1.01442
575.0,304.433,1.0144
578.0,304.444,1.01438
580.0,304.433,1.01435
582.0,304.439,1.01432
584.0,304.45,1.01429
586.0,304.434,1.01426
591.0,304.449,1.01425
593.0,304.446,1.01427
595.0,304.458,1.01429
597.0,304.453,1.01431
599.0,304.43,1.01434
601.0,304.441,1.01436
603.0,304.446,1.01438
609.0,304.432,1.01435
612.0,304.437,1.01433
614.0,304.429,1.01431
626.0,304.444,1.01429
629.0,304.438,1.01427
631.0,304.424,1.01425
634.0,304.435,1.01423
637.0,304.456,1.01421
642.0,304.442,1.01419
649.0,304.432,1.01419
651.0,304.428,1.01417
653.0,304.447,1.01415
655.0,304.438,1.01413
658.0,304.447,1.01411
667.0,304.423,1.01411
669.0,304.427,1.01413
671.0,304.434,1.01416
673.0,304.442,1.01418
675.0,304.444,1.0142
678.0,304.424,1.01422
680.0,304.43,1.01424
684.0,304.417,1.01422
691.0,304.427,1.0142
708.0,304.434,1.01418
710.0,304.433,1.01416
712.0,304.426,1.01413
715.0,304.443,1.01411
719.0,304.429,1.01409
721.0,304.426,1.01406
723.0,304.434,1.01404
725.0,304.43,1.01402
735.0,304.435,1.014
738.0,304.43,1.01402
740.0,304.431,1.01405
742.0,304.436,1.01407
744.0,304.435,1.01409
754.0,304.436,1.01409
756.0,304.433,1.01406
758.0,304.444,1.01404
760.0,304.433,1.01402
766.0,304.435,1.01404
768.0,304.436,1.01406
772.0,304.429,1.01406
774.0,304.444,1.01403
776.0,304.429,1.01398
778.0,304.425,1.01395
780.0,304.443,1.01392
782.0,304.438,1.0139
787.0,304.427,1.01388
791.0,304.435,1.01386
796.0,304.446,1.01387
799.0,304.441,1.01389
813.0,304.434,1.01391
817.0,304.438,1.01394
819.0,304.444,1.01396
821.0,304.435,1.01399
824.0,304.448,1.01398
826.0,304.44,1.01396
828.0,304.447,1.0139
830.0,304.43,1.01384
832.0,304.429,1.01377
834.0,304.439,1.01371
836.0,304.43,1.01366
838.0,304.43,1.01363
841.0,304.454,1.01361
855.0,304.418,1.01359
857.0,304.423,1.01356
859.0,304.418,1.01354
861.0,304.431,1.01352
871.0,304.43,1.0135
874.0,304.44,1.0135
883.0,304.414,1.01348
885.0,304.419,1.01345
887.0,304.428,1.01342
889.0,304.431,1.01339
891.0,304.447,1.01337
896.0,304.432,1.0134
907.0,304.44,1.0134
913.0,304.427,1.01338
916.0,304.425,1.01336
918.0,304.423,1.01334
921.0,304.433,1.01332
934.0,304.436,1.0133
938.0,304.443,1.01328
947.0,304.437,1.0133
957.0,304.444,1.01328
959.0,304.454,1.01325
961.0,304.441,1.01321
963.0,304.439,1.01318
965.0,304.441,1.01316
967.0,304.433,1.01314
970.0,304.433,1.01312
979.0,304.448,1.01312
981.0,304.444,1.01314
983.0,304.452,1.01317
985.0,304.439,1.01319
987.0,304.442,1.01321
990.0,304.432,1.01323
999.0,304.404,1.0132
1017.0,304.43,1.01318
1019.0,304.42,1.01316
1025.0,304.426,1.01316
1028.0,304.436,1.01318
1030.0,304.435,1.0132
1032.0,304.456,1.01322
1034.0,304.448,1.01324
1036.0,304.443,1.01326
1038.0,304.434,1.01328
1042.0,304.425,1.0133
1067.0,304.423,1.01328
1069.0,304.423,1.01325
1071.0,304.453,1.01322
1073.0,304.433,1.01318
1075.0,304.43,1.01315
1081.0,304.433,1.01318
1085.0,304.432,1.01316
1087.0,304.434,1.01314
1089.0,304.44,1.01312
1101.0,304.441,1.01312
1103.0,304.436,1.01314
1105.0,304.44,1.01317
1107.0,304.452,1.01319
1117.0,304.439,1.01319
1119.0,304.435,1.01317
1121.0,304.442,1.01313
1123.0,304.446,1.01308
1125.0,304.44,1.01301
1127.0,304.448,1.01297
1129.0,304.427,1.01294
1131.0,304.43,1.01291
1144.0,304.45,1.01294
1146.0,304.453,1.01298
1148.0,304.439,1.01302
1150.0,304.455,1.01305
1152.0,304.451,1.01308
1154.0,304.434,1.01312
1156.0,304.45,1.01315
1160.0,304.444,1.01316
1162.0,304.427,1.01314
1165.0,304.435,1.01312
1177.0,304.437,1.0131
1184.0,304.44,1.01308
1186.0,304.447,1.01306
1188.0,304.426,1.01304
1191.0,304.44,1.01302
1196.0,304.431,1.01304
1199.0,304.451,1.01297
1203.92,305.0,1.01151
1206.181,306.0,1.0108
1207.891,307.0,1.01048
1209.686,308.0,1.0106
1211.234,309.0,1.01129
1212.608,310.0,1.01235
1213.939,311.0,1.01314
1215.213,312.0,1.01378
1216.466,313.0,1.01447
1217.708,314.0,1.01483
1218.931,315.0,1.01506
1220.151,316.0,1.01487
1221.353,317.0,1.01482
1222.558,318.0,1.01473
1223.759,319.0,1.01461
1224.967,320.0,1.01444
1226.153,321.0,1.0142
1227.36,322.0,1.01391
1228.55,323.0,1.01358
1229.743,324.0,1.01325
1230.948,325.0,1.01291
1232.136,326.0,1.01257
1233.318,327.0,1.01227
1234.524,328.0,1.01197
1235.708,329.0,1.01173
1236.931,330.0,1.01151
1238.116,331.0,1.0113
1239.304,332.0,1.01111
1240.501,333.0,1.01096
1241.694,334.0,1.0108
1242.877,335.0,1.01063
1244.09,336.0,1.01048
1245.297,337.0,1.01031
1246.501,338.0,1.01015
1247.705,339.0,1.00997
1248.902,340.0,1.00979
1250.105,341.0,1.0096
1251.305,342.0,1.00941
1252.519,343.0,1.0092
1253.712,344.0,1.00899
1254.924,345.0,1.00878
1256.114,346.0,1.00857
1257.32,347.0,1.00835
1258.531,348.0,1.00813
1259.738,349.0,1.00791
1260.922,350.0,1.00769
1262.119,351.0,1.00747
1263.317,352.0,1.00724
1264.525,353.0,1.00701
1265.725,354.0,1.00679
1266.931,355.0,1.00656
1268.125,356.0,1.00636
1269.332,357.0,1.00615
1270.538,358.0,1.00594
1271.746,359.0,1.00574
1272.968,360.0,1.00554
1274.176,361.0,1.00534
1275.371,362.0,1.00515
1276.576,363.0,1.00497
1277.788,364.0,1.00479
1278.983,365.0,1.00461
1280.187,366.0,1.00445
1281.397,367.0,1.00428
1282.593,368.0,1.00412
1283.811,369.0,1.00397
1285.013,370.0,1.00382
1286.229,371.0,1.00366
1287.421,372.0,1.00352
1288.611,373.0,1.00338
1289.827,374.0,1.00325
1291.03,375.0,1.00312
1292.23,376.0,1.00302
1293.427,377.0,1.00292
1294.626,378.0,1.00283
1295.83,379.0,1.00278
1297.024,380.0,1.00273
1298.237,381.0,1.00271
1299.438,382.0,1.00271
1300.632,383.0,1.00274
1301.83,384.0,1.00275
1303.018,385.0,1.00276
1304.234,386.0,1.00276
1305.441,387.0,1.00275
1306.647,388.0,1.00273
1307.841,389.0,1.00268
1309.037,390.0,1.00264
1310.234,391.0,1.0026
1311.436,392.0,1.00256
1312.633,393.0,1.00252
1313.827,394.0,1.00249
1315.024,395.0,1.00244
1316.228,396.0,1.00242
1317.427,397.0,1.00239
1318.623,398.0,1.00237
1319.823,399.0,1.00237
1321.019,400.0,1.00237
1322.207,401.0,1.00237
1323.41,402.0,1.00237
1324.594,403.0,1.00237
1325.794,404.0,1.00236
1326.99,405.0,1.00234
1328.185,406.0,1.00232
1329.374,407.0,1.00229
1330.576,408.0,1.00226
1331.773,409.0,1.00223
1332.962,410.0,1.00221
1334.157,411.0,1.00219
1335.34,412.0,1.00217
1336.535,413.0,1.00215
1337.73,414.0,1.00214
1338.911,415.0,1.00213
1340.102,416.0,1.00213
1341.291,417.0,1.00212
1342.479,418.0,1.0021
1343.666,419.0,1.00208
1344.852,420.0,1.00206
1346.028,421.0,1.00204
1347.225,422.0,1.00202
1348.422,423.0,1.00199
1349.609,424.0,1.00197
1350.793,425.0,1.00194
1351.976,426.0,1.00194
1353.166,427.0,1.00192
1354.358,428.0,1.00191
1355.544,429.0,1.00189
1356.728,430.0,1.00187
1357.916,431.0,1.00184
1359.102,432.0,1.0018
1360.281,433.0,1.00175
1361.463,434.0,1.0017
1362.658,435.0,1.00164
1363.843,436.0,1.00157
1365.026,437.0,1.0015
1366.198,438.0,1.00143
1367.389,439.0,1.00135
1368.572,440.0,1.00126
1369.759,441.0,1.00118
1370.945,442.0,1.00109
1372.116,443.0,1.001
1373.294,444.0,1.00091
1374.474,445.0,1.00081
1375.654,446.0,1.00072
1376.836,447.0,1.00063
1378.014,448.0,1.00054
1379.19,449.0,1.00046
1380.366,450.0,1.00037
1381.538,451.0,1.00028
1382.724,452.0,1.00018
1383.904,453.0,1.00008
1385.074,454.0,0.99996
1386.258,455.0,0.99985
1387.428,456.0,0.99972
1388.603,457.0,0.99957
1389.781,458.0,0.99942
1390.944,459.0,0.99926
1392.122,460.0,0.99908
1393.295,461.0,0.99889
1394.473,462.0,0.9987
1395.639,463.0,0.99851
1396.818,464.0,0.9983
1398.002,465.0,0.9981
1399.166,466.0,0.9979
1400.337,467.0,0.99769
1401.5,468.0,0.99748
1402.671,469.0,0.99727
1403.852,470.0,0.99705
1405.011,471.0,0.99683
1406.183,472.0,0.9966
1407.35,473.0,0.99636
1408.521,474.0,0.99609
1409.682,475.0,0.99581
1410.856,476.0,0.99552
1412.026,477.0,0.99518
1413.204,478.0,0.99485
1414.37,479.0,0.99452
1415.531,480.0,0.99419
1416.707,481.0,0.99384
1417.882,482.0,0.99351
1419.042,483.0,0.99318
1420.212,484.0,0.99284
1421.382,485.0,0.9925
1422.546,486.0,0.99216
1423.722,487.0,0.99179
1424.885,488.0,0.99143
1426.057,489.0,0.99105
1427.218,490.0,0.99066
1428.381,491.0,0.99025
1429.546,492.0,0.98983
1430.705,493.0,0.98942
1431.869,494.0,0.98899
1433.047,495.0,0.98855
1434.213,496.0,0.98811
1435.378,497.0,0.98767
1436.542,498.0,0.98722
1437.702,499.0,0.98677
1438.879,500.0,0.98631
1440.049,501.0,0.98584
1441.211,502.0,0.98536
1442.38,503.0,0.98487
1443.545,504.0,0.98437
1444.701,505.0,0.98386
1445.865,506.0,0.98335
1447.04,507.0,0.98282
1448.209,508.0,0.98228
1449.374,509.0,0.98173
1450.543,510.0,0.98118
1451.706,511.0,0.98062
1452.874,512.0,0.98004
1454.048,513.0,0.97945
1455.2,514.0,0.97886
1456.38,515.0,0.97823
1457.547,516.0,0.97761
1458.71,517.0,0.97698
1459.873,518.0,0.97632
1461.03,519.0,0.97565
1462.209,520.0,0.97496
1463.371,521.0,0.97426
1464.528,522.0,0.97352
1465.698,523.0,0.97277
1466.863,524.0,0.97201
1468.027,525.0,0.9712
1469.201,526.0,0.97038
1470.366,527.0,0.96956
1471.537,528.0,0.9687
1472.702,529.0,0.96783
1473.86,530.0,0.96696
1475.02,531.0,0.96607
1476.199,532.0,0.96511
1477.36,533.0,0.96416
1478.535,534.0,0.96318
1479.697,535.0,0.96217
1480.859,536.0,0.96115
1482.027,537.0,0.9601
1483.199,538.0,0.95902
1484.36,539.0,0.9579
1485.527,540.0,0.95677
1486.698,541.0,0.95561
1487.863,542.0,0.95439
1489.036,543.0,0.95315
1490.204,544.0,0.9519
1491.38,545.0,0.9506
1492.542,546.0,0.94927
1493.705,547.0,0.94794
1494.869,548.0,0.94658
1496.03,549.0,0.94517
1497.214,550.0,0.94372
1498.386,551.0,0.94227
1499.552,552.0,0.94078
1500.718,553.0,0.93926
1501.893,554.0,0.93772
1503.07,555.0,0.93615
1504.229,556.0,0.93454
1505.397,557.0,0.93293
1506.568,558.0,0.9313
1507.74,559.0,0.92964
1508.929,560.0,0.92796
1510.095,561.0,0.92631
1511.261,562.0,0.92465
1512.432,563.0,0.92298
1513.605,564.0,0.9213
1514.773,565.0,0.91961
1515.937,566.0,0.9179
1517.119,567.0,0.91615
1518.293,568.0,0.91439
1519.465,569.0,0.91259
1520.638,570.0,0.91075
1521.812,571.0,0.9089
1522.991,572.0,0.90702
1524.156,573.0,0.90508
1525.332,574.0,0.90313
1526.509,575.0,0.90117
1527.682,576.0,0.89917
1528.857,577.0,0.89715
1530.037,578.0,0.89511
1531.213,579.0,0.89306
1532.378,580.0,0.89099
1533.553,581.0,0.8889
1534.728,582.0,0.88679
1535.911,583.0,0.88462
1537.081,584.0,0.88246
1538.255,585.0,0.88028
1539.44,586.0,0.87803
1540.617,587.0,0.87575
1541.79,588.0,0.87345
1542.967,589.0,0.87112
1544.146,590.0,0.86868
1545.318,591.0,0.86625
1546.5,592.0,0.86378
1547.677,593.0,0.86125
1548.863,594.0,0.85865
1550.035,595.0,0.85608
1551.212,596.0,0.85344
1552.395,597.0,0.85071
1553.577,598.0,0.84796
1554.762,599.0,0.84517
1555.945,600.0,0.84227
1557.123,601.0,0.83936
1558.308,602.0,0.8364
1559.487,603.0,0.83335
1560.657,604.0,0.83026
1561.846,605.0,0.82709
1563.035,606.0,0.82388
1564.215,607.0,0.82053
1565.391,608.0,0.81718
1566.578,609.0,0.81376
1567.761,610.0,0.81022
1568.952,611.0,0.80661
1570.144,612.0,0.80296
1571.322,613.0,0.79928
1572.512,614.0,0.79544
1573.691,615.0,0.79164
1574.875,616.0,0.78776
1576.06,617.0,0.78372
1577.259,618.0,0.77964
1578.442,619.0,0.77556
1579.624,620.0,0.77137
1580.808,621.0,0.76711
1582.004,622.0,0.76277
1583.185,623.0,0.75842
1584.374,624.0,0.75389
1585.57,625.0,0.74934
1586.755,626.0,0.74479
1587.934,627.0,0.74012
1589.134,628.0,0.73536
1590.321,629.0,0.7306
1591.51,630.0,0.72574
1592.704,631.0,0.72078
1593.899,632.0,0.71579
1595.081,633.0,0.71081
1596.272,634.0,0.70564
1597.466,635.0,0.70046
1598.654,636.0,0.69527
1599.843,637.0,0.68996
1601.042,638.0,0.68459
1602.234,639.0,0.67923
1603.434,640.0,0.67378
1604.629,641.0,0.66828
1605.82,642.0,0.66279
1607.016,643.0,0.65724
1608.211,644.0,0.65155
1609.405,645.0,0.64587
1610.606,646.0,0.64011
1611.803,647.0,0.63424
1613.008,648.0,0.6283
1614.187,649.0,0.62245
1615.386,650.0,0.61643
1616.581,651.0,0.61033
1617.779,652.0,0.60421
1618.995,653.0,0.59797
1620.197,654.0,0.59164
1621.393,655.0,0.58533
1622.593,656.0,0.57896
1623.781,657.0,0.5725
1624.985,658.0,0.56591
1626.192,659.0,0.55925
1627.396,660.0,0.55249
1628.603,661.0,0.54559
1629.803,662.0,0.53869
1631.006,663.0,0.53172
1632.215,664.0,0.52446
1633.423,665.0,0.5172
1634.638,666.0,0.50984
1635.835,667.0,0.50236
1637.036,668.0,0.49479
1638.255,669.0,0.48703
1639.455,670.0,0.47924
1640.666,671.0,0.47121
1641.866,672.0,0.46324
1643.078,673.0,0.45511
1644.289,674.0,0.44673
1645.494,675.0,0.43843
1646.704,676.0,0.43005
1647.91,677.0,0.42155
1649.104,678.0,0.41314
1650.31,679.0,0.40466
1651.528,680.0,0.39607
1652.733,681.0,0.3876
1653.939,682.0,0.37921
1655.154,683.0,0.37082
1656.357,684.0,0.36273
1657.563,685.0,0.35471
1658.775,686.0,0.34678
1659.98,687.0,0.33935
1661.185,688.0,0.33205
1662.399,689.0,0.32492
1663.605,690.0,0.31836
1664.797,691.0,0.31224
1666.006,692.0,0.30622
1667.208,693.0,0.30066
1668.414,694.0,0.29589
1669.62,695.0,0.29116
1670.832,696.0,0.28666
1672.038,697.0,0.28316
1673.238,698.0,0.27971
1674.442,699.0,0.27649
1675.657,700.0,0.27388
1676.866,701.0,0.27161
1678.074,702.0,0.26942
1679.275,703.0,0.26758
1680.487,704.0,0.26623
1681.699,705.0,0.26481
1682.909,706.0,0.26349
1684.115,707.0,0.2626
1685.32,708.0,0.26163
1686.532,709.0,0.2607
1687.738,710.0,0.25993
1688.956,711.0,0.25918
1690.164,712.0,0.25843
1691.375,713.0,0.25773
1692.581,714.0,0.25707
1693.79,715.0,0.2564
1695.014,716.0,0.25573
1696.219,717.0,0.2551
1697.434,718.0,0.25446
1698.644,719.0,0.25382
1699.849,720.0,0.2532
1701.06,721.0,0.25258
1702.276,722.0,0.25196
1703.49,723.0,0.25134
1704.696,724.0,0.25075
1705.919,725.0,0.25014
1707.125,726.0,0.24956
1708.335,727.0,0.24898
1709.541,728.0,0.24842
1710.757,729.0,0.24785
1711.967,730.0,0.2473
1713.182,731.0,0.24675
1714.394,732.0,0.24621
1715.609,733.0,0.24567
1716.819,734.0,0.24514
1718.035,735.0,0.24461
1719.245,736.0,0.24408
1720.46,737.0,0.24356
1721.667,738.0,0.24304
1722.878,739.0,0.24251
1724.089,740.0,0.24199
1725.307,741.0,0.24147
1726.522,742.0,0.24095
1727.738,743.0,0.24043
1728.95,744.0,0.23991
1730.163,745.0,0.2394
1731.381,746.0,0.23889
1732.594,747.0,0.23839
1733.808,748.0,0.23789
1735.0,749.0,0.23741
1736.236,750.0,0.23695
1737.435,751.0,0.23649
1738.649,752.0,0.23604
1739.863,753.0,0.23561
1741.093,754.0,0.23517
1742.311,755.0,0.23473
1743.522,756.0,0.23429
1744.729,757.0,0.23386
1745.947,758.0,0.23343
1747.164,759.0,0.23301
1748.379,760.0,0.2326
1749.586,761.0,0.2322
1750.797,762.0,0.23181
1752.015,763.0,0.23144
1753.234,764.0,0.23106
1754.444,765.0,0.23069
1755.662,766.0,0.23033
1756.877,767.0,0.22996
1758.097,768.0,0.22959
1759.306,769.0,0.22922
1760.519,770.0,0.22886
1761.728,771.0,0.2285
1762.952,772.0,0.22814
1764.158,773.0,0.2278
1765.374,774.0,0.22746
1766.59,775.0,0.22712
1767.798,776.0,0.2268
1769.017,777.0,0.22649
1770.223,778.0,0.22618
1771.443,779.0,0.22589
1772.656,780.0,0.22561
1773.867,781.0,0.22532
1775.082,782.0,0.22504
1776.301,783.0,0.22476
1777.522,784.0,0.22447
1778.732,785.0,0.22418
1779.951,786.0,0.2239
1781.163,787.0,0.22362
1782.376,788.0,0.22335
1783.593,789.0,0.2231
1784.802,790.0,0.22286
1786.023,791.0,0.22262
1787.243,792.0,0.2224
1788.452,793.0,0.22219
1789.665,794.0,0.22196
1790.881,795.0,0.22173
1792.094,796.0,0.22149
1793.312,797.0,0.22125
1794.529,798.0,0.221
1795.741,799.0,0.22076
1796.956,800.0,0.22053
1798.161,801.0,0.2203
1799.384,802.0,0.22007
1800.595,803.0,0.21985
1801.808,804.0,0.21963
1803.031,805.0,0.21941
1804.239,806.0,0.21918
1805.459,807.0,0.21896
1806.667,808.0,0.21874
1807.883,809.0,0.21852
1809.102,810.0,0.2183
1810.311,811.0,0.21808
1811.527,812.0,0.21786
1812.744,813.0,0.21764
1813.958,814.0,0.21742
1815.177,815.0,0.21721
1816.387,816.0,0.21699
1817.596,817.0,0.21678
1818.815,818.0,0.21656
1820.031,819.0,0.21635
1821.231,820.0,0.21615
1822.454,821.0,0.21595
1823.669,822.0,0.21576
1824.882,823.0,0.21558
1826.094,824.0,0.2154
1827.308,825.0,0.21523
1828.522,826.0,0.21506
1829.738,827.0,0.21489
1830.957,828.0,0.21472
1832.163,829.0,0.21455
1833.382,830.0,0.21438
1834.596,831.0,0.2142
1835.805,832.0,0.21402
1837.026,833.0,0.21384
1838.245,834.0,0.21365
1839.449,835.0,0.21346
1840.669,836.0,0.21327
1841.887,837.0,0.21309
1843.089,838.0,0.21291
1844.308,839.0,0.21274
1845.518,840.0,0.21256
1846.729,841.0,0.21239
1847.935,842.0,0.21221
1849.153,843.0,0.21203
1850.37,844.0,0.21186
1851.587,845.0,0.21169
1852.799,846.0,0.21152
1854.017,847.0,0.21135
1855.229,848.0,0.21119
1856.439,849.0,0.21103
1857.659,850.0,0.21087
1858.87,851.0,0.21071
1860.088,852.0,0.21056
1861.291,853.0,0.21041
1862.506,854.0,0.21026
1863.718,855.0,0.21011
1864.943,856.0,0.20997
1866.164,857.0,0.20983
1867.383,858.0,0.20968
1868.593,859.0,0.20955
1869.81,860.0,0.20941
1871.022,861.0,0.20926
1872.228,862.0,0.20912
1873.438,863.0,0.20898
1874.655,864.0,0.20883
1875.88,865.0,0.20868
1877.086,866.0,0.20853
1878.295,867.0,0.20838
1879.508,868.0,0.20822
1880.716,869.0,0.20805
1881.931,870.0,0.20788
1883.141,871.0,0.2077
1884.358,872.0,0.20751
1885.565,873.0,0.20733
1886.78,874.0,0.20716
1887.996,875.0,0.20698
1889.208,876.0,0.20681
1890.412,877.0,0.20664
1891.621,878.0,0.20649
1892.831,879.0,0.20634
1894.044,880.0,0.20618
1895.255,881.0,0.20604
1896.463,882.0,0.20589
1897.674,883.0,0.20575
1898.887,884.0,0.2056
1900.092,885.0,0.20544
1901.3,886.0,0.20528
1902.513,887.0,0.20512
1903.723,888.0,0.20495
1904.944,889.0,0.20479
1906.143,890.0,0.20463
1907.354,891.0,0.20447
1908.567,892.0,0.20432
1909.773,893.0,0.20417
1910.977,894.0,0.20403
1912.182,895.0,0.20391
1913.391,896.0,0.2038
1914.603,897.0,0.20368
1915.81,898.0,0.20357
1917.023,899.0,0.20346
1918.229,900.0,0.20334
1919.428,901.0,0.20322
1920.639,902.0,0.20309
1921.846,903.0,0.20296
1923.068,904.0,0.20282
1924.261,905.0,0.20269
1925.473,906.0,0.20255
1926.687,907.0,0.20242
1927.892,908.0,0.20228
1929.098,909.0,0.20215
1930.312,910.0,0.20201
1931.522,911.0,0.20188
1932.729,912.0,0.20175
1933.945,913.0,0.20162
1935.139,914.0,0.2015
1936.345,915.0,0.20138
1937.559,916.0,0.20126
1938.771,917.0,0.20115
1939.989,918.0,0.20104
1941.184,919.0,0.20093
1942.389,920.0,0.20082
1943.596,921.0,0.20071
1944.8,922.0,0.20059
1946.01,923.0,0.20048
1947.219,924.0,0.20037
1948.43,925.0,0.20026
1949.635,926.0,0.20016
1950.842,927.0,0.20006
1952.046,928.0,0.19997
1953.251,929.0,0.19988
1954.458,930.0,0.19979
1955.661,931.0,0.19969
1956.863,932.0,0.19959
1958.076,933.0,0.19949
1959.279,934.0,0.19938
1960.482,935.0,0.19927
1961.691,936.0,0.19915
1962.893,937.0,0.19904
1964.102,938.0,0.19893
1965.308,939.0,0.19882
1966.513,940.0,0.19871
1967.72,941.0,0.19861
1968.924,942.0,0.1985
1970.132,943.0,0.19839
1971.34,944.0,0.19829
1972.539,945.0,0.19819
1973.746,946.0,0.1981
1974.948,947.0,0.19801
1976.159,948.0,0.19793
1977.36,949.0,0.19784
1978.571,950.0,0.19775
1979.778,951.0,0.19766
1980.989,952.0,0.19757
1982.189,953.0,0.19749
1983.394,954.0,0.19741
1984.6,955.0,0.19732
1985.796,956.0,0.19724
1987.005,957.0,0.19716
1988.206,958.0,0.19708
1989.407,959.0,0.19701
1990.612,960.0,0.19694
1991.82,961.0,0.19687
1993.026,962.0,0.19679
1994.23,963.0,0.19672
1995.437,964.0,0.19664
1996.637,965.0,0.19655
1997.847,966.0,0.19647
1999.048,967.0,0.19639
2000.248,968.0,0.19631
2001.451,969.0,0.19622
2002.654,970.0,0.19613
2003.856,971.0,0.19604
2005.063,972.0,0.19595
2006.273,973.0,0.19587
2007.476,974.0,0.1958
2008.673,975.0,0.19573
2009.873,976.0,0.19566
2011.077,977.0,0.1956
2012.279,978.0,0.19554
2013.489,979.0,0.19547
2014.688,980.0,0.19541
2015.889,981.0,0.19535
2017.092,982.0,0.19529
2018.299,983.0,0.19524
2019.505,984.0,0.19518
2020.706,985.0,0.19513
2021.898,986.0,0.19508
2023.099,987.0,0.19502
2024.303,988.0,0.19495
2025.503,989.0,0.19487
2026.708,990.0,0.1948
2027.905,991.0,0.19472
2029.102,992.0,0.19465
2030.307,993.0,0.19458
2031.504,994.0,0.19452
2032.696,995.0,0.19445
2033.908,996.0,0.19437
2035.107,997.0,0.1943
2036.313,998.0,0.19421
2037.515,999.0,0.19413
2038.72,1000.0,0.19404
2039.908,1001.0,0.19396
2041.12,1002.0,0.19389
2042.319,1003.0,0.19382
2043.512,1004.0,0.19375
2044.709,1005.0,0.19369
2045.911,1006.0,0.19363
2047.117,1007.0,0.19357
2048.317,1008.0,0.19351
2049.514,1009.0,0.19344
2050.71,1010.0,0.19338
2051.911,1011.0,0.19332
2053.117,1012.0,0.19326
2054.306,1013.0,0.1932
2055.511,1014.0,0.19315
2056.708,1015.0,0.1931
2057.901,1016.0,0.19305
2059.103,1017.0,0.19299
2060.297,1018.0,0.19294
2061.497,1019.0,0.19288
2062.692,1020.0,0.19281
2063.901,1021.0,0.19274
2065.098,1022.0,0.19266
2066.295,1023.0,0.1926
2067.487,1024.0,0.19254
2068.686,1025.0,0.19248
2069.888,1026.0,0.19242
2071.088,1027.0,0.19236
2072.292,1028.0,0.19231
2073.485,1029.0,0.19226
2074.679,1030.0,0.1922
2075.878,1031.0,0.19215
2077.067,1032.0,0.19209
2078.264,1033.0,0.19204
2079.46,1034.0,0.19199
2080.655,1035.0,0.19194
2081.855,1036.0,0.19188
2083.049,1037.0,0.19183
2084.242,1038.0,0.19177
2085.44,1039.0,0.19171
2086.643,1040.0,0.19166
2087.835,1041.0,0.1916
2089.029,1042.0,0.19154
2090.227,1043.0,0.19148
2091.426,1044.0,0.19141
2092.618,1045.0,0.19135
2093.813,1046.0,0.19129
2095.005,1047.0,0.19123
2096.204,1048.0,0.19116
2097.412,1049.0,0.19109
2098.606,1050.0,0.19102
2099.79,1051.0,0.19096
2100.987,1052.0,0.1909
2102.185,1053.0,0.19086
2103.337,1054.0,0.19083
2104.879,1055.0,0.1908
2106.914,1056.0,0.19076
2108.697,1057.0,0.19074
2110.582,1058.0,0.1907
2112.61,1059.0,0.19063
2114.85,1060.0,0.19055
2117.313,1061.0,0.19042
2120.057,1062.0,0.19028
2134.0,1065.676,0.18989
2154.0,1068.461,0.18937
2174.0,1069.825,0.18904
2194.0,1070.568,0.18879
2214.0,1071.017,0.18838
2234.0,1071.317,0.18791
2254.0,1071.514,0.18754
2274.0,1071.674,0.18734
2294.0,1071.798,0.18712
2314.0,1071.882,0.18677
2334.0,1071.95,0.18672
2354.0,1071.994,0.18642
2374.0,1072.047,0.18604
2394.0,1072.073,0.18601
2414.0,1072.104,0.1857
2424.0,1072.112,0.18569