File: Wood/Calibration_Data/TUBS/TUBS_TGA_N2_ISO320_R2.csv
Time (s),Temperature (K),Mass (mg)
0.0,305.0,0.99
9.0,304.9,0.988
22.0,304.9,0.986
38.0,304.8,0.984
54.0,304.8,0.982
73.0,304.7,0.98
102.0,304.7,0.978
137.0,304.6,0.976
185.0,304.5,0.974
259.0,304.5,0.972
382.0,304.4,0.97
497.0,304.4,0.97
653.0,304.4,0.968
669.0,304.4,0.968
958.0,304.4,0.968
976.0,304.4,0.968
989.0,304.4,0.968
1024.0,304.4,0.968
1041.0,304.4,0.968
1141.0,304.4,0.968
1202.0,304.4,0.966
1211.0,310.4,0.966
1217.0,318.7,0.968
1222.0,328.3,0.97
1230.0,348.0,0.97
1236.0,364.7,0.968
1241.0,377.9,0.966
1246.0,390.7,0.964
1250.0,400.5,0.962
1254.0,409.9,0.96
1265.0,433.3,0.958
1286.0,470.4,0.956
1297.0,486.5,0.954
1304.0,495.6,0.952
1310.0,502.9,0.95
1315.0,508.6,0.948
1319.0,512.9,0.946
1324.0,517.9,0.944
1328.0,521.8,0.942
1332.0,525.4,0.94
1335.0,528.0,0.938
1339.0,531.4,0.936
1342.0,533.8,0.934
1346.0,536.8,0.932
1349.0,539.0,0.93
1352.0,541.2,0.928
1355.0,543.2,0.926
1357.0,544.5,0.924
1360.0,546.4,0.922
1362.0,547.7,0.92
1365.0,549.5,0.918
1367.0,550.7,0.916
1369.0,551.8,0.914
1371.0,552.9,0.912
1374.0,554.5,0.91
1376.0,555.6,0.908
1378.0,556.6,0.906
1380.0,557.6,0.904
1382.0,558.5,0.902
1385.0,559.9,0.9
1387.0,560.8,0.898
1389.0,561.7,0.896
1391.0,562.6,0.894
1393.0,563.4,0.892
1395.0,564.2,0.89
1397.0,565.0,0.888
1399.0,565.8,0.886
1402.0,566.9,0.884
1404.0,567.7,0.882
1406.0,568.4,0.88
1408.0,569.1,0.878
1410.0,569.7,0.876
1412.0,570.4,0.874
1414.0,571.0,0.872
1416.0,571.6,0.87
1418.0,572.2,0.868
1420.0,572.8,0.866
1422.0,573.4,0.864
1424.0,573.9,0.862
1427.0,574.8,0.86
1429.0,575.3,0.858
1431.0,575.8,0.856
1433.0,576.3,0.854
1435.0,576.7,0.852
1437.0,577.2,0.85
1439.0,577.7,0.848
1441.0,578.1,0.846
1443.0,578.5,0.844
1445.0,579.0,0.842
1448.0,579.6,0.84
1450.0,580.0,0.838
1452.0,580.3,0.836
1454.0,580.7,0.834
1456.0,581.0,0.832
1458.0,581.4,0.83
1460.0,581.7,0.828
1462.0,582.1,0.826
1464.0,582.4,0.824
1466.0,582.7,0.822
1468.0,583.0,0.82
1471.0,583.4,0.818
1473.0,583.7,0.816
1475.0,584.0,0.814
1477.0,584.3,0.812
1479.0,584.5,0.81
1481.0,584.8,0.808
1484.0,585.1,0.806
1486.0,585.4,0.804
1488.0,585.6,0.802
1490.0,585.8,0.8
1493.0,586.2,0.798
1495.0,586.4,0.796
1497.0,586.6,0.794
1499.0,586.8,0.792
1502.0,587.1,0.79
1504.0,587.2,0.788
1506.0,587.4,0.786
1508.0,587.6,0.784
1511.0,587.8,0.782
1513.0,588.0,0.78
1515.0,588.2,0.778
1518.0,588.4,0.776
1520.0,588.5,0.774
1523.0,588.8,0.772
1525.0,588.9,0.77
1528.0,589.1,0.768
1530.0,589.2,0.766
1533.0,589.4,0.764
1535.0,589.5,0.762
1537.0,589.6,0.76
1540.0,589.8,0.758
1543.0,590.0,0.756
1545.0,590.1,0.754
1548.0,590.2,0.752
1550.0,590.3,0.75
1553.0,590.5,0.748
1556.0,590.6,0.746
1559.0,590.7,0.744
1561.0,590.8,0.742
1564.0,590.9,0.74
1567.0,591.0,0.738
1570.0,591.1,0.736
1573.0,591.2,0.734
1576.0,591.3,0.732
1579.0,591.4,0.73
1582.0,591.5,0.728
1585.0,591.6,0.726
1588.0,591.7,0.724
1591.0,591.8,0.722
1594.0,591.9,0.72
1597.0,591.9,0.718
1608.0,592.2,0.712
1626.0,592.5,0.701
1644.0,592.8,0.692
1662.0,593.0,0.682
1680.0,593.2,0.674
1698.0,593.3,0.666
1716.0,593.4,0.658
1734.0,593.5,0.651
1752.0,593.6,0.644
1770.0,593.6,0.638
1788.0,593.6,0.632
1806.0,593.7,0.626
1824.0,593.7,0.62
1842.0,593.7,0.614
1860.0,593.7,0.609
1878.0,593.8,0.604
1896.0,593.8,0.599
1914.0,593.8,0.595
1932.0,593.8,0.59
1950.0,593.8,0.586
1968.0,593.8,0.582
1986.0,593.8,0.577
2004.0,593.8,0.573
2022.0,593.8,0.57
2040.0,593.8,0.566
2058.0,593.8,0.562
2076.0,593.8,0.558
2094.0,593.8,0.555
2112.0,593.8,0.551
2130.0,593.8,0.548
2148.0,593.8,0.545
2166.0,593.8,0.541
2184.0,593.8,0.538
2202.0,593.8,0.535
2220.0,593.8,0.532
2238.0,593.8,0.529
2256.0,593.8,0.526
2274.0,593.8,0.523
2292.0,593.8,0.52
2310.0,593.8,0.517
2328.0,593.8,0.514
2346.0,593.8,0.511
2364.0,593.8,0.509
2382.0,593.8,0.506
2400.0,593.8,0.503
2418.0,593.8,0.501
2436.0,593.8,0.498
2454.0,593.8,0.495
2472.0,593.8,0.493
2490.0,593.8,0.491
2508.0,593.8,0.488
2526.0,593.8,0.486
2544.0,593.8,0.483
2562.0,593.8,0.481
2580.0,593.8,0.478
2598.0,593.8,0.476
2616.0,593.8,0.474
2634.0,593.8,0.471
2652.0,593.8,0.469
2670.0,593.8,0.467
2688.0,593.8,0.465
2706.0,593.8,0.463
2724.0,593.8,0.461
2742.0,593.8,0.458
2760.0,593.8,0.456
2778.0,593.8,0.454
2796.0,593.8,0.452
2814.0,593.8,0.45
2832.0,593.8,0.448
2850.0,593.8,0.446
2868.0,593.8,0.444
2886.0,593.8,0.442
2904.0,593.8,0.44
2922.0,593.8,0.438
2940.0,593.8,0.436
2958.0,593.8,0.434
2976.0,593.8,0.432
2994.0,593.8,0.43
3012.0,593.8,0.428
3030.0,593.8,0.426
3048.0,593.8,0.425
3066.0,593.8,0.422
3084.0,593.8,0.421
3102.0,593.8,0.419
3120.0,593.8,0.417
3138.0,593.8,0.415
3156.0,593.8,0.414
3174.0,593.8,0.412
3192.0,593.8,0.41
3210.0,593.8,0.408
3228.0,593.8,0.407
3246.0,593.8,0.405
3264.0,593.8,0.403
3282.0,593.8,0.402
3300.0,593.8,0.4
3318.0,593.8,0.398
3336.0,593.8,0.396
3354.0,593.8,0.395
3372.0,593.8,0.393
3390.0,593.8,0.392
3408.0,593.8,0.39
3426.0,593.8,0.388
3444.0,593.8,0.387
3462.0,593.8,0.386
3480.0,593.8,0.384
3498.0,593.8,0.383
3516.0,593.8,0.381
3534.0,593.8,0.38
3552.0,593.8,0.378
3570.0,593.8,0.377
3588.0,593.8,0.375
3606.0,593.8,0.374
3624.0,593.8,0.373
3642.0,593.8,0.371
3660.0,593.8,0.37
3678.0,593.8,0.368
3696.0,593.8,0.367
3714.0,593.8,0.366
3732.0,593.8,0.364
3750.0,593.8,0.363
3768.0,593.8,0.362
3786.0,593.8,0.36
3804.0,593.8,0.359
3822.0,593.8,0.358
3840.0,593.8,0.356
3858.0,593.8,0.355
3876.0,593.8,0.354
3894.0,593.8,0.353
3912.0,593.8,0.352
3930.0,593.8,0.351
3948.0,593.8,0.349
3966.0,593.8,0.348
3984.0,593.8,0.347
4002.0,593.8,0.346
4020.0,593.8,0.345
4038.0,593.8,0.344
4056.0,593.8,0.343
4074.0,593.8,0.341
4092.0,593.8,0.34
4110.0,593.8,0.339
4128.0,593.8,0.338
4146.0,593.8,0.337
4164.0,593.8,0.336
4182.0,593.8,0.335
4200.0,593.8,0.334
4218.0,593.8,0.333
4236.0,593.8,0.332
4254.0,593.8,0.331
4272.0,593.8,0.33
4290.0,593.8,0.329
4308.0,593.8,0.328
4326.0,593.8,0.327
4344.0,593.8,0.326
4362.0,593.8,0.326
4380.0,593.8,0.325
4398.0,593.8,0.324
4416.0,593.8,0.323
4434.0,593.8,0.322
4452.0,593.8,0.321
4470.0,593.8,0.32
4488.0,593.8,0.319
4506.0,593.8,0.318
4524.0,593.8,0.317
4542.0,593.8,0.317
4560.0,593.8,0.316
4578.0,593.8,0.315
4596.0,593.8,0.314
4614.0,593.8,0.313
4632.0,593.8,0.313
4650.0,593.8,0.312
4668.0,593.8,0.311
4686.0,593.8,0.31
4704.0,593.8,0.309
4722.0,593.8,0.309
4740.0,593.8,0.308
4758.0,593.8,0.307
4776.0,593.8,0.307
4794.0,593.8,0.306
4812.0,593.8,0.305
4830.0,593.8,0.305
4848.0,593.8,0.304
4866.0,593.8,0.304
4884.0,593.8,0.303
4902.0,593.8,0.302
4920.0,593.8,0.302
4938.0,593.8,0.301
4956.0,593.8,0.3
4974.0,593.8,0.3
4992.0,593.8,0.299
5010.0,593.8,0.298
5028.0,593.8,0.298
5046.0,593.8,0.297
5064.0,593.8,0.297
5082.0,593.8,0.296
5100.0,593.8,0.296
5118.0,593.8,0.295
5136.0,593.8,0.294
5154.0,593.8,0.294
5172.0,593.8,0.294
5190.0,593.8,0.293
5208.0,593.8,0.293
5226.0,593.8,0.292
5244.0,593.8,0.292
5262.0,593.8,0.291
5280.0,593.8,0.29
5298.0,593.9,0.29
5316.0,593.9,0.289
5334.0,593.9,0.289
5352.0,593.9,0.289
5370.0,593.8,0.288
5388.0,593.9,0.288
5406.0,593.8,0.287
5424.0,593.8,0.287
5442.0,593.8,0.286
5460.0,593.8,0.286
5478.0,593.8,0.286
5496.0,593.9,0.285
5514.0,593.9,0.285
5532.0,593.8,0.285
5550.0,593.8,0.284
5568.0,593.8,0.284
5586.0,593.8,0.283
5604.0,593.8,0.283
5622.0,593.9,0.283
5640.0,593.8,0.282
5658.0,593.8,0.282
5676.0,593.8,0.282
5694.0,593.8,0.281
5712.0,593.8,0.281
5730.0,593.8,0.281
5748.0,593.8,0.281
5766.0,593.8,0.28
5784.0,593.9,0.28
5802.0,593.8,0.28
5820.0,593.8,0.279
5838.0,593.8,0.279
5856.0,593.8,0.279
5874.0,593.8,0.279
5892.0,593.8,0.278
5910.0,593.8,0.278
5928.0,593.8,0.278
5946.0,593.8,0.278
5964.0,593.8,0.277
5982.0,593.9,0.277
6000.0,593.9,0.277
6018.0,593.8,0.277
6036.0,593.9,0.276
6054.0,593.8,0.276
6072.0,593.9,0.276
6090.0,593.9,0.276
6108.0,593.9,0.276
6126.0,593.9,0.275
6144.0,593.9,0.275
6162.0,593.9,0.275
6180.0,593.9,0.275
6198.0,593.8,0.275
6216.0,593.9,0.274
6234.0,593.9,0.274
6252.0,593.8,0.274
6270.0,593.9,0.274
6288.0,593.9,0.274
6306.0,593.9,0.273
6324.0,593.9,0.273
6342.0,593.9,0.273
6360.0,593.8,0.273
6378.0,593.9,0.273
6396.0,593.9,0.273
6414.0,593.9,0.273
6432.0,593.9,0.272
6450.0,593.9,0.272
6468.0,593.9,0.272
6486.0,593.9,0.272
6504.0,593.9,0.272
6522.0,593.9,0.271
6540.0,593.9,0.271
6558.0,593.9,0.271
6576.0,593.9,0.271
6594.0,593.9,0.271
6612.0,593.9,0.271
6630.0,593.8,0.271
6648.0,593.9,0.27
6666.0,593.8,0.27
6684.0,593.9,0.27
6702.0,593.9,0.27
6720.0,593.9,0.27
6738.0,593.9,0.27
6756.0,593.9,0.27
6774.0,593.9,0.27
6792.0,593.9,0.27
6810.0,593.9,0.27
6828.0,593.9,0.27
6846.0,593.9,0.269
6864.0,593.9,0.269
6882.0,593.9,0.269
6900.0,593.9,0.269
6918.0,593.9,0.269
6936.0,593.9,0.269
6954.0,593.9,0.269
6972.0,593.9,0.269
6990.0,593.9,0.269
7008.0,593.9,0.269
7026.0,593.9,0.269
7044.0,593.9,0.269
7062.0,593.9,0.268
7080.0,593.9,0.269
7098.0,593.9,0.268
7116.0,593.9,0.268
7134.0,593.9,0.268
7152.0,593.9,0.268
7170.0,593.9,0.268
7188.0,593.9,0.268
7206.0,593.9,0.268
7224.0,593.9,0.268
7242.0,593.9,0.268
7260.0,593.9,0.268
7278.0,593.9,0.268
7296.0,593.9,0.268
7314.0,593.9,0.268
7332.0,593.9,0.267
7350.0,593.9,0.267
7368.0,593.9,0.267
7386.0,593.9,0.267
7404.0,593.9,0.267
7422.0,593.9,0.267
7440.0,593.9,0.267
7458.0,593.9,0.267
7476.0,593.9,0.267
7494.0,593.9,0.267
7512.0,593.9,0.267
7530.0,593.9,0.267
7548.0,593.9,0.267
7566.0,593.9,0.267
7584.0,593.9,0.267
7602.0,593.9,0.267
7620.0,593.9,0.267
7638.0,593.8,0.267
7656.0,593.9,0.267
7674.0,593.9,0.267
7692.0,593.9,0.266
7710.0,593.9,0.266
7728.0,593.9,0.266
7746.0,593.9,0.266
7764.0,593.9,0.267
7782.0,593.9,0.266
7800.0,593.9,0.266
7818.0,593.9,0.266
7836.0,593.9,0.266
7854.0,593.9,0.266
7872.0,593.9,0.266
7890.0,593.9,0.266
7908.0,593.9,0.266
7926.0,593.9,0.266
7944.0,593.9,0.266
7962.0,593.9,0.266
7980.0,593.9,0.266
7998.0,593.9,0.266
8016.0,593.9,0.266
8034.0,593.9,0.266
8052.0,593.9,0.266
8070.0,593.9,0.266
8088.0,593.9,0.266
8106.0,593.9,0.266
8124.0,593.9,0.266
8142.0,593.9,0.265
8160.0,593.9,0.266
8178.0,593.9,0.265
8196.0,593.9,0.265
8214.0,593.9,0.265
8232.0,593.9,0.265
8250.0,593.9,0.265
8268.0,593.9,0.265
8286.0,593.9,0.265
8304.0,593.9,0.265
8322.0,593.9,0.265
8340.0,593.9,0.265
8358.0,593.9,0.265
8376.0,593.9,0.265
8394.0,593.9,0.265
8412.0,593.9,0.265
8430.0,593.9,0.265
8448.0,593.9,0.265
8466.0,593.9,0.265
8484.0,593.9,0.265
8502.0,593.9,0.265
8520.0,593.9,0.265
8538.0,593.9,0.265
8556.0,593.9,0.265
8574.0,593.9,0.265
8592.0,593.9,0.265
8610.0,593.9,0.265
8628.0,593.9,0.265
8646.0,593.9,0.265
8664.0,593.9,0.265
8682.0,593.9,0.264
8700.0,593.9,0.265
8718.0,593.9,0.264
8736.0,593.9,0.265
8754.0,593.9,0.264
8772.0,593.9,0.264
8790.0,593.9,0.264
8808.0,593.9,0.264
8826.0,593.9,0.264
8844.0,593.9,0.264
8862.0,593.9,0.264
8880.0,593.9,0.265
8898.0,593.9,0.264
8916.0,593.9,0.264
8934.0,593.9,0.264
8952.0,593.9,0.264
8970.0,593.9,0.264
8988.0,593.9,0.264
9006.0,593.9,0.264
9024.0,593.9,0.264
9042.0,593.9,0.264
9060.0,593.9,0.264
9078.0,593.9,0.264
9096.0,593.9,0.264
9114.0,593.9,0.264
9132.0,593.9,0.264
9150.0,593.9,0.264
9168.0,593.9,0.264
9186.0,593.9,0.264
9204.0,593.9,0.264
9222.0,593.9,0.263
9240.0,593.9,0.264
9258.0,593.9,0.263
9276.0,593.9,0.264
9294.0,593.9,0.263
9312.0,593.9,0.263
9330.0,593.9,0.263
9348.0,593.9,0.263
9366.0,593.9,0.263
9384.0,593.9,0.263
9402.0,593.9,0.263
9420.0,593.9,0.263
9438.0,593.9,0.263
9456.0,593.9,0.263
9474.0,593.8,0.263
9492.0,593.9,0.263
9510.0,593.9,0.263
9528.0,593.9,0.263
9546.0,593.9,0.263
9564.0,593.9,0.263
9582.0,593.9,0.263
9600.0,593.9,0.263
9618.0,593.9,0.263
9636.0,593.9,0.263
9654.0,593.9,0.263
9672.0,593.9,0.263
9690.0,593.9,0.263
9708.0,593.9,0.263
9726.0,593.9,0.263
9744.0,593.9,0.263
9762.0,593.9,0.263
9780.0,593.9,0.263
9798.0,593.9,0.263
9816.0,593.9,0.263
9834.0,593.9,0.263
9852.0,593.9,0.262
9870.0,593.9,0.263
9888.0,593.9,0.263
9906.0,593.9,0.263
9924.0,593.9,0.263
9942.0,593.9,0.262
9960.0,593.9,0.262
9978.0,593.9,0.262
9996.0,593.9,0.262
10014.0,593.9,0.262
10032.0,593.9,0.262
10050.0,593.9,0.262
10068.0,593.9,0.262
10086.0,593.9,0.262
10104.0,593.9,0.262
10122.0,593.9,0.262
10140.0,593.9,0.262
10158.0,593.9,0.262
10176.0,593.9,0.262
10194.0,593.9,0.262
10212.0,593.9,0.263
10230.0,593.9,0.262
10248.0,593.9,0.262
10266.0,593.9,0.262
10284.0,593.9,0.262
10302.0,593.9,0.262
10320.0,593.9,0.262
10338.0,593.9,0.262
10356.0,593.9,0.262
10374.0,593.9,0.262
10392.0,593.9,0.262
10410.0,593.9,0.262
10428.0,593.9,0.262
10446.0,593.9,0.262
10464.0,593.9,0.262
10482.0,593.9,0.262
10500.0,593.9,0.262
10518.0,593.9,0.262
10536.0,593.9,0.262
10554.0,593.9,0.262
10572.0,593.9,0.262
10590.0,593.9,0.262
10608.0,593.9,0.262
10626.0,593.9,0.262
10644.0,593.9,0.262
10662.0,593.9,0.262
10680.0,593.9,0.262
10698.0,593.9,0.262
10716.0,593.9,0.262
10734.0,593.9,0.262
10752.0,593.9,0.262
10770.0,593.9,0.262
10788.0,593.9,0.262
10806.0,593.9,0.262
10824.0,593.9,0.262
10842.0,593.9,0.262
10860.0,593.9,0.262
10878.0,593.9,0.262
10896.0,593.9,0.262
10914.0,593.9,0.262
10932.0,593.9,0.262
10950.0,593.9,0.261
10968.0,593.9,0.262
10986.0,593.9,0.261
11004.0,593.9,0.261
11022.0,593.9,0.261
11040.0,593.9,0.261
11058.0,593.9,0.261
11076.0,593.9,0.261
11094.0,593.9,0.261
11112.0,593.9,0.261
11130.0,593.9,0.261
11148.0,593.9,0.261
11166.0,593.9,0.261
11184.0,593.9,0.261
11202.0,593.9,0.261
11220.0,593.9,0.261
11238.0,593.9,0.261
11256.0,593.9,0.261
11274.0,593.9,0.261
11292.0,593.9,0.261
11310.0,593.9,0.261
11328.0,593.9,0.261
11346.0,593.9,0.261
11364.0,593.9,0.261
11382.0,593.9,0.261
11400.0,593.9,0.261
11418.0,593.9,0.261
11436.0,593.9,0.261
11454.0,593.9,0.261
11472.0,593.9,0.261
11490.0,593.9,0.261
11508.0,593.9,0.261
11526.0,593.9,0.261
11544.0,593.9,0.261
11562.0,593.9,0.261
11580.0,593.9,0.261
11598.0,593.9,0.261
11616.0,593.9,0.261
11634.0,593.9,0.261
11652.0,593.9,0.261
11670.0,593.9,0.261
11688.0,593.9,0.261
11706.0,593.9,0.261
11724.0,593.9,0.261
11742.0,593.9,0.261
11760.0,593.9,0.261
11778.0,593.9,0.261
11796.0,593.9,0.261
11814.0,593.9,0.261
11832.0,593.9,0.26
11850.0,593.9,0.261
11868.0,593.9,0.261
11886.0,593.9,0.26
11904.0,593.9,0.261
11922.0,593.9,0.26
11940.0,593.9,0.261
11958.0,593.9,0.26
11976.0,593.9,0.26
11994.0,593.9,0.26
12012.0,593.9,0.26
12030.0,593.9,0.26
12048.0,593.9,0.26
12066.0,593.9,0.26
12084.0,593.9,0.26
12102.0,593.9,0.26
12120.0,593.9,0.26
12138.0,593.9,0.26
12156.0,593.9,0.26
12174.0,593.9,0.26
12192.0,593.9,0.26
12210.0,593.9,0.26
12228.0,593.9,0.26
12246.0,593.9,0.26
12264.0,593.9,0.26
12282.0,593.9,0.26
12300.0,593.9,0.26
12318.0,593.9,0.26
12336.0,593.9,0.26
12354.0,593.9,0.26
12372.0,593.9,0.26
12390.0,593.9,0.26
12408.0,593.9,0.26
12426.0,593.9,0.26
12444.0,593.9,0.26
12462.0,593.9,0.26
12480.0,593.9,0.26
12498.0,593.9,0.26
12516.0,593.9,0.26
12534.0,593.9,0.26
12552.0,593.9,0.26
12570.0,593.9,0.26
12588.0,593.9,0.26
12606.0,593.9,0.26
12624.0,593.9,0.26
12642.0,593.9,0.26
12660.0,593.9,0.26
12678.0,593.9,0.26
12696.0,593.9,0.26
12714.0,593.9,0.26
12732.0,593.9,0.26
12750.0,593.9,0.26
12768.0,593.9,0.26
12786.0,593.9,0.26
12804.0,593.9,0.26
12822.0,593.9,0.26
12840.0,593.9,0.26
12858.0,593.9,0.26
12876.0,593.9,0.26
12894.0,593.9,0.26
12912.0,593.9,0.26
12930.0,593.9,0.26
12948.0,593.9,0.26
12966.0,593.9,0.26
12984.0,593.9,0.26
13002.0,593.9,0.26
13020.0,593.9,0.26
13038.0,593.9,0.26
13056.0,593.9,0.26
13074.0,593.9,0.26
13092.0,593.9,0.26
13110.0,593.9,0.26
13128.0,593.9,0.26
13146.0,593.9,0.26
13164.0,593.9,0.26
13182.0,593.9,0.259
13200.0,593.9,0.259
13218.0,593.9,0.259
13236.0,593.9,0.259
13254.0,593.9,0.259
13272.0,593.9,0.259
13290.0,593.9,0.259
13308.0,593.9,0.259
13326.0,593.9,0.259
13344.0,593.9,0.259
13362.0,593.9,0.259
13380.0,593.9,0.259
13398.0,593.9,0.259
13416.0,593.9,0.259
13434.0,593.9,0.259
13452.0,593.9,0.259
13470.0,593.9,0.259
13488.0,593.9,0.259
13506.0,593.9,0.259
13524.0,593.9,0.259
13542.0,593.9,0.259
13560.0,593.9,0.259
13578.0,593.9,0.259
13596.0,593.9,0.259
13614.0,593.9,0.259
13632.0,593.9,0.259
13650.0,593.9,0.259
13668.0,593.9,0.259
13686.0,593.9,0.259
13704.0,593.9,0.259
13722.0,593.9,0.259
13740.0,593.9,0.259
13758.0,593.9,0.259
13776.0,593.9,0.259
13794.0,593.9,0.259
13812.0,593.9,0.259
13830.0,593.9,0.259
13848.0,593.9,0.259
13866.0,593.9,0.259
13884.0,593.9,0.259
13902.0,593.9,0.259
13920.0,593.9,0.259
13938.0,593.9,0.259
13956.0,593.9,0.259
13974.0,593.9,0.259
13992.0,593.9,0.259
14010.0,593.9,0.259
14028.0,593.9,0.259
14046.0,593.9,0.259
14064.0,593.9,0.259
14082.0,593.9,0.259
14100.0,593.9,0.259
14118.0,593.9,0.259
14136.0,593.9,0.259
14154.0,593.9,0.259
14172.0,593.9,0.259
14190.0,593.9,0.259
14208.0,593.9,0.259
14226.0,593.9,0.259
14244.0,593.9,0.259
14262.0,593.9,0.259
14280.0,593.9,0.258
14298.0,593.9,0.259
14316.0,593.9,0.258
14334.0,593.9,0.259
14352.0,593.9,0.259
14370.0,593.9,0.259
14388.0,593.9,0.259
14406.0,593.9,0.259
14424.0,593.9,0.258
14442.0,593.9,0.259
14460.0,593.9,0.259
14478.0,593.9,0.259
14496.0,593.9,0.258
14514.0,593.9,0.258
14532.0,593.9,0.259
14550.0,593.9,0.258
14568.0,593.9,0.258
14586.0,593.9,0.258
14604.0,593.9,0.259
14622.0,593.9,0.258
14640.0,593.9,0.258
14658.0,593.9,0.258
14676.0,593.9,0.258
14694.0,593.9,0.258
14712.0,593.9,0.258
14730.0,593.9,0.258
14748.0,593.9,0.259
14766.0,593.9,0.258
14784.0,593.9,0.258
14802.0,593.9,0.258
14820.0,593.9,0.258
14838.0,593.9,0.258
14856.0,593.9,0.258
14874.0,593.9,0.258
14892.0,593.9,0.258
14910.0,593.9,0.258
14928.0,593.9,0.258
14946.0,593.9,0.258
14964.0,593.9,0.258
14982.0,593.9,0.258
15000.0,593.9,0.258
15018.0,593.9,0.258
15036.0,593.9,0.258
15054.0,593.9,0.258
15072.0,593.9,0.258
15090.0,593.9,0.258
15108.0,593.9,0.258
15126.0,593.9,0.258
15144.0,593.9,0.258
15162.0,593.9,0.258
15180.0,593.9,0.258
15198.0,593.9,0.258
15216.0,593.9,0.258
15234.0,593.9,0.258
15252.0,593.9,0.258
15270.0,593.9,0.258
15288.0,593.9,0.258
15306.0,593.9,0.258
15324.0,593.9,0.258
15342.0,593.9,0.258
15360.0,593.9,0.258
15378.0,593.9,0.258
15396.0,593.9,0.258
15414.0,593.9,0.258
15432.0,593.9,0.258
15450.0,593.9,0.258
15468.0,593.9,0.258
15486.0,593.9,0.258
15504.0,593.9,0.258
15522.0,593.9,0.257
15540.0,593.9,0.258
15558.0,593.9,0.258
15576.0,593.9,0.258
15594.0,593.9,0.258
15612.0,593.9,0.258
15630.0,593.9,0.257
15648.0,593.9,0.258
15666.0,593.9,0.258
15684.0,593.9,0.258
15702.0,593.9,0.258
15720.0,593.9,0.258
15738.0,593.9,0.257
15756.0,593.9,0.258
15774.0,593.9,0.257
15792.0,593.9,0.258
15810.0,593.9,0.257
15828.0,593.9,0.258
15846.0,593.9,0.257
15864.0,593.9,0.258
15882.0,593.9,0.257
15900.0,593.9,0.257
15918.0,593.9,0.257
15936.0,593.9,0.257
15954.0,593.9,0.257
15972.0,593.9,0.257
15990.0,593.9,0.258
16008.0,593.9,0.257
16026.0,593.9,0.258
16044.0,593.9,0.257
16062.0,593.9,0.257
16080.0,593.9,0.257
16098.0,593.9,0.257
16116.0,593.9,0.258
16134.0,593.9,0.257
16152.0,593.9,0.257
16170.0,593.9,0.257
16188.0,593.9,0.257
16206.0,593.9,0.257
16224.0,593.9,0.257
16242.0,593.9,0.257
16260.0,593.9,0.257
16278.0,593.9,0.258
16296.0,593.9,0.257
16314.0,593.9,0.257
16332.0,593.9,0.257
16350.0,593.9,0.257
16368.0,593.9,0.257
16386.0,593.9,0.257
16404.0,593.9,0.257
16422.0,593.9,0.257
16440.0,593.9,0.257
16458.0,593.9,0.257
16476.0,593.9,0.257
16494.0,593.9,0.257
16512.0,593.9,0.257
16530.0,593.9,0.257
16548.0,593.9,0.257
16566.0,593.9,0.257
16584.0,593.9,0.257
16602.0,593.9,0.257
16620.0,593.9,0.257
16638.0,593.9,0.257
16656.0,593.9,0.257
16674.0,593.9,0.257
16692.0,593.9,0.257
16710.0,593.9,0.257
16728.0,593.9,0.257
16746.0,593.9,0.257
16764.0,593.9,0.257
16782.0,593.9,0.257
16800.0,593.9,0.257
16818.0,593.9,0.257
16836.0,593.9,0.257
16854.0,593.9,0.257
16872.0,593.9,0.257
16890.0,593.9,0.257
16908.0,593.9,0.257
16926.0,593.9,0.257
16944.0,593.9,0.257
16962.0,593.9,0.257
16980.0,593.9,0.257
16998.0,593.9,0.257
17016.0,593.9,0.257
17034.0,593.9,0.257
17052.0,593.9,0.257
17070.0,593.9,0.257
17088.0,593.9,0.257
17106.0,593.9,0.257
17124.0,593.9,0.257
17142.0,593.9,0.257
17160.0,593.9,0.256
17178.0,593.9,0.256
17196.0,593.9,0.256
17214.0,593.9,0.256
17232.0,593.9,0.256
17250.0,593.9,0.256
17268.0,593.9,0.256
17286.0,593.9,0.256
17304.0,593.9,0.256
17322.0,593.9,0.256
17340.0,593.9,0.256
17358.0,593.9,0.256
17376.0,593.9,0.256
17394.0,593.9,0.257
17412.0,593.9,0.257
17430.0,593.9,0.256
17448.0,593.9,0.256
17466.0,593.9,0.256
17484.0,593.9,0.256
17502.0,593.9,0.256
17520.0,593.9,0.256
17538.0,593.9,0.257
17556.0,593.9,0.257
17574.0,593.9,0.257
17592.0,593.9,0.256
17610.0,593.9,0.257
17628.0,593.9,0.256
17646.0,593.9,0.256
17664.0,593.9,0.256
17682.0,593.9,0.256
17700.0,593.9,0.256
17718.0,593.9,0.256
17736.0,593.9,0.256
17754.0,593.9,0.256
17772.0,593.9,0.256
17790.0,593.9,0.256
17808.0,593.9,0.256
17826.0,593.9,0.256
17844.0,593.9,0.256
17862.0,593.9,0.256
17880.0,593.9,0.256
17898.0,593.9,0.256
17916.0,593.9,0.256
17934.0,593.9,0.256
17952.0,593.9,0.256
17970.0,593.9,0.256
17988.0,593.9,0.256
18006.0,593.9,0.256
18024.0,593.9,0.256
18042.0,593.9,0.256
18060.0,593.9,0.256
18078.0,593.9,0.256
18096.0,593.9,0.256
18114.0,593.9,0.256
18132.0,593.9,0.256
18150.0,593.9,0.256
18168.0,593.9,0.256
18186.0,593.9,0.256
18204.0,593.9,0.256
18222.0,593.9,0.256
18240.0,593.9,0.256
18258.0,593.9,0.256
18276.0,593.9,0.256
18294.0,593.9,0.256
18312.0,593.9,0.256
18330.0,593.9,0.256
18348.0,593.9,0.256
18366.0,593.9,0.256
18384.0,593.9,0.256
18402.0,593.9,0.256
18420.0,593.9,0.256
18438.0,593.9,0.256
18456.0,593.9,0.256
18474.0,593.9,0.256
18492.0,593.9,0.256
18510.0,593.9,0.256
18528.0,593.9,0.256
18546.0,593.9,0.256
18564.0,593.9,0.256
18582.0,593.9,0.256
18600.0,593.9,0.256
18618.0,593.9,0.256
18636.0,593.9,0.256
18654.0,593.9,0.256
18672.0,593.9,0.256
18690.0,593.9,0.256
18708.0,593.9,0.256
18726.0,593.9,0.256
18744.0,593.9,0.256
18762.0,593.9,0.256
18780.0,593.9,0.256
18798.0,593.9,0.256
18816.0,593.9,0.256
18834.0,593.9,0.256
18852.0,593.9,0.256
18870.0,593.9,0.256
18888.0,593.9,0.256
18906.0,593.9,0.256
18924.0,593.9,0.256
18942.0,593.9,0.256
18960.0,593.9,0.256
18978.0,593.9,0.256
18996.0,593.9,0.256
19014.0,593.9,0.256
19032.0,593.9,0.256
19050.0,593.9,0.256
19068.0,593.9,0.256
19086.0,593.9,0.256
19104.0,593.9,0.256
19122.0,593.9,0.256
19140.0,593.9,0.256
19158.0,593.9,0.256
19176.0,593.9,0.256
19194.0,593.9,0.256
19212.0,593.9,0.256
19230.0,593.9,0.256
19248.0,593.9,0.256
19266.0,593.9,0.256
19284.0,593.9,0.256
19302.0,593.9,0.256
19320.0,593.9,0.256
19338.0,593.9,0.256
19356.0,593.9,0.256
19374.0,593.9,0.256
19392.0,593.9,0.256
19410.0,593.9,0.256
19428.0,593.9,0.256
19446.0,593.9,0.256
19464.0,593.9,0.256
19482.0,593.9,0.256
19500.0,593.9,0.256
19518.0,593.9,0.256
19536.0,593.9,0.256
19554.0,593.9,0.256
19572.0,593.9,0.256
19590.0,593.9,0.256
19608.0,593.9,0.256
19626.0,593.9,0.256
19644.0,593.9,0.256
19662.0,593.9,0.256
19680.0,593.9,0.256
19698.0,593.9,0.256
19716.0,593.9,0.256
19734.0,593.9,0.256
19752.0,593.9,0.256
19770.0,593.9,0.256
19788.0,593.9,0.256
19806.0,593.9,0.256
19824.0,593.9,0.256
19842.0,593.9,0.256
19860.0,593.9,0.256
19878.0,593.9,0.256
19896.0,593.9,0.256
19914.0,593.9,0.256
19932.0,593.9,0.256
19950.0,593.9,0.256
19968.0,593.9,0.255
19986.0,593.9,0.255
20004.0,593.9,0.255
20022.0,593.9,0.255
20040.0,593.9,0.255
20058.0,593.9,0.255
20076.0,593.9,0.255
20094.0,593.9,0.255
20112.0,593.9,0.255
20130.0,593.9,0.255
20148.0,593.9,0.255
20166.0,593.9,0.255
20184.0,593.9,0.255
20202.0,593.9,0.255
20220.0,593.9,0.255
20238.0,593.9,0.255
20256.0,593.9,0.255
20274.0,593.9,0.255
20292.0,593.9,0.255
20310.0,593.9,0.255
20328.0,593.9,0.255
20346.0,593.9,0.255
20364.0,593.9,0.255
20382.0,593.9,0.255
20400.0,593.9,0.255
20418.0,593.9,0.255
20436.0,593.9,0.255
20454.0,593.9,0.255
20472.0,593.9,0.255
20490.0,593.9,0.255
20508.0,593.9,0.255
20526.0,593.9,0.255
20544.0,593.9,0.255
20562.0,593.9,0.255
20580.0,593.9,0.255
20598.0,593.9,0.255
20616.0,593.9,0.255
20634.0,593.9,0.255
20652.0,593.9,0.255
20670.0,593.9,0.255
20688.0,593.9,0.255
20706.0,593.9,0.255
20724.0,593.9,0.255
20742.0,593.9,0.255
20760.0,593.9,0.255
20778.0,593.9,0.255
20796.0,593.9,0.255
20814.0,593.9,0.255
20832.0,593.9,0.255
20850.0,593.9,0.255
20868.0,593.9,0.255
20886.0,593.9,0.255
20904.0,593.9,0.255
20922.0,593.9,0.255
20940.0,593.9,0.255
20958.0,593.9,0.255
20976.0,593.9,0.255
20994.0,593.9,0.255
21012.0,593.9,0.255
21030.0,593.9,0.255
21048.0,593.9,0.255
21066.0,593.9,0.255
21084.0,593.9,0.255
21102.0,593.9,0.255
21120.0,593.9,0.255
21138.0,593.9,0.255
21156.0,593.9,0.255
21174.0,593.9,0.255
21192.0,593.9,0.255
21210.0,593.9,0.255
21228.0,593.9,0.255
21246.0,593.9,0.255
21264.0,593.9,0.255
21282.0,593.9,0.255
21300.0,593.9,0.255
21318.0,593.9,0.255
21336.0,593.9,0.255
21354.0,593.9,0.255
21372.0,593.9,0.254
21390.0,593.9,0.255
21408.0,593.9,0.255
21426.0,593.9,0.255
21444.0,593.9,0.255
21462.0,593.9,0.255
21480.0,593.9,0.255
21498.0,593.9,0.254
21516.0,593.9,0.255
21534.0,593.9,0.255
21552.0,593.9,0.255
21570.0,593.9,0.255
21588.0,593.9,0.255
21606.0,593.9,0.254
21624.0,593.9,0.254
21642.0,593.9,0.254
21660.0,593.9,0.254
21678.0,593.9,0.254
21696.0,593.9,0.254
21714.0,593.9,0.254
21732.0,593.9,0.254
21750.0,593.9,0.254
21768.0,593.9,0.254
21786.0,593.9,0.254
21804.0,593.9,0.254
21822.0,593.9,0.254
21840.0,593.9,0.254
21858.0,593.9,0.254
21876.0,593.9,0.254
21894.0,593.9,0.254
21912.0,593.9,0.254
21930.0,593.9,0.254
21948.0,593.9,0.254
21966.0,593.9,0.254
21984.0,593.9,0.254
22002.0,593.9,0.254
22020.0,593.9,0.254
22038.0,593.9,0.254
22056.0,593.9,0.254
22074.0,593.9,0.254
22092.0,593.9,0.254
22110.0,593.9,0.254
22128.0,593.9,0.254
22146.0,593.9,0.254
22164.0,593.9,0.254
22182.0,593.9,0.254
22200.0,593.9,0.254
22218.0,593.9,0.254
22236.0,593.9,0.254
22254.0,593.9,0.254
22272.0,593.9,0.254
22290.0,593.9,0.254
22308.0,593.9,0.254
22326.0,593.9,0.254
22344.0,593.9,0.254
22362.0,593.9,0.254
22380.0,593.9,0.254
22398.0,593.9,0.254
22416.0,593.9,0.254
22434.0,593.9,0.254
22452.0,593.9,0.254
22470.0,593.9,0.254
22488.0,593.9,0.254
22506.0,593.9,0.254
22524.0,593.9,0.254
22542.0,593.9,0.254
22560.0,593.9,0.254
22578.0,593.9,0.254
22596.0,593.9,0.254
22614.0,593.9,0.254
22632.0,593.9,0.254
22650.0,593.9,0.254
22668.0,593.9,0.254
22686.0,593.9,0.254
22704.0,593.9,0.254
22722.0,593.9,0.254
22740.0,593.9,0.254
22758.0,593.9,0.254
22776.0,593.9,0.254
22794.0,593.9,0.254
22812.0,593.9,0.254