File: Wood/Calibration_Data/TUBS/TUBS_Wood_Cone_30kW_hor_R3.csv
Time (s),Mass (g),HRR (kW/m2)
0.0,80.18,0.0
2.0,80.17,0.0
4.0,80.15,0.0
6.0,80.13,0.0
8.0,80.09,0.0
10.0,80.07,0.0
12.0,80.05,1.2
14.0,80.02,0.0
16.0,79.99,0.0
18.0,79.97,0.0
20.0,79.94,0.0
22.0,79.91,0.0
24.0,79.87,0.0
26.0,79.74,1.0
28.0,79.58,0.9
30.0,79.4,30.7
32.0,79.13,42.9
34.0,78.93,83.3
36.0,78.72,105.0
38.0,78.5,142.1
40.0,78.33,143.7
42.0,78.22,149.3
44.0,77.99,146.2
46.0,77.85,134.9
48.0,77.75,129.1
50.0,77.6,119.7
52.0,77.47,110.1
54.0,77.37,103.0
56.0,77.2,98.7
58.0,77.11,94.5
60.0,76.99,94.5
62.0,76.88,89.0
64.0,76.77,89.1
66.0,76.67,82.1
68.0,76.55,84.4
70.0,76.46,78.9
72.0,76.36,75.1
74.0,76.22,74.9
76.0,76.15,71.8
78.0,76.07,66.0
80.0,75.94,67.9
82.0,75.86,65.5
84.0,75.8,61.5
86.0,75.68,60.2
88.0,75.59,61.6
90.0,75.56,61.1
92.0,75.42,58.6
94.0,75.33,62.8
96.0,75.27,61.3
98.0,75.17,57.3
100.0,75.08,61.9
102.0,75.02,58.1
104.0,74.91,55.3
106.0,74.83,55.5
108.0,74.76,55.8
110.0,74.66,54.8
112.0,74.57,55.3
114.0,74.52,53.0
116.0,74.43,51.4
118.0,74.33,52.2
120.0,74.28,52.4
122.0,74.21,49.3
124.0,74.12,51.4
126.0,74.04,48.6
128.0,73.96,52.3
130.0,73.88,53.6
132.0,73.8,53.8
134.0,73.73,51.7
136.0,73.67,47.1
138.0,73.57,48.4
140.0,73.5,49.8
142.0,73.45,48.0
144.0,73.36,51.2
146.0,73.26,46.2
148.0,73.2,50.1
150.0,73.14,49.1
152.0,73.03,49.2
154.0,72.98,49.3
156.0,72.92,49.0
158.0,72.82,47.1
160.0,72.75,48.3
162.0,72.7,49.3
164.0,72.59,47.9
166.0,72.51,46.7
168.0,72.46,44.8
170.0,72.38,48.1
172.0,72.31,48.3
174.0,72.24,47.0
176.0,72.17,45.3
178.0,72.08,45.4
180.0,72.0,46.2
182.0,71.93,41.9
184.0,71.86,47.1
186.0,71.8,42.0
188.0,71.71,49.2
190.0,71.67,43.5
192.0,71.58,45.5
194.0,71.48,45.4
196.0,71.43,47.0
198.0,71.37,45.6
200.0,71.27,45.8
202.0,71.19,47.9
204.0,71.14,45.0
206.0,71.05,49.6
208.0,70.96,46.4
210.0,70.92,45.3
212.0,70.85,46.1
214.0,70.76,47.0
216.0,70.68,45.3
218.0,70.61,46.5
220.0,70.53,44.5
222.0,70.44,47.2
224.0,70.37,46.7
226.0,70.32,44.0
228.0,70.24,49.2
230.0,70.14,46.5
232.0,70.09,44.3
234.0,70.01,44.8
236.0,69.92,44.5
238.0,69.86,45.4
240.0,69.8,43.1
242.0,69.69,44.5
244.0,69.62,43.3
246.0,69.58,46.4
248.0,69.48,46.1
250.0,69.4,42.1
252.0,69.35,43.5
254.0,69.26,44.3
256.0,69.19,44.3
258.0,69.11,42.1
260.0,69.04,45.3
262.0,68.94,42.7
264.0,68.87,41.2
266.0,68.8,42.4
268.0,68.73,46.5
270.0,68.66,44.3
272.0,68.57,43.9
274.0,68.51,43.3
276.0,68.41,44.0
278.0,68.34,45.6
280.0,68.28,42.4
282.0,68.17,44.6
284.0,68.1,41.6
286.0,68.04,43.3
288.0,67.98,43.7
290.0,67.87,45.2
292.0,67.81,43.0
294.0,67.75,44.0
296.0,67.65,45.4
298.0,67.58,42.1
300.0,67.52,45.3
302.0,67.41,43.2
304.0,67.35,45.0
306.0,67.28,43.2
308.0,67.18,42.4
310.0,67.11,45.7
312.0,67.05,43.5
314.0,66.96,40.2
316.0,66.9,42.8
318.0,66.81,36.3
320.0,66.74,41.5
322.0,66.67,43.5
324.0,66.56,41.6
326.0,66.51,43.7
328.0,66.45,44.3
330.0,66.36,43.1
332.0,66.26,44.3
334.0,66.2,45.5
336.0,66.13,42.9
338.0,66.03,41.1
340.0,65.97,43.5
342.0,65.89,42.2
344.0,65.79,41.3
346.0,65.73,41.1
348.0,65.67,42.9
350.0,65.58,43.2
352.0,65.49,39.6
354.0,65.44,41.4
356.0,65.33,43.7
358.0,65.25,42.8
360.0,65.19,41.9
362.0,65.11,42.0
364.0,65.02,43.1
366.0,64.94,41.9
368.0,64.88,41.5
370.0,64.8,42.1
372.0,64.7,40.5
374.0,64.65,40.1
376.0,64.56,41.9
378.0,64.5,42.4
380.0,64.4,41.8
382.0,64.34,41.1
384.0,64.27,43.0
386.0,64.16,39.4
388.0,64.11,39.5
390.0,64.03,40.6
392.0,63.93,42.7
394.0,63.86,39.7
396.0,63.76,41.5
398.0,63.68,41.1
400.0,63.63,45.9
402.0,63.54,40.7
404.0,63.44,40.7
406.0,63.39,39.2
408.0,63.3,40.3
410.0,63.23,41.8
412.0,63.15,40.3
414.0,63.07,42.2
416.0,62.99,42.4
418.0,62.91,40.3
420.0,62.83,39.7
422.0,62.76,42.6
424.0,62.66,41.0
426.0,62.61,40.6
428.0,62.53,39.8
430.0,62.45,41.1
432.0,62.35,41.5
434.0,62.3,41.3
436.0,62.21,40.1
438.0,62.1,42.2
440.0,62.05,39.3
442.0,61.99,40.6
444.0,61.87,39.7
446.0,61.81,42.4
448.0,61.76,41.4
450.0,61.65,41.6
452.0,61.57,43.3
454.0,61.51,43.1
456.0,61.41,43.7
458.0,61.33,41.9
460.0,61.27,41.1
462.0,61.18,41.4
464.0,61.09,41.6
466.0,61.04,38.9
468.0,60.95,42.9
470.0,60.87,44.4
472.0,60.8,41.3
474.0,60.72,42.0
476.0,60.64,42.0
478.0,60.56,41.3
480.0,60.48,43.2
482.0,60.41,40.2
484.0,60.34,41.9
486.0,60.24,40.4
488.0,60.18,41.2
490.0,60.1,39.4
492.0,60.01,43.7
494.0,59.95,40.0
496.0,59.87,41.0
498.0,59.76,40.3
500.0,59.7,38.9
502.0,59.65,41.2
504.0,59.51,43.2
506.0,59.47,41.1
508.0,59.42,41.2
510.0,59.32,42.7
512.0,59.23,39.7
514.0,59.18,40.7
516.0,59.06,39.0
518.0,59.0,41.6
520.0,58.94,41.0
522.0,58.8,41.9
524.0,58.75,40.6
526.0,58.7,42.8
528.0,58.59,40.7
530.0,58.51,40.0
532.0,58.46,41.2
534.0,58.34,44.7
536.0,58.27,43.1
538.0,58.21,42.1
540.0,58.12,43.1
542.0,58.03,41.4
544.0,57.97,39.8
546.0,57.88,40.7
548.0,57.81,40.4
550.0,57.74,42.3
552.0,57.66,39.6
554.0,57.57,39.6
556.0,57.49,41.2
558.0,57.41,39.0
560.0,57.35,40.0
562.0,57.25,38.7
564.0,57.17,37.1
566.0,57.11,40.7
568.0,57.03,41.6
570.0,56.94,41.9
572.0,56.87,38.3
574.0,56.8,41.9
576.0,56.69,41.9
578.0,56.64,42.7
580.0,56.58,42.0
582.0,56.45,40.5
584.0,56.4,40.3
586.0,56.34,39.5
588.0,56.24,36.7
590.0,56.16,42.1
592.0,56.11,37.7
594.0,56.0,38.7
596.0,55.92,38.5
598.0,55.87,38.3
600.0,55.77,39.4
602.0,55.68,38.6
604.0,55.63,37.8
606.0,55.53,39.8
608.0,55.47,40.1
610.0,55.41,40.3
612.0,55.32,40.2
614.0,55.23,38.6
616.0,55.15,38.6
618.0,55.07,39.4
620.0,55.02,38.0
622.0,54.96,39.7
624.0,54.84,38.4
626.0,54.78,38.4
628.0,54.71,38.7
630.0,54.6,41.3
632.0,54.55,38.7
634.0,54.48,41.1
636.0,54.36,36.8
638.0,54.32,39.8
640.0,54.25,42.7
642.0,54.12,43.1
644.0,54.08,43.1
646.0,54.02,38.8
648.0,53.93,37.0
650.0,53.84,38.7
652.0,53.79,36.9
654.0,53.69,35.5
656.0,53.59,36.8
658.0,53.56,37.3
660.0,53.47,37.5
662.0,53.4,38.1
664.0,53.31,40.6
666.0,53.25,37.5
668.0,53.16,36.4
670.0,53.08,36.2
672.0,53.02,34.2
674.0,52.95,38.3
676.0,52.88,39.4
678.0,52.79,36.6
680.0,52.73,39.4
682.0,52.64,40.6
684.0,52.56,38.5
686.0,52.56,37.3
688.0,52.43,41.3
690.0,52.35,38.0
692.0,52.27,40.9
694.0,52.2,37.7
696.0,52.11,38.0
698.0,52.03,38.1
700.0,51.99,37.7
702.0,51.89,40.3
704.0,51.81,40.5
706.0,51.74,39.8
708.0,51.67,40.1
710.0,51.58,38.7
712.0,51.5,40.2
714.0,51.45,38.7
716.0,51.37,36.3
718.0,51.3,40.1
720.0,51.2,37.8
722.0,51.14,37.7
724.0,51.06,37.7
726.0,50.97,39.4
728.0,50.91,38.9
730.0,50.84,41.5
732.0,50.78,41.1
734.0,50.69,38.8
736.0,50.64,34.2
738.0,50.54,38.5
740.0,50.46,38.5
742.0,50.41,36.9
744.0,50.31,37.1
746.0,50.23,35.1
748.0,50.18,36.1
750.0,50.08,38.6
752.0,50.0,39.7
754.0,49.96,38.1
756.0,49.86,40.0
758.0,49.79,37.5
760.0,49.71,40.2
762.0,49.65,37.6
764.0,49.57,37.2
766.0,49.48,36.7
768.0,49.42,38.7
770.0,49.35,37.6
772.0,49.28,36.0
774.0,49.18,37.1
776.0,49.13,38.1
778.0,49.06,41.3
780.0,48.95,39.4
782.0,48.9,40.4
784.0,48.85,37.8
786.0,48.74,37.8
788.0,48.67,41.4
790.0,48.61,39.8
792.0,48.51,39.4
794.0,48.44,39.0
796.0,48.39,38.0
798.0,48.31,38.5
800.0,48.23,37.2
802.0,48.15,39.8
804.0,48.09,40.9
806.0,48.01,38.8
808.0,47.92,41.1
810.0,47.85,42.6
812.0,47.8,44.9
814.0,47.72,40.0
816.0,47.63,39.2
818.0,47.58,39.7
820.0,47.51,38.6
822.0,47.4,36.0
824.0,47.37,38.4
826.0,47.3,36.9
828.0,47.2,37.2
830.0,47.12,36.2
832.0,47.06,36.3
834.0,46.97,34.3
836.0,46.9,35.4
838.0,46.83,36.7
840.0,46.77,36.0
842.0,46.68,36.0
844.0,46.61,39.2
846.0,46.54,34.3
848.0,46.46,36.9
850.0,46.42,35.6
852.0,46.31,36.7
854.0,46.26,36.6
856.0,46.18,37.9
858.0,46.09,35.5
860.0,46.04,37.5
862.0,45.98,40.6
864.0,45.89,36.3
866.0,45.82,34.5
868.0,45.76,34.1
870.0,45.67,35.3
872.0,45.58,33.7
874.0,45.54,36.4
876.0,45.46,35.8
878.0,45.39,33.0
880.0,45.32,34.7
882.0,45.25,33.5
884.0,45.21,30.6
886.0,45.1,40.3
888.0,45.01,37.7
890.0,44.96,37.2
892.0,44.89,38.0
894.0,44.79,37.3
896.0,44.74,38.1
898.0,44.67,35.2
900.0,44.57,35.4
902.0,44.52,35.1
904.0,44.47,34.6
906.0,44.37,31.8
908.0,44.3,33.3
910.0,44.24,36.4
912.0,44.15,34.7
914.0,44.09,34.7
916.0,44.0,34.6
918.0,43.94,34.2
920.0,43.87,34.4
922.0,43.83,35.2
924.0,43.73,34.6
926.0,43.67,34.5
928.0,43.59,34.2
930.0,43.5,36.8
932.0,43.45,36.1
934.0,43.39,37.9
936.0,43.28,34.9
938.0,43.23,35.0
940.0,43.17,33.5
942.0,43.07,33.5
944.0,43.01,33.5
946.0,42.95,34.7
948.0,42.88,35.2
950.0,42.8,33.0
952.0,42.72,34.7
954.0,42.67,35.3
956.0,42.59,33.0
958.0,42.51,33.7
960.0,42.44,32.8
962.0,42.39,33.0
964.0,42.3,35.3
966.0,42.21,34.7
968.0,42.16,36.2
970.0,42.09,38.8
972.0,41.99,37.3
974.0,41.94,34.7
976.0,41.89,34.4
978.0,41.8,34.1
980.0,41.7,35.9
982.0,41.64,34.5
984.0,41.58,35.3
986.0,41.51,33.8
988.0,41.41,34.2
990.0,41.37,35.1
992.0,41.32,36.8
994.0,41.24,33.4
996.0,41.14,38.3
998.0,41.1,32.5
1000.0,41.01,35.5
1002.0,40.92,36.8
1004.0,40.86,37.1
1006.0,40.8,36.1
1008.0,40.75,37.3
1010.0,40.64,36.4
1012.0,40.57,35.8
1014.0,40.48,36.9
1016.0,40.43,35.9
1018.0,40.34,34.3
1020.0,40.28,35.9
1022.0,40.2,34.9
1024.0,40.1,36.0
1026.0,40.05,32.6
1028.0,39.99,37.3
1030.0,39.87,36.8
1032.0,39.83,34.2
1034.0,39.77,36.0
1036.0,39.67,38.5
1038.0,39.61,34.6
1040.0,39.54,36.8
1042.0,39.47,37.5
1044.0,39.35,37.8
1046.0,39.32,37.1
1048.0,39.25,37.7
1050.0,39.17,36.0
1052.0,39.08,37.7
1054.0,39.01,37.0
1056.0,38.93,36.8
1058.0,38.87,35.1
1060.0,38.78,36.0
1062.0,38.72,34.9
1064.0,38.64,36.9
1066.0,38.54,38.0
1068.0,38.5,38.4
1070.0,38.41,33.8
1072.0,38.31,36.9
1074.0,38.26,37.1
1076.0,38.19,36.7
1078.0,38.07,34.6
1080.0,38.02,34.9
1082.0,37.95,38.4
1084.0,37.87,37.9
1086.0,37.77,37.9
1088.0,37.72,42.2
1090.0,37.62,37.5
1092.0,37.54,34.9
1094.0,37.49,37.9
1096.0,37.4,39.6
1098.0,37.3,36.3
1100.0,37.24,39.3
1102.0,37.15,40.3
1104.0,37.05,38.8
1106.0,37.0,38.8
1108.0,36.91,40.0
1110.0,36.83,37.9
1112.0,36.74,38.6
1114.0,36.67,37.5
1116.0,36.6,39.6
1118.0,36.49,42.1
1120.0,36.42,41.5
1122.0,36.34,42.4
1124.0,36.24,40.2
1126.0,36.2,39.5
1128.0,36.1,41.8
1130.0,36.04,41.2
1132.0,35.92,41.8
1134.0,35.86,42.1
1136.0,35.77,43.8
1138.0,35.67,40.2
1140.0,35.6,44.9
1142.0,35.51,40.5
1144.0,35.41,41.8
1146.0,35.36,44.3
1148.0,35.26,41.2
1150.0,35.16,43.6
1152.0,35.1,43.1
1154.0,35.02,46.2
1156.0,34.9,44.3
1158.0,34.83,41.6
1160.0,34.75,43.2
1162.0,34.63,44.7
1164.0,34.58,43.3
1166.0,34.48,47.3
1168.0,34.37,43.3
1170.0,34.31,44.9
1172.0,34.21,44.0
1174.0,34.11,46.1
1176.0,34.04,45.0
1178.0,33.95,43.5
1180.0,33.85,45.4
1182.0,33.77,45.8
1184.0,33.68,43.8
1186.0,33.57,45.5
1188.0,33.5,48.4
1190.0,33.41,44.6
1192.0,33.29,43.9
1194.0,33.23,45.3
1196.0,33.12,46.7
1198.0,33.04,48.7
1200.0,32.94,51.4
1202.0,32.85,49.2
1204.0,32.75,47.9
1206.0,32.66,46.3
1208.0,32.57,49.1
1210.0,32.47,44.8
1212.0,32.36,50.1
1214.0,32.3,48.3
1216.0,32.19,49.8
1218.0,32.11,50.9
1220.0,32.01,48.7
1222.0,31.92,48.7
1224.0,31.81,49.5
1226.0,31.72,49.1
1228.0,31.63,51.4
1230.0,31.53,52.6
1232.0,31.46,49.0
1234.0,31.33,52.7
1236.0,31.23,52.4
1238.0,31.16,54.4
1240.0,31.03,54.3
1242.0,30.93,51.3
1244.0,30.86,55.0
1246.0,30.71,53.6
1248.0,30.65,52.2
1250.0,30.55,52.4
1252.0,30.44,52.4
1254.0,30.35,52.3
1256.0,30.24,52.7
1258.0,30.13,54.4
1260.0,30.05,53.6
1262.0,29.93,53.9
1264.0,29.84,53.8
1266.0,29.74,51.2
1268.0,29.64,54.2
1270.0,29.54,54.7
1272.0,29.44,54.2
1274.0,29.33,53.5
1276.0,29.23,54.2
1278.0,29.11,56.5
1280.0,29.05,55.3
1282.0,28.92,58.5
1284.0,28.82,55.2
1286.0,28.74,59.1
1288.0,28.61,58.2
1290.0,28.51,56.8
1292.0,28.43,54.9
1294.0,28.29,53.1
1296.0,28.2,55.0
1298.0,28.11,56.0
1300.0,27.98,57.6
1302.0,27.88,57.3
1304.0,27.75,59.5
1306.0,27.66,57.9
1308.0,27.54,57.5
1310.0,27.46,58.3
1312.0,27.33,59.1
1314.0,27.22,57.7
1316.0,27.15,58.9
1318.0,27.01,57.8
1320.0,26.9,58.6
1322.0,26.83,57.6
1324.0,26.68,59.8
1326.0,26.62,60.2
1328.0,26.5,60.1
1330.0,26.36,59.3
1332.0,26.28,60.3
1334.0,26.17,58.9
1336.0,26.04,58.6
1338.0,25.91,59.0
1340.0,25.84,56.9
1342.0,25.7,58.9
1344.0,25.62,60.7
1346.0,25.53,62.0
1348.0,25.39,62.1
1350.0,25.28,60.7
1352.0,25.2,59.2
1354.0,25.06,58.6
1356.0,24.96,60.4
1358.0,24.87,64.3
1360.0,24.75,62.8
1362.0,24.65,59.4
1364.0,24.53,60.3
1366.0,24.42,59.9
1368.0,24.33,61.2
1370.0,24.23,60.0
1372.0,24.1,61.7
1374.0,24.02,56.4
1376.0,23.91,53.3
1378.0,23.77,56.9
1380.0,23.71,54.3
1382.0,23.61,59.5
1384.0,23.47,59.0
1386.0,23.39,60.7
1388.0,23.3,55.5
1390.0,23.17,56.4
1392.0,23.1,57.6
1394.0,22.97,66.8
1396.0,22.89,60.7
1398.0,22.77,62.4
1400.0,22.69,60.3
1402.0,22.59,58.4
1404.0,22.49,56.0
1406.0,22.39,55.6
1408.0,22.3,57.7
1410.0,22.18,55.6
1412.0,22.12,56.7
1414.0,21.99,56.2
1416.0,21.89,54.2
1418.0,21.83,59.8
1420.0,21.72,58.6
1422.0,21.65,54.5
1424.0,21.57,54.5
1426.0,21.45,55.2
1428.0,21.36,52.7
1430.0,21.3,56.8
1432.0,21.19,56.4
1434.0,21.09,50.0
1436.0,21.02,53.2
1438.0,20.93,50.8
1440.0,20.85,46.7
1442.0,20.79,47.9
1444.0,20.71,49.3
1446.0,20.61,46.6
1448.0,20.56,47.1
1450.0,20.49,44.6
1452.0,20.41,45.6
1454.0,20.32,43.9
1456.0,20.26,41.6
1458.0,20.19,43.8
1460.0,20.13,43.0
1462.0,20.03,44.1
1464.0,19.98,42.9
1466.0,19.92,40.0
1468.0,19.82,40.4
1470.0,19.78,40.2
1472.0,19.72,42.7
1474.0,19.65,40.9
1476.0,19.58,39.5
1478.0,19.54,39.5
1480.0,19.49,37.3
1482.0,19.4,37.1
1484.0,19.34,34.0
1486.0,19.29,37.1
1488.0,19.22,32.4
1490.0,19.17,34.0
1492.0,19.09,31.8
1494.0,19.05,33.6
1496.0,19.01,30.9
1498.0,18.95,29.2
1500.0,18.89,31.0
1502.0,18.83,32.9
1504.0,18.77,31.2
1506.0,18.73,30.1
1508.0,18.68,27.6
1510.0,18.63,29.7
1512.0,18.58,31.5
1514.0,18.54,30.9
1516.0,18.47,30.3
1518.0,18.43,29.3
1520.0,18.38,27.6
1522.0,18.31,28.0
1524.0,18.29,30.1
1526.0,18.25,26.7
1528.0,18.19,25.7
1530.0,18.14,27.0
1532.0,18.09,26.5
1534.0,18.05,26.7
1536.0,18.02,26.0
1538.0,17.96,26.6
1540.0,17.91,25.7
1542.0,17.86,25.2
1544.0,17.82,26.0
1546.0,17.79,23.2
1548.0,17.75,27.4
1550.0,17.69,25.6
1552.0,17.65,25.5
1554.0,17.63,24.6
1556.0,17.56,24.2
1558.0,17.54,21.2
1560.0,17.5,21.3
1562.0,17.46,22.0
1564.0,17.41,21.6
1566.0,17.39,18.2
1568.0,17.33,22.7
1570.0,17.29,23.4
1572.0,17.26,19.9
1574.0,17.22,20.1
1576.0,17.19,22.4
1578.0,17.14,16.7
1580.0,17.11,20.3
1582.0,17.07,14.1
1584.0,17.04,18.4
1586.0,16.98,19.6
1588.0,16.98,19.9
1590.0,16.92,17.4
1592.0,16.89,16.1
1594.0,16.87,19.9
1596.0,16.81,18.7
1598.0,16.79,16.4
1600.0,16.75,18.8
1602.0,16.72,18.2
1604.0,16.68,16.7
1606.0,16.65,17.4
1608.0,16.62,17.5
1610.0,16.59,17.1
1612.0,16.54,16.4
1614.0,16.51,19.9
1616.0,16.48,17.5
1618.0,16.45,17.9
1620.0,16.4,17.0
1622.0,16.39,19.0
1624.0,16.36,19.8
1626.0,16.32,18.8
1628.0,16.27,19.0
1630.0,16.25,15.8
1632.0,16.22,17.4
1634.0,16.18,18.9
1636.0,16.16,18.2
1638.0,16.13,15.6
1640.0,16.1,15.5
1642.0,16.06,16.1
1644.0,16.02,17.2
1646.0,16.01,18.2
1648.0,15.98,15.7
1650.0,15.96,17.8
1652.0,15.9,17.4
1654.0,15.89,17.3
1656.0,15.87,15.1
1658.0,15.82,15.2
1660.0,15.8,16.6
1662.0,15.78,18.0
1664.0,15.73,15.2
1666.0,15.69,17.0
1668.0,15.69,11.1
1670.0,15.64,16.2
1672.0,15.62,16.7
1674.0,15.59,14.1
1676.0,15.58,17.8
1678.0,15.54,16.7
1680.0,15.51,17.4
1682.0,15.48,17.7
1684.0,15.45,17.2
1686.0,15.42,16.3
1688.0,15.4,14.5
1690.0,15.38,15.8
1692.0,15.35,15.6
1694.0,15.32,15.8
1696.0,15.28,13.2
1698.0,15.27,16.6
1700.0,15.24,12.9
1702.0,15.22,14.5
1704.0,15.18,17.1
1706.0,15.17,15.1
1708.0,15.14,16.1
1710.0,15.1,14.8
1712.0,15.07,12.3
1714.0,15.06,11.4
1716.0,15.04,9.4
1718.0,14.99,10.5
1720.0,14.98,12.9
1722.0,14.97,9.4
1724.0,14.92,13.6
1726.0,14.9,11.7
1728.0,14.88,9.6
1730.0,14.86,8.3
1732.0,14.83,7.6
1734.0,14.8,8.7
1736.0,14.78,12.0
1738.0,14.76,8.4
1740.0,14.73,8.6
1742.0,14.71,10.0
1744.0,14.69,9.4
1746.0,14.67,7.5
1748.0,14.62,6.8
1750.0,14.61,7.7
1752.0,14.59,7.7
1754.0,14.55,8.3
1756.0,14.54,10.0
1758.0,14.53,9.4
1760.0,14.49,10.0
1762.0,14.47,7.7
1764.0,14.44,8.6
1766.0,14.42,7.7
1768.0,14.4,11.0
1770.0,14.36,7.0
1772.0,14.36,8.6
1774.0,14.33,11.0
1776.0,14.32,8.6
1778.0,14.26,6.7
1780.0,14.26,7.1
1782.0,14.23,3.7
1784.0,14.2,4.9
1786.0,14.18,7.9
1788.0,14.16,8.7
1790.0,14.15,7.2
1792.0,14.14,7.1
1794.0,14.11,10.9
1796.0,14.07,7.8
1798.0,14.05,9.6
1800.0,14.04,6.2
1802.0,14.0,6.7
1804.0,14.0,7.2
1806.0,13.97,5.9
1808.0,13.93,7.5
1810.0,13.92,5.7
1812.0,13.89,7.4
1814.0,13.88,7.9
1816.0,13.86,7.9
1818.0,13.82,7.5
1820.0,13.81,6.1
1822.0,13.79,9.3
1824.0,13.78,4.8
1826.0,13.74,6.0
1828.0,13.72,6.3
1830.0,13.71,6.2
1832.0,13.69,6.5
1834.0,13.64,8.3
1836.0,13.64,8.1
1838.0,13.61,8.6
1840.0,13.61,4.1
1842.0,13.6,4.9
1844.0,13.55,6.3
1846.0,13.54,9.7
1848.0,13.52,6.6
1850.0,13.5,10.1
1852.0,13.47,6.6
1854.0,13.46,3.8
1856.0,13.43,5.2
1858.0,13.41,3.8
1860.0,13.4,6.7
1862.0,13.36,6.5
1864.0,13.35,8.3
1866.0,13.34,9.5
1868.0,13.32,4.9
1870.0,13.29,6.3
1872.0,13.27,6.7
1874.0,13.25,6.0
1876.0,13.24,5.7
1878.0,13.23,3.6
1880.0,13.19,8.0
1882.0,13.17,6.0
1884.0,13.16,6.7
1886.0,13.14,3.6
1888.0,13.11,6.1
1890.0,13.08,5.4
1892.0,13.07,6.2
1894.0,13.06,6.8
1896.0,13.05,3.4
1898.0,13.0,4.5
1900.0,12.99,3.5
1902.0,12.98,5.3
1904.0,12.97,6.1
1906.0,12.92,3.5
1908.0,12.92,6.3
1910.0,12.9,6.0
1912.0,12.89,3.2
1914.0,12.87,5.9
1916.0,12.83,8.8
1918.0,12.83,2.5
1920.0,12.81,6.8
1922.0,12.79,5.4
1924.0,12.77,5.8
1926.0,12.74,2.7
1928.0,12.73,2.3
1930.0,12.72,3.6
1932.0,12.71,4.0
1934.0,12.67,0.2
1936.0,12.65,6.8
1938.0,12.64,4.2
1940.0,12.62,6.2
1942.0,12.6,5.1
1944.0,12.58,3.6
1946.0,12.56,6.5
1948.0,12.55,1.8
1950.0,12.54,5.2
1952.0,12.51,2.4
1954.0,12.48,5.2
1956.0,12.47,5.0
1958.0,12.45,1.0
1960.0,12.43,5.0
1962.0,12.42,1.6
1964.0,12.39,2.7
1966.0,12.38,3.7
1968.0,12.36,4.0
1970.0,12.35,4.6
1972.0,12.34,4.5
1974.0,12.3,3.1
1976.0,12.29,2.6
1978.0,12.28,3.4
1980.0,12.26,3.5
1982.0,12.24,4.5
1984.0,12.2,2.7
1986.0,12.2,5.8
1988.0,12.18,2.0
1990.0,12.17,5.9
1992.0,12.14,2.7
1994.0,12.12,5.0
1996.0,12.11,5.0
1998.0,12.1,2.8
2000.0,12.08,2.5
2002.0,12.07,3.7
2004.0,12.06,4.6
2006.0,12.01,5.5
2008.0,12.01,2.0
2010.0,11.99,4.9
2012.0,11.98,1.8
2014.0,11.96,5.1
2016.0,11.93,1.2
2018.0,11.92,4.5
2020.0,11.91,5.2
2022.0,11.9,2.7
2024.0,11.87,4.6
2026.0,11.84,2.8
2028.0,11.84,2.6
2030.0,11.83,0.0
2032.0,11.81,2.3
2034.0,11.78,5.2
2036.0,11.76,2.5
2038.0,11.74,3.3
2040.0,11.73,2.5
2042.0,11.72,5.9
2044.0,11.71,4.2
2046.0,11.68,5.0
2048.0,11.65,3.2
2050.0,11.64,4.9
2052.0,11.63,1.6
2054.0,11.62,2.5
2056.0,11.61,0.0
2058.0,11.58,3.4
2060.0,11.56,3.2
2062.0,11.54,0.6
2064.0,11.54,0.0
2066.0,11.52,0.5
2068.0,11.51,0.8
2070.0,11.47,3.6
2072.0,11.46,1.5
2074.0,11.45,2.0
2076.0,11.43,4.1
2078.0,11.42,5.1
2080.0,11.4,0.5
2082.0,11.37,3.5
2084.0,11.36,0.9
2086.0,11.35,1.4
2088.0,11.31,2.6
2090.0,11.3,1.1
2092.0,11.29,4.5
2094.0,11.28,1.9
2096.0,11.27,0.9
2098.0,11.25,0.5
2100.0,11.24,2.9
2102.0,11.22,0.5
2104.0,11.2,1.7
2106.0,11.19,0.8
2108.0,11.17,2.7
2110.0,11.14,1.5
2112.0,11.13,0.7
2114.0,11.12,1.4
2116.0,11.11,1.4
2118.0,11.09,0.8
2120.0,11.07,2.2
2122.0,11.06,4.3
2124.0,11.04,2.2
2126.0,11.03,3.2
2128.0,11.01,5.1
2130.0,10.99,2.2
2132.0,10.97,1.9
2134.0,10.95,1.0
2136.0,10.94,3.6
2138.0,10.92,3.6
2140.0,10.91,2.2
2142.0,10.9,1.8
2144.0,10.89,1.5
2146.0,10.86,2.4
2148.0,10.85,0.0
2150.0,10.83,2.8
2152.0,10.82,0.2
2154.0,10.8,1.7
2156.0,10.79,0.1
2158.0,10.77,2.0
2160.0,10.75,3.6
2162.0,10.74,0.0
2164.0,10.72,0.0
2166.0,10.72,2.2
2168.0,10.7,0.0
2170.0,10.67,0.8
2172.0,10.66,0.2
2174.0,10.65,1.7
2176.0,10.64,0.0
2178.0,10.63,0.0
2180.0,10.6,0.7
2182.0,10.58,1.9
2184.0,10.57,0.0
2186.0,10.57,1.8
2188.0,10.55,0.0
2190.0,10.52,0.0
2192.0,10.52,0.6
2194.0,10.49,0.0
2196.0,10.48,1.2
2198.0,10.47,0.0
2200.0,10.46,1.4
2202.0,10.44,0.0
2204.0,10.42,2.2
2206.0,10.41,0.6
2208.0,10.4,0.0
2210.0,10.39,0.9
2212.0,10.38,0.0
2214.0,10.35,0.0
2216.0,10.33,0.5
2218.0,10.33,1.1
2220.0,10.3,2.9
2222.0,10.29,0.0
2224.0,10.29,2.9
2226.0,10.28,0.0
2228.0,10.24,0.0
2230.0,10.21,0.8
2232.0,10.21,0.0
2234.0,10.21,1.7
2236.0,10.2,0.0
2238.0,10.18,0.0
2240.0,10.16,2.2
2242.0,10.16,0.0
2244.0,10.13,0.0
2246.0,10.12,0.5
2248.0,10.11,0.0
2250.0,10.09,2.4
2252.0,10.07,2.0
2254.0,10.05,0.0
2256.0,10.04,0.0
2258.0,10.03,0.0
2260.0,10.02,1.9
2262.0,10.0,0.0
2264.0,9.99,0.0
2266.0,9.97,0.2
2268.0,9.96,0.0
2270.0,9.94,1.1
2272.0,9.94,2.9
2274.0,9.92,0.0
2276.0,9.92,1.1
2278.0,9.88,0.0
2280.0,9.88,0.0
2282.0,9.87,0.0
2284.0,9.86,0.0
2286.0,9.85,0.0
2288.0,9.82,1.2
2290.0,9.8,3.3
2292.0,9.79,0.0
2294.0,9.78,1.0
2296.0,9.77,0.5
2298.0,9.76,1.1
2300.0,9.73,1.1
2302.0,9.7,0.6
2304.0,9.7,0.5
2306.0,9.7,0.0
2308.0,9.69,3.3
2310.0,9.67,0.0
2312.0,9.64,0.0
2314.0,9.64,0.0
2316.0,9.62,2.4
2318.0,9.62,0.0
2320.0,9.6,0.2
2322.0,9.58,2.4
2324.0,9.57,0.0
2326.0,9.55,0.2
2328.0,9.54,0.0
2330.0,9.53,2.0
2332.0,9.51,0.0
2334.0,9.49,1.9
2336.0,9.49,1.1
2338.0,9.48,0.0
2340.0,9.47,0.0
2342.0,9.45,1.5
2344.0,9.42,0.0
2346.0,9.42,0.0
2348.0,9.41,0.0
2350.0,9.41,0.0
2352.0,9.39,0.0
2354.0,9.37,0.0
2356.0,9.37,0.0
2358.0,9.33,0.0
2360.0,9.32,1.0
2362.0,9.31,0.0
2364.0,9.3,0.0
2366.0,9.29,0.0
2368.0,9.28,0.0
2370.0,9.25,0.0
2372.0,9.25,0.0
2374.0,9.23,0.0
2376.0,9.22,0.0
2378.0,9.21,0.0
2380.0,9.2,0.0
2382.0,9.16,0.0
2384.0,9.16,0.0
2386.0,9.15,0.0
2388.0,9.14,0.0
2390.0,9.13,0.0
2392.0,9.11,0.0
2394.0,9.09,0.0
2396.0,9.08,0.0
2398.0,9.07,0.0
2400.0,9.06,0.0
2402.0,9.05,0.0
2404.0,9.04,0.0
2406.0,9.02,0.0
2408.0,9.0,0.0
2410.0,9.0,0.0
2412.0,8.98,0.0
2414.0,8.98,0.0
2416.0,8.97,0.0
2418.0,8.95,0.0
2420.0,8.93,0.0
2422.0,8.92,0.0
2424.0,8.9,0.0
2426.0,8.89,0.0
2428.0,8.88,0.7
2430.0,8.87,0.0
2432.0,8.85,1.2
2434.0,8.83,0.0
2436.0,8.83,0.0
2438.0,8.82,0.0
2440.0,8.78,0.0
2442.0,8.78,0.0
2444.0,8.77,0.0
2446.0,8.76,0.0
2448.0,8.75,0.0
2450.0,8.74,0.0
2452.0,8.73,0.0
2454.0,8.7,0.0
2456.0,8.69,0.0
2458.0,8.69,0.0
2460.0,8.68,0.0
2462.0,8.67,0.0
2464.0,8.66,0.0
2466.0,8.63,0.0
2468.0,8.62,1.8
2470.0,8.62,0.0
2472.0,8.6,0.0
2474.0,8.59,0.0
2476.0,8.58,0.0
2478.0,8.56,1.8
2480.0,8.54,0.0
2482.0,8.53,0.0
2484.0,8.52,0.0
2486.0,8.51,0.0
2488.0,8.5,0.0
2490.0,8.48,0.0
2492.0,8.46,0.0
2494.0,8.45,0.0
2496.0,8.44,0.0
2498.0,8.43,0.0
2500.0,8.43,0.0
2502.0,8.41,0.0
2504.0,8.39,0.0
2506.0,8.38,0.0
2508.0,8.37,0.2
2510.0,8.36,0.0
2512.0,8.35,0.0
2514.0,8.34,0.0
2516.0,8.33,0.0
2518.0,8.31,0.0
2520.0,8.28,0.0
2522.0,8.28,0.0
2524.0,8.28,0.0
2526.0,8.27,0.0
2528.0,8.25,0.0
2530.0,8.24,0.0
2532.0,8.21,0.0
2534.0,8.2,0.0
2536.0,8.2,0.0
2538.0,8.19,0.0
2540.0,8.18,0.0
2542.0,8.17,0.0
2544.0,8.15,0.0
2546.0,8.12,0.0
2548.0,8.12,0.0
2550.0,8.12,0.2
2552.0,8.1,0.0
2554.0,8.07,0.0
2556.0,8.07,0.0
2558.0,8.07,0.0
2560.0,8.05,0.0
2562.0,8.04,0.0
2564.0,8.03,0.0
2566.0,8.02,0.0
2568.0,7.99,0.0
2570.0,7.99,0.0
2572.0,7.98,0.0
2574.0,7.97,0.0
2576.0,7.96,0.0
2578.0,7.96,0.0
2580.0,7.92,0.0
2582.0,7.91,0.0
2584.0,7.9,0.0
2586.0,7.89,0.0
2588.0,7.89,0.0
2590.0,7.88,0.0
2592.0,7.86,0.0
2594.0,7.85,0.0
2596.0,7.83,0.0
2598.0,7.82,0.0
2600.0,7.82,0.0
2602.0,7.81,0.0
2604.0,7.8,0.0
2606.0,7.77,0.0
2608.0,7.75,0.0
2610.0,7.74,0.0
2612.0,7.74,0.0
2614.0,7.72,0.0
2616.0,7.72,0.0
2618.0,7.71,0.0
2620.0,7.68,0.0
2622.0,7.72,0.0
2624.0,7.66,0.0
2626.0,7.66,0.0
2628.0,7.64,0.0
2630.0,7.63,0.0
2632.0,7.62,0.0
2634.0,7.6,0.0
2636.0,7.58,0.0
2638.0,7.57,0.0
2640.0,7.56,0.0
2642.0,7.56,0.0
2644.0,7.55,0.0
2646.0,7.52,0.0
2648.0,7.52,0.0
2650.0,7.5,0.0
2652.0,7.49,0.0
2654.0,7.48,0.0
2656.0,7.48,0.0
2658.0,7.46,0.0
2660.0,7.44,0.0
2662.0,7.43,0.0
2664.0,7.41,0.0
2666.0,7.41,0.0
2668.0,7.4,0.0
2670.0,7.39,0.0
2672.0,7.39,0.0
2674.0,7.36,0.0
2676.0,7.35,0.0
2678.0,7.35,1.8
2680.0,7.33,0.0
2682.0,7.32,0.0
2684.0,7.3,0.0
2686.0,7.29,0.0
2688.0,7.29,0.0
2690.0,7.28,0.0
2692.0,7.26,0.0
2694.0,7.25,0.0
2696.0,7.23,0.0
2698.0,7.22,0.0
2700.0,7.21,0.0