File: Wood/Calibration_Data/TUBS/TUBS_TGA_N2_ISO320_R3.csv
Time (s),Temperature (K),Mass (mg)
0.0,305.0,0.96
10.0,304.9,0.958
24.0,304.9,0.956
42.0,304.8,0.954
62.0,304.8,0.952
85.0,304.7,0.95
122.0,304.6,0.948
173.0,304.6,0.946
244.0,304.5,0.944
378.0,304.4,0.942
496.0,304.4,0.942
672.0,304.4,0.94
716.0,304.4,0.94
736.0,304.4,0.94
956.0,304.4,0.94
1018.0,304.4,0.94
1040.0,304.4,0.94
1201.0,304.4,0.938
1211.0,310.3,0.938
1216.0,317.1,0.94
1220.0,324.2,0.942
1224.0,332.7,0.944
1236.0,364.7,0.942
1242.0,380.5,0.94
1246.0,390.7,0.938
1250.0,400.5,0.936
1255.0,412.1,0.934
1271.0,444.8,0.932
1289.0,474.9,0.93
1298.0,487.7,0.928
1305.0,496.8,0.926
1311.0,503.9,0.924
1316.0,509.6,0.922
1320.0,513.8,0.92
1325.0,518.8,0.918
1329.0,522.6,0.916
1333.0,526.2,0.914
1336.0,528.8,0.912
1340.0,532.1,0.91
1344.0,535.2,0.908
1347.0,537.5,0.906
1350.0,539.7,0.904
1353.0,541.8,0.902
1356.0,543.8,0.9
1358.0,545.1,0.898
1361.0,547.0,0.896
1363.0,548.2,0.894
1366.0,550.0,0.892
1368.0,551.1,0.89
1370.0,552.3,0.888
1373.0,553.9,0.886
1375.0,555.0,0.884
1377.0,556.0,0.882
1379.0,557.0,0.88
1382.0,558.5,0.878
1384.0,559.4,0.876
1386.0,560.3,0.874
1388.0,561.2,0.872
1391.0,562.5,0.87
1393.0,563.3,0.868
1395.0,564.2,0.866
1397.0,565.0,0.864
1400.0,566.1,0.862
1402.0,566.9,0.86
1404.0,567.6,0.858
1406.0,568.3,0.856
1408.0,569.0,0.854
1410.0,569.7,0.852
1412.0,570.3,0.85
1415.0,571.3,0.848
1417.0,571.9,0.846
1419.0,572.5,0.844
1421.0,573.1,0.842
1423.0,573.6,0.84
1426.0,574.4,0.838
1428.0,575.0,0.836
1430.0,575.5,0.834
1432.0,576.0,0.832
1434.0,576.5,0.83
1436.0,576.9,0.828
1438.0,577.4,0.826
1441.0,578.1,0.824
1443.0,578.5,0.822
1445.0,578.9,0.82
1447.0,579.3,0.818
1449.0,579.7,0.816
1451.0,580.1,0.814
1454.0,580.6,0.812
1456.0,581.0,0.81
1458.0,581.4,0.808
1460.0,581.7,0.806
1462.0,582.0,0.804
1464.0,582.3,0.802
1467.0,582.8,0.8
1469.0,583.1,0.798
1471.0,583.4,0.796
1473.0,583.7,0.794
1476.0,584.1,0.792
1478.0,584.4,0.79
1480.0,584.6,0.788
1482.0,584.9,0.786
1485.0,585.2,0.784
1487.0,585.5,0.782
1489.0,585.7,0.78
1492.0,586.0,0.778
1494.0,586.2,0.776
1496.0,586.4,0.774
1498.0,586.6,0.772
1501.0,586.9,0.77
1503.0,587.1,0.768
1505.0,587.3,0.766
1508.0,587.5,0.764
1510.0,587.7,0.762
1513.0,588.0,0.76
1515.0,588.1,0.758
1518.0,588.4,0.756
1520.0,588.5,0.754
1523.0,588.7,0.752
1525.0,588.8,0.75
1528.0,589.1,0.748
1530.0,589.2,0.746
1533.0,589.4,0.744
1535.0,589.5,0.742
1538.0,589.7,0.74
1541.0,589.8,0.738
1543.0,589.9,0.736
1546.0,590.1,0.734
1549.0,590.2,0.732
1551.0,590.3,0.73
1554.0,590.5,0.728
1557.0,590.6,0.726
1560.0,590.7,0.724
1563.0,590.9,0.722
1566.0,591.0,0.72
1569.0,591.1,0.718
1572.0,591.2,0.716
1575.0,591.3,0.714
1578.0,591.4,0.712
1581.0,591.5,0.71
1584.0,591.6,0.708
1587.0,591.7,0.706
1590.0,591.7,0.704
1593.0,591.8,0.702
1597.0,591.9,0.7
1600.0,592.0,0.698
1618.0,592.4,0.688
1636.0,592.7,0.678
1654.0,592.9,0.669
1672.0,593.1,0.661
1690.0,593.2,0.653
1708.0,593.4,0.645
1726.0,593.5,0.638
1744.0,593.5,0.631
1762.0,593.6,0.625
1780.0,593.6,0.619
1798.0,593.6,0.613
1816.0,593.7,0.607
1834.0,593.7,0.602
1852.0,593.7,0.597
1870.0,593.7,0.592
1888.0,593.7,0.587
1906.0,593.7,0.582
1924.0,593.7,0.578
1942.0,593.8,0.574
1960.0,593.8,0.569
1978.0,593.8,0.565
1996.0,593.8,0.561
2014.0,593.8,0.557
2032.0,593.8,0.554
2050.0,593.8,0.55
2068.0,593.8,0.547
2086.0,593.8,0.543
2104.0,593.8,0.54
2122.0,593.8,0.536
2140.0,593.8,0.533
2158.0,593.8,0.53
2176.0,593.8,0.527
2194.0,593.8,0.523
2212.0,593.8,0.52
2230.0,593.8,0.517
2248.0,593.8,0.515
2266.0,593.8,0.511
2284.0,593.8,0.509
2302.0,593.8,0.506
2320.0,593.8,0.503
2338.0,593.8,0.5
2356.0,593.8,0.498
2374.0,593.8,0.495
2392.0,593.8,0.493
2410.0,593.8,0.49
2428.0,593.8,0.488
2446.0,593.8,0.485
2464.0,593.8,0.483
2482.0,593.8,0.48
2500.0,593.8,0.478
2518.0,593.8,0.475
2536.0,593.8,0.473
2554.0,593.8,0.471
2572.0,593.8,0.468
2590.0,593.8,0.466
2608.0,593.8,0.464
2626.0,593.8,0.462
2644.0,593.8,0.46
2662.0,593.8,0.457
2680.0,593.8,0.455
2698.0,593.8,0.453
2716.0,593.8,0.451
2734.0,593.8,0.449
2752.0,593.8,0.447
2770.0,593.8,0.445
2788.0,593.8,0.443
2806.0,593.8,0.441
2824.0,593.8,0.439
2842.0,593.8,0.437
2860.0,593.8,0.435
2878.0,593.8,0.433
2896.0,593.8,0.431
2914.0,593.8,0.429
2932.0,593.8,0.427
2950.0,593.8,0.425
2968.0,593.8,0.423
2986.0,593.8,0.421
3004.0,593.8,0.42
3022.0,593.8,0.418
3040.0,593.8,0.416
3058.0,593.8,0.414
3076.0,593.8,0.412
3094.0,593.8,0.411
3112.0,593.8,0.409
3130.0,593.8,0.407
3148.0,593.8,0.405
3166.0,593.8,0.404
3184.0,593.8,0.402
3202.0,593.8,0.4
3220.0,593.8,0.398
3238.0,593.8,0.397
3256.0,593.8,0.396
3274.0,593.8,0.394
3292.0,593.8,0.392
3310.0,593.8,0.39
3328.0,593.8,0.389
3346.0,593.8,0.387
3364.0,593.8,0.386
3382.0,593.8,0.384
3400.0,593.8,0.383
3418.0,593.8,0.381
3436.0,593.8,0.38
3454.0,593.8,0.378
3472.0,593.8,0.377
3490.0,593.8,0.376
3508.0,593.8,0.374
3526.0,593.8,0.372
3544.0,593.8,0.371
3562.0,593.8,0.37
3580.0,593.8,0.368
3598.0,593.8,0.367
3616.0,593.8,0.366
3634.0,593.8,0.364
3652.0,593.8,0.363
3670.0,593.8,0.361
3688.0,593.8,0.36
3706.0,593.8,0.359
3724.0,593.8,0.358
3742.0,593.8,0.356
3760.0,593.8,0.355
3778.0,593.8,0.354
3796.0,593.8,0.353
3814.0,593.8,0.351
3832.0,593.8,0.35
3850.0,593.8,0.349
3868.0,593.8,0.348
3886.0,593.8,0.346
3904.0,593.8,0.345
3922.0,593.8,0.344
3940.0,593.8,0.343
3958.0,593.8,0.342
3976.0,593.8,0.341
3994.0,593.8,0.34
4012.0,593.8,0.339
4030.0,593.8,0.337
4048.0,593.8,0.337
4066.0,593.8,0.335
4084.0,593.8,0.334
4102.0,593.8,0.333
4120.0,593.8,0.332
4138.0,593.8,0.331
4156.0,593.8,0.33
4174.0,593.8,0.329
4192.0,593.8,0.328
4210.0,593.8,0.327
4228.0,593.8,0.326
4246.0,593.8,0.325
4264.0,593.8,0.324
4282.0,593.8,0.323
4300.0,593.8,0.323
4318.0,593.8,0.321
4336.0,593.8,0.32
4354.0,593.8,0.32
4372.0,593.8,0.319
4390.0,593.8,0.318
4408.0,593.8,0.317
4426.0,593.8,0.316
4444.0,593.8,0.315
4462.0,593.8,0.315
4480.0,593.8,0.314
4498.0,593.8,0.313
4516.0,593.8,0.312
4534.0,593.8,0.311
4552.0,593.8,0.31
4570.0,593.8,0.309
4588.0,593.8,0.309
4606.0,593.8,0.308
4624.0,593.8,0.307
4642.0,593.8,0.307
4660.0,593.8,0.306
4678.0,593.8,0.305
4696.0,593.8,0.304
4714.0,593.8,0.304
4732.0,593.8,0.303
4750.0,593.8,0.302
4768.0,593.8,0.302
4786.0,593.8,0.301
4804.0,593.8,0.3
4822.0,593.8,0.3
4840.0,593.8,0.299
4858.0,593.8,0.298
4876.0,593.8,0.298
4894.0,593.8,0.297
4912.0,593.8,0.297
4930.0,593.8,0.296
4948.0,593.8,0.295
4966.0,593.8,0.295
4984.0,593.8,0.294
5002.0,593.8,0.294
5020.0,593.8,0.293
5038.0,593.8,0.293
5056.0,593.8,0.292
5074.0,593.8,0.291
5092.0,593.8,0.291
5110.0,593.8,0.291
5128.0,593.8,0.29
5146.0,593.8,0.289
5164.0,593.8,0.289
5182.0,593.8,0.288
5200.0,593.8,0.288
5218.0,593.8,0.288
5236.0,593.8,0.287
5254.0,593.8,0.287
5272.0,593.8,0.286
5290.0,593.8,0.286
5308.0,593.8,0.285
5326.0,593.8,0.285
5344.0,593.8,0.284
5362.0,593.8,0.284
5380.0,593.8,0.283
5398.0,593.8,0.283
5416.0,593.8,0.282
5434.0,593.8,0.282
5452.0,593.8,0.282
5470.0,593.8,0.281
5488.0,593.8,0.281
5506.0,593.8,0.28
5524.0,593.8,0.28
5542.0,593.8,0.28
5560.0,593.8,0.279
5578.0,593.8,0.279
5596.0,593.8,0.279
5614.0,593.8,0.278
5632.0,593.8,0.278
5650.0,593.8,0.278
5668.0,593.8,0.278
5686.0,593.8,0.277
5704.0,593.8,0.276
5722.0,593.8,0.276
5740.0,593.8,0.276
5758.0,593.8,0.276
5776.0,593.8,0.275
5794.0,593.8,0.275
5812.0,593.8,0.275
5830.0,593.8,0.274
5848.0,593.8,0.274
5866.0,593.8,0.274
5884.0,593.8,0.274
5902.0,593.8,0.273
5920.0,593.8,0.273
5938.0,593.8,0.273
5956.0,593.8,0.273
5974.0,593.8,0.273
5992.0,593.8,0.272
6010.0,593.8,0.272
6028.0,593.8,0.272
6046.0,593.8,0.272
6064.0,593.8,0.271
6082.0,593.8,0.271
6100.0,593.8,0.271
6118.0,593.8,0.271
6136.0,593.8,0.271
6154.0,593.8,0.271
6172.0,593.8,0.27
6190.0,593.8,0.27
6208.0,593.8,0.27
6226.0,593.8,0.27
6244.0,593.8,0.27
6262.0,593.8,0.27
6280.0,593.8,0.269
6298.0,593.8,0.269
6316.0,593.8,0.269
6334.0,593.8,0.269
6352.0,593.8,0.269
6370.0,593.8,0.269
6388.0,593.8,0.268
6406.0,593.8,0.268
6424.0,593.8,0.268
6442.0,593.8,0.268
6460.0,593.8,0.268
6478.0,593.8,0.268
6496.0,593.8,0.267
6514.0,593.8,0.267
6532.0,593.8,0.267
6550.0,593.8,0.267
6568.0,593.8,0.267
6586.0,593.8,0.267
6604.0,593.8,0.267
6622.0,593.8,0.267
6640.0,593.8,0.266
6658.0,593.8,0.267
6676.0,593.8,0.266
6694.0,593.8,0.266
6712.0,593.8,0.266
6730.0,593.8,0.266
6748.0,593.8,0.266
6766.0,593.8,0.266
6784.0,593.8,0.266
6802.0,593.8,0.266
6820.0,593.8,0.266
6838.0,593.8,0.266
6856.0,593.8,0.265
6874.0,593.8,0.265
6892.0,593.8,0.265
6910.0,593.8,0.265
6928.0,593.8,0.265
6946.0,593.8,0.265
6964.0,593.8,0.265
6982.0,593.8,0.265
7000.0,593.8,0.265
7018.0,593.8,0.265
7036.0,593.8,0.265
7054.0,593.8,0.265
7072.0,593.8,0.265
7090.0,593.8,0.264
7108.0,593.8,0.264
7126.0,593.8,0.264
7144.0,593.8,0.264
7162.0,593.8,0.264
7180.0,593.8,0.264
7198.0,593.8,0.264
7216.0,593.8,0.264
7234.0,593.8,0.264
7252.0,593.8,0.264
7270.0,593.8,0.264
7288.0,593.8,0.264
7306.0,593.8,0.264
7324.0,593.8,0.264
7342.0,593.8,0.264
7360.0,593.8,0.264
7378.0,593.8,0.263
7396.0,593.8,0.263
7414.0,593.8,0.263
7432.0,593.8,0.263
7450.0,593.8,0.263
7468.0,593.8,0.263
7486.0,593.8,0.263
7504.0,593.8,0.263
7522.0,593.8,0.263
7540.0,593.8,0.263
7558.0,593.8,0.263
7576.0,593.8,0.263
7594.0,593.8,0.263
7612.0,593.8,0.263
7630.0,593.8,0.263
7648.0,593.8,0.263
7666.0,593.8,0.263
7684.0,593.8,0.263
7702.0,593.8,0.262
7720.0,593.8,0.262
7738.0,593.8,0.262
7756.0,593.8,0.262
7774.0,593.8,0.262
7792.0,593.8,0.262
7810.0,593.8,0.262
7828.0,593.8,0.262
7846.0,593.8,0.262
7864.0,593.8,0.262
7882.0,593.8,0.262
7900.0,593.8,0.262
7918.0,593.8,0.262
7936.0,593.8,0.262
7954.0,593.8,0.262
7972.0,593.8,0.262
7990.0,593.8,0.262
8008.0,593.8,0.262
8026.0,593.8,0.262
8044.0,593.8,0.262
8062.0,593.8,0.262
8080.0,593.8,0.262
8098.0,593.8,0.262
8116.0,593.8,0.262
8134.0,593.8,0.262
8152.0,593.8,0.261
8170.0,593.8,0.261
8188.0,593.8,0.261
8206.0,593.8,0.261
8224.0,593.8,0.261
8242.0,593.8,0.261
8260.0,593.8,0.261
8278.0,593.8,0.261
8296.0,593.8,0.261
8314.0,593.8,0.261
8332.0,593.8,0.261
8350.0,593.8,0.261
8368.0,593.8,0.261
8386.0,593.8,0.261
8404.0,593.8,0.261
8422.0,593.8,0.261
8440.0,593.8,0.261
8458.0,593.8,0.261
8476.0,593.8,0.261
8494.0,593.8,0.261
8512.0,593.8,0.261
8530.0,593.9,0.261
8548.0,593.9,0.261
8566.0,593.8,0.261
8584.0,593.8,0.261
8602.0,593.8,0.261
8620.0,593.8,0.261
8638.0,593.8,0.261
8656.0,593.8,0.261
8674.0,593.8,0.26
8692.0,593.8,0.261
8710.0,593.8,0.261
8728.0,593.8,0.26
8746.0,593.8,0.261
8764.0,593.8,0.26
8782.0,593.8,0.261
8800.0,593.8,0.26
8818.0,593.8,0.26
8836.0,593.8,0.26
8854.0,593.8,0.26
8872.0,593.8,0.26
8890.0,593.8,0.26
8908.0,593.8,0.26
8926.0,593.8,0.26
8944.0,593.8,0.26
8962.0,593.8,0.26
8980.0,593.8,0.26
8998.0,593.8,0.26
9016.0,593.8,0.26
9034.0,593.8,0.26
9052.0,593.8,0.26
9070.0,593.8,0.26
9088.0,593.8,0.26
9106.0,593.8,0.26
9124.0,593.8,0.26
9142.0,593.8,0.26
9160.0,593.8,0.26
9178.0,593.8,0.26
9196.0,593.8,0.26
9214.0,593.8,0.26
9232.0,593.8,0.26
9250.0,593.8,0.26
9268.0,593.8,0.259
9286.0,593.8,0.259
9304.0,593.8,0.259
9322.0,593.8,0.259
9340.0,593.9,0.259
9358.0,593.8,0.259
9376.0,593.8,0.259
9394.0,593.8,0.259
9412.0,593.8,0.259
9430.0,593.8,0.259
9448.0,593.8,0.259
9466.0,593.8,0.259
9484.0,593.8,0.259
9502.0,593.8,0.259
9520.0,593.8,0.259
9538.0,593.8,0.259
9556.0,593.8,0.259
9574.0,593.8,0.259
9592.0,593.8,0.259
9610.0,593.8,0.259
9628.0,593.8,0.259
9646.0,593.8,0.259
9664.0,593.8,0.259
9682.0,593.8,0.259
9700.0,593.8,0.259
9718.0,593.8,0.259
9736.0,593.8,0.259
9754.0,593.8,0.259
9772.0,593.8,0.259
9790.0,593.8,0.259
9808.0,593.9,0.259
9826.0,593.9,0.259
9844.0,593.8,0.259
9862.0,593.8,0.259
9880.0,593.8,0.259
9898.0,593.9,0.259
9916.0,593.8,0.259
9934.0,593.8,0.259
9952.0,593.8,0.259
9970.0,593.8,0.259
9988.0,593.8,0.259
10006.0,593.8,0.258
10024.0,593.8,0.259
10042.0,593.8,0.259
10060.0,593.8,0.259
10078.0,593.8,0.259
10096.0,593.8,0.259
10114.0,593.8,0.259
10132.0,593.8,0.258
10150.0,593.8,0.259
10168.0,593.8,0.259
10186.0,593.8,0.258
10204.0,593.8,0.259
10222.0,593.8,0.258
10240.0,593.8,0.258
10258.0,593.8,0.258
10276.0,593.8,0.258
10294.0,593.8,0.258
10312.0,593.8,0.258
10330.0,593.8,0.258
10348.0,593.8,0.258
10366.0,593.8,0.258
10384.0,593.8,0.258
10402.0,593.8,0.258
10420.0,593.8,0.258
10438.0,593.8,0.258
10456.0,593.8,0.258
10474.0,593.8,0.258
10492.0,593.8,0.258
10510.0,593.8,0.258
10528.0,593.8,0.258
10546.0,593.8,0.258
10564.0,593.8,0.258
10582.0,593.8,0.258
10600.0,593.8,0.258
10618.0,593.8,0.258
10636.0,593.8,0.258
10654.0,593.8,0.258
10672.0,593.9,0.258
10690.0,593.8,0.258
10708.0,593.8,0.258
10726.0,593.8,0.258
10744.0,593.8,0.258
10762.0,593.8,0.258
10780.0,593.8,0.258
10798.0,593.8,0.258
10816.0,593.8,0.258
10834.0,593.8,0.258
10852.0,593.8,0.257
10870.0,593.8,0.258
10888.0,593.8,0.257
10906.0,593.8,0.258
10924.0,593.8,0.257
10942.0,593.8,0.258
10960.0,593.8,0.257
10978.0,593.8,0.258
10996.0,593.8,0.258
11014.0,593.8,0.258
11032.0,593.8,0.257
11050.0,593.8,0.257
11068.0,593.8,0.258
11086.0,593.8,0.257
11104.0,593.8,0.258
11122.0,593.8,0.257
11140.0,593.8,0.258
11158.0,593.8,0.257
11176.0,593.8,0.257
11194.0,593.8,0.257
11212.0,593.8,0.257
11230.0,593.8,0.257
11248.0,593.8,0.257
11266.0,593.8,0.257
11284.0,593.8,0.257
11302.0,593.8,0.257
11320.0,593.8,0.257
11338.0,593.8,0.257
11356.0,593.8,0.257
11374.0,593.9,0.257
11392.0,593.8,0.257
11410.0,593.9,0.257
11428.0,593.8,0.257
11446.0,593.8,0.257
11464.0,593.8,0.257
11482.0,593.9,0.257
11500.0,593.8,0.257
11518.0,593.8,0.257
11536.0,593.8,0.257
11554.0,593.8,0.257
11572.0,593.8,0.257
11590.0,593.8,0.257
11608.0,593.8,0.257
11626.0,593.8,0.257
11644.0,593.8,0.257
11662.0,593.8,0.257
11680.0,593.8,0.257
11698.0,593.8,0.257
11716.0,593.9,0.257
11734.0,593.9,0.257
11752.0,593.8,0.257
11770.0,593.9,0.257
11788.0,593.8,0.257
11806.0,593.9,0.257
11824.0,593.8,0.257
11842.0,593.9,0.256
11860.0,593.9,0.257
11878.0,593.9,0.257
11896.0,593.8,0.257
11914.0,593.8,0.257
11932.0,593.9,0.257
11950.0,593.8,0.257
11968.0,593.9,0.257
11986.0,593.9,0.257
12004.0,593.9,0.256
12022.0,593.9,0.256
12040.0,593.9,0.256
12058.0,593.9,0.256
12076.0,593.9,0.256
12094.0,593.9,0.256
12112.0,593.9,0.256
12130.0,593.9,0.256
12148.0,593.9,0.256
12166.0,593.9,0.256
12184.0,593.9,0.256
12202.0,593.9,0.256
12220.0,593.9,0.256
12238.0,593.9,0.256
12256.0,593.9,0.256
12274.0,593.9,0.256
12292.0,593.9,0.256
12310.0,593.9,0.256
12328.0,593.9,0.257
12346.0,593.9,0.256
12364.0,593.9,0.257
12382.0,593.9,0.256
12400.0,593.9,0.256
12418.0,593.9,0.256
12436.0,593.9,0.256
12454.0,593.9,0.256
12472.0,593.9,0.257
12490.0,593.9,0.256
12508.0,593.9,0.256
12526.0,593.9,0.256
12544.0,593.9,0.256
12562.0,593.9,0.256
12580.0,593.9,0.256
12598.0,593.9,0.256
12616.0,593.9,0.256
12634.0,593.9,0.256
12652.0,593.9,0.256
12670.0,593.9,0.256
12688.0,593.9,0.256
12706.0,593.9,0.256
12724.0,593.9,0.256
12742.0,593.9,0.256
12760.0,593.9,0.256
12778.0,593.9,0.256
12796.0,593.9,0.256
12814.0,593.9,0.256
12832.0,593.9,0.256
12850.0,593.9,0.256
12868.0,593.9,0.256
12886.0,593.9,0.256
12904.0,593.9,0.256
12922.0,593.8,0.256
12940.0,593.9,0.256
12958.0,593.9,0.256
12976.0,593.9,0.256
12994.0,593.9,0.256
13012.0,593.8,0.255
13030.0,593.9,0.256
13048.0,593.9,0.256
13066.0,593.8,0.256
13084.0,593.9,0.255
13102.0,593.8,0.256
13120.0,593.9,0.256
13138.0,593.9,0.255
13156.0,593.9,0.256
13174.0,593.9,0.256
13192.0,593.8,0.255
13210.0,593.9,0.255
13228.0,593.9,0.255
13246.0,593.9,0.255
13264.0,593.9,0.255
13282.0,593.9,0.255
13300.0,593.9,0.255
13318.0,593.9,0.255
13336.0,593.9,0.255
13354.0,593.9,0.255
13372.0,593.9,0.255
13390.0,593.9,0.255
13408.0,593.9,0.255
13426.0,593.9,0.255
13444.0,593.9,0.255
13462.0,593.9,0.255
13480.0,593.9,0.255
13498.0,593.9,0.255
13516.0,593.9,0.255
13534.0,593.9,0.255
13552.0,593.9,0.255
13570.0,593.9,0.255
13588.0,593.9,0.255
13606.0,593.9,0.255
13624.0,593.9,0.255
13642.0,593.9,0.255
13660.0,593.9,0.255
13678.0,593.9,0.255
13696.0,593.9,0.255
13714.0,593.9,0.255
13732.0,593.9,0.255
13750.0,593.9,0.255
13768.0,593.9,0.255
13786.0,593.9,0.255
13804.0,593.9,0.255
13822.0,593.9,0.255
13840.0,593.9,0.255
13858.0,593.8,0.255
13876.0,593.9,0.255
13894.0,593.8,0.255
13912.0,593.9,0.255
13930.0,593.8,0.255
13948.0,593.8,0.255
13966.0,593.8,0.255
13984.0,593.8,0.255
14002.0,593.8,0.255
14020.0,593.9,0.255
14038.0,593.8,0.255
14056.0,593.9,0.255
14074.0,593.9,0.255
14092.0,593.9,0.255
14110.0,593.9,0.255
14128.0,593.9,0.255
14146.0,593.9,0.255
14164.0,593.9,0.255
14182.0,593.9,0.255
14200.0,593.8,0.255
14218.0,593.8,0.255
14236.0,593.9,0.255
14254.0,593.9,0.255
14272.0,593.9,0.255
14290.0,593.9,0.255
14308.0,593.9,0.255
14326.0,593.9,0.255
14344.0,593.9,0.255
14362.0,593.9,0.255
14380.0,593.8,0.255
14398.0,593.9,0.255
14416.0,593.9,0.255
14434.0,593.9,0.255
14452.0,593.8,0.255
14470.0,593.9,0.255
14488.0,593.8,0.255
14506.0,593.8,0.255
14524.0,593.8,0.255
14542.0,593.8,0.255
14560.0,593.9,0.255
14578.0,593.9,0.255
14596.0,593.9,0.255
14614.0,593.9,0.255
14632.0,593.9,0.255
14650.0,593.9,0.255
14668.0,593.9,0.255
14686.0,593.9,0.255
14704.0,593.9,0.255
14722.0,593.8,0.255
14740.0,593.9,0.255
14758.0,593.9,0.255
14776.0,593.9,0.255
14794.0,593.9,0.255
14812.0,593.9,0.255
14830.0,593.9,0.255
14848.0,593.9,0.255
14866.0,593.8,0.254
14884.0,593.9,0.254
14902.0,593.8,0.254
14920.0,593.9,0.254
14938.0,593.9,0.254
14956.0,593.9,0.254
14974.0,593.9,0.254
14992.0,593.8,0.254
15010.0,593.9,0.254
15028.0,593.9,0.254
15046.0,593.9,0.254
15064.0,593.8,0.254
15082.0,593.8,0.254
15100.0,593.8,0.254
15118.0,593.9,0.254
15136.0,593.9,0.254
15154.0,593.8,0.254
15172.0,593.9,0.254
15190.0,593.9,0.254
15208.0,593.8,0.254
15226.0,593.9,0.254
15244.0,593.9,0.254
15262.0,593.9,0.254
15280.0,593.9,0.254
15298.0,593.9,0.254
15316.0,593.9,0.254
15334.0,593.9,0.254
15352.0,593.9,0.254
15370.0,593.9,0.254
15388.0,593.9,0.254
15406.0,593.9,0.254
15424.0,593.8,0.254
15442.0,593.8,0.254
15460.0,593.8,0.254
15478.0,593.9,0.254
15496.0,593.9,0.254
15514.0,593.8,0.254
15532.0,593.9,0.254
15550.0,593.9,0.254
15568.0,593.8,0.254
15586.0,593.8,0.254
15604.0,593.8,0.254
15622.0,593.8,0.254
15640.0,593.8,0.254
15658.0,593.9,0.254
15676.0,593.9,0.254
15694.0,593.9,0.254
15712.0,593.9,0.254
15730.0,593.9,0.254
15748.0,593.9,0.254
15766.0,593.9,0.254
15784.0,593.9,0.254
15802.0,593.8,0.254
15820.0,593.8,0.254
15838.0,593.8,0.254
15856.0,593.8,0.254
15874.0,593.9,0.254
15892.0,593.9,0.254
15910.0,593.8,0.254
15928.0,593.8,0.254
15946.0,593.9,0.254
15964.0,593.9,0.254
15982.0,593.9,0.254
16000.0,593.9,0.254
16018.0,593.9,0.254
16036.0,593.9,0.254
16054.0,593.9,0.254
16072.0,593.9,0.254
16090.0,593.9,0.254
16108.0,593.9,0.254
16126.0,593.9,0.253
16144.0,593.8,0.253
16162.0,593.8,0.253
16180.0,593.8,0.253
16198.0,593.8,0.253
16216.0,593.9,0.253
16234.0,593.9,0.253
16252.0,593.8,0.253
16270.0,593.9,0.253
16288.0,593.9,0.253
16306.0,593.9,0.253
16324.0,593.8,0.253
16342.0,593.9,0.253
16360.0,593.9,0.253
16378.0,593.9,0.253
16396.0,593.9,0.253
16414.0,593.9,0.253
16432.0,593.9,0.253
16450.0,593.9,0.253
16468.0,593.8,0.253
16486.0,593.9,0.253
16504.0,593.9,0.253
16522.0,593.9,0.253
16540.0,593.9,0.253
16558.0,593.9,0.253
16576.0,593.9,0.253
16594.0,593.9,0.253
16612.0,593.9,0.253
16630.0,593.9,0.253
16648.0,593.9,0.253
16666.0,593.9,0.253
16684.0,593.9,0.253
16702.0,593.9,0.253
16720.0,593.9,0.253
16738.0,593.9,0.253
16756.0,593.9,0.253
16774.0,593.9,0.253
16792.0,593.9,0.253
16810.0,593.9,0.253
16828.0,593.9,0.253
16846.0,593.9,0.253
16864.0,593.9,0.253
16882.0,593.9,0.253
16900.0,593.9,0.253
16918.0,593.9,0.253
16936.0,593.9,0.253
16954.0,593.9,0.253
16972.0,593.9,0.253
16990.0,593.9,0.253
17008.0,593.9,0.253
17026.0,593.9,0.253
17044.0,593.9,0.253
17062.0,593.9,0.253
17080.0,593.9,0.253
17098.0,593.9,0.253
17116.0,593.9,0.253
17134.0,593.9,0.253
17152.0,593.9,0.253
17170.0,593.9,0.253
17188.0,593.9,0.253
17206.0,593.9,0.253
17224.0,593.9,0.253
17242.0,593.9,0.253
17260.0,593.9,0.253
17278.0,593.9,0.253
17296.0,593.9,0.253
17314.0,593.9,0.253
17332.0,593.9,0.253
17350.0,593.9,0.253
17368.0,593.9,0.253
17386.0,593.9,0.253
17404.0,593.9,0.253
17422.0,593.9,0.253
17440.0,593.9,0.252
17458.0,593.9,0.253
17476.0,593.9,0.252
17494.0,593.9,0.252
17512.0,593.9,0.253
17530.0,593.9,0.253
17548.0,593.9,0.253
17566.0,593.9,0.253
17584.0,593.9,0.253
17602.0,593.9,0.253
17620.0,593.9,0.253
17638.0,593.9,0.253
17656.0,593.9,0.253
17674.0,593.9,0.253
17692.0,593.9,0.253
17710.0,593.9,0.253
17728.0,593.9,0.253
17746.0,593.9,0.253
17764.0,593.9,0.253
17782.0,593.9,0.253
17800.0,593.9,0.253
17818.0,593.9,0.252
17836.0,593.9,0.253
17854.0,593.9,0.253
17872.0,593.9,0.253
17890.0,593.9,0.253
17908.0,593.9,0.252
17926.0,593.9,0.253
17944.0,593.9,0.252
17962.0,593.9,0.252
17980.0,593.9,0.252
17998.0,593.9,0.252
18016.0,593.9,0.252
18034.0,593.9,0.252
18052.0,593.9,0.253
18070.0,593.9,0.252
18088.0,593.9,0.252
18106.0,593.9,0.252
18124.0,593.9,0.252
18142.0,593.9,0.252
18160.0,593.9,0.252
18178.0,593.9,0.252
18196.0,593.9,0.252
18214.0,593.9,0.252
18232.0,593.9,0.252
18250.0,593.9,0.252
18268.0,593.9,0.252
18286.0,593.9,0.252
18304.0,593.9,0.252
18322.0,593.9,0.252
18340.0,593.9,0.252
18358.0,593.9,0.252
18376.0,593.9,0.252
18394.0,593.9,0.252
18412.0,593.9,0.252
18430.0,593.9,0.252
18448.0,593.9,0.252
18466.0,593.9,0.252
18484.0,593.9,0.252
18502.0,593.9,0.252
18520.0,593.9,0.252
18538.0,593.9,0.252
18556.0,593.9,0.252
18574.0,593.9,0.252
18592.0,593.9,0.252
18610.0,593.9,0.252
18628.0,593.9,0.252
18646.0,593.9,0.252
18664.0,593.9,0.252
18682.0,593.9,0.252
18700.0,593.9,0.252
18718.0,593.9,0.252
18736.0,593.9,0.252
18754.0,593.9,0.252
18772.0,593.9,0.252
18790.0,593.9,0.252
18808.0,593.9,0.252
18826.0,593.9,0.252
18844.0,593.9,0.252
18862.0,593.9,0.252
18880.0,593.9,0.252
18898.0,593.9,0.252
18916.0,593.9,0.252
18934.0,593.9,0.252
18952.0,593.9,0.252
18970.0,593.9,0.252
18988.0,593.9,0.252
19006.0,593.9,0.252
19024.0,593.9,0.252
19042.0,593.9,0.252
19060.0,593.9,0.252
19078.0,593.9,0.252
19096.0,593.9,0.252
19114.0,593.9,0.252
19132.0,593.9,0.252
19150.0,593.9,0.252
19168.0,593.9,0.252
19186.0,593.9,0.252
19204.0,593.9,0.252
19222.0,593.9,0.252
19240.0,593.9,0.252
19258.0,593.9,0.252
19276.0,593.9,0.252
19294.0,593.9,0.252
19312.0,593.9,0.252
19330.0,593.9,0.252
19348.0,593.9,0.252
19366.0,593.9,0.252
19384.0,593.9,0.252
19402.0,593.9,0.252
19420.0,593.9,0.252
19438.0,593.9,0.252
19456.0,593.9,0.252
19474.0,593.9,0.252
19492.0,593.9,0.252
19510.0,593.9,0.252
19528.0,593.9,0.252
19546.0,593.9,0.252
19564.0,593.9,0.252
19582.0,593.9,0.252
19600.0,593.9,0.252
19618.0,593.9,0.252
19636.0,593.9,0.252
19654.0,593.9,0.252
19672.0,593.9,0.252
19690.0,593.9,0.252
19708.0,593.9,0.252
19726.0,593.9,0.252
19744.0,593.9,0.252
19762.0,593.9,0.252
19780.0,593.9,0.252
19798.0,593.9,0.252
19816.0,593.9,0.252
19834.0,593.9,0.252
19852.0,593.9,0.252
19870.0,593.9,0.252
19888.0,593.9,0.252
19906.0,593.9,0.252
19924.0,593.9,0.252
19942.0,593.9,0.252
19960.0,593.9,0.252
19978.0,593.9,0.251
19996.0,593.9,0.252
20014.0,593.9,0.251
20032.0,593.9,0.251
20050.0,593.9,0.251
20068.0,593.9,0.251
20086.0,593.9,0.251
20104.0,593.9,0.251
20122.0,593.9,0.251
20140.0,593.9,0.251
20158.0,593.9,0.252
20176.0,593.9,0.251
20194.0,593.9,0.251
20212.0,593.9,0.251
20230.0,593.9,0.252
20248.0,593.9,0.251
20266.0,593.9,0.251
20284.0,593.9,0.251
20302.0,593.9,0.251
20320.0,593.9,0.251
20338.0,593.9,0.251
20356.0,593.9,0.251
20374.0,593.9,0.251
20392.0,593.9,0.251
20410.0,593.9,0.251
20428.0,593.9,0.251
20446.0,593.9,0.251
20464.0,593.9,0.251
20482.0,593.9,0.251
20500.0,593.9,0.251
20518.0,593.9,0.252
20536.0,593.9,0.251
20554.0,593.9,0.251
20572.0,593.9,0.251
20590.0,593.9,0.251
20608.0,593.9,0.251
20626.0,593.9,0.251
20644.0,593.9,0.251
20662.0,593.9,0.251
20680.0,593.9,0.251
20698.0,593.9,0.251
20716.0,593.9,0.251
20734.0,593.9,0.251
20752.0,593.9,0.251
20770.0,593.9,0.251
20788.0,593.9,0.251
20806.0,593.9,0.251
20824.0,593.9,0.251
20842.0,593.9,0.251
20860.0,593.9,0.251
20878.0,593.9,0.251
20896.0,593.9,0.251
20914.0,593.9,0.251
20932.0,593.9,0.251
20950.0,593.9,0.251
20968.0,593.9,0.251
20986.0,593.9,0.251
21004.0,593.9,0.251
21022.0,593.9,0.251
21040.0,593.9,0.251
21058.0,593.9,0.251
21076.0,593.9,0.251
21094.0,593.9,0.251
21112.0,593.9,0.251
21130.0,593.9,0.251
21148.0,593.9,0.251
21166.0,593.9,0.251
21184.0,593.9,0.251
21202.0,593.9,0.251
21220.0,593.9,0.251
21238.0,593.9,0.251
21256.0,593.9,0.251
21274.0,593.9,0.251
21292.0,593.9,0.251
21310.0,593.9,0.251
21328.0,593.9,0.251
21346.0,593.9,0.251
21364.0,593.9,0.251
21382.0,593.9,0.251
21400.0,593.9,0.251
21418.0,593.9,0.251
21436.0,593.9,0.251
21454.0,593.9,0.251
21472.0,593.9,0.251
21490.0,593.9,0.251
21508.0,593.9,0.251
21526.0,593.9,0.251
21544.0,593.9,0.251
21562.0,593.9,0.251
21580.0,593.9,0.251
21598.0,593.9,0.251
21616.0,593.9,0.251
21634.0,593.9,0.251
21652.0,593.9,0.251
21670.0,593.9,0.251
21688.0,593.9,0.251
21706.0,593.9,0.251
21724.0,593.9,0.251
21742.0,593.9,0.251
21760.0,593.9,0.251
21778.0,593.9,0.251
21796.0,593.9,0.251
21814.0,593.9,0.251
21832.0,593.9,0.251
21850.0,593.9,0.251
21868.0,593.9,0.251
21886.0,593.9,0.25
21904.0,593.9,0.251
21922.0,593.9,0.25
21940.0,593.9,0.25
21958.0,593.9,0.25
21976.0,593.9,0.25
21994.0,593.9,0.25
22012.0,593.9,0.25
22030.0,593.9,0.25
22048.0,593.9,0.25
22066.0,593.9,0.25
22084.0,593.9,0.25
22102.0,593.9,0.25
22120.0,593.9,0.25
22138.0,593.9,0.25
22156.0,593.9,0.25
22174.0,593.9,0.25
22192.0,593.9,0.25
22210.0,593.9,0.25
22228.0,593.9,0.25
22246.0,593.9,0.25
22264.0,593.9,0.25
22282.0,593.9,0.25
22300.0,593.9,0.25
22318.0,593.9,0.25
22336.0,593.9,0.25
22354.0,593.9,0.25
22372.0,593.9,0.25
22390.0,593.9,0.25
22408.0,593.9,0.25
22426.0,593.9,0.25
22444.0,593.9,0.25
22462.0,593.9,0.25
22480.0,593.9,0.25
22498.0,593.9,0.25
22516.0,593.9,0.25
22534.0,593.9,0.25
22552.0,593.9,0.25
22570.0,593.9,0.25
22588.0,593.9,0.25
22606.0,593.9,0.25
22624.0,593.9,0.25
22642.0,593.9,0.25
22660.0,593.9,0.25
22678.0,593.9,0.25
22696.0,593.9,0.25
22714.0,593.9,0.25
22732.0,593.9,0.25
22750.0,593.9,0.25
22768.0,593.9,0.25
22786.0,593.9,0.25
22804.0,593.9,0.25
22813.0,593.9,0.25