File: Wood/Calibration_Data/TUBS/TUBS_Wood_Cone_30kW_hor_R1.csv
Time (s),Mass (g),HRR (kW/m2)
0.0,88.16,0.0
2.0,88.11,3.2
4.0,88.08,0.0
6.0,88.06,2.3
8.0,88.04,0.0
10.0,88.02,0.1
12.0,88.01,0.0
14.0,87.99,0.0
16.0,87.96,1.8
18.0,87.93,0.0
20.0,87.92,0.3
22.0,87.88,0.0
24.0,87.86,0.0
26.0,87.83,0.0
28.0,87.67,0.8
30.0,87.53,22.9
32.0,87.22,31.1
34.0,87.05,74.0
36.0,86.85,91.1
38.0,86.65,132.5
40.0,86.45,145.1
42.0,86.26,157.7
44.0,86.08,154.1
46.0,85.94,149.3
48.0,85.79,145.5
50.0,85.63,134.8
52.0,85.49,129.8
54.0,85.35,120.2
56.0,85.23,119.4
58.0,85.1,111.5
60.0,84.99,108.0
62.0,84.86,101.3
64.0,84.75,100.5
66.0,84.64,95.7
68.0,84.49,93.3
70.0,84.41,90.1
72.0,84.34,92.2
74.0,84.17,87.9
76.0,84.1,85.6
78.0,83.99,84.2
80.0,83.86,80.5
82.0,83.81,79.0
84.0,83.67,79.8
86.0,83.57,77.8
88.0,83.48,78.5
90.0,83.38,76.6
92.0,83.27,76.3
94.0,83.17,74.7
96.0,83.07,74.4
98.0,82.98,73.1
100.0,82.87,70.5
102.0,82.8,69.9
104.0,82.68,74.1
106.0,82.58,73.8
108.0,82.52,74.7
110.0,82.39,71.3
112.0,82.3,73.2
114.0,82.23,71.3
116.0,82.09,73.9
118.0,82.03,73.9
120.0,81.95,69.3
122.0,81.84,68.4
124.0,81.76,71.0
126.0,81.7,66.7
128.0,81.58,68.4
130.0,81.5,67.5
132.0,81.43,67.1
134.0,81.29,64.8
136.0,81.24,61.9
138.0,81.17,65.9
140.0,81.07,65.6
142.0,80.98,65.4
144.0,80.91,64.2
146.0,80.8,63.8
148.0,80.71,64.4
150.0,80.66,65.0
152.0,80.54,64.8
154.0,80.47,66.5
156.0,80.41,64.5
158.0,80.3,63.3
160.0,80.25,64.3
162.0,80.19,61.0
164.0,80.04,63.8
166.0,79.98,62.7
168.0,79.91,60.0
170.0,79.78,61.2
172.0,79.73,60.1
174.0,79.65,57.7
176.0,79.54,58.5
178.0,79.49,59.6
180.0,79.42,55.9
182.0,79.3,57.4
184.0,79.25,58.1
186.0,79.18,57.6
188.0,79.08,58.3
190.0,79.0,58.2
192.0,78.94,55.1
194.0,78.87,58.4
196.0,78.77,58.1
198.0,78.71,58.9
200.0,78.62,54.1
202.0,78.53,58.2
204.0,78.49,57.9
206.0,78.38,57.4
208.0,78.3,56.6
210.0,78.22,56.5
212.0,78.15,58.9
214.0,78.08,59.1
216.0,77.99,59.6
218.0,77.92,53.2
220.0,77.84,58.1
222.0,77.76,59.3
224.0,77.68,59.2
226.0,77.62,58.6
228.0,77.54,59.0
230.0,77.45,56.6
232.0,77.39,54.3
234.0,77.32,55.2
236.0,77.22,55.6
238.0,77.16,55.8
240.0,77.09,54.8
242.0,76.99,55.0
244.0,76.93,51.7
246.0,76.88,52.6
248.0,76.77,53.5
250.0,76.7,53.3
252.0,76.64,49.8
254.0,76.55,49.9
256.0,76.45,53.4
258.0,76.4,52.4
260.0,76.31,53.6
262.0,76.25,49.2
264.0,76.18,51.4
266.0,76.1,53.2
268.0,76.01,49.2
270.0,75.96,48.2
272.0,75.86,52.4
274.0,75.8,53.2
276.0,75.73,50.6
278.0,75.63,52.7
280.0,75.58,53.9
282.0,75.5,51.2
284.0,75.4,55.0
286.0,75.36,51.5
288.0,75.28,50.7
290.0,75.19,49.7
292.0,75.11,50.8
294.0,75.05,49.0
296.0,74.95,51.4
298.0,74.88,52.3
300.0,74.82,49.7
302.0,74.72,52.6
304.0,74.64,51.6
306.0,74.59,51.0
308.0,74.51,50.9
310.0,74.42,49.2
312.0,74.35,51.2
314.0,74.27,49.8
316.0,74.18,47.0
318.0,74.11,45.5
320.0,74.04,49.0
322.0,73.95,50.4
324.0,73.87,49.3
326.0,73.8,50.1
328.0,73.73,50.1
330.0,73.65,51.6
332.0,73.54,51.8
334.0,73.48,56.8
336.0,73.4,51.6
338.0,73.29,53.6
340.0,73.24,55.1
342.0,73.15,51.3
344.0,73.04,52.7
346.0,72.98,54.1
348.0,72.9,51.5
350.0,72.78,52.6
352.0,72.72,49.6
354.0,72.65,50.8
356.0,72.53,52.5
358.0,72.48,46.5
360.0,72.39,51.3
362.0,72.28,50.4
364.0,72.21,46.9
366.0,72.15,53.0
368.0,72.04,50.2
370.0,71.96,49.5
372.0,71.89,52.6
374.0,71.76,52.2
376.0,71.71,51.2
378.0,71.6,49.0
380.0,71.51,48.2
382.0,71.46,48.4
384.0,71.35,51.7
386.0,71.26,50.2
388.0,71.2,52.4
390.0,71.13,50.1
392.0,71.0,49.8
394.0,70.94,49.1
396.0,70.88,48.4
398.0,70.78,51.5
400.0,70.7,48.7
402.0,70.63,52.2
404.0,70.52,50.2
406.0,70.43,50.4
408.0,70.37,51.2
410.0,70.24,51.4
412.0,70.18,50.2
414.0,70.1,48.3
416.0,70.01,49.8
418.0,69.92,51.2
420.0,69.84,50.6
422.0,69.74,48.0
424.0,69.65,50.6
426.0,69.57,51.3
428.0,69.45,54.2
430.0,69.39,53.3
432.0,69.29,54.0
434.0,69.21,52.7
436.0,69.12,50.2
438.0,69.03,48.1
440.0,68.95,49.5
442.0,68.85,51.3
444.0,68.79,49.9
446.0,68.65,50.0
448.0,68.6,50.1
450.0,68.54,52.6
452.0,68.42,53.5
454.0,68.33,51.0
456.0,68.27,51.9
458.0,68.15,51.3
460.0,68.06,49.3
462.0,68.0,50.1
464.0,67.86,49.3
466.0,67.8,50.9
468.0,67.74,50.6
470.0,67.63,48.8
472.0,67.54,50.2
474.0,67.45,47.2
476.0,67.36,47.5
478.0,67.27,49.5
480.0,67.19,48.1
482.0,67.07,49.7
484.0,67.01,48.2
486.0,66.91,48.9
488.0,66.84,50.5
490.0,66.75,48.2
492.0,66.65,51.0
494.0,66.57,50.4
496.0,66.48,50.9
498.0,66.41,48.3
500.0,66.33,48.9
502.0,66.22,51.0
504.0,66.13,51.5
506.0,66.05,46.4
508.0,65.96,50.5
510.0,65.87,47.5
512.0,65.78,45.8
514.0,65.7,48.0
516.0,65.61,47.9
518.0,65.5,48.1
520.0,65.44,49.2
522.0,65.35,46.6
524.0,65.26,46.1
526.0,65.18,48.7
528.0,65.09,48.1
530.0,65.0,48.2
532.0,64.91,48.1
534.0,64.83,50.7
536.0,64.75,48.0
538.0,64.64,51.6
540.0,64.57,50.0
542.0,64.48,46.9
544.0,64.4,48.1
546.0,64.32,47.4
548.0,64.22,48.3
550.0,64.13,47.4
552.0,64.05,49.5
554.0,63.96,48.1
556.0,63.88,45.0
558.0,63.8,45.3
560.0,63.71,42.3
562.0,63.62,49.1
564.0,63.54,48.4
566.0,63.46,50.5
568.0,63.37,48.1
570.0,63.24,48.8
572.0,63.19,47.5
574.0,63.17,48.7
576.0,63.02,48.6
578.0,62.94,48.1
580.0,62.87,45.3
582.0,62.75,46.4
584.0,62.67,49.3
586.0,62.61,45.3
588.0,62.47,47.1
590.0,62.41,45.8
592.0,62.37,45.9
594.0,62.25,44.4
596.0,62.16,41.9
598.0,62.1,44.9
600.0,61.99,44.8
602.0,61.9,45.2
604.0,61.84,41.8
606.0,61.74,47.0
608.0,61.64,46.1
610.0,61.59,44.7
612.0,61.47,44.8
614.0,61.4,46.6
616.0,61.33,47.3
618.0,61.23,45.8
620.0,61.16,47.3
622.0,61.07,44.8
624.0,60.98,47.1
626.0,60.88,45.7
628.0,60.82,45.7
630.0,60.73,47.3
632.0,60.66,45.6
634.0,60.57,41.4
636.0,60.48,42.3
638.0,60.4,45.7
640.0,60.31,43.1
642.0,60.23,41.4
644.0,60.14,46.7
646.0,60.06,44.6
648.0,59.98,44.9
650.0,59.89,47.0
652.0,59.8,46.1
654.0,59.73,43.7
656.0,59.64,45.2
658.0,59.55,44.0
660.0,59.48,43.3
662.0,59.39,44.5
664.0,59.31,41.2
666.0,59.23,42.7
668.0,59.13,41.2
670.0,59.05,48.1
672.0,58.96,41.6
674.0,58.89,43.0
676.0,58.81,43.6
678.0,58.71,43.0
680.0,58.65,45.7
682.0,58.54,43.6
684.0,58.46,46.2
686.0,58.4,44.8
688.0,58.31,45.3
690.0,58.21,45.3
692.0,58.15,45.7
694.0,58.06,45.9
696.0,57.95,44.8
698.0,57.9,41.6
700.0,57.81,41.1
702.0,57.7,45.0
704.0,57.65,44.6
706.0,57.56,43.1
708.0,57.46,42.9
710.0,57.4,43.6
712.0,57.32,43.1
714.0,57.25,46.1
716.0,57.14,45.2
718.0,57.09,41.8
720.0,56.96,41.6
722.0,56.89,48.8
724.0,56.84,48.4
726.0,56.73,41.3
728.0,56.65,40.2
730.0,56.6,40.7
732.0,56.48,44.6
734.0,56.4,45.6
736.0,56.35,44.3
738.0,56.24,41.0
740.0,56.15,41.3
742.0,56.1,43.8
744.0,55.98,41.2
746.0,55.9,43.3
748.0,55.85,44.3
750.0,55.76,43.0
752.0,55.69,44.4
754.0,55.6,41.4
756.0,55.52,43.3
758.0,55.43,44.3
760.0,55.36,46.6
762.0,55.29,43.3
764.0,55.19,43.7
766.0,55.11,45.4
768.0,55.04,45.2
770.0,54.96,43.6
772.0,54.86,43.6
774.0,54.79,43.1
776.0,54.69,42.4
778.0,54.64,42.7
780.0,54.55,44.8
782.0,54.5,43.7
784.0,54.4,42.8
786.0,54.32,45.0
788.0,54.26,42.6
790.0,54.15,41.9
792.0,54.07,43.1
794.0,53.99,39.8
796.0,53.9,44.8
798.0,53.83,41.4
800.0,53.75,41.2
802.0,53.69,42.4
804.0,53.57,40.9
806.0,53.55,43.0
808.0,53.43,41.0
810.0,53.34,42.2
812.0,53.3,40.5
814.0,53.2,41.2
816.0,53.09,39.5
818.0,53.04,43.3
820.0,52.97,42.1
822.0,52.85,41.9
824.0,52.79,42.1
826.0,52.72,43.5
828.0,52.63,41.8
830.0,52.55,41.0
832.0,52.49,41.0
834.0,52.36,40.4
836.0,52.3,42.0
838.0,52.24,38.8
840.0,52.15,41.1
842.0,52.06,41.8
844.0,52.01,38.0
846.0,51.91,40.4
848.0,51.82,42.6
850.0,51.76,39.8
852.0,51.67,42.6
854.0,51.58,43.8
856.0,51.57,39.8
858.0,51.45,44.0
860.0,51.36,40.4
862.0,51.28,41.3
864.0,51.2,41.6
866.0,51.12,43.6
868.0,51.04,41.6
870.0,50.96,41.2
872.0,50.89,38.3
874.0,50.79,36.7
876.0,50.72,37.2
878.0,50.65,39.8
880.0,50.54,43.6
882.0,50.48,42.2
884.0,50.42,41.6
886.0,50.34,41.9
888.0,50.23,43.2
890.0,50.18,42.3
892.0,50.1,42.3
894.0,50.0,40.7
896.0,49.94,39.4
898.0,49.9,42.6
900.0,49.76,40.1
902.0,49.7,42.9
904.0,49.63,41.5
906.0,49.53,43.7
908.0,49.45,43.7
910.0,49.4,41.6
912.0,49.29,40.0
914.0,49.21,40.3
916.0,49.16,40.5
918.0,49.05,40.5
920.0,48.97,43.0
922.0,48.91,42.8
924.0,48.82,43.8
926.0,48.75,40.2
928.0,48.67,40.0
930.0,48.59,42.1
932.0,48.51,43.3
934.0,48.43,40.7
936.0,48.36,42.4
938.0,48.27,39.3
940.0,48.19,40.2
942.0,48.13,40.0
944.0,48.04,40.1
946.0,47.97,38.9
948.0,47.88,43.1
950.0,47.82,41.4
952.0,47.74,39.7
954.0,47.65,41.2
956.0,47.58,42.8
958.0,47.51,39.4
960.0,47.4,43.6
962.0,47.34,41.2
964.0,47.25,41.4
966.0,47.18,37.1
968.0,47.1,40.2
970.0,47.04,41.0
972.0,46.93,39.5
974.0,46.85,38.9
976.0,46.81,40.2
978.0,46.71,38.0
980.0,46.67,40.9
982.0,46.57,44.3
984.0,46.49,44.5
986.0,46.41,42.3
988.0,46.35,41.0
990.0,46.26,39.7
992.0,46.16,36.8
994.0,46.08,38.7
996.0,46.02,37.3
998.0,45.94,36.9
1000.0,45.84,39.6
1002.0,45.78,41.8
1004.0,45.69,40.9
1006.0,45.59,40.4
1008.0,45.53,43.1
1010.0,45.48,40.6
1012.0,45.38,36.6
1014.0,45.3,39.4
1016.0,45.23,38.4
1018.0,45.15,41.1
1020.0,45.08,38.3
1022.0,45.01,37.0
1024.0,44.9,34.2
1026.0,44.82,38.5
1028.0,44.76,40.5
1030.0,44.67,35.9
1032.0,44.58,38.3
1034.0,44.53,43.5
1036.0,44.44,39.5
1038.0,44.37,39.8
1040.0,44.28,38.5
1042.0,44.21,40.6
1044.0,44.13,37.1
1046.0,44.05,36.1
1048.0,43.97,40.2
1050.0,43.89,40.7
1052.0,43.8,36.9
1054.0,43.73,38.7
1056.0,43.65,40.2
1058.0,43.59,40.3
1060.0,43.48,37.6
1062.0,43.43,38.7
1064.0,43.34,39.5
1066.0,43.24,42.9
1068.0,43.18,39.0
1070.0,43.11,36.1
1072.0,42.99,37.7
1074.0,42.95,40.1
1076.0,42.86,40.3
1078.0,42.75,40.0
1080.0,42.69,37.7
1082.0,42.64,37.6
1084.0,42.54,37.6
1086.0,42.45,39.6
1088.0,42.4,39.0
1090.0,42.29,41.0
1092.0,42.23,38.5
1094.0,42.16,40.6
1096.0,42.09,39.7
1098.0,41.97,38.5
1100.0,41.91,38.0
1102.0,41.85,41.8
1104.0,41.75,38.6
1106.0,41.66,39.6
1108.0,41.59,37.3
1110.0,41.54,39.7
1112.0,41.44,39.3
1114.0,41.34,39.2
1116.0,41.26,41.3
1118.0,41.18,36.7
1120.0,41.1,36.9
1122.0,41.03,40.4
1124.0,40.95,41.8
1126.0,40.86,41.3
1128.0,40.79,41.3
1130.0,40.69,38.4
1132.0,40.61,40.9
1134.0,40.55,39.0
1136.0,40.47,38.1
1138.0,40.39,38.4
1140.0,40.31,40.3
1142.0,40.23,38.7
1144.0,40.13,38.9
1146.0,40.06,40.3
1148.0,39.98,39.8
1150.0,39.87,37.9
1152.0,39.82,36.0
1154.0,39.74,38.5
1156.0,39.62,41.0
1158.0,39.56,37.0
1160.0,39.5,41.0
1162.0,39.38,37.3
1164.0,39.31,36.8
1166.0,39.25,39.4
1168.0,39.12,38.0
1170.0,39.07,38.1
1172.0,39.02,38.7
1174.0,38.91,41.3
1176.0,38.83,41.2
1178.0,38.76,38.8
1180.0,38.65,36.3
1182.0,38.57,38.0
1184.0,38.5,37.6
1186.0,38.41,36.8
1188.0,38.31,37.2
1190.0,38.26,39.8
1192.0,38.15,39.0
1194.0,38.07,40.9
1196.0,38.0,41.2
1198.0,37.92,42.1
1200.0,37.83,41.0
1202.0,37.75,39.0
1204.0,37.67,37.8
1206.0,37.56,39.6
1208.0,37.5,40.6
1210.0,37.4,39.6
1212.0,37.31,39.5
1214.0,37.25,42.2
1216.0,37.15,44.0
1218.0,37.05,41.9
1220.0,36.98,44.8
1222.0,36.89,39.3
1224.0,36.79,41.4
1226.0,36.73,42.3
1228.0,36.62,46.1
1230.0,36.53,44.0
1232.0,36.46,40.6
1234.0,36.41,41.1
1236.0,36.29,40.9
1238.0,36.29,44.1
1240.0,36.11,40.3
1242.0,36.01,43.5
1244.0,35.95,42.4
1246.0,35.83,42.4
1248.0,35.74,41.9
1250.0,35.68,46.3
1252.0,35.57,41.6
1254.0,35.48,43.3
1256.0,35.41,41.2
1258.0,35.32,41.0
1260.0,35.2,43.0
1262.0,35.14,43.2
1264.0,35.02,46.7
1266.0,34.94,46.2
1268.0,34.87,44.7
1270.0,34.77,45.2
1272.0,34.65,43.7
1274.0,34.62,45.2
1276.0,34.49,44.5
1278.0,34.39,41.2
1280.0,34.33,42.6
1282.0,34.21,44.5
1284.0,34.12,44.3
1286.0,34.05,45.6
1288.0,33.93,46.4
1290.0,33.83,47.6
1292.0,33.76,46.6
1294.0,33.63,47.4
1296.0,33.56,45.9
1298.0,33.47,45.8
1300.0,33.35,45.2
1302.0,33.28,41.9
1304.0,33.19,47.9
1306.0,33.06,47.9
1308.0,32.99,46.3
1310.0,32.97,44.3
1312.0,32.79,47.5
1314.0,32.71,47.6
1316.0,32.62,48.9
1318.0,32.49,49.7
1320.0,32.43,49.8
1322.0,32.32,48.2
1324.0,32.21,46.6
1326.0,32.16,46.9
1328.0,32.01,49.1
1330.0,31.93,52.1
1332.0,31.81,44.7
1334.0,31.73,47.6
1336.0,31.63,49.7
1338.0,31.53,48.8
1340.0,31.43,50.7
1342.0,31.33,49.5
1344.0,31.21,51.2
1346.0,31.14,52.3
1348.0,31.01,49.5
1350.0,30.91,49.0
1352.0,30.84,50.1
1354.0,30.72,47.5
1356.0,30.61,47.4
1358.0,30.54,49.9
1360.0,30.4,53.0
1362.0,30.38,52.1
1364.0,30.23,52.3
1366.0,30.1,54.1
1368.0,30.02,54.9
1370.0,29.92,52.1
1372.0,29.79,49.0
1374.0,29.72,55.9
1376.0,29.61,53.8
1378.0,29.51,54.3
1380.0,29.4,54.9
1382.0,29.3,55.8
1384.0,29.18,59.1
1386.0,29.07,55.5
1388.0,29.0,53.4
1390.0,28.88,52.2
1392.0,28.78,56.2
1394.0,28.68,58.3
1396.0,28.56,55.9
1398.0,28.45,54.4
1400.0,28.37,55.7
1402.0,28.23,57.0
1404.0,28.16,56.9
1406.0,28.05,54.7
1408.0,27.92,55.1
1410.0,27.83,55.5
1412.0,27.73,55.8
1414.0,27.59,58.7
1416.0,27.52,56.2
1418.0,27.43,53.3
1420.0,27.29,56.5
1422.0,27.19,61.9
1424.0,27.09,58.6
1426.0,26.98,62.1
1428.0,26.86,59.6
1430.0,26.78,57.5
1432.0,26.63,57.0
1434.0,26.55,59.3
1436.0,26.46,62.2
1438.0,26.32,58.5
1440.0,26.24,59.0
1442.0,26.15,56.6
1444.0,26.0,59.9
1446.0,25.92,62.6
1448.0,25.81,61.3
1450.0,25.71,63.4
1452.0,25.6,59.6
1454.0,25.49,56.0
1456.0,25.4,57.6
1458.0,25.29,57.8
1460.0,25.19,57.6
1462.0,25.09,59.6
1464.0,24.97,60.7
1466.0,24.91,62.0
1468.0,24.77,53.1
1470.0,24.66,59.8
1472.0,24.6,59.6
1474.0,24.46,61.1
1476.0,24.36,57.4
1478.0,24.29,59.1
1480.0,24.14,60.8
1482.0,24.1,59.3
1484.0,23.92,55.6
1486.0,23.84,57.4
1488.0,23.77,59.5
1490.0,23.61,56.5
1492.0,23.54,59.1
1494.0,23.47,58.1
1496.0,23.34,59.2
1498.0,23.25,63.4
1500.0,23.16,59.3
1502.0,23.06,58.4
1504.0,22.97,60.3
1506.0,22.88,57.7
1508.0,22.78,57.4
1510.0,22.69,57.3
1512.0,22.57,57.2
1514.0,22.48,52.7
1516.0,22.39,54.1
1518.0,22.29,57.0
1520.0,22.2,52.4
1522.0,22.1,54.3
1524.0,22.0,53.8
1526.0,21.93,49.6
1528.0,21.81,52.9
1530.0,21.76,49.7
1532.0,21.65,51.6
1534.0,21.57,51.5
1536.0,21.48,53.5
1538.0,21.42,54.0
1540.0,21.32,48.4
1542.0,21.22,47.3
1544.0,21.13,48.2
1546.0,21.02,50.8
1548.0,20.97,49.0
1550.0,20.87,47.2
1552.0,20.8,48.8
1554.0,20.71,47.9
1556.0,20.63,45.8
1558.0,20.54,48.1
1560.0,20.47,50.0
1562.0,20.39,47.9
1564.0,20.3,45.6
1566.0,20.23,43.3
1568.0,20.16,45.6
1570.0,20.08,42.6
1572.0,20.01,46.5
1574.0,19.92,41.1
1576.0,19.87,43.5
1578.0,19.78,44.3
1580.0,19.69,44.9
1582.0,19.63,42.4
1584.0,19.57,43.5
1586.0,19.47,41.3
1588.0,19.42,40.0
1590.0,19.37,42.0
1592.0,19.27,38.6
1594.0,19.2,38.8
1596.0,19.15,42.1
1598.0,19.08,37.6
1600.0,19.02,39.6
1602.0,18.94,38.8
1604.0,18.88,35.1
1606.0,18.82,35.9
1608.0,18.76,33.0
1610.0,18.68,35.2
1612.0,18.63,36.0
1614.0,18.57,34.6
1616.0,18.51,33.7
1618.0,18.43,34.1
1620.0,18.39,32.5
1622.0,18.32,32.5
1624.0,18.27,33.5
1626.0,18.21,33.3
1628.0,18.14,34.9
1630.0,18.11,29.8
1632.0,18.07,31.6
1634.0,17.98,30.2
1636.0,17.92,29.5
1638.0,17.91,30.8
1640.0,17.82,29.8
1642.0,17.76,29.1
1644.0,17.7,28.9
1646.0,17.66,26.3
1648.0,17.61,26.6
1650.0,17.55,31.6
1652.0,17.48,33.2
1654.0,17.43,27.6
1656.0,17.39,26.6
1658.0,17.35,27.6
1660.0,17.3,30.4
1662.0,17.25,25.7
1664.0,17.18,22.4
1666.0,17.16,26.8
1668.0,17.11,27.3
1670.0,17.04,25.5
1672.0,17.0,23.7
1674.0,16.95,25.5
1676.0,16.91,23.4
1678.0,16.87,23.4
1680.0,16.82,25.8
1682.0,16.76,24.7
1684.0,16.72,22.7
1686.0,16.66,22.0
1688.0,16.63,24.0
1690.0,16.6,23.1
1692.0,16.55,22.2
1694.0,16.5,20.0
1696.0,16.45,19.7
1698.0,16.42,25.2
1700.0,16.38,22.3
1702.0,16.34,20.9
1704.0,16.3,21.4
1706.0,16.27,21.1
1708.0,16.21,21.1
1710.0,16.18,22.1
1712.0,16.13,20.0
1714.0,16.09,20.5
1716.0,16.08,18.8
1718.0,16.01,24.2
1720.0,15.98,20.1
1722.0,15.93,22.1
1724.0,15.9,17.9
1726.0,15.87,16.3
1728.0,15.85,15.8
1730.0,15.78,18.1
1732.0,15.75,18.0
1734.0,15.71,16.6
1736.0,15.68,14.4
1738.0,15.65,16.4
1740.0,15.63,15.7
1742.0,15.57,15.3
1744.0,15.55,14.7
1746.0,15.5,17.2
1748.0,15.48,13.2
1750.0,15.45,14.4
1752.0,15.41,14.6
1754.0,15.38,18.1
1756.0,15.35,12.3
1758.0,15.3,15.4
1760.0,15.27,14.4
1762.0,15.25,14.0
1764.0,15.22,16.3
1766.0,15.17,16.1
1768.0,15.14,15.2
1770.0,15.13,16.6
1772.0,15.09,14.5
1774.0,15.06,11.3
1776.0,15.04,14.6
1778.0,14.99,12.4
1780.0,14.97,12.7
1782.0,14.95,12.8
1784.0,14.9,12.4
1786.0,14.87,13.1
1788.0,14.85,13.0
1790.0,14.82,11.8
1792.0,14.79,15.8
1794.0,14.77,8.7
1796.0,14.74,12.4
1798.0,14.71,12.2
1800.0,14.67,11.0
1802.0,14.65,15.1
1804.0,14.61,11.3
1806.0,14.58,9.2
1808.0,14.56,11.0
1810.0,14.55,9.3
1812.0,14.52,10.2
1814.0,14.48,12.2
1816.0,14.45,12.4
1818.0,14.43,12.8
1820.0,14.41,11.8
1822.0,14.38,10.1
1824.0,14.35,9.1
1826.0,14.33,7.9
1828.0,14.31,10.4
1830.0,14.27,10.4
1832.0,14.25,5.7
1834.0,14.23,5.1
1836.0,14.2,9.6
1838.0,14.16,9.8
1840.0,14.15,11.8
1842.0,14.12,9.5
1844.0,14.08,10.2
1846.0,14.07,7.2
1848.0,14.05,7.5
1850.0,14.03,11.9
1852.0,14.01,7.8
1854.0,13.97,10.5
1856.0,13.95,9.8
1858.0,13.94,9.3
1860.0,13.92,11.9
1862.0,13.87,8.6
1864.0,13.86,6.0
1866.0,13.85,8.0
1868.0,13.82,8.4
1870.0,13.78,4.2
1872.0,13.78,1.8
1874.0,13.72,2.9
1876.0,13.71,2.4
1878.0,13.7,4.5
1880.0,13.68,2.3
1882.0,13.65,1.6
1884.0,13.62,3.7
1886.0,13.6,2.3
1888.0,13.59,2.6
1890.0,13.57,0.2
1892.0,13.54,2.7
1894.0,13.52,6.2
1896.0,13.5,2.7
1898.0,13.47,0.1
1900.0,13.46,1.6
1902.0,13.44,3.1
1904.0,13.41,2.8
1906.0,13.39,3.5
1908.0,13.36,1.1
1910.0,13.34,3.2
1912.0,13.33,0.1
1914.0,13.31,1.2
1916.0,13.29,4.1
1918.0,13.25,0.0
1920.0,13.24,1.9
1922.0,13.22,4.0
1924.0,13.21,5.1
1926.0,13.17,3.7
1928.0,13.17,4.2
1930.0,13.15,1.6
1932.0,13.13,1.0
1934.0,13.11,4.1
1936.0,13.08,0.0
1938.0,13.05,4.2
1940.0,13.04,2.2
1942.0,13.03,5.0
1944.0,13.0,2.4
1946.0,12.97,2.9
1948.0,12.96,4.1
1950.0,12.94,0.0
1952.0,12.92,1.6
1954.0,12.91,2.2
1956.0,12.89,1.8
1958.0,12.87,3.4
1960.0,12.86,0.5
1962.0,12.82,0.9
1964.0,12.81,0.0
1966.0,12.79,2.5
1968.0,12.78,0.0
1970.0,12.75,1.0
1972.0,12.72,0.0
1974.0,12.72,0.0
1976.0,12.7,0.0
1978.0,12.69,0.0
1980.0,12.68,0.0
1982.0,12.64,2.6
1984.0,12.63,4.1
1986.0,12.6,0.2
1988.0,12.59,0.1
1990.0,12.56,0.0
1992.0,12.53,0.5
1994.0,12.53,0.0
1996.0,12.51,0.0
1998.0,12.49,0.0
2000.0,12.46,0.0
2002.0,12.46,3.7
2004.0,12.45,0.0
2006.0,12.42,1.9
2008.0,12.41,3.2
2010.0,12.39,0.6
2012.0,12.37,0.7
2014.0,12.35,0.0
2016.0,12.34,0.0
2018.0,12.32,0.0
2020.0,12.29,0.0
2022.0,12.27,0.0
2024.0,12.25,0.8
2026.0,12.24,0.0
2028.0,12.23,1.4
2030.0,12.21,0.0
2032.0,12.19,0.1
2034.0,12.16,1.6
2036.0,12.16,0.5
2038.0,12.15,0.0
2040.0,12.13,1.7
2042.0,12.09,0.0
2044.0,12.09,1.4
2046.0,12.07,0.3
2048.0,12.06,0.0
2050.0,12.05,0.0
2052.0,12.02,0.0
2054.0,11.99,0.0
2056.0,11.99,0.7
2058.0,11.97,1.4
2060.0,11.96,0.0
2062.0,11.94,0.5
2064.0,11.91,1.5
2066.0,11.89,0.0
2068.0,11.88,0.0
2070.0,11.86,0.0
2072.0,11.85,2.2
2074.0,11.84,0.0
2076.0,11.82,0.0
2078.0,11.81,0.0
2080.0,11.79,0.0
2082.0,11.76,0.0
2084.0,11.75,1.6
2086.0,11.74,0.0
2088.0,11.71,0.2
2090.0,11.7,0.0
2092.0,11.7,0.0
2094.0,11.66,0.0
2096.0,11.65,0.0
2098.0,11.63,0.9
2100.0,11.64,0.0
2102.0,11.61,0.0
2104.0,11.59,0.0
2106.0,11.57,0.0
2108.0,11.54,1.5
2110.0,11.53,0.0
2112.0,11.52,0.0
2114.0,11.52,0.0
2116.0,11.51,0.0
2118.0,11.49,0.0
2120.0,11.46,0.0
2122.0,11.44,0.6
2124.0,11.43,0.0
2126.0,11.41,1.0
2128.0,11.4,0.0
2130.0,11.37,0.0
2132.0,11.36,0.0
2134.0,11.35,0.0
2136.0,11.34,0.0
2138.0,11.31,0.0
2140.0,11.29,0.0
2142.0,11.27,0.0
2144.0,11.27,0.0
2146.0,11.25,0.0
2148.0,11.24,0.0
2150.0,11.21,0.0
2152.0,11.2,0.0
2154.0,11.16,0.0
2156.0,11.17,0.0
2158.0,11.16,0.0
2160.0,11.15,0.0
2162.0,11.14,0.0
2164.0,11.11,0.0
2166.0,11.09,0.0
2168.0,11.08,0.0
2170.0,11.06,0.0
2172.0,11.05,0.0
2174.0,11.03,0.0
2176.0,11.02,0.0
2178.0,11.01,0.0
2180.0,10.99,0.0
2182.0,10.98,0.0
2184.0,10.95,0.0
2186.0,10.93,0.0
2188.0,10.93,0.0
2190.0,10.9,0.0
2192.0,10.89,0.0
2194.0,10.88,0.0
2196.0,10.85,0.0
2198.0,10.84,0.0
2200.0,10.83,0.0
2202.0,10.82,0.0
2204.0,10.8,0.0
2206.0,10.78,0.0
2208.0,10.77,0.0
2210.0,10.76,0.0
2212.0,10.74,0.0
2214.0,10.73,0.0
2216.0,10.72,0.0
2218.0,10.7,0.0
2220.0,10.67,0.0
2222.0,10.66,0.0
2224.0,10.66,0.0
2226.0,10.64,0.0
2228.0,10.62,0.0
2230.0,10.61,0.0
2232.0,10.59,0.0
2234.0,10.58,0.0
2236.0,10.57,0.0
2238.0,10.56,0.0
2240.0,10.53,0.0
2242.0,10.5,0.0
2244.0,10.5,0.0
2246.0,10.49,0.0
2248.0,10.48,0.0
2250.0,10.45,0.0
2252.0,10.44,0.0
2254.0,10.43,0.0
2256.0,10.42,0.0
2258.0,10.4,0.0
2260.0,10.39,0.0
2262.0,10.37,0.0
2264.0,10.36,0.0
2266.0,10.35,0.0
2268.0,10.34,0.0
2270.0,10.31,0.0
2272.0,10.28,0.0
2274.0,10.28,0.0
2276.0,10.26,0.0
2278.0,10.26,0.0
2280.0,10.24,0.0
2282.0,10.22,0.0
2284.0,10.2,0.0
2286.0,10.19,0.0
2288.0,10.18,0.0
2290.0,10.17,0.0
2292.0,10.14,0.0
2294.0,10.13,0.0
2296.0,10.11,0.0
2298.0,10.1,0.0
2300.0,10.09,0.0
2302.0,10.09,0.0
2304.0,10.07,0.0
2306.0,10.05,0.0
2308.0,10.03,0.0
2310.0,10.02,0.0
2312.0,10.0,0.0
2314.0,10.0,0.0
2316.0,9.99,0.0
2318.0,9.96,0.0
2320.0,9.95,0.0
2322.0,9.94,0.0
2324.0,9.93,0.0
2326.0,9.91,0.0
2328.0,9.89,0.0
2330.0,9.88,0.0
2332.0,9.86,0.0
2334.0,9.85,0.0
2336.0,9.83,0.0
2338.0,9.82,0.0
2340.0,9.8,0.0
2342.0,9.78,0.0
2344.0,9.76,0.0
2346.0,9.74,0.0
2348.0,9.74,0.0
2350.0,9.73,0.0
2352.0,9.71,0.0
2354.0,9.71,0.0
2356.0,9.7,0.0
2358.0,9.67,0.0
2360.0,9.65,0.0
2362.0,9.64,0.0
2364.0,9.63,0.0
2366.0,9.62,0.0
2368.0,9.6,0.0
2370.0,9.56,0.0
2372.0,9.56,0.0
2374.0,9.56,0.0
2376.0,9.55,4.9
2378.0,9.53,0.0
2380.0,9.51,0.0
2382.0,9.48,0.0
2384.0,9.48,0.0
2386.0,9.47,0.0
2388.0,9.45,0.0
2390.0,9.44,0.0
2392.0,9.42,0.0
2394.0,9.41,0.0
2396.0,9.39,0.0
2398.0,9.38,0.0
2400.0,9.37,0.0
2402.0,9.35,0.0
2404.0,9.34,0.0
2406.0,9.32,0.0
2408.0,9.31,0.0
2410.0,9.29,0.0
2412.0,9.28,0.0
2414.0,9.27,0.0
2416.0,9.24,0.0
2418.0,9.23,0.0
2420.0,9.22,0.0
2422.0,9.21,0.0
2424.0,9.19,0.0
2426.0,9.18,0.0
2428.0,9.16,0.0
2430.0,9.15,0.0
2432.0,9.14,0.0
2434.0,9.12,0.0
2436.0,9.11,0.0
2438.0,9.09,0.0
2440.0,9.06,0.0
2442.0,9.06,0.0
2444.0,9.05,0.0
2446.0,9.03,0.0
2448.0,9.02,0.0
2450.0,9.02,0.0
2452.0,9.0,0.0
2454.0,8.98,0.0
2456.0,8.97,0.0
2458.0,8.96,0.0
2460.0,8.93,0.0
2462.0,8.92,0.0
2464.0,8.91,0.0
2466.0,8.9,0.0
2468.0,8.89,0.0
2470.0,8.86,0.0
2472.0,8.84,0.0
2474.0,8.84,0.0
2476.0,8.83,0.0
2478.0,8.81,0.0
2480.0,8.8,0.0
2482.0,8.77,0.0
2484.0,8.77,0.0
2486.0,8.74,0.0
2488.0,8.74,0.0
2490.0,8.73,0.0
2492.0,8.7,0.0
2494.0,8.7,0.0
2496.0,8.68,0.0
2498.0,8.67,0.0
2500.0,8.66,0.0
2502.0,8.65,0.0
2504.0,8.64,0.0
2506.0,8.61,0.0
2508.0,8.6,0.0
2510.0,8.59,0.0
2512.0,8.57,0.0
2514.0,8.55,0.0
2516.0,8.55,0.0
2518.0,8.52,0.0
2520.0,8.51,0.0
2522.0,8.5,0.0
2524.0,8.49,0.0
2526.0,8.48,0.0
2528.0,8.47,0.0
2530.0,8.43,0.0
2532.0,8.42,0.0
2534.0,8.41,0.0
2536.0,8.4,0.0
2538.0,8.39,0.0
2540.0,8.37,0.0
2542.0,8.34,0.0
2544.0,8.34,0.0
2546.0,8.31,0.0
2548.0,8.31,0.0
2550.0,8.3,0.0
2552.0,8.29,0.0
2554.0,8.28,0.0
2556.0,8.27,0.0
2558.0,8.26,0.0
2560.0,8.23,0.0
2562.0,8.22,0.0
2564.0,8.21,0.0
2566.0,8.19,0.0
2568.0,8.18,0.0
2570.0,8.17,0.0
2572.0,8.14,0.0
2574.0,8.14,0.0
2576.0,8.13,0.0
2578.0,8.12,0.0
2580.0,8.11,0.0
2582.0,8.08,0.0
2584.0,8.06,0.0
2586.0,8.06,0.0
2588.0,8.04,0.0
2590.0,8.03,0.0
2592.0,8.02,0.0
2594.0,8.01,0.0
2596.0,7.98,0.0
2598.0,7.96,0.0
2600.0,7.96,0.0
2602.0,7.95,0.0
2604.0,7.94,0.0
2606.0,7.93,0.0
2608.0,7.9,0.0
2610.0,7.89,0.0
2612.0,7.89,0.0
2614.0,7.87,0.0
2616.0,7.86,0.0
2618.0,7.84,0.0
2620.0,7.81,0.0
2622.0,7.81,0.0
2624.0,7.8,0.0
2626.0,7.78,0.0
2628.0,7.77,0.0
2630.0,7.76,0.0
2632.0,7.74,0.0
2634.0,7.73,0.0
2636.0,7.71,0.0
2638.0,7.7,0.0
2640.0,7.69,0.0
2642.0,7.69,0.0
2644.0,7.66,0.0
2646.0,7.64,0.0
2648.0,7.64,0.0
2650.0,7.62,0.0
2652.0,7.59,0.0
2654.0,7.59,0.0
2656.0,7.59,0.0
2658.0,7.58,0.0
2660.0,7.57,0.0
2662.0,7.54,0.0
2664.0,7.52,0.0
2666.0,7.51,0.0
2668.0,7.5,0.0
2670.0,7.49,0.0
2672.0,7.49,0.0
2674.0,7.45,0.0
2676.0,7.43,0.0
2678.0,7.43,0.0
2680.0,7.41,0.0
2682.0,7.41,0.0
2684.0,7.4,0.0
2686.0,7.38,0.0
2688.0,7.37,0.0
2690.0,7.35,0.0
2692.0,7.34,0.0
2694.0,7.32,0.0
2696.0,7.31,0.0
2698.0,7.3,0.0
2700.0,7.28,0.0