File: Wood/Calibration_Data/TUBS/TUBS_Cone_30kW_hor_R2.csv
Time (s),Mass (g),HRR (kW/m2)
0.0,85.97,0.9
2.0,85.91,0.0
4.0,85.9,0.0
6.0,85.88,0.0
8.0,85.84,0.0
10.0,85.83,0.0
12.0,85.82,0.0
14.0,85.8,1.7
16.0,85.79,0.0
18.0,85.76,0.0
20.0,85.73,0.0
22.0,85.7,0.0
24.0,85.69,1.0
26.0,85.65,1.1
28.0,85.59,0.0
30.0,85.35,8.5
32.0,85.11,34.3
34.0,84.91,51.5
36.0,84.69,97.8
38.0,84.35,122.7
40.0,84.2,155.0
42.0,84.02,163.0
44.0,83.82,165.3
46.0,83.74,165.2
48.0,83.53,147.9
50.0,83.37,145.9
52.0,83.25,127.9
54.0,83.14,120.2
56.0,82.99,113.1
58.0,82.87,109.2
60.0,82.75,100.0
62.0,82.58,95.0
64.0,82.51,91.6
66.0,82.42,89.0
68.0,82.28,86.5
70.0,82.2,84.5
72.0,82.1,81.4
74.0,81.95,78.2
76.0,81.87,78.1
78.0,81.75,77.0
80.0,81.65,73.6
82.0,81.55,78.4
84.0,81.45,72.8
86.0,81.35,72.9
88.0,81.24,72.1
90.0,81.15,69.9
92.0,81.05,69.6
94.0,80.93,70.1
96.0,80.86,70.6
98.0,80.73,68.6
100.0,80.64,68.1
102.0,80.57,69.1
104.0,80.44,69.5
106.0,80.33,67.7
108.0,80.26,67.1
110.0,80.15,63.0
112.0,80.08,66.8
114.0,79.96,63.8
116.0,79.87,66.9
118.0,79.8,63.9
120.0,79.7,63.7
122.0,79.64,60.4
124.0,79.53,59.9
126.0,79.47,60.2
128.0,79.33,60.2
130.0,79.27,61.0
132.0,79.17,61.1
134.0,79.07,62.1
136.0,79.01,63.4
138.0,78.89,61.9
140.0,78.8,62.2
142.0,78.74,62.0
144.0,78.63,60.7
146.0,78.54,62.4
148.0,78.47,58.6
150.0,78.37,59.2
152.0,78.28,61.2
154.0,78.22,57.8
156.0,78.1,59.0
158.0,78.02,55.2
160.0,77.95,56.1
162.0,77.85,55.6
164.0,77.79,56.7
166.0,77.71,57.9
168.0,77.62,60.2
170.0,77.54,59.4
172.0,77.45,57.9
174.0,77.35,55.5
176.0,77.27,55.2
178.0,77.19,59.4
180.0,77.09,57.2
182.0,77.02,54.2
184.0,76.94,55.2
186.0,76.85,52.4
188.0,76.76,58.2
190.0,76.7,54.1
192.0,76.57,53.4
194.0,76.51,56.8
196.0,76.45,52.9
198.0,76.31,51.5
200.0,76.26,50.9
202.0,76.19,53.3
204.0,76.09,50.8
206.0,76.0,57.7
208.0,75.95,56.7
210.0,75.86,54.2
212.0,75.74,52.3
214.0,75.68,56.8
216.0,75.61,52.4
218.0,75.49,52.4
220.0,75.44,52.9
222.0,75.36,55.6
224.0,75.23,54.1
226.0,75.18,52.6
228.0,75.09,54.3
230.0,75.0,55.5
232.0,74.92,53.0
234.0,74.82,48.9
236.0,74.73,52.6
238.0,74.67,51.7
240.0,74.56,56.6
242.0,74.47,55.8
244.0,74.41,52.7
246.0,74.31,56.0
248.0,74.23,56.0
250.0,74.15,56.4
252.0,74.09,54.5
254.0,73.94,51.5
256.0,73.89,50.9
258.0,73.83,51.8
260.0,73.74,51.5
262.0,73.65,53.4
264.0,73.54,56.7
266.0,73.47,53.0
268.0,73.37,55.5
270.0,73.28,52.5
272.0,73.16,55.7
274.0,73.12,58.1
276.0,73.01,57.6
278.0,72.92,56.9
280.0,72.85,58.9
282.0,72.78,59.0
284.0,72.67,56.0
286.0,72.57,58.5
288.0,72.51,57.9
290.0,72.37,59.3
292.0,72.31,53.6
294.0,72.2,53.0
296.0,72.12,54.8
298.0,72.05,57.4
300.0,71.94,56.0
302.0,71.87,57.3
304.0,71.78,58.9
306.0,71.69,56.8
308.0,71.59,59.5
310.0,71.52,55.9
312.0,71.43,56.6
314.0,71.32,58.1
316.0,71.25,56.5
318.0,71.15,58.5
320.0,71.07,58.4
322.0,70.98,57.2
324.0,70.91,56.2
326.0,70.78,55.9
328.0,70.73,55.9
330.0,70.61,54.8
332.0,70.54,53.4
334.0,70.46,57.3
336.0,70.36,56.2
338.0,70.29,59.4
340.0,70.2,57.5
342.0,70.1,57.3
344.0,69.99,57.5
346.0,69.94,56.8
348.0,69.85,58.9
350.0,69.74,57.7
352.0,69.7,57.4
354.0,69.57,57.0
356.0,69.5,56.5
358.0,69.4,54.9
360.0,69.3,57.4
362.0,69.25,56.1
364.0,69.15,56.9
366.0,69.03,56.1
368.0,68.97,58.6
370.0,68.88,56.8
372.0,68.76,57.4
374.0,68.7,56.8
376.0,68.62,56.9
378.0,68.5,53.9
380.0,68.44,59.0
382.0,68.36,58.6
384.0,68.24,53.5
386.0,68.19,57.0
388.0,68.09,57.5
390.0,67.97,55.8
392.0,67.93,53.1
394.0,67.84,56.7
396.0,67.72,57.9
398.0,67.66,58.6
400.0,67.57,56.7
402.0,67.45,59.1
404.0,67.38,57.3
406.0,67.3,56.7
408.0,67.18,53.4
410.0,67.12,56.9
412.0,67.04,58.2
414.0,66.93,59.5
416.0,66.87,59.5
418.0,66.77,57.2
420.0,66.67,54.7
422.0,66.61,58.2
424.0,66.5,53.8
426.0,66.4,53.8
428.0,66.33,53.3
430.0,66.25,55.5
432.0,66.13,54.8
434.0,66.08,56.5
436.0,65.99,56.4
438.0,65.88,57.3
440.0,65.81,55.8
442.0,65.72,54.0
444.0,65.62,56.6
446.0,65.55,55.8
448.0,65.47,59.2
450.0,65.35,57.9
452.0,65.29,61.1
454.0,65.2,53.2
456.0,65.09,55.2
458.0,65.03,57.5
460.0,64.94,59.3
462.0,64.87,56.0
464.0,64.76,54.8
466.0,64.69,56.4
468.0,64.56,52.2
470.0,64.5,54.5
472.0,64.43,55.2
474.0,64.33,55.7
476.0,64.24,55.7
478.0,64.17,54.9
480.0,64.04,54.5
482.0,63.97,57.8
484.0,63.92,55.8
486.0,63.78,54.3
488.0,63.72,58.1
490.0,63.63,56.1
492.0,63.51,56.7
494.0,63.47,57.0
496.0,63.38,55.3
498.0,63.25,59.8
500.0,63.19,55.0
502.0,63.12,58.1
504.0,62.98,56.4
506.0,62.93,56.5
508.0,62.85,55.2
510.0,62.73,58.5
512.0,62.66,55.1
514.0,62.59,57.4
516.0,62.47,52.9
518.0,62.4,53.8
520.0,62.33,54.3
522.0,62.2,56.9
524.0,62.14,54.1
526.0,62.06,53.9
528.0,61.93,54.0
530.0,61.88,57.6
532.0,61.8,55.8
534.0,61.68,54.2
536.0,61.61,56.2
538.0,61.55,51.9
540.0,61.43,52.7
542.0,61.37,55.3
544.0,61.28,55.5
546.0,61.16,51.9
548.0,61.09,55.0
550.0,61.01,58.5
552.0,60.92,59.1
554.0,60.81,56.4
556.0,60.75,55.9
558.0,60.66,52.4
560.0,60.57,55.1
562.0,60.5,54.1
564.0,60.4,53.9
566.0,60.33,54.5
568.0,60.22,56.0
570.0,60.14,54.9
572.0,60.03,58.5
574.0,59.97,55.3
576.0,59.88,53.9
578.0,59.8,54.3
580.0,59.7,55.5
582.0,59.63,58.3
584.0,59.52,56.8
586.0,59.43,58.1
588.0,59.35,58.6
590.0,59.24,55.9
592.0,59.17,55.3
594.0,59.08,58.4
596.0,59.02,57.0
598.0,58.91,55.6
600.0,58.84,56.8
602.0,58.74,56.8
604.0,58.65,55.8
606.0,58.56,52.7
608.0,58.48,53.2
610.0,58.39,56.4
612.0,58.3,54.0
614.0,58.23,54.8
616.0,58.13,55.3
618.0,58.04,54.8
620.0,57.97,54.9
622.0,57.86,54.1
624.0,57.77,53.1
626.0,57.7,56.8
628.0,57.61,55.8
630.0,57.52,53.4
632.0,57.43,55.8
634.0,57.35,52.6
636.0,57.26,54.2
638.0,57.17,58.3
640.0,57.08,56.6
642.0,57.0,53.1
644.0,56.92,53.8
646.0,56.82,55.6
648.0,56.75,53.6
650.0,56.64,51.4
652.0,56.63,55.2
654.0,56.47,54.7
656.0,56.39,54.9
658.0,56.31,55.0
660.0,56.23,54.9
662.0,56.16,55.8
664.0,56.03,54.4
666.0,55.97,56.0
668.0,55.89,54.7
670.0,55.78,54.3
672.0,55.7,54.0
674.0,55.62,54.4
676.0,55.55,54.1
678.0,55.43,54.7
680.0,55.38,56.1
682.0,55.27,50.5
684.0,55.18,57.7
686.0,55.11,55.8
688.0,55.04,52.6
690.0,54.93,48.6
692.0,54.88,49.8
694.0,54.78,54.1
696.0,54.68,55.5
698.0,54.62,55.9
700.0,54.51,52.2
702.0,54.43,50.6
704.0,54.36,50.2
706.0,54.26,52.1
708.0,54.17,53.2
710.0,54.11,52.5
712.0,54.02,51.7
714.0,53.92,51.3
716.0,53.85,51.8
718.0,53.77,52.4
720.0,53.66,51.7
722.0,53.61,52.5
724.0,53.52,52.1
726.0,53.42,51.9
728.0,53.36,49.9
730.0,53.24,49.0
732.0,53.17,50.4
734.0,53.1,51.4
736.0,53.01,50.7
738.0,52.9,54.4
740.0,52.85,53.4
742.0,52.75,51.3
744.0,52.69,52.5
746.0,52.6,53.3
748.0,52.51,51.8
750.0,52.43,52.6
752.0,52.35,51.4
754.0,52.26,50.7
756.0,52.19,49.3
758.0,52.13,49.1
760.0,52.04,46.7
762.0,51.95,51.9
764.0,51.88,51.2
766.0,51.78,52.5
768.0,51.69,48.8
770.0,51.63,51.6
772.0,51.52,48.9
774.0,51.45,53.4
776.0,51.39,49.1
778.0,51.28,48.7
780.0,51.24,51.4
782.0,51.13,50.7
784.0,51.05,49.1
786.0,50.98,51.0
788.0,50.89,50.0
790.0,50.83,50.7
792.0,50.7,56.1
794.0,50.65,45.9
796.0,50.6,48.9
798.0,50.48,50.1
800.0,50.41,49.2
802.0,50.35,48.1
804.0,50.23,53.1
806.0,50.14,52.6
808.0,50.08,49.6
810.0,50.01,48.2
812.0,49.91,51.8
814.0,49.84,51.6
816.0,49.76,51.2
818.0,49.69,49.5
820.0,49.59,50.2
822.0,49.53,50.6
824.0,49.44,48.2
826.0,49.36,50.1
828.0,49.29,52.1
830.0,49.21,47.2
832.0,49.13,48.7
834.0,49.05,46.9
836.0,48.96,49.3
838.0,48.88,48.3
840.0,48.8,49.7
842.0,48.73,51.3
844.0,48.64,50.4
846.0,48.55,46.1
848.0,48.5,49.1
850.0,48.37,50.4
852.0,48.31,51.4
854.0,48.27,50.6
856.0,48.16,49.0
858.0,48.08,50.0
860.0,48.02,47.4
862.0,47.95,44.6
864.0,47.86,49.0
866.0,47.78,44.0
868.0,47.73,49.0
870.0,47.62,49.9
872.0,47.55,50.9
874.0,47.46,47.6
876.0,47.37,49.6
878.0,47.29,48.0
880.0,47.21,47.4
882.0,47.15,47.5
884.0,47.05,47.3
886.0,46.98,49.0
888.0,46.9,48.2
890.0,46.81,50.5
892.0,46.73,47.3
894.0,46.66,49.0
896.0,46.59,48.4
898.0,46.5,48.6
900.0,46.43,48.0
902.0,46.36,51.3
904.0,46.25,52.1
906.0,46.2,47.1
908.0,46.14,48.4
910.0,46.01,48.4
912.0,45.96,46.1
914.0,45.9,48.4
916.0,45.8,50.5
918.0,45.71,48.9
920.0,45.66,47.3
922.0,45.57,47.3
924.0,45.48,47.0
926.0,45.42,47.5
928.0,45.34,49.8
930.0,45.24,50.2
932.0,45.18,48.8
934.0,45.11,48.9
936.0,45.03,50.0
938.0,44.94,48.4
940.0,44.87,46.5
942.0,44.8,45.4
944.0,44.72,49.7
946.0,44.63,47.4
948.0,44.57,49.8
950.0,44.48,48.6
952.0,44.39,48.8
954.0,44.34,48.7
956.0,44.24,48.0
958.0,44.16,49.6
960.0,44.1,49.9
962.0,44.02,47.8
964.0,43.9,46.7
966.0,43.86,46.4
968.0,43.82,50.2
970.0,43.69,50.1
972.0,43.63,47.2
974.0,43.56,47.4
976.0,43.44,49.1
978.0,43.39,50.1
980.0,43.34,49.5
982.0,43.23,45.9
984.0,43.14,45.7
986.0,43.1,48.3
988.0,43.01,48.6
990.0,42.91,48.8
992.0,42.86,48.8
994.0,42.79,46.2
996.0,42.69,50.2
998.0,42.63,47.4
1000.0,42.54,48.6
1002.0,42.46,48.4
1004.0,42.38,49.1
1006.0,42.3,46.7
1008.0,42.23,47.9
1010.0,42.14,48.4
1012.0,42.07,49.1
1014.0,42.0,46.6
1016.0,41.91,47.0
1018.0,41.83,49.2
1020.0,41.77,52.3
1022.0,41.68,52.5
1024.0,41.59,50.0
1026.0,41.53,52.3
1028.0,41.46,48.1
1030.0,41.34,50.4
1032.0,41.29,50.2
1034.0,41.22,49.7
1036.0,41.13,47.6
1038.0,41.05,50.2
1040.0,41.0,46.6
1042.0,40.89,47.5
1044.0,40.8,49.0
1046.0,40.75,47.0
1048.0,40.65,48.7
1050.0,40.57,49.1
1052.0,40.51,49.2
1054.0,40.41,47.0
1056.0,40.32,51.2
1058.0,40.27,52.3
1060.0,40.19,53.1
1062.0,40.11,53.4
1064.0,40.05,49.8
1066.0,39.95,51.3
1068.0,39.86,46.6
1070.0,39.79,51.3
1072.0,39.72,47.8
1074.0,39.64,47.5
1076.0,39.56,49.2
1078.0,39.48,50.5
1080.0,39.4,48.8
1082.0,39.33,49.2
1084.0,39.22,50.0
1086.0,39.18,49.9
1088.0,39.08,53.3
1090.0,38.98,51.9
1092.0,38.92,51.3
1094.0,38.84,52.2
1096.0,38.73,51.5
1098.0,38.68,56.9
1100.0,38.59,54.4
1102.0,38.48,55.5
1104.0,38.42,54.5
1106.0,38.37,53.6
1108.0,38.23,53.9
1110.0,38.18,54.8
1112.0,38.11,50.1
1114.0,38.01,49.0
1116.0,37.92,49.7
1118.0,37.87,52.9
1120.0,37.76,51.4
1122.0,37.67,55.5
1124.0,37.61,54.5
1126.0,37.49,55.2
1128.0,37.41,53.8
1130.0,37.35,53.4
1132.0,37.25,53.2
1134.0,37.16,51.8
1136.0,37.1,52.1
1138.0,37.01,54.5
1140.0,36.92,51.4
1142.0,36.84,54.3
1144.0,36.75,53.3
1146.0,36.66,54.2
1148.0,36.6,53.9
1150.0,36.48,51.4
1152.0,36.4,52.4
1154.0,36.34,50.6
1156.0,36.24,52.9
1158.0,36.16,53.8
1160.0,36.07,54.2
1162.0,36.0,54.0
1164.0,35.88,57.6
1166.0,35.82,55.9
1168.0,35.72,54.2
1170.0,35.65,56.4
1172.0,35.56,54.7
1174.0,35.46,54.3
1176.0,35.38,53.0
1178.0,35.28,54.0
1180.0,35.16,55.5
1182.0,35.11,53.0
1184.0,35.01,56.6
1186.0,34.94,58.4
1188.0,34.84,59.1
1190.0,34.75,51.8
1192.0,34.67,51.4
1194.0,34.58,56.9
1196.0,34.51,55.8
1198.0,34.38,54.1
1200.0,34.31,57.2
1202.0,34.25,52.4
1204.0,34.13,56.9
1206.0,34.04,57.6
1208.0,33.98,57.4
1210.0,33.86,57.3
1212.0,33.77,60.0
1214.0,33.7,58.5
1216.0,33.56,57.0
1218.0,33.51,60.3
1220.0,33.38,58.4
1222.0,33.3,56.2
1224.0,33.23,61.1
1226.0,33.11,57.3
1228.0,33.02,57.4
1230.0,32.94,57.6
1232.0,32.86,58.6
1234.0,32.74,56.8
1236.0,32.69,59.4
1238.0,32.57,63.5
1240.0,32.46,62.2
1242.0,32.4,59.5
1244.0,32.28,58.6
1246.0,32.17,60.9
1248.0,32.1,62.7
1250.0,31.99,60.9
1252.0,31.91,61.0
1254.0,31.8,63.3
1256.0,31.71,60.9
1258.0,31.62,58.1
1260.0,31.52,60.0
1262.0,31.42,61.9
1264.0,31.31,60.8
1266.0,31.21,61.2
1268.0,31.14,63.7
1270.0,31.02,61.9
1272.0,30.91,63.6
1274.0,30.82,65.9
1276.0,30.71,65.0
1278.0,30.6,63.2
1280.0,30.53,63.7
1282.0,30.39,64.4
1284.0,30.32,63.4
1286.0,30.26,63.2
1288.0,30.1,63.7
1290.0,30.03,64.5
1292.0,29.91,62.5
1294.0,29.83,63.3
1296.0,29.73,64.1
1298.0,29.6,63.9
1300.0,29.53,63.5
1302.0,29.4,64.5
1304.0,29.28,66.7
1306.0,29.21,64.7
1308.0,29.1,63.8
1310.0,28.97,63.5
1312.0,28.9,65.6
1314.0,28.77,65.5
1316.0,28.68,64.1
1318.0,28.58,66.2
1320.0,28.48,69.1
1322.0,28.4,66.1
1324.0,28.26,64.3
1326.0,28.16,66.1
1328.0,28.09,66.1
1330.0,27.95,67.6
1332.0,27.87,68.0
1334.0,27.75,67.8
1336.0,27.64,67.3
1338.0,27.56,67.3
1340.0,27.41,66.1
1342.0,27.32,67.5
1344.0,27.2,66.5
1346.0,27.1,68.0
1348.0,27.02,66.7
1350.0,26.9,66.7
1352.0,26.82,69.6
1354.0,26.7,68.0
1356.0,26.58,69.1
1358.0,26.51,69.3
1360.0,26.38,68.6
1362.0,26.28,66.7
1364.0,26.17,68.1
1366.0,26.07,70.7
1368.0,25.96,66.0
1370.0,25.86,67.6
1372.0,25.74,71.5
1374.0,25.68,68.4
1376.0,25.53,68.5
1378.0,25.44,66.8
1380.0,25.35,67.6
1382.0,25.2,67.9
1384.0,25.11,66.4
1386.0,25.01,70.2
1388.0,24.93,67.5
1390.0,24.82,68.9
1392.0,24.75,68.0
1394.0,24.59,66.9
1396.0,24.5,68.8
1398.0,24.39,69.0
1400.0,24.29,67.6
1402.0,24.16,66.7
1404.0,24.09,65.1
1406.0,23.96,66.8
1408.0,23.86,68.0
1410.0,23.78,68.8
1412.0,23.66,68.6
1414.0,23.54,68.4
1416.0,23.47,64.3
1418.0,23.32,64.1
1420.0,23.27,68.6
1422.0,23.16,67.9
1424.0,23.03,64.4
1426.0,22.96,70.3
1428.0,22.86,66.3
1430.0,22.74,66.3
1432.0,22.66,64.4
1434.0,22.54,66.1
1436.0,22.44,66.9
1438.0,22.33,63.9
1440.0,22.24,65.2
1442.0,22.14,66.0
1444.0,22.05,67.0
1446.0,21.95,65.4
1448.0,21.86,64.6
1450.0,21.74,64.8
1452.0,21.68,65.3
1454.0,21.56,62.9
1456.0,21.46,65.4
1458.0,21.4,63.2
1460.0,21.27,61.8
1462.0,21.18,60.2
1464.0,21.12,63.4
1466.0,20.98,61.3
1468.0,20.91,61.2
1470.0,20.86,58.7
1472.0,20.76,62.7
1474.0,20.65,60.5
1476.0,20.61,60.1
1478.0,20.47,58.1
1480.0,20.4,59.6
1482.0,20.33,61.0
1484.0,20.19,61.5
1486.0,20.14,61.6
1488.0,20.1,59.4
1490.0,19.98,57.6
1492.0,19.9,57.6
1494.0,19.84,56.7
1496.0,19.74,55.1
1498.0,19.66,54.5
1500.0,19.61,54.7
1502.0,19.56,56.0
1504.0,19.45,56.2
1506.0,19.39,52.9
1508.0,19.32,48.9
1510.0,19.25,50.1
1512.0,19.16,50.6
1514.0,19.11,49.7
1516.0,19.04,48.2
1518.0,18.97,49.9
1520.0,18.89,48.2
1522.0,18.85,47.8
1524.0,18.79,45.4
1526.0,18.71,45.9
1528.0,18.64,46.2
1530.0,18.59,42.7
1532.0,18.53,43.1
1534.0,18.47,43.8
1536.0,18.41,41.0
1538.0,18.36,41.5
1540.0,18.3,44.5
1542.0,18.24,40.2
1544.0,18.17,42.2
1546.0,18.13,41.6
1548.0,18.08,38.6
1550.0,18.01,41.3
1552.0,17.96,39.2
1554.0,17.92,41.6
1556.0,17.87,41.8
1558.0,17.8,36.1
1560.0,17.77,40.9
1562.0,17.73,38.8
1564.0,17.66,36.1
1566.0,17.6,33.3
1568.0,17.55,35.2
1570.0,17.52,38.7
1572.0,17.46,35.9
1574.0,17.41,40.1
1576.0,17.36,34.7
1578.0,17.32,40.5
1580.0,17.26,38.3
1582.0,17.23,37.9
1584.0,17.2,35.5
1586.0,17.13,35.5
1588.0,17.07,35.6
1590.0,17.04,35.4
1592.0,17.0,35.2
1594.0,16.96,36.1
1596.0,16.91,34.0
1598.0,16.85,35.9
1600.0,16.82,35.0
1602.0,16.79,32.7
1604.0,16.75,33.7
1606.0,16.71,36.3
1608.0,16.67,34.7
1610.0,16.61,35.2
1612.0,16.58,34.6
1614.0,16.53,34.1
1616.0,16.5,34.1
1618.0,16.48,30.6
1620.0,16.43,33.0
1622.0,16.38,33.8
1624.0,16.34,34.2
1626.0,16.3,32.8
1628.0,16.27,32.8
1630.0,16.25,31.7
1632.0,16.19,30.7
1634.0,16.15,27.5
1636.0,16.11,30.6
1638.0,16.09,31.1
1640.0,16.05,29.0
1642.0,16.02,27.5
1644.0,15.98,29.8
1646.0,15.95,27.8
1648.0,15.89,27.8
1650.0,15.86,26.8
1652.0,15.83,27.6
1654.0,15.79,25.1
1656.0,15.77,22.1
1658.0,15.73,23.3
1660.0,15.69,26.1
1662.0,15.66,25.8
1664.0,15.6,24.0
1666.0,15.58,22.1
1668.0,15.56,23.1
1670.0,15.52,24.6
1672.0,15.48,26.0
1674.0,15.46,25.5
1676.0,15.41,24.4
1678.0,15.39,23.3
1680.0,15.36,27.2
1682.0,15.32,23.5
1684.0,15.28,24.1
1686.0,15.25,26.1
1688.0,15.2,25.1
1690.0,15.19,24.6
1692.0,15.17,22.7
1694.0,15.14,22.3
1696.0,15.07,24.4
1698.0,15.07,24.7
1700.0,15.03,23.9
1702.0,15.01,24.7
1704.0,14.97,23.5
1706.0,14.93,24.9
1708.0,14.91,22.9
1710.0,14.87,23.5
1712.0,14.84,20.0
1714.0,14.82,24.0
1716.0,14.8,22.7
1718.0,14.74,19.5
1720.0,14.72,21.5
1722.0,14.69,19.6
1724.0,14.66,20.1
1726.0,14.64,20.3
1728.0,14.62,19.7
1730.0,14.56,20.5
1732.0,14.56,20.1
1734.0,14.52,18.0
1736.0,14.48,22.5
1738.0,14.46,18.9
1740.0,14.45,20.7
1742.0,14.4,20.6
1744.0,14.37,19.7
1746.0,14.34,17.8
1748.0,14.32,19.7
1750.0,14.29,20.7
1752.0,14.27,21.6
1754.0,14.24,20.0
1756.0,14.21,17.8
1758.0,14.2,17.5
1760.0,14.16,19.6
1762.0,14.13,20.5
1764.0,14.11,21.1
1766.0,14.08,19.2
1768.0,14.05,19.5
1770.0,14.02,17.4
1772.0,13.99,16.9
1774.0,13.97,16.4
1776.0,13.94,19.2
1778.0,13.93,22.0
1780.0,13.9,16.3
1782.0,13.86,15.5
1784.0,13.84,16.1
1786.0,13.82,19.2
1788.0,13.8,17.9
1790.0,13.76,16.0
1792.0,13.73,17.7
1794.0,13.72,19.2
1796.0,13.68,17.3
1798.0,13.67,17.2
1800.0,13.63,18.0
1802.0,13.6,18.2
1804.0,13.59,15.6
1806.0,13.58,17.0
1808.0,13.55,14.8
1810.0,13.54,15.5
1812.0,13.49,17.7
1814.0,13.48,11.2
1816.0,13.46,17.1
1818.0,13.42,13.7
1820.0,13.4,14.3
1822.0,13.38,16.4
1824.0,13.37,16.9
1826.0,13.33,14.8
1828.0,13.31,14.9
1830.0,13.29,16.6
1832.0,13.27,16.6
1834.0,13.22,13.5
1836.0,13.22,16.0
1838.0,13.2,15.7
1840.0,13.18,15.5
1842.0,13.15,17.1
1844.0,13.12,15.5
1846.0,13.11,14.9
1848.0,13.09,14.6
1850.0,13.04,15.8
1852.0,13.03,17.2
1854.0,13.02,17.7
1856.0,13.0,14.1
1858.0,12.97,14.3
1860.0,12.94,14.6
1862.0,12.93,12.6
1864.0,12.91,16.4
1866.0,12.88,12.9
1868.0,12.87,14.6
1870.0,12.86,15.8
1872.0,12.82,13.6
1874.0,12.81,12.6
1876.0,12.79,14.4
1878.0,12.77,13.4
1880.0,12.75,12.3
1882.0,12.71,11.5
1884.0,12.69,12.1
1886.0,12.68,12.2
1888.0,12.67,14.6
1890.0,12.65,13.1
1892.0,12.6,14.4
1894.0,12.6,12.1
1896.0,12.58,12.2
1898.0,12.56,14.3
1900.0,12.53,12.8
1902.0,12.52,11.7
1904.0,12.5,12.9
1906.0,12.48,12.9
1908.0,12.46,10.6
1910.0,12.43,13.4
1912.0,12.43,12.9
1914.0,12.4,14.8
1916.0,12.38,16.4
1918.0,12.34,13.0
1920.0,12.34,14.1
1922.0,12.32,13.7
1924.0,12.31,14.6
1926.0,12.29,13.5
1928.0,12.26,14.4
1930.0,12.25,14.5
1932.0,12.23,16.0
1934.0,12.21,13.0
1936.0,12.2,13.1
1938.0,12.16,8.4
1940.0,12.14,10.9
1942.0,12.13,13.4
1944.0,12.12,13.9
1946.0,12.08,10.3
1948.0,12.06,8.7
1950.0,12.05,10.0
1952.0,12.04,14.8
1954.0,12.02,12.6
1956.0,11.98,10.6
1958.0,11.97,11.9
1960.0,11.96,13.4
1962.0,11.95,10.9
1964.0,11.93,13.4
1966.0,11.89,11.2
1968.0,11.89,8.6
1970.0,11.87,12.9
1972.0,11.85,15.8
1974.0,11.82,14.3
1976.0,11.8,13.0
1978.0,11.79,12.9
1980.0,11.79,13.5
1982.0,11.77,11.8
1984.0,11.73,12.3
1986.0,11.72,12.2
1988.0,11.71,8.8
1990.0,11.69,11.3
1992.0,11.67,15.2
1994.0,11.64,12.3
1996.0,11.63,14.6
1998.0,11.62,9.3
2000.0,11.6,12.2
2002.0,11.58,7.9
2004.0,11.57,11.7
2006.0,11.54,10.8
2008.0,11.53,11.1
2010.0,11.51,9.4
2012.0,11.5,10.4
2014.0,11.48,10.0
2016.0,11.46,6.7
2018.0,11.43,9.8
2020.0,11.42,13.5
2022.0,11.41,14.0
2024.0,11.4,13.2
2026.0,11.37,11.2
2028.0,11.34,10.2
2030.0,11.34,10.9
2032.0,11.33,12.3
2034.0,11.32,9.3
2036.0,11.29,8.5
2038.0,11.26,10.2
2040.0,11.25,10.4
2042.0,11.25,8.6
2044.0,11.23,13.7
2046.0,11.21,11.7
2048.0,11.2,9.7
2050.0,11.17,11.8
2052.0,11.16,10.5
2054.0,11.15,9.2
2056.0,11.13,9.7
2058.0,11.12,8.7
2060.0,11.09,9.4
2062.0,11.07,8.7
2064.0,11.06,9.6
2066.0,11.04,10.2
2068.0,11.03,11.5
2070.0,11.0,12.7
2072.0,10.99,11.5
2074.0,10.99,10.0
2076.0,10.97,13.0
2078.0,10.95,9.5
2080.0,10.92,9.7
2082.0,10.91,8.8
2084.0,10.91,11.5
2086.0,10.9,5.7
2088.0,10.88,10.0
2090.0,10.85,6.0
2092.0,10.84,13.5
2094.0,10.82,12.7
2096.0,10.81,12.8
2098.0,10.8,11.2
2100.0,10.78,10.9
2102.0,10.75,9.1
2104.0,10.74,9.4
2106.0,10.71,8.9
2108.0,10.7,9.3
2110.0,10.7,9.4
2112.0,10.68,8.5
2114.0,10.67,6.9
2116.0,10.65,2.5
2118.0,10.63,7.6
2120.0,10.62,10.6
2122.0,10.62,7.9
2124.0,10.59,8.0
2126.0,10.59,8.8
2128.0,10.56,7.9
2130.0,10.54,8.3
2132.0,10.52,6.6
2134.0,10.51,7.9
2136.0,10.5,9.6
2138.0,10.48,9.5
2140.0,10.47,7.7
2142.0,10.44,10.1
2144.0,10.43,7.5
2146.0,10.42,6.7
2148.0,10.41,8.5
2150.0,10.4,10.2
2152.0,10.37,11.2
2154.0,10.36,9.3
2156.0,10.34,6.6
2158.0,10.33,16.1
2160.0,10.32,8.4
2162.0,10.3,10.3
2164.0,10.29,10.8
2166.0,10.27,11.7
2168.0,10.26,12.8
2170.0,10.24,9.1
2172.0,10.22,7.8
2174.0,10.2,9.2
2176.0,10.18,9.1
2178.0,10.17,8.9
2180.0,10.16,8.9
2182.0,10.15,9.6
2184.0,10.12,8.5
2186.0,10.11,5.7
2188.0,10.1,7.8
2190.0,10.09,10.6
2192.0,10.07,4.8
2194.0,10.04,8.7
2196.0,10.03,10.3
2198.0,10.02,8.1
2200.0,10.02,9.2
2202.0,9.97,10.3
2204.0,9.97,9.2
2206.0,9.97,9.4
2208.0,9.95,8.9
2210.0,9.93,8.5
2212.0,9.92,7.9
2214.0,9.9,6.7
2216.0,9.89,8.4
2218.0,9.89,10.0
2220.0,9.87,8.6
2222.0,9.86,7.0
2224.0,9.83,9.5
2226.0,9.8,9.1
2228.0,9.79,6.3
2230.0,9.79,7.8
2232.0,9.77,8.6
2234.0,9.76,7.2
2236.0,9.75,10.3
2238.0,9.73,8.5
2240.0,9.72,9.8
2242.0,9.71,8.0
2244.0,9.68,10.4
2246.0,9.67,10.2
2248.0,9.66,8.5
2250.0,9.64,10.0
2252.0,9.62,10.1
2254.0,9.62,7.2
2256.0,9.6,9.4
2258.0,9.59,8.9
2260.0,9.58,7.4
2262.0,9.55,13.1
2264.0,9.54,8.4
2266.0,9.52,10.5
2268.0,9.51,7.8
2270.0,9.51,7.9
2272.0,9.49,5.7
2274.0,9.46,9.7
2276.0,9.46,8.8
2278.0,9.45,7.5
2280.0,9.44,5.0
2282.0,9.43,6.9
2284.0,9.4,7.5
2286.0,9.39,7.8
2288.0,9.38,5.4
2290.0,9.37,7.2
2292.0,9.35,5.3
2294.0,9.33,5.1
2296.0,9.32,6.8
2298.0,9.3,6.9
2300.0,9.3,7.5
2302.0,9.28,7.4
2304.0,9.26,6.2
2306.0,9.26,10.1
2308.0,9.23,6.8
2310.0,9.23,6.1
2312.0,9.21,7.2
2314.0,9.21,7.5
2316.0,9.18,4.1
2318.0,9.17,4.8
2320.0,9.15,7.6
2322.0,9.13,5.9
2324.0,9.12,5.5
2326.0,9.11,8.7
2328.0,9.1,7.2
2330.0,9.08,6.1
2332.0,9.06,8.6
2334.0,9.05,6.2
2336.0,9.04,4.2
2338.0,9.03,6.7
2340.0,9.02,7.4
2342.0,9.01,6.0
2344.0,8.99,8.4
2346.0,8.97,4.5
2348.0,8.97,7.9
2350.0,8.96,9.8
2352.0,8.93,8.4
2354.0,8.92,8.0
2356.0,8.91,5.0
2358.0,8.88,5.3
2360.0,8.88,7.0
2362.0,8.87,7.8
2364.0,8.85,7.2
2366.0,8.83,7.9
2368.0,8.82,7.7
2370.0,8.81,3.8
2372.0,8.79,6.6
2374.0,8.79,9.4
2376.0,8.77,5.1
2378.0,8.75,8.5
2380.0,8.74,6.6
2382.0,8.71,5.5
2384.0,8.71,8.4
2386.0,8.69,7.5
2388.0,8.67,8.3
2390.0,8.67,9.2
2392.0,8.66,7.5
2394.0,8.64,8.1
2396.0,8.62,6.3
2398.0,8.61,7.7
2400.0,8.6,8.3
2402.0,8.59,7.7
2404.0,8.58,6.5
2406.0,8.56,7.9
2408.0,8.54,9.3
2410.0,8.53,7.6
2412.0,8.5,7.4
2414.0,8.5,4.8
2416.0,8.49,7.0
2418.0,8.48,7.5
2420.0,8.46,6.6
2422.0,8.45,7.0
2424.0,8.43,8.6
2426.0,8.43,9.5
2428.0,8.41,7.1
2430.0,8.41,6.6
2432.0,8.41,6.0
2434.0,8.37,6.0
2436.0,8.34,6.8
2438.0,8.34,8.7
2440.0,8.34,8.5
2442.0,8.32,6.2
2444.0,8.32,7.2
2446.0,8.31,7.2
2448.0,8.28,4.4
2450.0,8.26,4.6
2452.0,8.26,7.1
2454.0,8.24,5.8
2456.0,8.23,5.7
2458.0,8.21,5.1
2460.0,8.19,10.0
2462.0,8.18,7.4
2464.0,8.18,6.6
2466.0,8.16,8.9
2468.0,8.16,2.8
2470.0,8.14,7.1
2472.0,8.11,7.9
2474.0,8.1,8.0
2476.0,8.1,7.9
2478.0,8.08,5.4
2480.0,8.07,8.8
2482.0,8.05,7.9
2484.0,8.04,6.8
2486.0,8.02,8.4
2488.0,8.01,7.4
2490.0,8.0,6.6
2492.0,7.97,7.0
2494.0,7.97,6.9
2496.0,7.97,8.3
2498.0,7.95,8.8
2500.0,7.94,6.8
2502.0,7.93,7.1
2504.0,7.97,6.0
2506.0,7.89,8.1
2508.0,7.88,7.8
2510.0,7.87,3.6
2512.0,7.86,7.1
2514.0,7.85,7.7
2516.0,7.84,6.9
2518.0,7.81,6.8
2520.0,7.8,5.8
2522.0,7.79,9.2
2524.0,7.78,7.8
2526.0,7.77,5.5
2528.0,7.76,2.9
2530.0,7.73,3.7
2532.0,7.72,4.2
2534.0,7.71,3.5
2536.0,7.7,4.8
2538.0,7.69,1.5
2540.0,7.68,5.4
2542.0,7.67,5.4
2544.0,7.63,5.4
2546.0,7.63,4.3
2548.0,7.62,4.9
2550.0,7.61,3.6
2552.0,7.6,7.1
2554.0,7.59,6.2
2556.0,7.57,8.3
2558.0,7.56,8.1
2560.0,7.54,5.5
2562.0,7.54,4.4
2564.0,7.53,6.2
2566.0,7.52,5.1
2568.0,7.51,3.3
2570.0,7.49,8.4
2572.0,7.47,4.1
2574.0,7.46,6.3
2576.0,7.45,6.2
2578.0,7.45,5.1
2580.0,7.43,5.3
2582.0,7.4,4.9
2584.0,7.39,8.7
2586.0,7.38,5.3
2588.0,7.38,6.6
2590.0,7.37,6.8
2592.0,7.35,5.9
2594.0,7.33,5.8
2596.0,7.32,10.1
2598.0,7.29,8.4
2600.0,7.29,7.7
2602.0,7.27,8.8
2604.0,7.26,7.1
2606.0,7.25,8.9
2608.0,7.24,7.0
2610.0,7.23,7.5
2612.0,7.22,5.2
2614.0,7.18,6.1
2616.0,7.18,10.1
2618.0,7.17,5.2
2620.0,7.16,7.1
2622.0,7.15,9.6
2624.0,7.13,4.0
2626.0,7.12,6.5
2628.0,7.1,7.8
2630.0,7.09,7.2
2632.0,7.08,6.9
2634.0,7.07,7.4
2636.0,7.06,5.7
2638.0,7.05,7.0
2640.0,7.04,3.5
2642.0,7.02,5.3
2644.0,7.0,3.3
2646.0,7.0,4.8
2648.0,6.99,4.9
2650.0,6.98,3.5
2652.0,6.95,5.4
2654.0,6.93,4.6
2656.0,6.92,0.2
2658.0,6.92,7.8
2660.0,6.91,4.5
2662.0,6.9,5.5
2664.0,6.89,6.8
2666.0,6.87,4.5
2668.0,6.85,5.1
2670.0,6.84,5.9
2672.0,6.83,4.1
2674.0,6.81,5.4
2676.0,6.8,5.0
2678.0,6.78,4.9
2680.0,6.76,4.1
2682.0,6.76,3.4
2684.0,6.76,5.8
2686.0,6.74,4.5
2688.0,6.74,8.9
2690.0,6.71,4.0
2692.0,6.69,2.9
2694.0,6.69,3.1
2696.0,6.68,3.1
2698.0,6.67,3.1
2700.0,6.66,3.1