File: Wood/Calibration_Data/TUBS/TUBS_Wood_TGA_N2_50K_R14.csv
Time (s),Temperature (K),Mass (mg)
0.0,305.071,0.46993
2.0,305.064,0.4699
4.0,305.042,0.46984
6.0,305.034,0.46978
8.0,305.033,0.46968
10.0,305.021,0.46957
12.0,305.0,0.46945
14.0,304.994,0.46933
16.0,304.994,0.4692
18.0,304.982,0.46908
20.0,304.966,0.46896
22.0,304.961,0.46885
24.0,304.957,0.46876
26.0,304.942,0.46867
28.0,304.937,0.46859
30.0,304.929,0.46852
32.0,304.93,0.46846
34.0,304.898,0.46841
36.0,304.916,0.46836
38.0,304.885,0.4683
40.0,304.878,0.46823
42.0,304.882,0.46815
44.0,304.857,0.46807
46.0,304.859,0.468
48.0,304.85,0.46795
50.0,304.85,0.46789
52.0,304.836,0.46784
54.0,304.831,0.4678
56.0,304.833,0.46776
58.0,304.83,0.46772
60.0,304.835,0.46768
62.0,304.798,0.46763
64.0,304.801,0.4676
66.0,304.8,0.46755
68.0,304.789,0.4675
70.0,304.779,0.46745
72.0,304.784,0.4674
74.0,304.757,0.46736
76.0,304.782,0.46732
78.0,304.771,0.46727
80.0,304.749,0.46721
82.0,304.756,0.46715
84.0,304.754,0.46708
86.0,304.746,0.46701
88.0,304.767,0.46692
90.0,304.739,0.46683
92.0,304.752,0.46675
94.0,304.733,0.46669
96.0,304.749,0.46666
98.0,304.737,0.46664
100.0,304.722,0.46664
102.0,304.716,0.46663
106.0,304.711,0.46663
108.0,304.713,0.46662
110.0,304.716,0.4666
112.0,304.709,0.46657
114.0,304.702,0.46654
116.0,304.689,0.46652
118.0,304.701,0.46648
120.0,304.697,0.46644
122.0,304.679,0.4664
124.0,304.685,0.46637
126.0,304.677,0.46634
128.0,304.681,0.46634
130.0,304.678,0.46633
132.0,304.669,0.46632
134.0,304.664,0.46629
136.0,304.662,0.46623
138.0,304.657,0.46617
140.0,304.667,0.46612
142.0,304.649,0.46607
144.0,304.63,0.46605
146.0,304.635,0.46604
148.0,304.657,0.46602
150.0,304.65,0.46599
152.0,304.645,0.46596
154.0,304.643,0.46593
156.0,304.635,0.46589
158.0,304.643,0.46584
160.0,304.643,0.46578
162.0,304.635,0.46571
164.0,304.628,0.46564
166.0,304.626,0.46558
168.0,304.623,0.46551
170.0,304.604,0.46546
172.0,304.614,0.46544
175.0,304.613,0.46544
177.0,304.61,0.46547
179.0,304.615,0.46549
181.0,304.612,0.46551
183.0,304.604,0.46552
185.0,304.594,0.46552
187.0,304.59,0.46553
192.0,304.595,0.46553
194.0,304.585,0.46552
196.0,304.597,0.4655
198.0,304.57,0.46547
200.0,304.595,0.46542
202.0,304.578,0.46539
204.0,304.573,0.46537
207.0,304.573,0.46537
209.0,304.583,0.46538
211.0,304.563,0.46537
213.0,304.569,0.46535
215.0,304.578,0.46532
217.0,304.558,0.46528
219.0,304.573,0.46525
221.0,304.552,0.46524
223.0,304.549,0.46523
225.0,304.55,0.46523
227.0,304.544,0.46523
229.0,304.535,0.46523
241.0,304.526,0.46522
243.0,304.516,0.4652
245.0,304.533,0.46518
247.0,304.532,0.46517
250.0,304.525,0.46517
253.0,304.509,0.46517
255.0,304.527,0.46516
257.0,304.533,0.46512
259.0,304.513,0.46508
261.0,304.513,0.46503
263.0,304.515,0.46498
265.0,304.507,0.46494
267.0,304.515,0.4649
269.0,304.504,0.46488
271.0,304.504,0.46486
273.0,304.496,0.46486
276.0,304.51,0.46486
278.0,304.509,0.46487
280.0,304.498,0.46488
283.0,304.487,0.46488
285.0,304.496,0.46487
287.0,304.485,0.46486
289.0,304.479,0.46485
291.0,304.492,0.46484
293.0,304.502,0.46482
295.0,304.488,0.46479
297.0,304.489,0.46476
299.0,304.484,0.46474
301.0,304.495,0.46474
303.0,304.5,0.46472
305.0,304.494,0.46471
307.0,304.486,0.46469
309.0,304.488,0.46468
311.0,304.479,0.46467
313.0,304.519,0.46468
315.0,304.49,0.46469
317.0,304.484,0.4647
319.0,304.484,0.46471
321.0,304.498,0.46472
323.0,304.48,0.46473
326.0,304.484,0.46473
330.0,304.478,0.46473
333.0,304.498,0.46472
335.0,304.493,0.4647
337.0,304.476,0.46466
339.0,304.467,0.46462
341.0,304.474,0.46458
343.0,304.479,0.46456
345.0,304.487,0.46454
347.0,304.481,0.46453
349.0,304.463,0.46453
351.0,304.476,0.46453
353.0,304.473,0.46453
362.0,304.473,0.46453
364.0,304.469,0.46454
366.0,304.475,0.46455
368.0,304.475,0.46457
370.0,304.473,0.46459
372.0,304.474,0.46461
374.0,304.462,0.46462
376.0,304.459,0.46464
378.0,304.465,0.46466
380.0,304.465,0.46468
382.0,304.457,0.4647
384.0,304.464,0.46471
386.0,304.476,0.4647
388.0,304.458,0.46467
390.0,304.468,0.46463
392.0,304.472,0.46459
394.0,304.466,0.46456
397.0,304.468,0.46454
399.0,304.456,0.46453
402.0,304.461,0.46453
406.0,304.47,0.46453
408.0,304.462,0.46451
410.0,304.455,0.46448
412.0,304.462,0.46444
414.0,304.479,0.46441
416.0,304.462,0.46438
418.0,304.446,0.46436
420.0,304.459,0.46436
422.0,304.455,0.46436
424.0,304.469,0.46438
426.0,304.469,0.46439
428.0,304.464,0.46439
430.0,304.471,0.46438
432.0,304.476,0.46436
434.0,304.468,0.46435
436.0,304.493,0.46435
438.0,304.457,0.46436
440.0,304.461,0.46437
442.0,304.475,0.46439
444.0,304.454,0.4644
446.0,304.476,0.46439
448.0,304.465,0.46436
450.0,304.465,0.46434
452.0,304.463,0.46431
454.0,304.482,0.46428
456.0,304.461,0.46425
458.0,304.463,0.46421
460.0,304.465,0.46417
462.0,304.471,0.46415
464.0,304.463,0.46414
466.0,304.46,0.46414
468.0,304.465,0.46414
470.0,304.475,0.46416
472.0,304.456,0.46418
474.0,304.436,0.46419
476.0,304.453,0.4642
478.0,304.462,0.46419
480.0,304.453,0.46415
482.0,304.47,0.46411
484.0,304.466,0.46407
486.0,304.465,0.46403
488.0,304.461,0.46401
490.0,304.456,0.464
492.0,304.447,0.46401
495.0,304.458,0.464
497.0,304.465,0.46398
499.0,304.463,0.46396
501.0,304.468,0.46394
503.0,304.471,0.46393
505.0,304.47,0.46395
507.0,304.473,0.46397
509.0,304.449,0.46402
511.0,304.447,0.46405
513.0,304.444,0.46408
515.0,304.444,0.46411
517.0,304.458,0.46412
519.0,304.451,0.46412
522.0,304.455,0.46413
527.0,304.452,0.46413
530.0,304.449,0.46414
532.0,304.446,0.46414
534.0,304.448,0.46416
536.0,304.431,0.46418
538.0,304.459,0.4642
540.0,304.452,0.4642
543.0,304.439,0.46419
545.0,304.453,0.46417
547.0,304.438,0.46415
549.0,304.46,0.46412
551.0,304.439,0.4641
553.0,304.442,0.46407
555.0,304.445,0.46405
557.0,304.464,0.46406
559.0,304.446,0.46407
561.0,304.449,0.4641
563.0,304.454,0.46412
565.0,304.446,0.46412
568.0,304.432,0.46411
570.0,304.438,0.46408
572.0,304.447,0.46406
574.0,304.448,0.46404
576.0,304.44,0.46404
578.0,304.426,0.46405
580.0,304.438,0.46406
582.0,304.441,0.46407
584.0,304.431,0.46407
586.0,304.443,0.46407
588.0,304.439,0.46406
590.0,304.441,0.46405
592.0,304.444,0.46404
595.0,304.444,0.46404
598.0,304.44,0.46403
600.0,304.427,0.46402
602.0,304.439,0.46402
604.0,304.448,0.46402
606.0,304.464,0.46402
608.0,304.442,0.46402
610.0,304.436,0.46403
612.0,304.446,0.46403
616.0,304.445,0.46402
618.0,304.438,0.464
620.0,304.44,0.46397
622.0,304.425,0.46395
624.0,304.418,0.46394
626.0,304.438,0.46394
628.0,304.45,0.46396
632.0,304.424,0.46396
634.0,304.44,0.46396
636.0,304.455,0.46396
638.0,304.445,0.46398
640.0,304.435,0.46399
642.0,304.441,0.46401
644.0,304.454,0.46402
646.0,304.429,0.46402
649.0,304.445,0.46403
651.0,304.429,0.46403
653.0,304.432,0.46404
655.0,304.431,0.46405
657.0,304.429,0.46406
659.0,304.428,0.46408
661.0,304.414,0.4641
663.0,304.422,0.46412
665.0,304.431,0.46412
667.0,304.444,0.46413
670.0,304.435,0.46413
675.0,304.42,0.46413
677.0,304.421,0.46412
679.0,304.42,0.46411
681.0,304.417,0.4641
684.0,304.44,0.46411
686.0,304.43,0.46412
688.0,304.43,0.46412
690.0,304.415,0.46413
694.0,304.43,0.46413
696.0,304.433,0.46412
698.0,304.424,0.4641
700.0,304.431,0.46407
702.0,304.432,0.46405
704.0,304.42,0.46404
706.0,304.424,0.46403
708.0,304.426,0.46403
710.0,304.413,0.46403
712.0,304.434,0.46402
714.0,304.432,0.464
716.0,304.428,0.46398
718.0,304.428,0.46399
720.0,304.436,0.46404
722.0,304.422,0.46407
724.0,304.429,0.4641
726.0,304.432,0.46412
728.0,304.418,0.46412
730.0,304.434,0.46413
732.0,304.431,0.46413
734.0,304.438,0.46414
736.0,304.428,0.46416
738.0,304.436,0.46418
740.0,304.436,0.46421
742.0,304.44,0.46422
744.0,304.45,0.46422
746.0,304.455,0.46421
748.0,304.436,0.46419
750.0,304.448,0.46417
752.0,304.435,0.46415
754.0,304.428,0.46413
756.0,304.445,0.4641
758.0,304.422,0.46408
760.0,304.437,0.46406
762.0,304.437,0.46404
764.0,304.434,0.46405
766.0,304.439,0.46407
768.0,304.434,0.46408
770.0,304.446,0.46407
772.0,304.444,0.46405
774.0,304.439,0.46404
776.0,304.43,0.46404
778.0,304.424,0.46404
780.0,304.44,0.46405
782.0,304.424,0.46407
784.0,304.431,0.46409
786.0,304.442,0.4641
788.0,304.438,0.4641
790.0,304.432,0.46409
792.0,304.445,0.46409
794.0,304.43,0.4641
796.0,304.434,0.46411
798.0,304.442,0.46411
800.0,304.455,0.46408
802.0,304.427,0.46405
804.0,304.455,0.46401
806.0,304.438,0.46398
808.0,304.435,0.46396
810.0,304.425,0.46394
812.0,304.432,0.46395
814.0,304.427,0.46397
816.0,304.453,0.46399
819.0,304.445,0.46398
821.0,304.451,0.46396
823.0,304.438,0.46394
825.0,304.443,0.46394
827.0,304.445,0.46393
829.0,304.449,0.46393
834.0,304.434,0.46393
836.0,304.446,0.46394
838.0,304.45,0.46396
840.0,304.451,0.46399
842.0,304.45,0.46401
845.0,304.438,0.46402
847.0,304.434,0.46403
849.0,304.42,0.46401
851.0,304.439,0.46399
853.0,304.441,0.46396
855.0,304.445,0.46394
857.0,304.435,0.46394
859.0,304.443,0.46393
861.0,304.443,0.46393
881.0,304.436,0.46393
883.0,304.443,0.46395
885.0,304.426,0.46398
887.0,304.44,0.46402
889.0,304.435,0.46404
891.0,304.445,0.46403
893.0,304.447,0.46399
895.0,304.452,0.46397
897.0,304.447,0.46396
900.0,304.436,0.46397
902.0,304.445,0.46398
904.0,304.446,0.464
906.0,304.445,0.46401
908.0,304.456,0.46402
910.0,304.456,0.46402
912.0,304.45,0.46401
914.0,304.437,0.46399
916.0,304.447,0.46395
918.0,304.454,0.46391
920.0,304.448,0.46388
922.0,304.451,0.46385
924.0,304.464,0.46385
926.0,304.46,0.46386
928.0,304.45,0.46389
930.0,304.44,0.46391
932.0,304.434,0.46392
934.0,304.444,0.46391
936.0,304.433,0.46389
938.0,304.442,0.46388
940.0,304.436,0.46389
942.0,304.471,0.4639
944.0,304.436,0.46391
946.0,304.442,0.46392
948.0,304.439,0.46392
950.0,304.432,0.46393
953.0,304.435,0.46393
956.0,304.446,0.46393
959.0,304.434,0.46393
961.0,304.436,0.46391
963.0,304.439,0.46388
965.0,304.439,0.46384
967.0,304.454,0.4638
969.0,304.448,0.46377
971.0,304.441,0.46374
973.0,304.438,0.46374
975.0,304.455,0.46373
979.0,304.443,0.46373
981.0,304.445,0.46375
983.0,304.437,0.46378
985.0,304.454,0.46381
987.0,304.445,0.46383
991.0,304.452,0.46383
993.0,304.442,0.46381
995.0,304.446,0.46379
997.0,304.44,0.46377
999.0,304.451,0.46374
1001.0,304.432,0.4637
1003.0,304.429,0.46367
1005.0,304.433,0.46365
1007.0,304.44,0.46364
1009.0,304.442,0.46363
1011.0,304.451,0.46363
1014.0,304.438,0.46362
1016.0,304.444,0.46361
1018.0,304.448,0.4636
1020.0,304.451,0.46359
1022.0,304.436,0.46361
1024.0,304.434,0.46364
1026.0,304.432,0.46367
1028.0,304.422,0.4637
1030.0,304.428,0.46372
1032.0,304.432,0.46374
1034.0,304.442,0.46377
1036.0,304.423,0.46379
1038.0,304.423,0.46381
1040.0,304.441,0.46382
1042.0,304.429,0.46382
1044.0,304.429,0.46382
1046.0,304.438,0.4638
1048.0,304.43,0.46377
1050.0,304.448,0.46375
1052.0,304.44,0.46374
1054.0,304.428,0.46373
1056.0,304.444,0.46372
1058.0,304.434,0.4637
1060.0,304.44,0.46368
1062.0,304.439,0.46368
1064.0,304.452,0.4637
1066.0,304.447,0.46372
1068.0,304.451,0.46372
1070.0,304.443,0.46373
1073.0,304.438,0.46373
1075.0,304.455,0.46375
1077.0,304.445,0.46377
1079.0,304.444,0.46379
1081.0,304.452,0.46381
1083.0,304.45,0.46383
1085.0,304.448,0.46383
1087.0,304.439,0.46383
1090.0,304.462,0.46383
1105.0,304.442,0.46382
1107.0,304.444,0.4638
1109.0,304.44,0.46377
1111.0,304.438,0.46375
1113.0,304.424,0.46374
1115.0,304.421,0.46373
1117.0,304.438,0.46372
1119.0,304.431,0.4637
1121.0,304.431,0.46368
1123.0,304.425,0.46367
1125.0,304.439,0.46365
1127.0,304.439,0.46364
1129.0,304.429,0.46364
1131.0,304.438,0.46363
1135.0,304.419,0.46363
1137.0,304.444,0.46363
1142.0,304.419,0.46363
1144.0,304.445,0.46364
1146.0,304.439,0.46365
1148.0,304.435,0.46367
1150.0,304.427,0.46367
1152.0,304.446,0.46366
1154.0,304.444,0.46364
1156.0,304.448,0.46364
1158.0,304.441,0.46363
1160.0,304.466,0.46362
1162.0,304.446,0.4636
1164.0,304.434,0.46357
1166.0,304.436,0.46355
1169.0,304.439,0.46354
1171.0,304.458,0.46353
1174.0,304.436,0.46354
1176.0,304.429,0.46356
1178.0,304.439,0.46358
1180.0,304.422,0.4636
1182.0,304.436,0.46361
1184.0,304.442,0.46363
1186.0,304.435,0.46364
1188.0,304.425,0.46364
1190.0,304.428,0.46364
1194.0,304.421,0.46365
1196.0,304.435,0.46366
1198.0,304.445,0.46362
1200.0,304.449,0.46334
1205.415,305.5,0.4614
1207.356,306.5,0.46084
1209.126,307.5,0.46074
1210.702,308.5,0.46128
1212.067,309.5,0.46242
1213.387,310.5,0.46339
1214.646,311.5,0.46418
1215.871,312.5,0.46508
1217.091,313.5,0.46572
1218.293,314.5,0.46611
1219.483,315.5,0.46625
1220.66,316.5,0.46621
1221.832,317.5,0.46625
1223.021,318.5,0.46621
1224.188,319.5,0.46609
1225.346,320.5,0.46593
1226.527,321.5,0.4657
1227.695,322.5,0.46539
1228.871,323.5,0.46508
1230.058,324.5,0.46477
1231.225,325.5,0.46445
1232.393,326.5,0.46416
1233.569,327.5,0.46387
1234.758,328.5,0.46359
1235.929,329.5,0.46337
1237.11,330.5,0.46315
1238.289,331.5,0.46294
1239.467,332.5,0.46275
1240.649,333.5,0.4626
1241.828,334.5,0.46244
1243.017,335.5,0.46228
1244.196,336.5,0.46216
1245.375,337.5,0.46203
1246.568,338.5,0.4619
1247.756,339.5,0.46178
1248.958,340.5,0.46165
1250.143,341.5,0.46151
1251.322,342.5,0.46137
1252.52,343.5,0.46123
1253.716,344.5,0.46108
1254.905,345.5,0.46094
1256.091,346.5,0.4608
1257.304,347.5,0.46066
1258.495,348.5,0.46052
1259.691,349.5,0.4604
1260.874,350.5,0.46028
1262.091,351.5,0.46016
1263.273,352.5,0.46004
1264.474,353.5,0.45994
1265.665,354.5,0.45983
1266.871,355.5,0.45972
1268.061,356.5,0.45962
1269.258,357.5,0.45951
1270.461,358.5,0.4594
1271.645,359.5,0.45929
1272.847,360.5,0.45917
1274.053,361.5,0.45907
1275.256,362.5,0.45897
1276.459,363.5,0.45888
1277.662,364.5,0.45879
1278.867,365.5,0.45871
1280.067,366.5,0.45865
1281.259,367.5,0.45858
1282.453,368.5,0.45852
1283.648,369.5,0.45846
1284.85,370.5,0.4584
1286.043,371.5,0.45834
1287.251,372.5,0.45827
1288.46,373.5,0.45821
1289.654,374.5,0.45816
1290.855,375.5,0.4581
1292.058,376.5,0.45806
1293.267,377.5,0.45802
1294.458,378.5,0.45798
1295.663,379.5,0.45794
1296.858,380.5,0.45791
1298.056,381.5,0.45788
1299.248,382.5,0.45785
1300.454,383.5,0.45782
1301.649,384.5,0.45778
1302.851,385.5,0.45775
1304.026,386.5,0.45771
1305.224,387.5,0.45767
1306.417,388.5,0.45763
1307.621,389.5,0.4576
1308.825,390.5,0.45757
1310.014,391.5,0.45754
1311.209,392.5,0.45752
1312.409,393.5,0.4575
1313.607,394.5,0.45747
1314.805,395.5,0.45744
1316.006,396.5,0.45741
1317.194,397.5,0.45739
1318.386,398.5,0.45738
1319.589,399.5,0.45737
1320.784,400.5,0.45736
1321.973,401.5,0.45735
1323.173,402.5,0.45734
1324.355,403.5,0.45732
1325.545,404.5,0.45731
1326.736,405.5,0.45729
1327.956,406.5,0.45727
1329.13,407.5,0.45726
1330.319,408.5,0.45725
1331.523,409.5,0.45724
1332.712,410.5,0.45723
1333.897,411.5,0.45722
1335.092,412.5,0.45721
1336.282,413.5,0.45719
1337.466,414.5,0.45717
1338.664,415.5,0.45716
1339.846,416.5,0.45714
1341.028,417.5,0.45712
1342.226,418.5,0.4571
1343.417,419.5,0.45708
1344.604,420.5,0.45706
1345.781,421.5,0.45703
1346.98,422.5,0.45701
1348.155,423.5,0.45699
1349.338,424.5,0.45697
1350.522,425.5,0.45695
1351.708,426.5,0.45693
1352.902,427.5,0.45691
1354.081,428.5,0.45688
1355.254,429.5,0.45685
1356.443,430.5,0.4568
1357.62,431.5,0.45677
1358.815,432.5,0.45673
1360.002,433.5,0.4567
1361.18,434.5,0.45668
1362.358,435.5,0.45665
1363.546,436.5,0.45663
1364.731,437.5,0.4566
1365.929,438.5,0.45656
1367.101,439.5,0.45652
1368.282,440.5,0.45646
1369.458,441.5,0.45639
1370.633,442.5,0.45632
1371.824,443.5,0.45623
1372.983,444.5,0.45615
1374.172,445.5,0.45607
1375.351,446.5,0.45598
1376.533,447.5,0.4559
1377.713,448.5,0.45582
1378.885,449.5,0.45574
1380.062,450.5,0.45566
1381.232,451.5,0.45558
1382.398,452.5,0.45549
1383.578,453.5,0.4554
1384.761,454.5,0.4553
1385.942,455.5,0.4552
1387.104,456.5,0.45509
1388.285,457.5,0.45497
1389.454,458.5,0.45485
1390.629,459.5,0.45474
1391.809,460.5,0.45462
1392.964,461.5,0.45449
1394.145,462.5,0.45437
1395.324,463.5,0.45423
1396.499,464.5,0.45409
1397.669,465.5,0.45395
1398.833,466.5,0.4538
1400.001,467.5,0.45364
1401.18,468.5,0.45349
1402.348,469.5,0.45333
1403.516,470.5,0.45317
1404.688,471.5,0.45301
1405.852,472.5,0.45286
1407.018,473.5,0.4527
1408.188,474.5,0.45254
1409.358,475.5,0.45238
1410.528,476.5,0.45221
1411.689,477.5,0.45203
1412.858,478.5,0.45186
1414.031,479.5,0.45168
1415.204,480.5,0.45151
1416.375,481.5,0.45133
1417.544,482.5,0.45116
1418.702,483.5,0.45099
1419.879,484.5,0.45082
1421.036,485.5,0.45064
1422.205,486.5,0.45045
1423.377,487.5,0.45026
1424.541,488.5,0.45006
1425.706,489.5,0.44986
1426.864,490.5,0.44967
1428.034,491.5,0.44947
1429.209,492.5,0.44927
1430.366,493.5,0.44907
1431.528,494.5,0.44886
1432.698,495.5,0.44865
1433.866,496.5,0.44844
1435.029,497.5,0.44823
1436.194,498.5,0.44802
1437.369,499.5,0.4478
1438.538,500.5,0.44759
1439.701,501.5,0.44738
1440.86,502.5,0.44717
1442.016,503.5,0.44695
1443.182,504.5,0.44672
1444.363,505.5,0.44647
1445.523,506.5,0.44622
1446.678,507.5,0.44597
1447.857,508.5,0.4457
1449.015,509.5,0.44544
1450.181,510.5,0.44517
1451.347,511.5,0.4449
1452.511,512.5,0.44461
1453.675,513.5,0.44432
1454.839,514.5,0.44402
1456.007,515.5,0.44371
1457.174,516.5,0.44339
1458.339,517.5,0.44308
1459.506,518.5,0.44276
1460.67,519.5,0.44242
1461.838,520.5,0.44208
1462.992,521.5,0.44174
1464.177,522.5,0.44137
1465.339,523.5,0.441
1466.501,524.5,0.44062
1467.674,525.5,0.44023
1468.832,526.5,0.43984
1469.994,527.5,0.43944
1471.163,528.5,0.43903
1472.333,529.5,0.43859
1473.499,530.5,0.43816
1474.666,531.5,0.43771
1475.832,532.5,0.43723
1476.982,533.5,0.43677
1478.149,534.5,0.43629
1479.326,535.5,0.43581
1480.481,536.5,0.43532
1481.663,537.5,0.43482
1482.841,538.5,0.43432
1484.007,539.5,0.4338
1485.169,540.5,0.43328
1486.333,541.5,0.43275
1487.502,542.5,0.43221
1488.669,543.5,0.43165
1489.841,544.5,0.43109
1491.015,545.5,0.43051
1492.175,546.5,0.42992
1493.34,547.5,0.42932
1494.506,548.5,0.42871
1495.68,549.5,0.42808
1496.84,550.5,0.42744
1498.024,551.5,0.42679
1499.19,552.5,0.42614
1500.358,553.5,0.42546
1501.523,554.5,0.42478
1502.7,555.5,0.42409
1503.864,556.5,0.42339
1505.029,557.5,0.42269
1506.201,558.5,0.42197
1507.374,559.5,0.42125
1508.542,560.5,0.42052
1509.715,561.5,0.41979
1510.876,562.5,0.41906
1512.049,563.5,0.4183
1513.226,564.5,0.41755
1514.402,565.5,0.41679
1515.572,566.5,0.41603
1516.744,567.5,0.41526
1517.91,568.5,0.41449
1519.096,569.5,0.4137
1520.259,570.5,0.4129
1521.427,571.5,0.41209
1522.596,572.5,0.41128
1523.769,573.5,0.41045
1524.958,574.5,0.4096
1526.121,575.5,0.40877
1527.29,576.5,0.40792
1528.467,577.5,0.40704
1529.646,578.5,0.40615
1530.814,579.5,0.40526
1531.978,580.5,0.40432
1533.153,581.5,0.40339
1534.333,582.5,0.40244
1535.504,583.5,0.40148
1536.687,584.5,0.4005
1537.855,585.5,0.39952
1539.045,586.5,0.39851
1540.213,587.5,0.39749
1541.397,588.5,0.39645
1542.574,589.5,0.3954
1543.751,590.5,0.3943
1544.931,591.5,0.39318
1546.111,592.5,0.39205
1547.286,593.5,0.3909
1548.469,594.5,0.38969
1549.643,595.5,0.38849
1550.824,596.5,0.38727
1552.007,597.5,0.386
1553.184,598.5,0.38472
1554.363,599.5,0.38343
1555.548,600.5,0.3821
1556.726,601.5,0.38074
1557.898,602.5,0.37939
1559.084,603.5,0.37799
1560.267,604.5,0.37653
1561.442,605.5,0.37508
1562.629,606.5,0.3736
1563.812,607.5,0.37207
1564.991,608.5,0.37053
1566.179,609.5,0.36896
1567.354,610.5,0.36737
1568.542,611.5,0.36571
1569.723,612.5,0.36406
1570.913,613.5,0.36237
1572.1,614.5,0.36059
1573.279,615.5,0.35883
1574.471,616.5,0.35702
1575.652,617.5,0.35516
1576.836,618.5,0.35327
1578.026,619.5,0.35136
1579.216,620.5,0.34942
1580.407,621.5,0.34742
1581.59,622.5,0.34544
1582.771,623.5,0.34344
1583.969,624.5,0.34136
1585.149,625.5,0.33929
1586.342,626.5,0.33718
1587.525,627.5,0.33504
1588.713,628.5,0.33285
1589.898,629.5,0.33064
1591.092,630.5,0.3284
1592.286,631.5,0.32606
1593.476,632.5,0.32374
1594.663,633.5,0.32141
1595.853,634.5,0.319
1597.045,635.5,0.31658
1598.237,636.5,0.31416
1599.429,637.5,0.31171
1600.621,638.5,0.30924
1601.815,639.5,0.30675
1603.01,640.5,0.30426
1604.2,641.5,0.30172
1605.391,642.5,0.29917
1606.589,643.5,0.29658
1607.781,644.5,0.29395
1608.973,645.5,0.29131
1610.164,646.5,0.28867
1611.367,647.5,0.28596
1612.565,648.5,0.28323
1613.76,649.5,0.28051
1614.959,650.5,0.27776
1616.142,651.5,0.27499
1617.345,652.5,0.27217
1618.547,653.5,0.26934
1619.746,654.5,0.26645
1620.947,655.5,0.26354
1622.143,656.5,0.26062
1623.346,657.5,0.25764
1624.551,658.5,0.2546
1625.756,659.5,0.25154
1626.949,660.5,0.24849
1628.149,661.5,0.24532
1629.354,662.5,0.24214
1630.559,663.5,0.23892
1631.758,664.5,0.23564
1632.951,665.5,0.23233
1634.156,666.5,0.22897
1635.36,667.5,0.22555
1636.56,668.5,0.22206
1637.762,669.5,0.21856
1638.963,670.5,0.21504
1640.18,671.5,0.21135
1641.38,672.5,0.2077
1642.593,673.5,0.20399
1643.792,674.5,0.20021
1645.001,675.5,0.19639
1646.205,676.5,0.19255
1647.416,677.5,0.18864
1648.624,678.5,0.18469
1649.832,679.5,0.18075
1651.046,680.5,0.17678
1652.246,681.5,0.17281
1653.45,682.5,0.16887
1654.659,683.5,0.16493
1655.873,684.5,0.16101
1657.083,685.5,0.15716
1658.282,686.5,0.1534
1659.488,687.5,0.14972
1660.698,688.5,0.14616
1661.911,689.5,0.14265
1663.127,690.5,0.13925
1664.331,691.5,0.13619
1665.538,692.5,0.13316
1666.748,693.5,0.13025
1667.945,694.5,0.12776
1669.161,695.5,0.12531
1670.375,696.5,0.123
1671.574,697.5,0.12103
1672.783,698.5,0.11926
1674.01,699.5,0.11753
1675.214,700.5,0.11602
1676.423,701.5,0.11486
1677.634,702.5,0.11368
1678.843,703.5,0.11259
1680.054,704.5,0.11184
1681.259,705.5,0.11107
1682.473,706.5,0.11035
1683.68,707.5,0.10981
1684.888,708.5,0.10933
1686.114,709.5,0.10884
1687.327,710.5,0.10842
1688.533,711.5,0.1081
1689.75,712.5,0.10776
1690.958,713.5,0.10744
1692.171,714.5,0.10719
1693.382,715.5,0.10691
1694.59,716.5,0.10664
1695.801,717.5,0.10637
1697.022,718.5,0.1061
1698.232,719.5,0.10583
1699.446,720.5,0.10555
1700.656,721.5,0.10526
1701.864,722.5,0.10498
1703.072,723.5,0.1047
1704.299,724.5,0.10442
1705.51,725.5,0.10415
1706.728,726.5,0.10387
1707.946,727.5,0.10359
1709.156,728.5,0.10332
1710.372,729.5,0.10304
1711.586,730.5,0.10278
1712.802,731.5,0.10252
1714.013,732.5,0.10226
1715.227,733.5,0.102
1716.439,734.5,0.10176
1717.658,735.5,0.10152
1718.876,736.5,0.10128
1720.09,737.5,0.10104
1721.305,738.5,0.10081
1722.519,739.5,0.10058
1723.74,740.5,0.10035
1724.949,741.5,0.10012
1726.172,742.5,0.09988
1727.38,743.5,0.09963
1728.592,744.5,0.09938
1729.815,745.5,0.09913
1731.021,746.5,0.0989
1732.244,747.5,0.09866
1733.463,748.5,0.09843
1734.669,749.5,0.09821
1735.888,750.5,0.09799
1737.092,751.5,0.09778
1738.321,752.5,0.09756
1739.544,753.5,0.09734
1740.751,754.5,0.09713
1741.967,755.5,0.09693
1743.184,756.5,0.09673
1744.402,757.5,0.09655
1745.625,758.5,0.09636
1746.843,759.5,0.09617
1748.053,760.5,0.09599
1749.267,761.5,0.09581
1750.487,762.5,0.09563
1751.712,763.5,0.09544
1752.92,764.5,0.09526
1754.146,765.5,0.09508
1755.362,766.5,0.0949
1756.575,767.5,0.09473
1757.797,768.5,0.09457
1759.006,769.5,0.0944
1760.219,770.5,0.09424
1761.439,771.5,0.09408
1762.652,772.5,0.09391
1763.865,773.5,0.09375
1765.081,774.5,0.09359
1766.302,775.5,0.09343
1767.521,776.5,0.09328
1768.739,777.5,0.09313
1769.959,778.5,0.09299
1771.166,779.5,0.09286
1772.395,780.5,0.09274
1773.611,781.5,0.09262
1774.824,782.5,0.0925
1776.051,783.5,0.09238
1777.266,784.5,0.09225
1778.486,785.5,0.09212
1779.692,786.5,0.09199
1780.914,787.5,0.09186
1782.13,788.5,0.09174
1783.339,789.5,0.09163
1784.55,790.5,0.09152
1785.772,791.5,0.09142
1786.995,792.5,0.09132
1788.214,793.5,0.09123
1789.43,794.5,0.09114
1790.64,795.5,0.09104
1791.85,796.5,0.09093
1793.072,797.5,0.09081
1794.294,798.5,0.09069
1795.509,799.5,0.09057
1796.725,800.5,0.09046
1797.945,801.5,0.09035
1799.155,802.5,0.09026
1800.379,803.5,0.09018
1801.594,804.5,0.09009
1802.804,805.5,0.09
1804.022,806.5,0.08991
1805.241,807.5,0.08981
1806.45,808.5,0.08971
1807.665,809.5,0.08961
1808.877,810.5,0.0895
1810.097,811.5,0.08939
1811.307,812.5,0.08929
1812.527,813.5,0.08919
1813.743,814.5,0.08909
1814.955,815.5,0.089
1816.172,816.5,0.08891
1817.399,817.5,0.08882
1818.613,818.5,0.08873
1819.83,819.5,0.08864
1821.044,820.5,0.08855
1822.258,821.5,0.08846
1823.476,822.5,0.08837
1824.69,823.5,0.08828
1825.907,824.5,0.0882
1827.13,825.5,0.08811
1828.362,826.5,0.08802
1829.573,827.5,0.08794
1830.789,828.5,0.08786
1832.0,829.5,0.08779
1833.21,830.5,0.08773
1834.432,831.5,0.08766
1835.653,832.5,0.08759
1836.862,833.5,0.08753
1838.076,834.5,0.08746
1839.299,835.5,0.08739
1840.515,836.5,0.08733
1841.731,837.5,0.08726
1842.945,838.5,0.08719
1844.163,839.5,0.08713
1845.382,840.5,0.08707
1846.603,841.5,0.087
1847.812,842.5,0.08694
1849.033,843.5,0.08687
1850.253,844.5,0.0868
1851.469,845.5,0.08673
1852.689,846.5,0.08666
1853.897,847.5,0.08659
1855.123,848.5,0.08651
1856.332,849.5,0.08644
1857.548,850.5,0.08637
1858.762,851.5,0.0863
1859.98,852.5,0.08623
1861.192,853.5,0.08617
1862.417,854.5,0.08611
1863.633,855.5,0.08606
1864.851,856.5,0.086
1866.067,857.5,0.08594
1867.269,858.5,0.08588
1868.495,859.5,0.08581
1869.711,860.5,0.08575
1870.921,861.5,0.08569
1872.145,862.5,0.08563
1873.355,863.5,0.08556
1874.569,864.5,0.0855
1875.793,865.5,0.08544
1877.005,866.5,0.08538
1878.217,867.5,0.08532
1879.428,868.5,0.08525
1880.639,869.5,0.08519
1881.853,870.5,0.08512
1883.078,871.5,0.08506
1884.295,872.5,0.08499
1885.499,873.5,0.08493
1886.714,874.5,0.08487
1887.931,875.5,0.08482
1889.142,876.5,0.08478
1890.357,877.5,0.08473
1891.569,878.5,0.0847
1892.791,879.5,0.08466
1894.0,880.5,0.08462
1895.211,881.5,0.08458
1896.425,882.5,0.08452
1897.644,883.5,0.08447
1898.862,884.5,0.08442
1900.086,885.5,0.08436
1901.292,886.5,0.08431
1902.501,887.5,0.08426
1903.715,888.5,0.08423
1904.929,889.5,0.08419
1906.147,890.5,0.08414
1907.36,891.5,0.08409
1908.567,892.5,0.08403
1909.777,893.5,0.08398
1910.994,894.5,0.08393
1912.21,895.5,0.08388
1913.421,896.5,0.08383
1914.634,897.5,0.0838
1915.853,898.5,0.08378
1917.058,899.5,0.08376
1918.266,900.5,0.08373
1919.479,901.5,0.0837
1920.695,902.5,0.08366
1921.907,903.5,0.0836
1923.123,904.5,0.08353
1924.332,905.5,0.08343
1925.549,906.5,0.08335
1926.752,907.5,0.08327
1927.98,908.5,0.08319
1929.185,909.5,0.08312
1930.387,910.5,0.08305
1931.605,911.5,0.08299
1932.815,912.5,0.08294
1934.027,913.5,0.08289
1935.244,914.5,0.08285
1936.454,915.5,0.08282
1937.662,916.5,0.08278
1938.871,917.5,0.08275
1940.09,918.5,0.08271
1941.297,919.5,0.08265
1942.508,920.5,0.08259
1943.722,921.5,0.08251
1944.929,922.5,0.08243
1946.137,923.5,0.08235
1947.35,924.5,0.08227
1948.552,925.5,0.08221
1949.774,926.5,0.08215
1950.993,927.5,0.08211
1952.19,928.5,0.0821
1953.4,929.5,0.08208
1954.615,930.5,0.08207
1955.831,931.5,0.08205
1957.042,932.5,0.08203
1958.248,933.5,0.08201
1959.461,934.5,0.08198
1960.669,935.5,0.08194
1961.884,936.5,0.0819
1963.093,937.5,0.08185
1964.298,938.5,0.0818
1965.502,939.5,0.08175
1966.717,940.5,0.0817
1967.93,941.5,0.08165
1969.135,942.5,0.0816
1970.343,943.5,0.08156
1971.552,944.5,0.08152
1972.765,945.5,0.08147
1973.982,946.5,0.08143
1975.186,947.5,0.08139
1976.394,948.5,0.08134
1977.601,949.5,0.0813
1978.812,950.5,0.08126
1980.011,951.5,0.08121
1981.223,952.5,0.08117
1982.437,953.5,0.08112
1983.645,954.5,0.08108
1984.856,955.5,0.08104
1986.061,956.5,0.08101
1987.27,957.5,0.08097
1988.48,958.5,0.08093
1989.692,959.5,0.08089
1990.889,960.5,0.08085
1992.102,961.5,0.08082
1993.307,962.5,0.08078
1994.521,963.5,0.08075
1995.726,964.5,0.08073
1996.933,965.5,0.08071
1998.149,966.5,0.08069
1999.355,967.5,0.08068
2000.554,968.5,0.08066
2001.753,969.5,0.08063
2002.959,970.5,0.08061
2004.172,971.5,0.08057
2005.383,972.5,0.08052
2006.598,973.5,0.08048
2007.809,974.5,0.08043
2009.008,975.5,0.08038
2010.211,976.5,0.08032
2011.422,977.5,0.08027
2012.629,978.5,0.08022
2013.835,979.5,0.08017
2015.037,980.5,0.08013
2016.242,981.5,0.0801
2017.453,982.5,0.08007
2018.659,983.5,0.08004
2019.869,984.5,0.08001
2021.079,985.5,0.07997
2022.282,986.5,0.07993
2023.485,987.5,0.07989
2024.686,988.5,0.07984
2025.901,989.5,0.07979
2027.107,990.5,0.07975
2028.314,991.5,0.0797
2029.51,992.5,0.07966
2030.717,993.5,0.07962
2031.926,994.5,0.07958
2033.136,995.5,0.07954
2034.339,996.5,0.07949
2035.541,997.5,0.07945
2036.755,998.5,0.0794
2037.951,999.5,0.07935
2039.174,1000.5,0.07931
2040.375,1001.5,0.07927
2041.577,1002.5,0.07924
2042.784,1003.5,0.0792
2043.992,1004.5,0.07917
2045.193,1005.5,0.07912
2046.399,1006.5,0.07907
2047.597,1007.5,0.07902
2048.812,1008.5,0.07895
2050.017,1009.5,0.07889
2051.219,1010.5,0.07883
2052.421,1011.5,0.07878
2053.626,1012.5,0.07873
2054.822,1013.5,0.07869
2056.036,1014.5,0.07867
2057.245,1015.5,0.07864
2058.446,1016.5,0.07861
2059.656,1017.5,0.07859
2060.865,1018.5,0.07856
2062.064,1019.5,0.07853
2063.269,1020.5,0.0785
2064.469,1021.5,0.07846
2065.677,1022.5,0.07841
2066.88,1023.5,0.07837
2068.075,1024.5,0.07832
2069.286,1025.5,0.07827
2070.49,1026.5,0.07823
2071.692,1027.5,0.07818
2072.895,1028.5,0.07813
2074.096,1029.5,0.07808
2075.299,1030.5,0.07803
2076.504,1031.5,0.07798
2077.708,1032.5,0.07794
2078.912,1033.5,0.0779
2080.106,1034.5,0.07787
2081.311,1035.5,0.07783
2082.514,1036.5,0.07778
2083.725,1037.5,0.07772
2084.928,1038.5,0.07766
2086.127,1039.5,0.07761
2087.327,1040.5,0.07756
2088.524,1041.5,0.07752
2089.732,1042.5,0.07748
2090.937,1043.5,0.07744
2092.133,1044.5,0.07742
2093.339,1045.5,0.07739
2094.538,1046.5,0.07736
2095.742,1047.5,0.07733
2096.943,1048.5,0.07729
2098.146,1049.5,0.07725
2099.343,1050.5,0.0772
2100.55,1051.5,0.07715
2101.756,1052.5,0.0771
2102.953,1053.5,0.07706
2104.118,1054.5,0.07704
2106.261,1055.5,0.07699
2107.991,1056.5,0.07696
2109.8,1057.5,0.07693
2111.764,1058.5,0.07688
2113.904,1059.5,0.07679
2116.266,1060.5,0.07665
2118.873,1061.5,0.07652
2124.0,1063.16,0.07635
2144.0,1067.185,0.07627
2164.0,1069.088,0.07607
2184.0,1070.076,0.07587
2204.0,1070.647,0.07573
2224.0,1071.012,0.07535
2244.0,1071.269,0.07517
2264.0,1071.454,0.07497
2284.0,1071.602,0.07486
2304.0,1071.714,0.07483
2324.0,1071.792,0.07474
2344.0,1071.858,0.07465
2364.0,1071.903,0.07448
2384.0,1071.946,0.07456
2404.0,1071.982,0.07436
2424.0,1072.0,0.07424