File: Wood/Calibration_Data/TUBS/TUBS_Wood_TGA_N2_50K_R8.csv
Time (s),Temperature (K),Mass (mg)
0.0,305.008,1.97968
2.0,304.995,1.97935
4.0,304.981,1.97891
6.0,304.968,1.97844
8.0,304.95,1.97795
10.0,304.96,1.97747
12.0,304.945,1.977
14.0,304.93,1.97653
16.0,304.931,1.97607
18.0,304.927,1.9756
20.0,304.903,1.97513
22.0,304.897,1.97466
24.0,304.88,1.97419
26.0,304.866,1.97374
28.0,304.851,1.9733
30.0,304.844,1.97288
32.0,304.84,1.97248
34.0,304.858,1.97207
36.0,304.85,1.97166
38.0,304.83,1.97127
40.0,304.825,1.97087
42.0,304.814,1.97048
44.0,304.807,1.97009
46.0,304.805,1.9697
48.0,304.792,1.96931
50.0,304.78,1.96892
52.0,304.772,1.96854
54.0,304.784,1.96817
56.0,304.793,1.96782
58.0,304.777,1.96748
60.0,304.758,1.96714
62.0,304.749,1.9668
64.0,304.747,1.96647
66.0,304.764,1.96614
68.0,304.741,1.96582
70.0,304.761,1.96549
72.0,304.76,1.96515
74.0,304.737,1.96483
76.0,304.742,1.96451
78.0,304.735,1.9642
80.0,304.724,1.96389
82.0,304.706,1.96359
84.0,304.716,1.96328
86.0,304.707,1.96298
88.0,304.715,1.96268
90.0,304.704,1.96238
92.0,304.692,1.96209
94.0,304.699,1.96181
96.0,304.689,1.96155
98.0,304.692,1.96129
100.0,304.683,1.96102
102.0,304.685,1.96075
104.0,304.688,1.96049
106.0,304.676,1.96024
108.0,304.67,1.96
110.0,304.665,1.95976
112.0,304.663,1.95951
114.0,304.667,1.95925
116.0,304.654,1.95899
118.0,304.665,1.95874
120.0,304.654,1.95851
122.0,304.666,1.95828
124.0,304.65,1.95805
126.0,304.642,1.95783
128.0,304.643,1.9576
130.0,304.634,1.95738
132.0,304.635,1.95716
134.0,304.628,1.95693
136.0,304.626,1.95671
138.0,304.625,1.9565
140.0,304.629,1.9563
142.0,304.609,1.95609
144.0,304.636,1.95589
146.0,304.63,1.95569
148.0,304.625,1.95549
150.0,304.616,1.95528
152.0,304.611,1.95507
154.0,304.601,1.95487
156.0,304.607,1.95466
158.0,304.606,1.95447
160.0,304.605,1.95427
162.0,304.593,1.95407
164.0,304.598,1.95386
166.0,304.589,1.95364
168.0,304.594,1.95343
170.0,304.584,1.95326
172.0,304.588,1.95313
174.0,304.588,1.953
176.0,304.596,1.95286
178.0,304.581,1.95272
180.0,304.581,1.95259
182.0,304.569,1.95245
184.0,304.566,1.9523
186.0,304.568,1.95213
188.0,304.554,1.95195
190.0,304.566,1.95176
192.0,304.56,1.95158
194.0,304.567,1.9514
196.0,304.557,1.95124
198.0,304.556,1.95106
200.0,304.561,1.95088
202.0,304.561,1.9507
204.0,304.555,1.95053
206.0,304.547,1.95036
208.0,304.554,1.95021
210.0,304.555,1.95008
212.0,304.558,1.94996
214.0,304.57,1.94985
216.0,304.565,1.94973
218.0,304.54,1.9496
220.0,304.539,1.94946
222.0,304.543,1.94932
224.0,304.542,1.94918
226.0,304.548,1.94904
228.0,304.538,1.94889
230.0,304.523,1.94876
232.0,304.538,1.94864
234.0,304.532,1.94852
236.0,304.542,1.9484
238.0,304.533,1.94826
240.0,304.53,1.94813
242.0,304.519,1.94799
244.0,304.529,1.94787
246.0,304.528,1.94776
248.0,304.522,1.94766
250.0,304.521,1.94755
252.0,304.523,1.94745
254.0,304.522,1.94733
256.0,304.52,1.94721
258.0,304.525,1.94708
260.0,304.518,1.94694
262.0,304.52,1.94681
264.0,304.531,1.94668
266.0,304.509,1.94655
268.0,304.498,1.94643
270.0,304.508,1.9463
272.0,304.504,1.94617
274.0,304.501,1.94605
276.0,304.515,1.94593
278.0,304.51,1.94581
280.0,304.511,1.94566
282.0,304.501,1.94552
284.0,304.501,1.94539
286.0,304.503,1.94527
288.0,304.508,1.94518
290.0,304.499,1.94509
292.0,304.488,1.94501
294.0,304.509,1.94491
296.0,304.506,1.94481
298.0,304.502,1.94472
300.0,304.475,1.94463
302.0,304.482,1.94451
304.0,304.486,1.94438
306.0,304.5,1.94425
308.0,304.478,1.94414
310.0,304.486,1.94404
312.0,304.486,1.94396
314.0,304.468,1.94387
316.0,304.463,1.94379
318.0,304.47,1.94369
320.0,304.471,1.9436
322.0,304.481,1.9435
324.0,304.482,1.94342
326.0,304.491,1.94333
328.0,304.486,1.94326
330.0,304.482,1.94317
332.0,304.479,1.94308
334.0,304.47,1.94298
336.0,304.47,1.94289
338.0,304.482,1.94281
340.0,304.484,1.94272
342.0,304.488,1.94264
344.0,304.471,1.94254
346.0,304.477,1.94246
348.0,304.485,1.94238
350.0,304.48,1.94231
352.0,304.478,1.94224
354.0,304.467,1.94215
356.0,304.467,1.94206
358.0,304.458,1.94197
360.0,304.463,1.94189
362.0,304.463,1.9418
364.0,304.469,1.94172
366.0,304.46,1.94164
368.0,304.477,1.94157
370.0,304.457,1.94149
372.0,304.462,1.9414
374.0,304.458,1.94132
376.0,304.468,1.94123
378.0,304.479,1.94116
380.0,304.464,1.94111
382.0,304.467,1.94107
384.0,304.461,1.94103
386.0,304.477,1.94098
388.0,304.464,1.94091
390.0,304.457,1.94083
392.0,304.464,1.94076
394.0,304.461,1.94069
396.0,304.458,1.94063
398.0,304.452,1.94056
400.0,304.468,1.94049
402.0,304.468,1.94043
404.0,304.452,1.94037
406.0,304.464,1.94031
408.0,304.457,1.94023
410.0,304.474,1.94015
412.0,304.466,1.94006
414.0,304.465,1.93997
416.0,304.457,1.93987
418.0,304.464,1.93978
420.0,304.459,1.9397
422.0,304.468,1.93962
424.0,304.444,1.93954
426.0,304.453,1.93947
428.0,304.45,1.9394
430.0,304.459,1.93933
432.0,304.456,1.93926
434.0,304.457,1.93919
436.0,304.446,1.93912
438.0,304.448,1.93906
440.0,304.437,1.93902
442.0,304.451,1.93898
444.0,304.437,1.93894
446.0,304.438,1.9389
448.0,304.426,1.93885
450.0,304.441,1.93879
452.0,304.445,1.93871
454.0,304.451,1.93863
456.0,304.436,1.93856
458.0,304.427,1.93851
460.0,304.433,1.93848
462.0,304.446,1.93844
464.0,304.441,1.93839
466.0,304.451,1.93834
468.0,304.455,1.93829
470.0,304.455,1.93825
472.0,304.45,1.93822
474.0,304.452,1.9382
476.0,304.45,1.93817
478.0,304.449,1.93813
480.0,304.469,1.93804
482.0,304.433,1.93795
484.0,304.438,1.93786
486.0,304.449,1.93779
488.0,304.433,1.93776
490.0,304.432,1.93774
492.0,304.442,1.93772
495.0,304.439,1.9377
497.0,304.433,1.93766
499.0,304.43,1.93762
501.0,304.428,1.93757
503.0,304.426,1.93753
505.0,304.432,1.93749
507.0,304.433,1.93746
510.0,304.436,1.93744
513.0,304.451,1.93742
515.0,304.43,1.9374
517.0,304.43,1.93735
519.0,304.45,1.93729
521.0,304.427,1.93723
523.0,304.439,1.93717
525.0,304.443,1.93711
527.0,304.436,1.93705
529.0,304.441,1.93701
531.0,304.444,1.93696
533.0,304.448,1.93693
535.0,304.447,1.93689
537.0,304.432,1.93686
539.0,304.459,1.93683
541.0,304.443,1.93678
543.0,304.448,1.93673
545.0,304.447,1.93667
547.0,304.453,1.93661
549.0,304.431,1.93656
551.0,304.451,1.93651
553.0,304.433,1.93648
555.0,304.437,1.93644
557.0,304.451,1.93641
559.0,304.441,1.93639
562.0,304.449,1.93637
564.0,304.433,1.93633
566.0,304.431,1.93629
568.0,304.439,1.93624
570.0,304.443,1.9362
574.0,304.436,1.93618
577.0,304.43,1.93616
580.0,304.441,1.93613
582.0,304.435,1.9361
584.0,304.445,1.93605
586.0,304.427,1.936
588.0,304.424,1.93595
590.0,304.44,1.93591
593.0,304.438,1.93588
595.0,304.431,1.93585
597.0,304.431,1.93581
599.0,304.433,1.93577
601.0,304.431,1.93573
603.0,304.432,1.9357
605.0,304.448,1.93568
610.0,304.427,1.93566
612.0,304.428,1.93563
614.0,304.434,1.93559
616.0,304.436,1.93553
618.0,304.438,1.93547
620.0,304.427,1.93543
622.0,304.443,1.93538
624.0,304.436,1.93533
626.0,304.448,1.9353
628.0,304.449,1.93527
630.0,304.446,1.93524
632.0,304.438,1.93521
634.0,304.449,1.93518
636.0,304.449,1.93516
641.0,304.439,1.93516
644.0,304.44,1.93514
646.0,304.429,1.93512
648.0,304.443,1.93508
650.0,304.45,1.93504
652.0,304.453,1.935
654.0,304.439,1.93496
656.0,304.451,1.93492
658.0,304.44,1.93489
660.0,304.447,1.93487
665.0,304.438,1.93485
667.0,304.438,1.93481
669.0,304.44,1.93476
671.0,304.445,1.93472
673.0,304.445,1.9347
675.0,304.446,1.93468
678.0,304.459,1.93466
680.0,304.446,1.93462
682.0,304.426,1.9346
684.0,304.427,1.93458
687.0,304.44,1.93456
690.0,304.439,1.93453
692.0,304.438,1.9345
694.0,304.428,1.93446
696.0,304.442,1.93442
698.0,304.43,1.93437
700.0,304.427,1.93433
702.0,304.441,1.9343
704.0,304.43,1.93427
706.0,304.422,1.93423
708.0,304.429,1.93421
710.0,304.437,1.93419
713.0,304.449,1.93417
715.0,304.441,1.93415
717.0,304.426,1.93412
719.0,304.439,1.9341
722.0,304.43,1.93408
724.0,304.438,1.93406
726.0,304.432,1.93404
728.0,304.432,1.93401
730.0,304.445,1.93399
732.0,304.429,1.93396
734.0,304.435,1.93394
736.0,304.447,1.93391
738.0,304.435,1.93389
740.0,304.436,1.93387
742.0,304.441,1.93385
744.0,304.436,1.93381
746.0,304.438,1.93377
748.0,304.427,1.93372
750.0,304.426,1.93367
752.0,304.446,1.93363
754.0,304.432,1.9336
757.0,304.432,1.93358
765.0,304.432,1.9336
767.0,304.444,1.93362
769.0,304.435,1.93364
772.0,304.442,1.93366
777.0,304.427,1.93368
784.0,304.441,1.93368
786.0,304.443,1.93365
788.0,304.435,1.93361
790.0,304.448,1.93355
792.0,304.433,1.9335
794.0,304.456,1.93345
796.0,304.443,1.93342
798.0,304.442,1.93339
803.0,304.42,1.93337
805.0,304.443,1.93334
807.0,304.441,1.93331
809.0,304.447,1.93326
811.0,304.442,1.93322
813.0,304.436,1.93317
815.0,304.438,1.93313
817.0,304.43,1.9331
819.0,304.434,1.93308
842.0,304.448,1.93306
844.0,304.436,1.93302
846.0,304.43,1.93297
848.0,304.455,1.93291
850.0,304.432,1.93285
852.0,304.454,1.93281
854.0,304.446,1.93279
870.0,304.429,1.93277
873.0,304.433,1.93275
875.0,304.446,1.93272
877.0,304.441,1.93269
879.0,304.441,1.93267
881.0,304.446,1.93264
883.0,304.436,1.93262
885.0,304.452,1.93259
887.0,304.452,1.93257
889.0,304.455,1.93255
891.0,304.443,1.93253
894.0,304.465,1.9325
898.0,304.448,1.9325
903.0,304.432,1.9325
906.0,304.46,1.93247
908.0,304.459,1.93244
910.0,304.441,1.93241
912.0,304.452,1.93238
914.0,304.455,1.93235
916.0,304.459,1.93232
918.0,304.453,1.93227
920.0,304.453,1.93223
922.0,304.449,1.9322
925.0,304.452,1.93218
927.0,304.438,1.93215
929.0,304.447,1.93212
931.0,304.453,1.9321
935.0,304.452,1.93208
938.0,304.446,1.9321
940.0,304.444,1.93212
943.0,304.453,1.93214
945.0,304.441,1.93216
957.0,304.439,1.93216
959.0,304.463,1.93213
961.0,304.456,1.93209
963.0,304.447,1.93206
965.0,304.447,1.93203
967.0,304.455,1.932
969.0,304.447,1.93196
971.0,304.46,1.93193
973.0,304.441,1.93189
975.0,304.439,1.93185
977.0,304.461,1.93182
979.0,304.448,1.93179
991.0,304.438,1.93177
997.0,304.461,1.93177
1012.0,304.455,1.93174
1014.0,304.464,1.9317
1016.0,304.451,1.93164
1018.0,304.457,1.93159
1020.0,304.452,1.93155
1022.0,304.455,1.93153
1024.0,304.451,1.93153
1027.0,304.455,1.93151
1032.0,304.465,1.93151
1035.0,304.459,1.93153
1037.0,304.434,1.93155
1043.0,304.451,1.93155
1045.0,304.443,1.93152
1047.0,304.453,1.93148
1049.0,304.474,1.93143
1051.0,304.442,1.9314
1054.0,304.465,1.93142
1056.0,304.454,1.93145
1059.0,304.45,1.93147
1073.0,304.45,1.93145
1075.0,304.448,1.93141
1077.0,304.442,1.93136
1079.0,304.452,1.93132
1081.0,304.456,1.9313
1083.0,304.459,1.93128
1117.0,304.462,1.93126
1120.0,304.463,1.93124
1122.0,304.459,1.93122
1124.0,304.46,1.9312
1126.0,304.464,1.93117
1128.0,304.456,1.93114
1130.0,304.456,1.93111
1133.0,304.456,1.93109
1144.0,304.45,1.93109
1147.0,304.455,1.93111
1149.0,304.449,1.93113
1152.0,304.459,1.93115
1155.0,304.451,1.93115
1157.0,304.461,1.93113
1159.0,304.448,1.93111
1161.0,304.451,1.93109
1171.0,304.434,1.93107
1175.0,304.457,1.93107
1178.0,304.455,1.93105
1180.0,304.463,1.93102
1182.0,304.456,1.93099
1184.0,304.462,1.93096
1186.0,304.454,1.93093
1188.0,304.46,1.93091
1190.0,304.436,1.93089
1192.0,304.452,1.93087
1194.0,304.458,1.93085
1197.0,304.446,1.93082
1199.0,304.443,1.93071
1204.148,305.0,1.92912
1206.332,306.0,1.92851
1207.977,307.0,1.92823
1209.587,308.0,1.92836
1211.052,309.0,1.92892
1212.38,310.0,1.92998
1213.676,311.0,1.93079
1214.911,312.0,1.93142
1216.15,313.0,1.93217
1217.351,314.0,1.93257
1218.533,315.0,1.9328
1219.739,316.0,1.9327
1220.914,317.0,1.93259
1222.097,318.0,1.93252
1223.261,319.0,1.93237
1224.449,320.0,1.93219
1225.637,321.0,1.93194
1226.806,322.0,1.93163
1227.995,323.0,1.93123
1229.16,324.0,1.93086
1230.333,325.0,1.93045
1231.512,326.0,1.93004
1232.693,327.0,1.92964
1233.875,328.0,1.92926
1235.053,329.0,1.92888
1236.249,330.0,1.92856
1237.428,331.0,1.92823
1238.614,332.0,1.9279
1239.788,333.0,1.92761
1240.983,334.0,1.92731
1242.176,335.0,1.927
1243.369,336.0,1.9267
1244.552,337.0,1.9264
1245.733,338.0,1.92608
1246.922,339.0,1.92575
1248.111,340.0,1.9254
1249.317,341.0,1.92502
1250.509,342.0,1.92465
1251.702,343.0,1.92424
1252.905,344.0,1.92382
1254.097,345.0,1.92341
1255.286,346.0,1.92298
1256.472,347.0,1.92254
1257.666,348.0,1.92209
1258.863,349.0,1.92164
1260.072,350.0,1.92117
1261.264,351.0,1.92071
1262.465,352.0,1.92023
1263.659,353.0,1.91975
1264.864,354.0,1.91926
1266.053,355.0,1.91877
1267.263,356.0,1.91826
1268.447,357.0,1.91775
1269.645,358.0,1.91724
1270.841,359.0,1.91673
1272.033,360.0,1.91623
1273.24,361.0,1.91572
1274.434,362.0,1.91523
1275.646,363.0,1.91476
1276.836,364.0,1.91431
1278.043,365.0,1.91386
1279.235,366.0,1.91344
1280.43,367.0,1.91305
1281.622,368.0,1.91265
1282.813,369.0,1.91227
1284.017,370.0,1.91191
1285.221,371.0,1.91155
1286.418,372.0,1.9112
1287.609,373.0,1.91087
1288.816,374.0,1.91055
1290.027,375.0,1.91024
1291.205,376.0,1.90996
1292.399,377.0,1.90971
1293.594,378.0,1.90946
1294.798,379.0,1.90921
1295.969,380.0,1.909
1297.181,381.0,1.90877
1298.382,382.0,1.90855
1299.572,383.0,1.90833
1300.761,384.0,1.90814
1301.965,385.0,1.90795
1303.145,386.0,1.90776
1304.335,387.0,1.90763
1305.535,388.0,1.90749
1306.732,389.0,1.90737
1307.934,390.0,1.90729
1309.124,391.0,1.90721
1310.325,392.0,1.90713
1311.512,393.0,1.90705
1312.707,394.0,1.90699
1313.892,395.0,1.90694
1315.077,396.0,1.90688
1316.273,397.0,1.90683
1317.458,398.0,1.90678
1318.646,399.0,1.90673
1319.839,400.0,1.9067
1321.035,401.0,1.90667
1322.231,402.0,1.90663
1323.412,403.0,1.9066
1324.598,404.0,1.90656
1325.792,405.0,1.90653
1326.974,406.0,1.90649
1328.163,407.0,1.90645
1329.36,408.0,1.90641
1330.546,409.0,1.90638
1331.738,410.0,1.90635
1332.909,411.0,1.90632
1334.099,412.0,1.9063
1335.299,413.0,1.90626
1336.479,414.0,1.90624
1337.667,415.0,1.90621
1338.853,416.0,1.90618
1340.032,417.0,1.90615
1341.229,418.0,1.90612
1342.411,419.0,1.90609
1343.585,420.0,1.90605
1344.783,421.0,1.90601
1345.969,422.0,1.90595
1347.148,423.0,1.9059
1348.32,424.0,1.90583
1349.499,425.0,1.90578
1350.69,426.0,1.90571
1351.854,427.0,1.90565
1353.055,428.0,1.90558
1354.226,429.0,1.90551
1355.413,430.0,1.90545
1356.588,431.0,1.90537
1357.766,432.0,1.9053
1358.955,433.0,1.90523
1360.129,434.0,1.90515
1361.307,435.0,1.90508
1362.483,436.0,1.90499
1363.67,437.0,1.90489
1364.838,438.0,1.90479
1366.016,439.0,1.90469
1367.194,440.0,1.90458
1368.371,441.0,1.90445
1369.548,442.0,1.90433
1370.736,443.0,1.9042
1371.905,444.0,1.90406
1373.089,445.0,1.90392
1374.261,446.0,1.90378
1375.441,447.0,1.90364
1376.611,448.0,1.9035
1377.78,449.0,1.90336
1378.956,450.0,1.90322
1380.118,451.0,1.90306
1381.298,452.0,1.90291
1382.474,453.0,1.90274
1383.644,454.0,1.90257
1384.817,455.0,1.90238
1385.993,456.0,1.90218
1387.16,457.0,1.90198
1388.328,458.0,1.90174
1389.496,459.0,1.90151
1390.669,460.0,1.90126
1391.837,461.0,1.90099
1393.006,462.0,1.90071
1394.174,463.0,1.90041
1395.339,464.0,1.90009
1396.512,465.0,1.89974
1397.676,466.0,1.89939
1398.855,467.0,1.89902
1400.006,468.0,1.89862
1401.173,469.0,1.89822
1402.342,470.0,1.89782
1403.514,471.0,1.89738
1404.679,472.0,1.89694
1405.842,473.0,1.89647
1407.011,474.0,1.896
1408.184,475.0,1.89546
1409.344,476.0,1.89492
1410.509,477.0,1.89436
1411.681,478.0,1.89375
1412.837,479.0,1.89313
1413.998,480.0,1.8925
1415.172,481.0,1.89185
1416.334,482.0,1.89116
1417.496,483.0,1.89047
1418.672,484.0,1.88976
1419.834,485.0,1.88901
1420.987,486.0,1.88826
1422.144,487.0,1.88749
1423.32,488.0,1.88669
1424.487,489.0,1.88584
1425.645,490.0,1.88502
1426.815,491.0,1.88417
1427.969,492.0,1.88329
1429.148,493.0,1.8824
1430.3,494.0,1.88152
1431.46,495.0,1.88061
1432.624,496.0,1.87968
1433.783,497.0,1.87875
1434.945,498.0,1.87782
1436.107,499.0,1.87686
1437.281,500.0,1.87588
1438.437,501.0,1.87491
1439.601,502.0,1.87392
1440.762,503.0,1.87292
1441.922,504.0,1.87192
1443.086,505.0,1.8709
1444.245,506.0,1.86988
1445.411,507.0,1.86886
1446.57,508.0,1.86783
1447.727,509.0,1.8668
1448.897,510.0,1.86574
1450.051,511.0,1.86469
1451.214,512.0,1.86362
1452.384,513.0,1.86252
1453.542,514.0,1.86141
1454.699,515.0,1.86031
1455.86,516.0,1.85915
1457.042,517.0,1.85797
1458.197,518.0,1.85681
1459.358,519.0,1.85561
1460.51,520.0,1.85438
1461.685,521.0,1.85312
1462.84,522.0,1.85186
1464.0,523.0,1.85053
1465.172,524.0,1.84918
1466.332,525.0,1.84782
1467.498,526.0,1.84639
1468.654,527.0,1.84493
1469.817,528.0,1.84345
1470.988,529.0,1.84194
1472.15,530.0,1.84034
1473.31,531.0,1.83875
1474.469,532.0,1.83712
1475.628,533.0,1.83542
1476.796,534.0,1.83367
1477.962,535.0,1.83192
1479.132,536.0,1.83011
1480.296,537.0,1.82822
1481.456,538.0,1.82633
1482.619,539.0,1.82441
1483.799,540.0,1.82237
1484.952,541.0,1.82033
1486.109,542.0,1.81826
1487.278,543.0,1.81611
1488.446,544.0,1.81384
1489.613,545.0,1.81156
1490.78,546.0,1.80925
1491.953,547.0,1.80677
1493.107,548.0,1.80433
1494.273,549.0,1.80183
1495.434,550.0,1.79925
1496.596,551.0,1.7966
1497.762,552.0,1.79393
1498.929,553.0,1.79122
1500.088,554.0,1.78843
1501.267,555.0,1.78558
1502.43,556.0,1.78275
1503.59,557.0,1.77984
1504.751,558.0,1.77687
1505.919,559.0,1.77386
1507.098,560.0,1.77077
1508.261,561.0,1.76759
1509.418,562.0,1.76445
1510.591,563.0,1.76121
1511.774,564.0,1.75786
1512.933,565.0,1.75454
1514.094,566.0,1.7512
1515.266,567.0,1.74776
1516.437,568.0,1.74424
1517.601,569.0,1.74075
1518.765,570.0,1.73721
1519.938,571.0,1.73354
1521.103,572.0,1.72987
1522.276,573.0,1.72615
1523.456,574.0,1.72233
1524.62,575.0,1.71849
1525.805,576.0,1.71456
1526.969,577.0,1.71067
1528.136,578.0,1.70663
1529.306,579.0,1.70259
1530.482,580.0,1.6985
1531.652,581.0,1.69433
1532.82,582.0,1.69012
1534.0,583.0,1.68584
1535.164,584.0,1.68156
1536.332,585.0,1.67713
1537.509,586.0,1.67268
1538.678,587.0,1.66821
1539.86,588.0,1.66356
1541.039,589.0,1.65889
1542.21,590.0,1.65419
1543.382,591.0,1.64941
1544.558,592.0,1.64448
1545.727,593.0,1.63957
1546.912,594.0,1.63454
1548.079,595.0,1.62939
1549.26,596.0,1.62417
1550.436,597.0,1.61892
1551.619,598.0,1.61348
1552.797,599.0,1.60796
1553.972,600.0,1.60241
1555.146,601.0,1.59678
1556.324,602.0,1.59089
1557.502,603.0,1.585
1558.68,604.0,1.57905
1559.854,605.0,1.57288
1561.032,606.0,1.56664
1562.221,607.0,1.56028
1563.402,608.0,1.55381
1564.583,609.0,1.54715
1565.757,610.0,1.54049
1566.947,611.0,1.53367
1568.119,612.0,1.52662
1569.314,613.0,1.51942
1570.495,614.0,1.51223
1571.665,615.0,1.50486
1572.856,616.0,1.49725
1574.037,617.0,1.48965
1575.222,618.0,1.48187
1576.408,619.0,1.47382
1577.589,620.0,1.46579
1578.781,621.0,1.4576
1579.966,622.0,1.44914
1581.139,623.0,1.44074
1582.325,624.0,1.43216
1583.511,625.0,1.42339
1584.699,626.0,1.41443
1585.889,627.0,1.40543
1587.087,628.0,1.39627
1588.276,629.0,1.38686
1589.454,630.0,1.37755
1590.642,631.0,1.36809
1591.836,632.0,1.35834
1593.026,633.0,1.34854
1594.214,634.0,1.33871
1595.4,635.0,1.32874
1596.59,636.0,1.31856
1597.78,637.0,1.30838
1598.964,638.0,1.29817
1600.158,639.0,1.28762
1601.358,640.0,1.27701
1602.556,641.0,1.26636
1603.752,642.0,1.25553
1604.942,643.0,1.24468
1606.132,644.0,1.23378
1607.327,645.0,1.22272
1608.521,646.0,1.21147
1609.72,647.0,1.20016
1610.901,648.0,1.18894
1612.11,649.0,1.17717
1613.307,650.0,1.16549
1614.51,651.0,1.1537
1615.695,652.0,1.14184
1616.888,653.0,1.1298
1618.095,654.0,1.11755
1619.292,655.0,1.10525
1620.488,656.0,1.0927
1621.696,657.0,1.07998
1622.9,658.0,1.0672
1624.087,659.0,1.0542
1625.293,660.0,1.04096
1626.492,661.0,1.02766
1627.701,662.0,1.01389
1628.914,663.0,0.99988
1630.112,664.0,0.98592
1631.315,665.0,0.97164
1632.521,666.0,0.95691
1633.731,667.0,0.94212
1634.936,668.0,0.92725
1636.143,669.0,0.91177
1637.336,670.0,0.89647
1638.536,671.0,0.88094
1639.751,672.0,0.86477
1640.957,673.0,0.84858
1642.169,674.0,0.83221
1643.372,675.0,0.81575
1644.58,676.0,0.79895
1645.781,677.0,0.78228
1646.989,678.0,0.76545
1648.185,679.0,0.7486
1649.391,680.0,0.73175
1650.602,681.0,0.71488
1651.813,682.0,0.69818
1653.007,683.0,0.68188
1654.202,684.0,0.6658
1655.406,685.0,0.65001
1656.598,686.0,0.63491
1657.803,687.0,0.6199
1658.998,688.0,0.60538
1660.185,689.0,0.5924
1661.394,690.0,0.57933
1662.591,691.0,0.56687
1663.789,692.0,0.55592
1664.982,693.0,0.54553
1666.184,694.0,0.53558
1667.388,695.0,0.52671
1668.595,696.0,0.51917
1669.791,697.0,0.51184
1670.981,698.0,0.50501
1672.189,699.0,0.50015
1673.39,700.0,0.49511
1674.595,701.0,0.49041
1675.798,702.0,0.48694
1677.0,703.0,0.48368
1678.204,704.0,0.48057
1679.407,705.0,0.47795
1680.617,706.0,0.47584
1681.82,707.0,0.47366
1683.025,708.0,0.47159
1684.227,709.0,0.47001
1685.433,710.0,0.46832
1686.636,711.0,0.46669
1687.85,712.0,0.46523
1689.06,713.0,0.4638
1690.268,714.0,0.46237
1691.469,715.0,0.46103
1692.68,716.0,0.45972
1693.884,717.0,0.45842
1695.095,718.0,0.45712
1696.299,719.0,0.45588
1697.508,720.0,0.45462
1698.728,721.0,0.45335
1699.94,722.0,0.45212
1701.144,723.0,0.45091
1702.351,724.0,0.4497
1703.561,725.0,0.44851
1704.779,726.0,0.44734
1705.98,727.0,0.44618
1707.194,728.0,0.44502
1708.395,729.0,0.44389
1709.607,730.0,0.44275
1710.825,731.0,0.44161
1712.031,732.0,0.44051
1713.239,733.0,0.4394
1714.446,734.0,0.4383
1715.659,735.0,0.43722
1716.868,736.0,0.43616
1718.099,737.0,0.43508
1719.304,738.0,0.43405
1720.518,739.0,0.43302
1721.732,740.0,0.43199
1722.941,741.0,0.43097
1724.151,742.0,0.42995
1725.368,743.0,0.42893
1726.576,744.0,0.42792
1727.787,745.0,0.42691
1729.005,746.0,0.4259
1730.208,747.0,0.4249
1731.429,748.0,0.42391
1732.638,749.0,0.42295
1733.857,750.0,0.42199
1735.064,751.0,0.42106
1736.286,752.0,0.42016
1737.503,753.0,0.41926
1738.711,754.0,0.41836
1739.928,755.0,0.41749
1741.143,756.0,0.41662
1742.347,757.0,0.41577
1743.552,758.0,0.41494
1744.769,759.0,0.41411
1745.985,760.0,0.41328
1747.208,761.0,0.41247
1748.419,762.0,0.41168
1749.632,763.0,0.4109
1750.844,764.0,0.41013
1752.063,765.0,0.40938
1753.278,766.0,0.40864
1754.491,767.0,0.40791
1755.709,768.0,0.4072
1756.917,769.0,0.4065
1758.132,770.0,0.4058
1759.359,771.0,0.40511
1760.571,772.0,0.40444
1761.781,773.0,0.40378
1762.996,774.0,0.40312
1764.215,775.0,0.40249
1765.429,776.0,0.40186
1766.653,777.0,0.40123
1767.862,778.0,0.40062
1769.079,779.0,0.40001
1770.29,780.0,0.39941
1771.509,781.0,0.39881
1772.727,782.0,0.39823
1773.936,783.0,0.39764
1775.153,784.0,0.39706
1776.369,785.0,0.3965
1777.584,786.0,0.39594
1778.803,787.0,0.39539
1780.022,788.0,0.39487
1781.243,789.0,0.39435
1782.458,790.0,0.39383
1783.676,791.0,0.39334
1784.89,792.0,0.39284
1786.103,793.0,0.39235
1787.316,794.0,0.39186
1788.539,795.0,0.39136
1789.749,796.0,0.39088
1790.959,797.0,0.39039
1792.181,798.0,0.38991
1793.39,799.0,0.38944
1794.609,800.0,0.38897
1795.829,801.0,0.38852
1797.049,802.0,0.38807
1798.257,803.0,0.38762
1799.472,804.0,0.38717
1800.688,805.0,0.38672
1801.902,806.0,0.38628
1803.116,807.0,0.38583
1804.326,808.0,0.3854
1805.543,809.0,0.38496
1806.755,810.0,0.38452
1807.973,811.0,0.38409
1809.192,812.0,0.38365
1810.4,813.0,0.38323
1811.612,814.0,0.38281
1812.838,815.0,0.38238
1814.05,816.0,0.38197
1815.268,817.0,0.38155
1816.48,818.0,0.38114
1817.69,819.0,0.38073
1818.905,820.0,0.38032
1820.123,821.0,0.37992
1821.332,822.0,0.37952
1822.547,823.0,0.37913
1823.755,824.0,0.37875
1824.973,825.0,0.37838
1826.194,826.0,0.37801
1827.406,827.0,0.37767
1828.622,828.0,0.37734
1829.838,829.0,0.377
1831.056,830.0,0.37667
1832.269,831.0,0.37635
1833.478,832.0,0.37603
1834.698,833.0,0.3757
1835.902,834.0,0.37538
1837.128,835.0,0.37504
1838.333,836.0,0.37471
1839.549,837.0,0.37437
1840.765,838.0,0.37401
1841.996,839.0,0.37366
1843.196,840.0,0.37331
1844.42,841.0,0.37295
1845.634,842.0,0.3726
1846.846,843.0,0.37226
1848.063,844.0,0.37192
1849.274,845.0,0.37157
1850.493,846.0,0.37122
1851.697,847.0,0.37088
1852.92,848.0,0.37053
1854.134,849.0,0.37019
1855.354,850.0,0.36984
1856.56,851.0,0.3695
1857.779,852.0,0.36917
1858.994,853.0,0.36883
1860.206,854.0,0.36851
1861.424,855.0,0.36819
1862.637,856.0,0.36786
1863.846,857.0,0.36754
1865.055,858.0,0.36722
1866.271,859.0,0.3669
1867.49,860.0,0.36659
1868.706,861.0,0.36629
1869.914,862.0,0.36598
1871.119,863.0,0.36568
1872.327,864.0,0.36539
1873.547,865.0,0.3651
1874.752,866.0,0.36481
1875.977,867.0,0.3645
1877.189,868.0,0.3642
1878.403,869.0,0.36389
1879.621,870.0,0.36357
1880.831,871.0,0.36325
1882.044,872.0,0.36293
1883.259,873.0,0.3626
1884.463,874.0,0.36228
1885.672,875.0,0.36196
1886.89,876.0,0.36163
1888.096,877.0,0.36133
1889.312,878.0,0.36103
1890.525,879.0,0.36074
1891.743,880.0,0.36048
1892.952,881.0,0.36021
1894.16,882.0,0.35995
1895.37,883.0,0.35969
1896.581,884.0,0.35944
1897.795,885.0,0.35918
1899.002,886.0,0.35892
1900.214,887.0,0.35866
1901.426,888.0,0.3584
1902.636,889.0,0.35813
1903.845,890.0,0.35787
1905.058,891.0,0.35761
1906.271,892.0,0.35735
1907.488,893.0,0.35708
1908.696,894.0,0.35682
1909.908,895.0,0.35655
1911.123,896.0,0.35629
1912.324,897.0,0.35604
1913.544,898.0,0.35578
1914.749,899.0,0.35553
1915.963,900.0,0.35528
1917.169,901.0,0.35503
1918.374,902.0,0.35477
1919.585,903.0,0.35451
1920.798,904.0,0.35425
1922.012,905.0,0.35399
1923.219,906.0,0.35374
1924.427,907.0,0.3535
1925.646,908.0,0.35325
1926.85,909.0,0.35301
1928.062,910.0,0.35277
1929.269,911.0,0.35252
1930.473,912.0,0.35228
1931.684,913.0,0.35203
1932.897,914.0,0.35177
1934.101,915.0,0.35152
1935.303,916.0,0.35126
1936.522,917.0,0.35099
1937.731,918.0,0.35073
1938.936,919.0,0.35048
1940.161,920.0,0.35023
1941.369,921.0,0.34999
1942.569,922.0,0.34977
1943.776,923.0,0.34956
1944.991,924.0,0.34934
1946.187,925.0,0.34913
1947.396,926.0,0.34892
1948.608,927.0,0.34871
1949.82,928.0,0.3485
1951.023,929.0,0.34829
1952.236,930.0,0.34809
1953.444,931.0,0.34788
1954.651,932.0,0.34768
1955.855,933.0,0.34749
1957.07,934.0,0.3473
1958.268,935.0,0.34712
1959.475,936.0,0.34693
1960.691,937.0,0.34675
1961.895,938.0,0.34657
1963.107,939.0,0.34638
1964.314,940.0,0.3462
1965.517,941.0,0.34601
1966.723,942.0,0.34581
1967.937,943.0,0.34561
1969.143,944.0,0.3454
1970.35,945.0,0.3452
1971.559,946.0,0.34499
1972.76,947.0,0.34477
1973.96,948.0,0.34456
1975.177,949.0,0.34435
1976.386,950.0,0.34415
1977.594,951.0,0.34395
1978.799,952.0,0.34376
1980.01,953.0,0.34359
1981.208,954.0,0.34341
1982.414,955.0,0.34323
1983.615,956.0,0.34306
1984.823,957.0,0.34288
1986.03,958.0,0.3427
1987.239,959.0,0.34251
1988.448,960.0,0.34233
1989.655,961.0,0.34215
1990.854,962.0,0.34198
1992.063,963.0,0.34182
1993.269,964.0,0.34167
1994.472,965.0,0.34151
1995.676,966.0,0.34137
1996.892,967.0,0.34121
1998.093,968.0,0.34106
1999.297,969.0,0.3409
2000.504,970.0,0.34073
2001.715,971.0,0.34056
2002.925,972.0,0.3404
2004.126,973.0,0.34024
2005.333,974.0,0.34008
2006.541,975.0,0.33993
2007.743,976.0,0.33978
2008.944,977.0,0.33964
2010.158,978.0,0.33951
2011.366,979.0,0.33937
2012.564,980.0,0.33925
2013.772,981.0,0.33912
2014.984,982.0,0.33899
2016.187,983.0,0.33887
2017.4,984.0,0.33875
2018.599,985.0,0.33862
2019.802,986.0,0.3385
2021.013,987.0,0.33837
2022.224,988.0,0.33824
2023.426,989.0,0.33811
2024.634,990.0,0.33798
2025.842,991.0,0.33785
2027.046,992.0,0.33772
2028.259,993.0,0.33759
2029.468,994.0,0.33746
2030.671,995.0,0.33733
2031.878,996.0,0.33722
2033.079,997.0,0.33709
2034.278,998.0,0.33697
2035.49,999.0,0.33685
2036.691,1000.0,0.33671
2037.901,1001.0,0.33657
2039.104,1002.0,0.33644
2040.318,1003.0,0.33629
2041.519,1004.0,0.33615
2042.723,1005.0,0.33601
2043.921,1006.0,0.33589
2045.137,1007.0,0.33575
2046.338,1008.0,0.33562
2047.54,1009.0,0.33549
2048.748,1010.0,0.33536
2049.953,1011.0,0.33523
2051.159,1012.0,0.33511
2052.366,1013.0,0.33499
2053.567,1014.0,0.33488
2054.78,1015.0,0.33476
2055.973,1016.0,0.33466
2057.184,1017.0,0.33455
2058.39,1018.0,0.33445
2059.589,1019.0,0.33436
2060.791,1020.0,0.33427
2061.992,1021.0,0.33418
2063.196,1022.0,0.33409
2064.404,1023.0,0.334
2065.613,1024.0,0.3339
2066.816,1025.0,0.33381
2068.018,1026.0,0.3337
2069.223,1027.0,0.3336
2070.426,1028.0,0.33349
2071.634,1029.0,0.33337
2072.838,1030.0,0.33326
2074.024,1031.0,0.33314
2075.234,1032.0,0.33302
2076.438,1033.0,0.3329
2077.64,1034.0,0.33278
2078.846,1035.0,0.33267
2080.045,1036.0,0.33255
2081.256,1037.0,0.33243
2082.452,1038.0,0.33232
2083.647,1039.0,0.33221
2084.856,1040.0,0.33209
2086.056,1041.0,0.33197
2087.255,1042.0,0.33184
2088.461,1043.0,0.33172
2089.658,1044.0,0.3316
2090.861,1045.0,0.33148
2092.069,1046.0,0.33136
2093.268,1047.0,0.33125
2094.467,1048.0,0.33114
2095.663,1049.0,0.33103
2096.864,1050.0,0.33092
2098.059,1051.0,0.33082
2099.253,1052.0,0.33072
2100.465,1053.0,0.33063
2101.664,1054.0,0.33054
2102.858,1055.0,0.33045
2103.944,1056.0,0.33036
2106.02,1057.0,0.3302
2107.851,1058.0,0.33006
2109.727,1059.0,0.32993
2111.776,1060.0,0.32977
2114.037,1061.0,0.32957
2116.545,1062.0,0.32934
2119.397,1063.0,0.32909
2122.658,1064.0,0.32884
2134.0,1066.586,0.32831
2154.0,1069.062,0.3275
2174.0,1070.258,0.32678
2194.0,1070.922,0.32621
2214.0,1071.324,0.32554
2234.0,1071.603,0.32494
2254.0,1071.806,0.32428
2274.0,1071.955,0.32386
2294.0,1072.063,0.32337
2314.0,1072.158,0.32291
2334.0,1072.22,0.32256
2354.0,1072.261,0.32207
2374.0,1072.305,0.32165
2394.0,1072.326,0.32125
2414.0,1072.352,0.32086
2424.0,1072.356,0.32071