File: Wood/Calibration_Data/TUBS/TUBS_Wood_TGA_N2_50K_R6.csv
Time (s),Temperature (K),Mass (mg)
0.0,304.923,3.999
6.0,304.886,3.997
11.0,304.886,3.995
16.0,304.86,3.993
20.0,304.828,3.991
25.0,304.798,3.989
31.0,304.804,3.987
36.0,304.769,3.985
41.0,304.742,3.983
47.0,304.728,3.981
53.0,304.704,3.979
59.0,304.699,3.977
65.0,304.691,3.975
71.0,304.684,3.973
78.0,304.678,3.971
84.0,304.671,3.969
91.0,304.649,3.967
98.0,304.632,3.965
105.0,304.631,3.963
113.0,304.626,3.961
121.0,304.597,3.959
129.0,304.591,3.957
137.0,304.57,3.955
146.0,304.56,3.953
155.0,304.562,3.951
164.0,304.55,3.949
174.0,304.531,3.947
184.0,304.511,3.945
194.0,304.518,3.943
205.0,304.504,3.941
216.0,304.504,3.939
228.0,304.466,3.937
239.0,304.473,3.935
253.0,304.484,3.933
265.0,304.456,3.931
280.0,304.451,3.929
294.0,304.461,3.927
308.0,304.447,3.925
324.0,304.43,3.923
340.0,304.433,3.921
359.0,304.429,3.919
378.0,304.43,3.917
398.0,304.433,3.915
417.0,304.424,3.913
438.0,304.419,3.911
460.0,304.432,3.909
485.0,304.417,3.907
513.0,304.396,3.905
541.0,304.419,3.903
573.0,304.425,3.901
605.0,304.425,3.899
638.0,304.423,3.897
678.0,304.443,3.895
724.0,304.425,3.893
770.0,304.446,3.891
820.0,304.447,3.889
874.0,304.431,3.887
936.0,304.445,3.885
1012.0,304.442,3.883
1093.0,304.454,3.881
1195.0,304.441,3.879
1205.04,305.5,3.877
1206.834,306.5,3.876
1208.477,307.5,3.876
1210.184,308.5,3.876
1211.681,309.5,3.877
1213.081,310.5,3.878
1214.39,311.5,3.878
1215.664,312.5,3.88
1216.919,313.5,3.88
1218.155,314.5,3.88
1219.395,315.5,3.881
1220.615,316.5,3.881
1221.825,317.5,3.881
1223.032,318.5,3.88
1224.233,319.5,3.88
1225.439,320.5,3.88
1226.641,321.5,3.88
1227.849,322.5,3.879
1229.052,323.5,3.879
1230.235,324.5,3.879
1231.425,325.5,3.878
1232.63,326.5,3.878
1233.826,327.5,3.877
1235.03,328.5,3.877
1236.215,329.5,3.876
1237.411,330.5,3.876
1238.611,331.5,3.875
1239.821,332.5,3.875
1241.031,333.5,3.875
1242.218,334.5,3.874
1243.414,335.5,3.874
1244.617,336.5,3.873
1245.819,337.5,3.873
1247.007,338.5,3.872
1248.217,339.5,3.872
1249.426,340.5,3.871
1250.631,341.5,3.87
1251.833,342.5,3.869
1253.046,343.5,3.869
1254.254,344.5,3.868
1255.45,345.5,3.868
1256.66,346.5,3.866
1257.865,347.5,3.866
1259.084,348.5,3.865
1260.27,349.5,3.864
1261.482,350.5,3.863
1262.695,351.5,3.862
1263.91,352.5,3.861
1265.119,353.5,3.86
1266.322,354.5,3.859
1267.529,355.5,3.857
1268.731,356.5,3.856
1269.934,357.5,3.856
1271.142,358.5,3.855
1272.358,359.5,3.854
1273.557,360.5,3.852
1274.768,361.5,3.851
1275.978,362.5,3.85
1277.181,363.5,3.849
1278.382,364.5,3.848
1279.593,365.5,3.846
1280.804,366.5,3.845
1282.006,367.5,3.844
1283.208,368.5,3.844
1284.402,369.5,3.843
1285.614,370.5,3.841
1286.822,371.5,3.84
1288.011,372.5,3.839
1289.235,373.5,3.838
1290.423,374.5,3.838
1291.619,375.5,3.836
1292.827,376.5,3.835
1294.024,377.5,3.835
1295.222,378.5,3.834
1296.422,379.5,3.833
1297.616,380.5,3.832
1298.817,381.5,3.832
1300.007,382.5,3.831
1301.216,383.5,3.831
1302.407,384.5,3.83
1303.604,385.5,3.829
1304.813,386.5,3.829
1306.009,387.5,3.829
1307.186,388.5,3.828
1308.386,389.5,3.828
1309.59,390.5,3.827
1310.782,391.5,3.827
1311.986,392.5,3.827
1313.182,393.5,3.826
1314.36,394.5,3.826
1315.554,395.5,3.826
1316.765,396.5,3.826
1317.952,397.5,3.825
1319.14,398.5,3.825
1320.323,399.5,3.825
1321.517,400.5,3.825
1322.719,401.5,3.825
1323.921,402.5,3.825
1325.114,403.5,3.824
1326.306,404.5,3.824
1327.487,405.5,3.824
1328.674,406.5,3.824
1329.87,407.5,3.824
1331.063,408.5,3.824
1332.254,409.5,3.824
1333.45,410.5,3.824
1334.644,411.5,3.824
1335.828,412.5,3.824
1337.011,413.5,3.824
1338.201,414.5,3.824
1339.4,415.5,3.824
1340.587,416.5,3.823
1341.782,417.5,3.823
1342.965,418.5,3.823
1344.165,419.5,3.823
1345.345,420.5,3.823
1346.535,421.5,3.823
1347.716,422.5,3.823
1348.91,423.5,3.823
1350.088,424.5,3.823
1351.275,425.5,3.823
1352.465,426.5,3.823
1353.648,427.5,3.823
1354.834,428.5,3.823
1356.012,429.5,3.822
1357.201,430.5,3.822
1358.392,431.5,3.822
1359.578,432.5,3.822
1360.753,433.5,3.822
1361.929,434.5,3.822
1363.121,435.5,3.822
1364.302,436.5,3.822
1365.482,437.5,3.822
1366.673,438.5,3.821
1367.845,439.5,3.821
1369.025,440.5,3.821
1370.204,441.5,3.821
1371.386,442.5,3.821
1372.564,443.5,3.821
1373.75,444.5,3.82
1374.931,445.5,3.82
1376.102,446.5,3.82
1377.289,447.5,3.82
1378.467,448.5,3.82
1379.637,449.5,3.819
1380.823,450.5,3.819
1381.991,451.5,3.819
1383.183,452.5,3.819
1384.353,453.5,3.819
1385.526,454.5,3.818
1386.703,455.5,3.818
1387.885,456.5,3.818
1389.067,457.5,3.817
1390.236,458.5,3.817
1391.408,459.5,3.817
1392.59,460.5,3.816
1393.761,461.5,3.816
1394.93,462.5,3.815
1396.11,463.5,3.815
1397.275,464.5,3.815
1398.444,465.5,3.814
1399.615,466.5,3.813
1400.793,467.5,3.813
1401.963,468.5,3.812
1403.133,469.5,3.812
1404.302,470.5,3.811
1405.475,471.5,3.811
1406.65,472.5,3.81
1407.823,473.5,3.809
1408.991,474.5,3.809
1410.163,475.5,3.808
1411.334,476.5,3.807
1412.5,477.5,3.806
1413.669,478.5,3.805
1414.838,479.5,3.805
1416.0,480.5,3.804
1417.173,481.5,3.803
1418.34,482.5,3.802
1419.509,483.5,3.8
1420.678,484.5,3.799
1421.845,485.5,3.798
1423.022,486.5,3.797
1424.193,487.5,3.796
1425.358,488.5,3.795
1426.531,489.5,3.793
1427.699,490.5,3.792
1428.855,491.5,3.79
1430.021,492.5,3.789
1431.198,493.5,3.788
1432.357,494.5,3.786
1433.522,495.5,3.784
1434.704,496.5,3.783
1435.873,497.5,3.781
1437.031,498.5,3.779
1438.194,499.5,3.778
1439.369,500.5,3.776
1440.533,501.5,3.774
1441.692,502.5,3.772
1442.851,503.5,3.77
1444.034,504.5,3.768
1445.193,505.5,3.766
1446.353,506.5,3.764
1447.519,507.5,3.762
1448.682,508.5,3.76
1449.849,509.5,3.757
1451.02,510.5,3.755
1452.178,511.5,3.753
1453.343,512.5,3.751
1454.512,513.5,3.749
1455.685,514.5,3.747
1456.848,515.5,3.744
1458.016,516.5,3.742
1459.174,517.5,3.74
1460.332,518.5,3.737
1461.504,519.5,3.734
1462.68,520.5,3.732
1463.853,521.5,3.729
1465.006,522.5,3.727
1466.183,523.5,3.725
1467.338,524.5,3.722
1468.509,525.5,3.719
1469.675,526.5,3.717
1470.84,527.5,3.714
1472.0,528.5,3.711
1473.165,529.5,3.709
1474.33,530.5,3.705
1475.496,531.5,3.703
1476.669,532.5,3.699
1477.829,533.5,3.696
1479.002,534.5,3.693
1480.163,535.5,3.69
1481.334,536.5,3.686
1482.504,537.5,3.682
1483.671,538.5,3.679
1484.843,539.5,3.675
1486.015,540.5,3.672
1487.171,541.5,3.668
1488.34,542.5,3.664
1489.508,543.5,3.66
1490.683,544.5,3.656
1491.854,545.5,3.652
1493.031,546.5,3.648
1494.185,547.5,3.643
1495.351,548.5,3.639
1496.526,549.5,3.634
1497.692,550.5,3.629
1498.858,551.5,3.625
1500.021,552.5,3.62
1501.197,553.5,3.615
1502.368,554.5,3.61
1503.535,555.5,3.604
1504.702,556.5,3.599
1505.879,557.5,3.594
1507.048,558.5,3.588
1508.219,559.5,3.583
1509.386,560.5,3.577
1510.554,561.5,3.571
1511.732,562.5,3.565
1512.902,563.5,3.559
1514.074,564.5,3.553
1515.24,565.5,3.547
1516.41,566.5,3.54
1517.592,567.5,3.533
1518.769,568.5,3.527
1519.939,569.5,3.52
1521.11,570.5,3.513
1522.272,571.5,3.506
1523.444,572.5,3.499
1524.618,573.5,3.491
1525.803,574.5,3.483
1526.966,575.5,3.476
1528.145,576.5,3.468
1529.326,577.5,3.46
1530.494,578.5,3.453
1531.669,579.5,3.444
1532.844,580.5,3.435
1534.021,581.5,3.427
1535.207,582.5,3.418
1536.389,583.5,3.409
1537.562,584.5,3.4
1538.723,585.5,3.391
1539.908,586.5,3.382
1541.076,587.5,3.372
1542.261,588.5,3.363
1543.439,589.5,3.352
1544.618,590.5,3.342
1545.796,591.5,3.332
1546.963,592.5,3.322
1548.151,593.5,3.311
1549.318,594.5,3.3
1550.497,595.5,3.29
1551.678,596.5,3.278
1552.862,597.5,3.267
1554.044,598.5,3.256
1555.225,599.5,3.244
1556.415,600.5,3.231
1557.588,601.5,3.219
1558.756,602.5,3.207
1559.948,603.5,3.195
1561.135,604.5,3.182
1562.317,605.5,3.169
1563.504,606.5,3.155
1564.681,607.5,3.142
1565.867,608.5,3.128
1567.045,609.5,3.114
1568.233,610.5,3.099
1569.413,611.5,3.085
1570.593,612.5,3.07
1571.783,613.5,3.056
1572.967,614.5,3.04
1574.159,615.5,3.025
1575.343,616.5,3.009
1576.533,617.5,2.993
1577.719,618.5,2.976
1578.903,619.5,2.959
1580.093,620.5,2.943
1581.281,621.5,2.925
1582.467,622.5,2.908
1583.652,623.5,2.89
1584.838,624.5,2.872
1586.026,625.5,2.855
1587.221,626.5,2.835
1588.411,627.5,2.816
1589.599,628.5,2.797
1590.798,629.5,2.778
1591.98,630.5,2.759
1593.177,631.5,2.739
1594.363,632.5,2.719
1595.558,633.5,2.699
1596.751,634.5,2.678
1597.944,635.5,2.658
1599.138,636.5,2.637
1600.335,637.5,2.615
1601.526,638.5,2.594
1602.714,639.5,2.572
1603.92,640.5,2.55
1605.114,641.5,2.528
1606.313,642.5,2.506
1607.511,643.5,2.483
1608.717,644.5,2.46
1609.918,645.5,2.438
1611.114,646.5,2.414
1612.305,647.5,2.391
1613.503,648.5,2.367
1614.7,649.5,2.343
1615.901,650.5,2.319
1617.106,651.5,2.294
1618.304,652.5,2.269
1619.507,653.5,2.244
1620.711,654.5,2.218
1621.916,655.5,2.192
1623.11,656.5,2.166
1624.316,657.5,2.139
1625.529,658.5,2.112
1626.737,659.5,2.085
1627.946,660.5,2.056
1629.154,661.5,2.027
1630.366,662.5,1.999
1631.572,663.5,1.97
1632.779,664.5,1.94
1633.999,665.5,1.909
1635.199,666.5,1.878
1636.422,667.5,1.846
1637.629,668.5,1.814
1638.833,669.5,1.782
1640.044,670.5,1.749
1641.265,671.5,1.716
1642.464,672.5,1.682
1643.675,673.5,1.648
1644.888,674.5,1.613
1646.096,675.5,1.579
1647.304,676.5,1.544
1648.509,677.5,1.51
1649.711,678.5,1.475
1650.906,679.5,1.442
1652.104,680.5,1.408
1653.307,681.5,1.374
1654.507,682.5,1.341
1655.708,683.5,1.31
1656.896,684.5,1.279
1658.096,685.5,1.248
1659.289,686.5,1.218
1660.478,687.5,1.191
1661.669,688.5,1.165
1662.855,689.5,1.14
1664.043,690.5,1.118
1665.234,691.5,1.096
1666.431,692.5,1.077
1667.617,693.5,1.06
1668.81,694.5,1.045
1669.994,695.5,1.031
1671.192,696.5,1.017
1672.389,697.5,1.007
1673.588,698.5,0.997
1674.788,699.5,0.989
1675.989,700.5,0.982
1677.176,701.5,0.976
1678.372,702.5,0.969
1679.565,703.5,0.964
1680.766,704.5,0.959
1681.977,705.5,0.954
1683.167,706.5,0.95
1684.373,707.5,0.947
1685.581,708.5,0.943
1686.78,709.5,0.94
1687.993,710.5,0.936
1689.194,711.5,0.933
1690.393,712.5,0.93
1691.587,713.5,0.927
1692.798,714.5,0.924
1694.007,715.5,0.921
1695.213,716.5,0.918
1696.418,717.5,0.915
1697.624,718.5,0.912
1698.825,719.5,0.909
1700.036,720.5,0.907
1701.238,721.5,0.904
1702.444,722.5,0.901
1703.647,723.5,0.899
1704.857,724.5,0.896
1706.071,725.5,0.894
1707.274,726.5,0.891
1708.486,727.5,0.889
1709.688,728.5,0.886
1710.894,729.5,0.883
1712.094,730.5,0.881
1713.31,731.5,0.878
1714.514,732.5,0.876
1715.722,733.5,0.874
1716.935,734.5,0.872
1718.137,735.5,0.87
1719.349,736.5,0.867
1720.559,737.5,0.865
1721.773,738.5,0.862
1722.981,739.5,0.86
1724.183,740.5,0.858
1725.397,741.5,0.856
1726.599,742.5,0.854
1727.821,743.5,0.851
1729.023,744.5,0.849
1730.235,745.5,0.847
1731.437,746.5,0.845
1732.648,747.5,0.843
1733.856,748.5,0.841
1735.069,749.5,0.839
1736.291,750.5,0.837
1737.498,751.5,0.835
1738.701,752.5,0.833
1739.911,753.5,0.831
1741.12,754.5,0.829
1742.332,755.5,0.827
1743.545,756.5,0.825
1744.749,757.5,0.824
1745.963,758.5,0.822
1747.183,759.5,0.82
1748.392,760.5,0.818
1749.6,761.5,0.816
1750.811,762.5,0.815
1752.025,763.5,0.813
1753.235,764.5,0.812
1754.447,765.5,0.81
1755.646,766.5,0.808
1756.861,767.5,0.806
1758.075,768.5,0.805
1759.285,769.5,0.804
1760.493,770.5,0.802
1761.708,771.5,0.8
1762.914,772.5,0.799
1764.113,773.5,0.798
1765.327,774.5,0.796
1766.522,775.5,0.794
1767.725,776.5,0.793
1768.942,777.5,0.792
1770.149,778.5,0.791
1771.362,779.5,0.789
1772.561,780.5,0.787
1773.759,781.5,0.786
1774.979,782.5,0.785
1776.173,783.5,0.784
1777.385,784.5,0.783
1778.587,785.5,0.781
1779.789,786.5,0.78
1780.986,787.5,0.779
1782.184,788.5,0.778
1783.391,789.5,0.777
1784.583,790.5,0.775
1785.785,791.5,0.773
1786.979,792.5,0.772
1788.172,793.5,0.771
1789.376,794.5,0.77
1790.567,795.5,0.768
1791.755,796.5,0.767
1792.945,797.5,0.766
1794.13,798.5,0.765
1795.344,799.5,0.764
1796.534,800.5,0.763
1797.727,801.5,0.762
1798.921,802.5,0.761
1800.103,803.5,0.76
1801.299,804.5,0.759
1802.486,805.5,0.758
1803.676,806.5,0.756
1804.865,807.5,0.755
1806.058,808.5,0.754
1807.246,809.5,0.753
1808.431,810.5,0.752
1809.622,811.5,0.75
1810.822,812.5,0.749
1812.007,813.5,0.748
1813.191,814.5,0.748
1814.372,815.5,0.747
1815.564,816.5,0.745
1816.754,817.5,0.744
1817.943,818.5,0.743
1819.129,819.5,0.742
1820.313,820.5,0.741
1821.499,821.5,0.74
1822.691,822.5,0.739
1823.881,823.5,0.738
1825.077,824.5,0.737
1826.266,825.5,0.736
1827.455,826.5,0.735
1828.634,827.5,0.734
1829.834,828.5,0.733
1831.032,829.5,0.732
1832.209,830.5,0.731
1833.4,831.5,0.73
1834.589,832.5,0.729
1835.786,833.5,0.728
1836.981,834.5,0.727
1838.179,835.5,0.726
1839.38,836.5,0.726
1840.587,837.5,0.724
1841.779,838.5,0.723
1842.963,839.5,0.723
1844.161,840.5,0.722
1845.356,841.5,0.721
1846.549,842.5,0.719
1847.745,843.5,0.719
1848.939,844.5,0.718
1850.141,845.5,0.717
1851.33,846.5,0.716
1852.529,847.5,0.715
1853.732,848.5,0.714
1854.933,849.5,0.713
1856.121,850.5,0.713
1857.325,851.5,0.712
1858.521,852.5,0.711
1859.724,853.5,0.71
1860.923,854.5,0.709
1862.12,855.5,0.709
1863.317,856.5,0.708
1864.523,857.5,0.707
1865.724,858.5,0.706
1866.922,859.5,0.705
1868.12,860.5,0.705
1869.321,861.5,0.704
1870.517,862.5,0.703
1871.723,863.5,0.702
1872.932,864.5,0.701
1874.128,865.5,0.701
1875.322,866.5,0.7
1876.528,867.5,0.699
1877.729,868.5,0.698
1878.929,869.5,0.698
1880.131,870.5,0.697
1881.34,871.5,0.696
1882.548,872.5,0.695
1883.751,873.5,0.694
1884.95,874.5,0.694
1886.158,875.5,0.693
1887.367,876.5,0.693
1888.565,877.5,0.691
1889.771,878.5,0.691
1890.971,879.5,0.69
1892.177,880.5,0.69
1893.383,881.5,0.689
1894.585,882.5,0.688
1895.79,883.5,0.687
1896.995,884.5,0.687
1898.203,885.5,0.686
1899.406,886.5,0.686
1900.616,887.5,0.684
1901.817,888.5,0.684
1903.019,889.5,0.683
1904.227,890.5,0.683
1905.44,891.5,0.682
1906.642,892.5,0.681
1907.857,893.5,0.681
1909.064,894.5,0.68
1910.261,895.5,0.68
1911.477,896.5,0.679
1912.681,897.5,0.678
1913.879,898.5,0.677
1915.079,899.5,0.677
1916.291,900.5,0.676
1917.501,901.5,0.675
1918.707,902.5,0.675
1919.909,903.5,0.674
1921.117,904.5,0.674
1922.329,905.5,0.673
1923.53,906.5,0.672
1924.737,907.5,0.672
1925.957,908.5,0.671
1927.158,909.5,0.671
1928.369,910.5,0.67
1929.58,911.5,0.67
1930.782,912.5,0.669
1931.992,913.5,0.669
1933.193,914.5,0.668
1934.406,915.5,0.668
1935.614,916.5,0.667
1936.823,917.5,0.666
1938.034,918.5,0.666
1939.239,919.5,0.665
1940.443,920.5,0.665
1941.648,921.5,0.664
1942.848,922.5,0.663
1944.052,923.5,0.663
1945.265,924.5,0.663
1946.474,925.5,0.662
1947.685,926.5,0.661
1948.89,927.5,0.661
1950.093,928.5,0.66
1951.3,929.5,0.66
1952.504,930.5,0.659
1953.714,931.5,0.659
1954.925,932.5,0.658
1956.119,933.5,0.658
1957.325,934.5,0.657
1958.542,935.5,0.657
1959.747,936.5,0.656
1960.951,937.5,0.656
1962.161,938.5,0.655
1963.373,939.5,0.655
1964.574,940.5,0.654
1965.779,941.5,0.654
1966.994,942.5,0.653
1968.2,943.5,0.653
1969.407,944.5,0.652
1970.608,945.5,0.652
1971.82,946.5,0.651
1973.035,947.5,0.651
1974.237,948.5,0.65
1975.448,949.5,0.65
1976.662,950.5,0.649
1977.874,951.5,0.649
1979.082,952.5,0.648
1980.29,953.5,0.648
1981.499,954.5,0.648
1982.705,955.5,0.647
1983.909,956.5,0.646
1985.118,957.5,0.646
1986.326,958.5,0.646
1987.537,959.5,0.645
1988.751,960.5,0.644
1989.954,961.5,0.644
1991.173,962.5,0.644
1992.385,963.5,0.643
1993.597,964.5,0.643
1994.804,965.5,0.642
1996.011,966.5,0.642
1997.222,967.5,0.642
1998.436,968.5,0.641
1999.651,969.5,0.641
2000.865,970.5,0.64
2002.084,971.5,0.64
2003.286,972.5,0.639
2004.494,973.5,0.639
2005.712,974.5,0.638
2006.928,975.5,0.638
2008.137,976.5,0.638
2009.345,977.5,0.637
2010.567,978.5,0.637
2011.787,979.5,0.636
2012.992,980.5,0.636
2014.202,981.5,0.636
2015.42,982.5,0.635
2016.64,983.5,0.635
2017.847,984.5,0.634
2019.056,985.5,0.634
2020.267,986.5,0.634
2021.484,987.5,0.634
2022.697,988.5,0.633
2023.915,989.5,0.633
2025.122,990.5,0.632
2026.33,991.5,0.632
2027.543,992.5,0.632
2028.75,993.5,0.631
2029.96,994.5,0.631
2031.178,995.5,0.631
2032.388,996.5,0.63
2033.599,997.5,0.63
2034.815,998.5,0.63
2036.014,999.5,0.629
2037.22,1000.5,0.629
2038.436,1001.5,0.629
2039.648,1002.5,0.628
2040.866,1003.5,0.628
2042.079,1004.5,0.628
2043.28,1005.5,0.627
2044.491,1006.5,0.627
2045.705,1007.5,0.627
2046.92,1008.5,0.626
2048.122,1009.5,0.626
2049.331,1010.5,0.626
2050.534,1011.5,0.625
2051.736,1012.5,0.625
2052.944,1013.5,0.625
2054.155,1014.5,0.625
2055.368,1015.5,0.624
2056.572,1016.5,0.624
2057.769,1017.5,0.624
2058.982,1018.5,0.623
2060.189,1019.5,0.623
2061.399,1020.5,0.623
2062.602,1021.5,0.623
2063.812,1022.5,0.622
2065.017,1023.5,0.622
2066.227,1024.5,0.622
2067.429,1025.5,0.622
2068.632,1026.5,0.621
2069.834,1027.5,0.621
2071.044,1028.5,0.621
2072.254,1029.5,0.621
2073.463,1030.5,0.62
2074.664,1031.5,0.62
2075.861,1032.5,0.62
2077.077,1033.5,0.619
2078.282,1034.5,0.619
2079.492,1035.5,0.619
2080.695,1036.5,0.619
2081.901,1037.5,0.618
2083.108,1038.5,0.618
2084.314,1039.5,0.618
2085.519,1040.5,0.617
2086.722,1041.5,0.617
2087.922,1042.5,0.617
2089.136,1043.5,0.617
2090.343,1044.5,0.616
2091.54,1045.5,0.616
2092.737,1046.5,0.616
2093.95,1047.5,0.616
2095.141,1048.5,0.615
2096.349,1049.5,0.615
2097.56,1050.5,0.615
2098.762,1051.5,0.614
2099.96,1052.5,0.614
2101.158,1053.5,0.614
2102.366,1054.5,0.614
2103.501,1055.5,0.613
2105.514,1056.5,0.613
2107.681,1057.5,0.612
2109.614,1058.5,0.612
2111.714,1059.5,0.612
2114.039,1060.5,0.611
2116.562,1061.5,0.61
2119.441,1062.5,0.61
2124.0,1063.863,0.609
2144.0,1067.601,0.607
2164.0,1069.353,0.604
2184.0,1070.248,0.602
2204.0,1070.753,0.601
2224.0,1071.07,0.599
2244.0,1071.282,0.598
2264.0,1071.443,0.596
2284.0,1071.569,0.595
2304.0,1071.66,0.594
2324.0,1071.728,0.593
2344.0,1071.78,0.592
2364.0,1071.81,0.591
2384.0,1071.838,0.59
2404.0,1071.863,0.589
2424.0,1071.875,0.588