File: Wood/Calibration_Data/TUBS/TUBS_Wood_TGA_N2_593Kiso_R1.csv
Time (s),Temperature (K),Mass (mg)
0.0,305.0,1.02
8.0,304.9,1.018
19.0,304.9,1.016
35.0,304.8,1.014
52.0,304.8,1.012
69.0,304.7,1.01
94.0,304.7,1.008
123.0,304.6,1.006
168.0,304.6,1.004
227.0,304.5,1.002
323.0,304.4,1.0
392.0,304.4,1.0
537.0,304.4,0.998
997.0,304.4,0.996
1032.0,304.4,0.996
1070.0,304.4,0.996
1124.0,304.4,0.996
1166.0,304.4,0.996
1194.0,304.4,0.996
1205.0,305.6,0.994
1215.0,315.4,0.996
1221.0,325.9,0.998
1230.0,347.5,0.998
1235.0,361.4,0.996
1239.0,371.7,0.994
1244.0,384.7,0.992
1248.0,394.8,0.99
1251.0,402.0,0.988
1257.0,415.7,0.986
1276.0,453.1,0.984
1291.0,477.3,0.982
1300.0,489.8,0.98
1307.0,498.7,0.978
1313.0,505.7,0.976
1318.0,511.2,0.974
1323.0,516.4,0.972
1327.0,520.3,0.97
1331.0,524.0,0.968
1334.0,526.7,0.966
1338.0,530.1,0.964
1341.0,532.5,0.962
1344.0,534.9,0.96
1347.0,537.1,0.958
1350.0,539.3,0.956
1352.0,540.7,0.954
1355.0,542.8,0.952
1357.0,544.1,0.95
1360.0,546.0,0.948
1362.0,547.3,0.946
1364.0,548.5,0.944
1366.0,549.7,0.942
1368.0,550.8,0.94
1370.0,552.0,0.938
1372.0,553.1,0.936
1374.0,554.1,0.934
1376.0,555.2,0.932
1378.0,556.2,0.93
1380.0,557.2,0.928
1382.0,558.2,0.926
1384.0,559.1,0.924
1386.0,560.1,0.922
1388.0,561.0,0.92
1390.0,561.8,0.918
1392.0,562.7,0.916
1394.0,563.5,0.914
1396.0,564.3,0.912
1398.0,565.1,0.91
1400.0,565.9,0.908
1402.0,566.7,0.906
1404.0,567.4,0.904
1406.0,568.1,0.902
1408.0,568.8,0.9
1410.0,569.5,0.898
1412.0,570.1,0.896
1414.0,570.8,0.894
1416.0,571.4,0.892
1418.0,572.0,0.889
1420.0,572.6,0.887
1422.0,573.2,0.885
1424.0,573.7,0.883
1426.0,574.3,0.881
1428.0,574.8,0.878
1430.0,575.3,0.876
1432.0,575.8,0.874
1434.0,576.3,0.871
1436.0,576.8,0.869
1438.0,577.3,0.866
1440.0,577.7,0.864
1442.0,578.2,0.861
1444.0,578.6,0.859
1446.0,579.0,0.857
1448.0,579.4,0.854
1450.0,579.8,0.852
1452.0,580.2,0.85
1454.0,580.6,0.847
1456.0,580.9,0.845
1458.0,581.3,0.843
1460.0,581.6,0.84
1462.0,581.9,0.838
1464.0,582.3,0.836
1466.0,582.6,0.834
1468.0,582.9,0.832
1470.0,583.2,0.83
1472.0,583.5,0.827
1474.0,583.8,0.825
1476.0,584.0,0.823
1478.0,584.3,0.821
1480.0,584.6,0.819
1482.0,584.8,0.817
1484.0,585.1,0.815
1486.0,585.3,0.813
1488.0,585.5,0.811
1490.0,585.8,0.809
1492.0,586.0,0.807
1494.0,586.2,0.805
1496.0,586.4,0.803
1498.0,586.6,0.801
1500.0,586.8,0.799
1502.0,587.0,0.797
1504.0,587.2,0.795
1506.0,587.4,0.793
1508.0,587.5,0.791
1510.0,587.7,0.789
1512.0,587.9,0.787
1514.0,588.0,0.785
1516.0,588.2,0.783
1519.0,588.4,0.781
1521.0,588.5,0.779
1523.0,588.7,0.777
1525.0,588.8,0.775
1528.0,589.0,0.773
1530.0,589.2,0.771
1532.0,589.3,0.769
1534.0,589.4,0.767
1537.0,589.6,0.765
1539.0,589.7,0.763
1541.0,589.8,0.761
1544.0,590.0,0.759
1546.0,590.1,0.757
1548.0,590.2,0.755
1551.0,590.3,0.753
1553.0,590.4,0.751
1556.0,590.5,0.749
1559.0,590.7,0.747
1561.0,590.7,0.745
1564.0,590.9,0.743
1567.0,591.0,0.741
1569.0,591.0,0.739
1572.0,591.2,0.737
1575.0,591.3,0.735
1577.0,591.3,0.733
1580.0,591.4,0.731
1583.0,591.5,0.729
1586.0,591.6,0.727
1589.0,591.7,0.725
1592.0,591.8,0.723
1595.0,591.8,0.721
1598.0,591.9,0.719
1601.0,592.0,0.717
1619.0,592.4,0.706
1637.0,592.7,0.695
1655.0,592.9,0.685
1673.0,593.1,0.676
1691.0,593.2,0.667
1709.0,593.3,0.659
1727.0,593.4,0.651
1745.0,593.5,0.644
1763.0,593.5,0.637
1781.0,593.6,0.631
1799.0,593.6,0.624
1817.0,593.6,0.618
1835.0,593.7,0.612
1853.0,593.7,0.607
1871.0,593.7,0.601
1889.0,593.7,0.596
1907.0,593.7,0.591
1925.0,593.7,0.586
1943.0,593.7,0.582
1961.0,593.7,0.577
1979.0,593.7,0.573
1997.0,593.7,0.568
2015.0,593.7,0.564
2033.0,593.7,0.56
2051.0,593.7,0.557
2069.0,593.7,0.553
2087.0,593.7,0.549
2105.0,593.7,0.545
2123.0,593.7,0.542
2141.0,593.7,0.538
2159.0,593.7,0.535
2177.0,593.7,0.532
2195.0,593.7,0.528
2213.0,593.7,0.525
2231.0,593.7,0.522
2249.0,593.7,0.519
2267.0,593.7,0.515
2285.0,593.7,0.512
2303.0,593.7,0.509
2321.0,593.7,0.506
2339.0,593.7,0.503
2357.0,593.7,0.501
2375.0,593.7,0.498
2393.0,593.7,0.495
2411.0,593.7,0.492
2429.0,593.7,0.49
2447.0,593.7,0.487
2465.0,593.7,0.484
2483.0,593.7,0.482
2501.0,593.7,0.479
2519.0,593.7,0.476
2537.0,593.7,0.474
2555.0,593.7,0.471
2573.0,593.7,0.469
2591.0,593.7,0.467
2609.0,593.7,0.464
2627.0,593.7,0.462
2645.0,593.7,0.459
2663.0,593.7,0.457
2681.0,593.7,0.455
2699.0,593.7,0.452
2717.0,593.7,0.45
2735.0,593.7,0.448
2753.0,593.7,0.446
2771.0,593.7,0.444
2789.0,593.7,0.441
2807.0,593.7,0.439
2825.0,593.7,0.437
2843.0,593.7,0.435
2861.0,593.7,0.433
2879.0,593.7,0.431
2897.0,593.7,0.429
2915.0,593.7,0.427
2933.0,593.7,0.424
2951.0,593.7,0.422
2969.0,593.7,0.42
2987.0,593.7,0.419
3005.0,593.7,0.416
3023.0,593.7,0.415
3041.0,593.7,0.413
3059.0,593.8,0.411
3077.0,593.8,0.409
3095.0,593.7,0.407
3113.0,593.7,0.405
3131.0,593.7,0.403
3149.0,593.7,0.401
3167.0,593.8,0.4
3185.0,593.8,0.398
3203.0,593.8,0.396
3221.0,593.8,0.394
3239.0,593.8,0.393
3257.0,593.8,0.391
3275.0,593.7,0.389
3293.0,593.7,0.388
3311.0,593.8,0.385
3329.0,593.7,0.384
3347.0,593.7,0.382
3365.0,593.7,0.381
3383.0,593.7,0.379
3401.0,593.7,0.377
3419.0,593.7,0.376
3437.0,593.8,0.374
3455.0,593.8,0.372
3473.0,593.8,0.371
3491.0,593.7,0.37
3509.0,593.8,0.368
3527.0,593.8,0.366
3545.0,593.8,0.365
3563.0,593.8,0.363
3581.0,593.8,0.362
3599.0,593.8,0.36
3617.0,593.8,0.359
3635.0,593.8,0.357
3653.0,593.8,0.356
3671.0,593.8,0.354
3689.0,593.8,0.353
3707.0,593.8,0.351
3725.0,593.8,0.35
3743.0,593.8,0.349
3761.0,593.8,0.347
3779.0,593.8,0.346
3797.0,593.8,0.345
3815.0,593.8,0.343
3833.0,593.8,0.342
3851.0,593.8,0.341
3869.0,593.8,0.339
3887.0,593.8,0.338
3905.0,593.8,0.337
3923.0,593.8,0.336
3941.0,593.8,0.334
3959.0,593.8,0.333
3977.0,593.8,0.332
3995.0,593.8,0.331
4013.0,593.8,0.33
4031.0,593.8,0.328
4049.0,593.8,0.328
4067.0,593.8,0.326
4085.0,593.8,0.325
4103.0,593.8,0.324
4121.0,593.8,0.323
4139.0,593.8,0.322
4157.0,593.8,0.321
4175.0,593.8,0.32
4193.0,593.8,0.319
4211.0,593.8,0.318
4229.0,593.8,0.316
4247.0,593.8,0.315
4265.0,593.8,0.314
4283.0,593.8,0.313
4301.0,593.8,0.312
4319.0,593.8,0.311
4337.0,593.8,0.31
4355.0,593.8,0.31
4373.0,593.8,0.309
4391.0,593.8,0.308
4409.0,593.8,0.307
4427.0,593.8,0.306
4445.0,593.8,0.305
4463.0,593.8,0.304
4481.0,593.8,0.303
4499.0,593.8,0.302
4517.0,593.8,0.301
4535.0,593.8,0.3
4553.0,593.8,0.299
4571.0,593.8,0.299
4589.0,593.8,0.298
4607.0,593.8,0.297
4625.0,593.8,0.296
4643.0,593.8,0.295
4661.0,593.8,0.294
4679.0,593.8,0.293
4697.0,593.8,0.293
4715.0,593.8,0.292
4733.0,593.8,0.291
4751.0,593.8,0.29
4769.0,593.8,0.29
4787.0,593.8,0.289
4805.0,593.8,0.288
4823.0,593.8,0.288
4841.0,593.8,0.287
4859.0,593.8,0.286
4877.0,593.8,0.286
4895.0,593.8,0.285
4913.0,593.8,0.284
4931.0,593.8,0.284
4949.0,593.8,0.283
4967.0,593.8,0.283
4985.0,593.8,0.282
5003.0,593.8,0.281
5021.0,593.8,0.281
5039.0,593.8,0.28
5057.0,593.8,0.279
5075.0,593.8,0.279
5093.0,593.8,0.278
5111.0,593.8,0.278
5129.0,593.8,0.277
5147.0,593.8,0.276
5165.0,593.8,0.276
5183.0,593.8,0.275
5201.0,593.8,0.275
5219.0,593.8,0.274
5237.0,593.8,0.274
5255.0,593.8,0.273
5273.0,593.8,0.273
5291.0,593.8,0.272
5309.0,593.8,0.272
5327.0,593.8,0.271
5345.0,593.8,0.271
5363.0,593.8,0.271
5381.0,593.8,0.27
5399.0,593.8,0.269
5417.0,593.8,0.269
5435.0,593.8,0.269
5453.0,593.8,0.268
5471.0,593.8,0.268
5489.0,593.8,0.267
5507.0,593.8,0.267
5525.0,593.8,0.266
5543.0,593.8,0.266
5561.0,593.8,0.266
5579.0,593.8,0.265
5597.0,593.8,0.265
5615.0,593.8,0.265
5633.0,593.8,0.264
5651.0,593.8,0.264
5669.0,593.8,0.264
5687.0,593.8,0.263
5705.0,593.8,0.263
5723.0,593.8,0.263
5741.0,593.8,0.262
5759.0,593.8,0.262
5777.0,593.8,0.261
5795.0,593.8,0.261
5813.0,593.8,0.261
5831.0,593.8,0.261
5849.0,593.8,0.261
5867.0,593.8,0.26
5885.0,593.8,0.26
5903.0,593.8,0.26
5921.0,593.8,0.259
5939.0,593.8,0.259
5957.0,593.8,0.259
5975.0,593.8,0.259
5993.0,593.8,0.258
6011.0,593.8,0.258
6029.0,593.8,0.258
6047.0,593.8,0.258
6065.0,593.8,0.257
6083.0,593.8,0.257
6101.0,593.8,0.257
6119.0,593.8,0.257
6137.0,593.8,0.257
6155.0,593.8,0.256
6173.0,593.8,0.256
6191.0,593.8,0.256
6209.0,593.8,0.256
6227.0,593.8,0.256
6245.0,593.8,0.255
6263.0,593.8,0.255
6281.0,593.8,0.255
6299.0,593.8,0.255
6317.0,593.8,0.254
6335.0,593.8,0.254
6353.0,593.8,0.254
6371.0,593.8,0.254
6389.0,593.8,0.254
6407.0,593.8,0.254
6425.0,593.8,0.254
6443.0,593.8,0.253
6461.0,593.8,0.253
6479.0,593.8,0.253
6497.0,593.8,0.253
6515.0,593.8,0.252
6533.0,593.8,0.252
6551.0,593.8,0.252
6569.0,593.8,0.252
6587.0,593.8,0.252
6605.0,593.8,0.252
6623.0,593.8,0.252
6641.0,593.8,0.252
6659.0,593.8,0.252
6677.0,593.8,0.251
6695.0,593.8,0.251
6713.0,593.8,0.251
6731.0,593.8,0.251
6749.0,593.8,0.251
6767.0,593.8,0.251
6785.0,593.8,0.251
6803.0,593.8,0.251
6821.0,593.8,0.251
6839.0,593.8,0.25
6857.0,593.8,0.25
6875.0,593.8,0.25
6893.0,593.8,0.25
6911.0,593.8,0.25
6929.0,593.8,0.25
6947.0,593.8,0.25
6965.0,593.8,0.25
6983.0,593.8,0.25
7001.0,593.8,0.25
7019.0,593.8,0.25
7037.0,593.8,0.25
7055.0,593.8,0.249
7073.0,593.8,0.249
7091.0,593.8,0.249
7109.0,593.8,0.249
7127.0,593.8,0.249
7145.0,593.8,0.249
7163.0,593.8,0.249
7181.0,593.8,0.249
7199.0,593.8,0.249
7217.0,593.8,0.249
7235.0,593.8,0.249
7253.0,593.8,0.249
7271.0,593.8,0.249
7289.0,593.8,0.249
7307.0,593.8,0.248
7325.0,593.8,0.248
7343.0,593.8,0.248
7361.0,593.8,0.248
7379.0,593.8,0.248
7397.0,593.8,0.248
7415.0,593.8,0.248
7433.0,593.8,0.248
7451.0,593.8,0.248
7469.0,593.8,0.248
7487.0,593.8,0.248
7505.0,593.8,0.248
7523.0,593.8,0.248
7541.0,593.8,0.248
7559.0,593.8,0.248
7577.0,593.8,0.248
7595.0,593.8,0.247
7613.0,593.8,0.247
7631.0,593.8,0.247
7649.0,593.8,0.247
7667.0,593.8,0.247
7685.0,593.8,0.247
7703.0,593.8,0.247
7721.0,593.8,0.247
7739.0,593.8,0.247
7757.0,593.8,0.247
7775.0,593.8,0.247
7793.0,593.8,0.247
7811.0,593.8,0.247
7829.0,593.8,0.247
7847.0,593.8,0.247
7865.0,593.8,0.247
7883.0,593.8,0.247
7901.0,593.8,0.247
7919.0,593.8,0.247
7937.0,593.8,0.247
7955.0,593.8,0.247
7973.0,593.8,0.247
7991.0,593.8,0.247
8009.0,593.8,0.247
8027.0,593.8,0.246
8045.0,593.8,0.247
8063.0,593.8,0.247
8081.0,593.8,0.246
8099.0,593.8,0.246
8117.0,593.8,0.247
8135.0,593.8,0.247
8153.0,593.8,0.246
8171.0,593.8,0.246
8189.0,593.8,0.246
8207.0,593.8,0.246
8225.0,593.8,0.246
8243.0,593.8,0.246
8261.0,593.8,0.246
8279.0,593.8,0.246
8297.0,593.8,0.246
8315.0,593.8,0.246
8333.0,593.8,0.246
8351.0,593.8,0.246
8369.0,593.8,0.246
8387.0,593.8,0.246
8405.0,593.8,0.246
8423.0,593.8,0.246
8441.0,593.8,0.246
8459.0,593.8,0.246
8477.0,593.8,0.246
8495.0,593.8,0.246
8513.0,593.8,0.246
8531.0,593.8,0.245
8549.0,593.8,0.246
8567.0,593.8,0.246
8585.0,593.8,0.245
8603.0,593.8,0.245
8621.0,593.8,0.245
8639.0,593.8,0.246
8657.0,593.8,0.245
8675.0,593.8,0.245
8693.0,593.8,0.245
8711.0,593.8,0.245
8729.0,593.8,0.245
8747.0,593.8,0.245
8765.0,593.8,0.245
8783.0,593.8,0.245
8801.0,593.8,0.245
8819.0,593.8,0.245
8837.0,593.8,0.245
8855.0,593.8,0.245
8873.0,593.8,0.245
8891.0,593.8,0.245
8909.0,593.8,0.245
8927.0,593.8,0.245
8945.0,593.8,0.245
8963.0,593.8,0.245
8981.0,593.8,0.245
8999.0,593.8,0.245
9017.0,593.8,0.245
9035.0,593.8,0.245
9053.0,593.8,0.245
9071.0,593.8,0.245
9089.0,593.8,0.245
9107.0,593.8,0.245
9125.0,593.8,0.245
9143.0,593.8,0.245
9161.0,593.8,0.245
9179.0,593.8,0.245
9197.0,593.8,0.244
9215.0,593.8,0.244
9233.0,593.8,0.244
9251.0,593.8,0.244
9269.0,593.8,0.244
9287.0,593.8,0.244
9305.0,593.8,0.244
9323.0,593.8,0.244
9341.0,593.8,0.244
9359.0,593.8,0.244
9377.0,593.8,0.244
9395.0,593.8,0.244
9413.0,593.8,0.244
9431.0,593.8,0.244
9449.0,593.8,0.244
9467.0,593.8,0.244
9485.0,593.8,0.244
9503.0,593.8,0.244
9521.0,593.8,0.244
9539.0,593.8,0.244
9557.0,593.8,0.244
9575.0,593.8,0.244
9593.0,593.8,0.244
9611.0,593.8,0.244
9629.0,593.8,0.244
9647.0,593.8,0.244
9665.0,593.8,0.244
9683.0,593.8,0.244
9701.0,593.8,0.244
9719.0,593.8,0.244
9737.0,593.8,0.244
9755.0,593.8,0.244
9773.0,593.8,0.243
9791.0,593.8,0.244
9809.0,593.8,0.244
9827.0,593.8,0.244
9845.0,593.8,0.244
9863.0,593.8,0.244
9881.0,593.8,0.244
9899.0,593.8,0.244
9917.0,593.8,0.244
9935.0,593.8,0.243
9953.0,593.8,0.244
9971.0,593.8,0.243
9989.0,593.8,0.243
10007.0,593.8,0.243
10025.0,593.8,0.243
10043.0,593.8,0.243
10061.0,593.8,0.243
10079.0,593.8,0.243
10097.0,593.8,0.243
10115.0,593.8,0.243
10133.0,593.8,0.243
10151.0,593.8,0.243
10169.0,593.8,0.243
10187.0,593.8,0.243
10205.0,593.8,0.243
10223.0,593.8,0.243
10241.0,593.8,0.243
10259.0,593.8,0.243
10277.0,593.8,0.243
10295.0,593.8,0.243
10313.0,593.8,0.243
10331.0,593.8,0.243
10349.0,593.8,0.243
10367.0,593.8,0.243
10385.0,593.8,0.243
10403.0,593.8,0.243
10421.0,593.8,0.243
10439.0,593.8,0.243
10457.0,593.8,0.243
10475.0,593.8,0.243
10493.0,593.8,0.243
10511.0,593.8,0.243
10529.0,593.8,0.243
10547.0,593.8,0.243
10565.0,593.8,0.243
10583.0,593.8,0.243
10601.0,593.8,0.243
10619.0,593.8,0.243
10637.0,593.8,0.242
10655.0,593.8,0.243
10673.0,593.8,0.242
10691.0,593.8,0.243
10709.0,593.8,0.242
10727.0,593.8,0.242
10745.0,593.8,0.242
10763.0,593.8,0.242
10781.0,593.8,0.243
10799.0,593.8,0.243
10817.0,593.8,0.243
10835.0,593.8,0.243
10853.0,593.8,0.242
10871.0,593.8,0.243
10889.0,593.8,0.242
10907.0,593.8,0.242
10925.0,593.8,0.242
10943.0,593.8,0.242
10961.0,593.8,0.242
10979.0,593.8,0.242
10997.0,593.8,0.242
11015.0,593.8,0.242
11033.0,593.8,0.242
11051.0,593.8,0.242
11069.0,593.8,0.242
11087.0,593.8,0.242
11105.0,593.8,0.243
11123.0,593.8,0.242
11141.0,593.8,0.243
11159.0,593.8,0.242
11177.0,593.8,0.242
11195.0,593.8,0.242
11213.0,593.8,0.242
11231.0,593.8,0.242
11249.0,593.8,0.242
11267.0,593.8,0.242
11285.0,593.8,0.242
11303.0,593.8,0.242
11321.0,593.8,0.242
11339.0,593.8,0.242
11357.0,593.8,0.242
11375.0,593.8,0.242
11393.0,593.8,0.242
11411.0,593.8,0.242
11429.0,593.8,0.242
11447.0,593.8,0.242
11465.0,593.8,0.242
11483.0,593.8,0.242
11501.0,593.8,0.242
11519.0,593.8,0.242
11537.0,593.8,0.242
11555.0,593.8,0.242
11573.0,593.8,0.242
11591.0,593.8,0.242
11609.0,593.8,0.242
11627.0,593.8,0.242
11645.0,593.8,0.242
11663.0,593.8,0.242
11681.0,593.8,0.242
11699.0,593.8,0.242
11717.0,593.8,0.241
11735.0,593.8,0.242
11753.0,593.8,0.242
11771.0,593.8,0.241
11789.0,593.8,0.241
11807.0,593.8,0.241
11825.0,593.8,0.241
11843.0,593.8,0.241
11861.0,593.8,0.242
11879.0,593.8,0.241
11897.0,593.8,0.241
11915.0,593.8,0.241
11933.0,593.8,0.241
11951.0,593.8,0.241
11969.0,593.8,0.241
11987.0,593.8,0.241
12005.0,593.8,0.241
12023.0,593.8,0.241
12041.0,593.8,0.241
12059.0,593.8,0.241
12077.0,593.8,0.241
12095.0,593.8,0.241
12113.0,593.8,0.241
12131.0,593.8,0.241
12149.0,593.8,0.241
12167.0,593.8,0.241
12185.0,593.8,0.241
12203.0,593.8,0.241
12221.0,593.8,0.241
12239.0,593.8,0.241
12257.0,593.8,0.241
12275.0,593.8,0.241
12293.0,593.8,0.241
12311.0,593.8,0.241
12329.0,593.8,0.241
12347.0,593.8,0.241
12365.0,593.8,0.241
12383.0,593.8,0.241
12401.0,593.8,0.241
12419.0,593.8,0.241
12437.0,593.8,0.241
12455.0,593.8,0.241
12473.0,593.8,0.241
12491.0,593.8,0.241
12509.0,593.8,0.241
12527.0,593.8,0.241
12545.0,593.8,0.241
12563.0,593.8,0.241
12581.0,593.8,0.241
12599.0,593.8,0.241
12617.0,593.8,0.241
12635.0,593.8,0.241
12653.0,593.8,0.241
12671.0,593.8,0.241
12689.0,593.8,0.241
12707.0,593.8,0.241
12725.0,593.8,0.241
12743.0,593.8,0.241
12761.0,593.8,0.241
12779.0,593.8,0.241
12797.0,593.8,0.24
12815.0,593.8,0.241
12833.0,593.8,0.241
12851.0,593.8,0.241
12869.0,593.8,0.241
12887.0,593.8,0.241
12905.0,593.8,0.241
12923.0,593.8,0.24
12941.0,593.8,0.241
12959.0,593.8,0.241
12977.0,593.8,0.241
12995.0,593.8,0.241
13013.0,593.8,0.24
13031.0,593.8,0.24
13049.0,593.8,0.241
13067.0,593.8,0.24
13085.0,593.8,0.24
13103.0,593.8,0.241
13121.0,593.8,0.241
13139.0,593.8,0.24
13157.0,593.8,0.24
13175.0,593.8,0.241
13193.0,593.8,0.24
13211.0,593.8,0.24
13229.0,593.8,0.24
13247.0,593.8,0.24
13265.0,593.8,0.24
13283.0,593.8,0.24
13301.0,593.8,0.24
13319.0,593.8,0.24
13337.0,593.8,0.24
13355.0,593.8,0.24
13373.0,593.8,0.24
13391.0,593.8,0.24
13409.0,593.8,0.24
13427.0,593.8,0.24
13445.0,593.8,0.24
13463.0,593.8,0.24
13481.0,593.8,0.24
13499.0,593.8,0.24
13517.0,593.8,0.24
13535.0,593.8,0.24
13553.0,593.8,0.24
13571.0,593.8,0.24
13589.0,593.8,0.24
13607.0,593.8,0.24
13625.0,593.8,0.24
13643.0,593.8,0.24
13661.0,593.8,0.24
13679.0,593.8,0.24
13697.0,593.8,0.24
13715.0,593.8,0.24
13733.0,593.8,0.24
13751.0,593.8,0.24
13769.0,593.8,0.24
13787.0,593.8,0.24
13805.0,593.8,0.24
13823.0,593.8,0.24
13841.0,593.8,0.24
13859.0,593.8,0.24
13877.0,593.8,0.24
13895.0,593.8,0.24
13913.0,593.8,0.24
13931.0,593.8,0.24
13949.0,593.8,0.24
13967.0,593.8,0.24
13985.0,593.8,0.24
14003.0,593.8,0.239
14021.0,593.8,0.24
14039.0,593.8,0.239
14057.0,593.8,0.24
14075.0,593.8,0.24
14093.0,593.8,0.24
14111.0,593.8,0.24
14129.0,593.8,0.24
14147.0,593.8,0.24
14165.0,593.8,0.24
14183.0,593.8,0.24
14201.0,593.8,0.239
14219.0,593.8,0.239
14237.0,593.8,0.24
14255.0,593.8,0.24
14273.0,593.8,0.24
14291.0,593.8,0.24
14309.0,593.8,0.24
14327.0,593.8,0.239
14345.0,593.8,0.24
14363.0,593.8,0.239
14381.0,593.8,0.239
14399.0,593.8,0.24
14417.0,593.8,0.239
14435.0,593.8,0.24
14453.0,593.8,0.24
14471.0,593.8,0.24
14489.0,593.8,0.239
14507.0,593.8,0.239
14525.0,593.8,0.239
14543.0,593.8,0.239
14561.0,593.8,0.239
14579.0,593.8,0.239
14597.0,593.8,0.239
14615.0,593.8,0.239
14633.0,593.8,0.239
14651.0,593.8,0.239
14669.0,593.8,0.239
14687.0,593.8,0.239
14705.0,593.8,0.239
14723.0,593.8,0.239
14741.0,593.8,0.239
14759.0,593.8,0.239
14777.0,593.8,0.239
14795.0,593.8,0.239
14813.0,593.8,0.239
14831.0,593.8,0.239
14849.0,593.8,0.239
14867.0,593.8,0.239
14885.0,593.8,0.239
14903.0,593.8,0.239
14921.0,593.8,0.239
14939.0,593.8,0.239
14957.0,593.8,0.239
14975.0,593.8,0.239
14993.0,593.8,0.239
15011.0,593.8,0.239
15029.0,593.8,0.239
15047.0,593.8,0.239
15065.0,593.8,0.239
15083.0,593.8,0.239
15101.0,593.8,0.239
15119.0,593.8,0.239
15137.0,593.8,0.239
15155.0,593.8,0.239
15173.0,593.8,0.239
15191.0,593.8,0.239
15209.0,593.8,0.239
15227.0,593.8,0.239
15245.0,593.8,0.239
15263.0,593.8,0.239
15281.0,593.8,0.239
15299.0,593.8,0.239
15317.0,593.8,0.239
15335.0,593.8,0.239
15353.0,593.8,0.239
15371.0,593.8,0.238
15389.0,593.8,0.239
15407.0,593.8,0.238
15425.0,593.8,0.238
15443.0,593.8,0.239
15461.0,593.8,0.238
15479.0,593.8,0.239
15497.0,593.8,0.238
15515.0,593.8,0.238
15533.0,593.8,0.238
15551.0,593.8,0.239
15569.0,593.8,0.238
15587.0,593.8,0.238
15605.0,593.8,0.238
15623.0,593.8,0.238
15641.0,593.8,0.238
15659.0,593.8,0.238
15677.0,593.8,0.238
15695.0,593.8,0.238
15713.0,593.8,0.238
15731.0,593.8,0.238
15749.0,593.8,0.238
15767.0,593.8,0.238
15785.0,593.8,0.238
15803.0,593.8,0.238
15821.0,593.8,0.238
15839.0,593.8,0.238
15857.0,593.8,0.238
15875.0,593.8,0.238
15893.0,593.8,0.238
15911.0,593.8,0.238
15929.0,593.8,0.238
15947.0,593.8,0.238
15965.0,593.8,0.238
15983.0,593.8,0.238
16001.0,593.8,0.238
16019.0,593.8,0.238
16037.0,593.8,0.238
16055.0,593.8,0.238
16073.0,593.8,0.238
16091.0,593.8,0.238
16109.0,593.8,0.238
16127.0,593.8,0.238
16145.0,593.8,0.238
16163.0,593.8,0.238
16181.0,593.8,0.238
16199.0,593.8,0.238
16217.0,593.8,0.238
16235.0,593.8,0.238
16253.0,593.8,0.238
16271.0,593.8,0.238
16289.0,593.8,0.238
16307.0,593.8,0.238
16325.0,593.8,0.238
16343.0,593.8,0.238
16361.0,593.8,0.238
16379.0,593.8,0.238
16397.0,593.8,0.238
16415.0,593.8,0.238
16433.0,593.8,0.238
16451.0,593.8,0.238
16469.0,593.8,0.238
16487.0,593.8,0.238
16505.0,593.8,0.238
16523.0,593.8,0.238
16541.0,593.8,0.238
16559.0,593.8,0.238
16577.0,593.8,0.238
16595.0,593.8,0.238
16613.0,593.8,0.238
16631.0,593.8,0.238
16649.0,593.8,0.238
16667.0,593.8,0.238
16685.0,593.8,0.238
16703.0,593.8,0.238
16721.0,593.8,0.238
16739.0,593.8,0.238
16757.0,593.8,0.238
16775.0,593.8,0.238
16793.0,593.8,0.238
16811.0,593.8,0.238
16829.0,593.8,0.238
16847.0,593.8,0.237
16865.0,593.8,0.238
16883.0,593.8,0.237
16901.0,593.8,0.238
16919.0,593.8,0.237
16937.0,593.8,0.238
16955.0,593.8,0.237
16973.0,593.8,0.238
16991.0,593.8,0.237
17009.0,593.8,0.238
17027.0,593.8,0.238
17045.0,593.8,0.238
17063.0,593.8,0.237
17081.0,593.8,0.237
17099.0,593.8,0.237
17117.0,593.8,0.238
17135.0,593.8,0.237
17153.0,593.8,0.237
17171.0,593.8,0.237
17189.0,593.8,0.237
17207.0,593.8,0.237
17225.0,593.8,0.237
17243.0,593.8,0.237
17261.0,593.8,0.237
17279.0,593.8,0.237
17297.0,593.8,0.237
17315.0,593.8,0.237
17333.0,593.8,0.237
17351.0,593.8,0.237
17369.0,593.8,0.237
17387.0,593.8,0.237
17405.0,593.8,0.237
17423.0,593.8,0.237
17441.0,593.8,0.237
17459.0,593.8,0.237
17477.0,593.8,0.237
17495.0,593.8,0.237
17513.0,593.8,0.237
17531.0,593.8,0.237
17549.0,593.8,0.237
17567.0,593.8,0.237
17585.0,593.8,0.237
17603.0,593.8,0.237
17621.0,593.8,0.237
17639.0,593.8,0.237
17657.0,593.8,0.237
17675.0,593.8,0.237
17693.0,593.8,0.237
17711.0,593.8,0.237
17729.0,593.8,0.237
17747.0,593.8,0.237
17765.0,593.8,0.237
17783.0,593.8,0.237
17801.0,593.8,0.237
17819.0,593.8,0.237
17837.0,593.8,0.237
17855.0,593.8,0.237
17873.0,593.8,0.237
17891.0,593.8,0.237
17909.0,593.8,0.237
17927.0,593.8,0.237
17945.0,593.8,0.237
17963.0,593.8,0.237
17981.0,593.8,0.237
17999.0,593.8,0.237
18017.0,593.8,0.237
18035.0,593.8,0.237
18053.0,593.8,0.237
18071.0,593.8,0.237
18089.0,593.8,0.237
18107.0,593.8,0.237
18125.0,593.8,0.237
18143.0,593.8,0.237
18161.0,593.8,0.237
18179.0,593.8,0.237
18197.0,593.8,0.237
18215.0,593.8,0.237
18233.0,593.8,0.237
18251.0,593.8,0.237
18269.0,593.8,0.237
18287.0,593.8,0.237
18305.0,593.8,0.237
18323.0,593.8,0.237
18341.0,593.8,0.237
18359.0,593.8,0.237
18377.0,593.8,0.237
18395.0,593.8,0.237
18413.0,593.8,0.237
18431.0,593.8,0.237
18449.0,593.8,0.237
18467.0,593.8,0.237
18485.0,593.8,0.237
18503.0,593.8,0.237
18521.0,593.8,0.237
18539.0,593.8,0.237
18557.0,593.8,0.237
18575.0,593.8,0.237
18593.0,593.8,0.237
18611.0,593.8,0.237
18629.0,593.8,0.237
18647.0,593.8,0.237
18665.0,593.8,0.237
18683.0,593.8,0.236
18701.0,593.8,0.237
18719.0,593.8,0.237
18737.0,593.8,0.237
18755.0,593.8,0.237
18773.0,593.8,0.237
18791.0,593.8,0.237
18809.0,593.8,0.236
18827.0,593.8,0.237
18845.0,593.8,0.236
18863.0,593.8,0.236
18881.0,593.8,0.236
18899.0,593.8,0.237
18917.0,593.8,0.236
18935.0,593.8,0.237
18953.0,593.8,0.237
18971.0,593.8,0.237
18989.0,593.8,0.236
19007.0,593.8,0.236
19025.0,593.8,0.236
19043.0,593.8,0.236
19061.0,593.8,0.237
19079.0,593.8,0.236
19097.0,593.8,0.236
19115.0,593.8,0.236
19133.0,593.8,0.236
19151.0,593.8,0.236
19169.0,593.8,0.236
19187.0,593.8,0.236
19205.0,593.8,0.236
19223.0,593.8,0.236
19241.0,593.8,0.236
19259.0,593.8,0.236
19277.0,593.8,0.237
19295.0,593.8,0.236
19313.0,593.8,0.236
19331.0,593.8,0.236
19349.0,593.8,0.236
19367.0,593.8,0.237
19385.0,593.8,0.236
19403.0,593.8,0.237
19421.0,593.8,0.236
19439.0,593.8,0.236
19457.0,593.8,0.237
19475.0,593.8,0.236
19493.0,593.8,0.236
19511.0,593.8,0.236
19529.0,593.8,0.236
19547.0,593.8,0.237
19565.0,593.8,0.236
19583.0,593.8,0.236
19601.0,593.8,0.236
19619.0,593.8,0.236
19637.0,593.8,0.236
19655.0,593.8,0.236
19673.0,593.8,0.236
19691.0,593.8,0.236
19709.0,593.8,0.236
19727.0,593.8,0.236
19745.0,593.8,0.236
19763.0,593.8,0.236
19781.0,593.8,0.236
19799.0,593.8,0.236
19817.0,593.8,0.236
19835.0,593.8,0.236
19853.0,593.8,0.236
19871.0,593.8,0.236
19889.0,593.8,0.236
19907.0,593.8,0.236
19925.0,593.8,0.236
19943.0,593.8,0.236
19961.0,593.8,0.236
19979.0,593.8,0.236
19997.0,593.8,0.236
20015.0,593.8,0.236
20033.0,593.8,0.236
20051.0,593.8,0.236
20069.0,593.8,0.236
20087.0,593.8,0.236
20105.0,593.8,0.236
20123.0,593.8,0.236
20141.0,593.8,0.236
20159.0,593.8,0.236
20177.0,593.8,0.236
20195.0,593.8,0.236
20213.0,593.8,0.236
20231.0,593.8,0.236
20249.0,593.8,0.236
20267.0,593.8,0.236
20285.0,593.8,0.236
20303.0,593.8,0.236
20321.0,593.8,0.236
20339.0,593.8,0.236
20357.0,593.8,0.236
20375.0,593.8,0.236
20393.0,593.8,0.236
20411.0,593.8,0.236
20429.0,593.8,0.236
20447.0,593.8,0.236
20465.0,593.8,0.236
20483.0,593.8,0.236
20501.0,593.8,0.236
20519.0,593.8,0.236
20537.0,593.8,0.236
20555.0,593.8,0.236
20573.0,593.8,0.236
20591.0,593.8,0.236
20609.0,593.8,0.236
20627.0,593.8,0.236
20645.0,593.8,0.236
20663.0,593.8,0.236
20681.0,593.8,0.236
20699.0,593.8,0.236
20717.0,593.8,0.236
20735.0,593.8,0.236
20753.0,593.8,0.236
20771.0,593.8,0.236
20789.0,593.8,0.236
20807.0,593.8,0.236
20825.0,593.8,0.236
20843.0,593.8,0.236
20861.0,593.8,0.236
20879.0,593.8,0.236
20897.0,593.8,0.236
20915.0,593.8,0.236
20933.0,593.8,0.236
20951.0,593.8,0.236
20969.0,593.8,0.236
20987.0,593.8,0.236
21005.0,593.8,0.236
21023.0,593.8,0.236
21041.0,593.8,0.236
21059.0,593.8,0.235
21077.0,593.8,0.236
21095.0,593.8,0.236
21113.0,593.8,0.235
21131.0,593.8,0.235
21149.0,593.8,0.236
21167.0,593.8,0.235
21185.0,593.8,0.236
21203.0,593.8,0.235
21221.0,593.8,0.235
21239.0,593.8,0.235
21257.0,593.8,0.235
21275.0,593.8,0.235
21293.0,593.8,0.235
21311.0,593.8,0.235
21329.0,593.8,0.235
21347.0,593.8,0.235
21365.0,593.8,0.235
21383.0,593.8,0.235
21401.0,593.8,0.235
21419.0,593.8,0.235
21437.0,593.8,0.235
21455.0,593.8,0.235
21473.0,593.8,0.235
21491.0,593.8,0.235
21509.0,593.8,0.235
21527.0,593.8,0.235
21545.0,593.8,0.235
21563.0,593.8,0.235
21581.0,593.8,0.235
21599.0,593.8,0.235
21617.0,593.8,0.235
21635.0,593.8,0.235
21653.0,593.8,0.235
21671.0,593.8,0.235
21689.0,593.8,0.235
21707.0,593.8,0.235
21725.0,593.8,0.235
21743.0,593.8,0.235
21761.0,593.8,0.235
21779.0,593.8,0.235
21797.0,593.8,0.235
21815.0,593.8,0.235
21833.0,593.8,0.235
21851.0,593.8,0.235
21869.0,593.8,0.235
21887.0,593.8,0.235
21905.0,593.8,0.235
21923.0,593.8,0.235
21941.0,593.8,0.235
21959.0,593.8,0.235
21977.0,593.8,0.235
21995.0,593.8,0.235
22013.0,593.8,0.235
22031.0,593.8,0.235
22049.0,593.8,0.235
22067.0,593.8,0.235
22085.0,593.8,0.235
22103.0,593.8,0.235
22121.0,593.8,0.235
22139.0,593.8,0.235
22157.0,593.8,0.235
22175.0,593.8,0.235
22193.0,593.8,0.235
22211.0,593.8,0.235
22229.0,593.8,0.235
22247.0,593.8,0.235
22265.0,593.8,0.235
22283.0,593.8,0.235
22301.0,593.8,0.235
22319.0,593.8,0.235
22337.0,593.8,0.235
22355.0,593.8,0.235
22373.0,593.8,0.235
22391.0,593.8,0.235
22409.0,593.8,0.235
22427.0,593.8,0.235
22445.0,593.8,0.235
22463.0,593.8,0.235
22481.0,593.8,0.235
22499.0,593.8,0.235
22517.0,593.8,0.235
22535.0,593.8,0.235
22553.0,593.8,0.235
22571.0,593.8,0.235
22589.0,593.8,0.235
22607.0,593.8,0.235
22625.0,593.8,0.235
22643.0,593.8,0.235
22661.0,593.8,0.235
22679.0,593.8,0.235
22697.0,593.8,0.234
22715.0,593.8,0.234
22733.0,593.8,0.234
22751.0,593.8,0.235
22769.0,593.8,0.234
22787.0,593.8,0.235
22805.0,593.8,0.234
22814.0,593.8,0.234