File: Wood/Calibration_Data/TUBS/TUBS_TGA_N2_10K_R3.csv
Time (s),Temperature (K),Mass (mg)
0.0,305.044,0.98
2.0,305.044,0.98
4.0,305.035,0.98
6.0,305.032,0.979
8.0,305.006,0.979
10.0,305.012,0.979
12.0,304.998,0.978
14.0,304.98,0.978
16.0,304.973,0.978
18.0,304.976,0.978
20.0,304.946,0.978
22.0,304.943,0.977
24.0,304.936,0.977
26.0,304.928,0.977
28.0,304.924,0.977
30.0,304.91,0.976
32.0,304.907,0.976
34.0,304.906,0.976
36.0,304.881,0.976
38.0,304.876,0.976
40.0,304.875,0.976
42.0,304.885,0.975
44.0,304.865,0.975
46.0,304.854,0.975
48.0,304.862,0.975
50.0,304.851,0.975
52.0,304.845,0.975
54.0,304.823,0.974
56.0,304.826,0.974
58.0,304.835,0.974
60.0,304.82,0.974
62.0,304.802,0.974
64.0,304.808,0.974
66.0,304.801,0.974
68.0,304.804,0.974
70.0,304.8,0.973
72.0,304.789,0.973
74.0,304.763,0.973
76.0,304.777,0.973
78.0,304.784,0.973
80.0,304.776,0.973
82.0,304.766,0.973
84.0,304.776,0.973
86.0,304.748,0.973
88.0,304.748,0.973
90.0,304.759,0.973
92.0,304.744,0.973
94.0,304.743,0.972
96.0,304.741,0.972
98.0,304.749,0.972
100.0,304.731,0.972
102.0,304.724,0.972
104.0,304.725,0.971
106.0,304.723,0.971
108.0,304.713,0.971
110.0,304.715,0.971
112.0,304.71,0.971
114.0,304.703,0.971
116.0,304.702,0.97
118.0,304.704,0.97
120.0,304.705,0.97
122.0,304.697,0.97
124.0,304.68,0.97
126.0,304.681,0.97
128.0,304.674,0.97
130.0,304.668,0.97
132.0,304.673,0.97
134.0,304.668,0.97
136.0,304.676,0.97
138.0,304.657,0.97
140.0,304.657,0.97
142.0,304.655,0.969
144.0,304.654,0.969
146.0,304.661,0.969
148.0,304.656,0.969
150.0,304.651,0.969
152.0,304.653,0.969
154.0,304.665,0.969
156.0,304.664,0.969
158.0,304.655,0.969
160.0,304.64,0.969
162.0,304.648,0.969
164.0,304.641,0.969
166.0,304.637,0.969
168.0,304.631,0.969
170.0,304.627,0.969
172.0,304.625,0.969
174.0,304.623,0.968
176.0,304.616,0.968
178.0,304.622,0.968
180.0,304.617,0.968
182.0,304.613,0.968
184.0,304.611,0.968
186.0,304.612,0.968
188.0,304.602,0.968
190.0,304.622,0.968
192.0,304.581,0.968
194.0,304.602,0.968
196.0,304.617,0.968
198.0,304.59,0.968
200.0,304.594,0.968
202.0,304.588,0.967
204.0,304.59,0.967
206.0,304.586,0.967
208.0,304.59,0.967
210.0,304.583,0.967
212.0,304.575,0.967
214.0,304.577,0.967
216.0,304.574,0.967
218.0,304.565,0.967
220.0,304.577,0.967
222.0,304.566,0.967
224.0,304.568,0.967
226.0,304.566,0.967
228.0,304.576,0.967
230.0,304.572,0.967
232.0,304.569,0.967
234.0,304.565,0.967
236.0,304.547,0.967
238.0,304.554,0.967
240.0,304.56,0.967
242.0,304.557,0.967
244.0,304.571,0.967
246.0,304.555,0.967
248.0,304.554,0.966
250.0,304.552,0.966
252.0,304.552,0.966
254.0,304.549,0.966
256.0,304.564,0.966
258.0,304.555,0.966
260.0,304.543,0.966
262.0,304.541,0.966
264.0,304.551,0.966
266.0,304.555,0.966
268.0,304.536,0.966
270.0,304.539,0.966
272.0,304.538,0.966
274.0,304.556,0.966
276.0,304.548,0.966
278.0,304.555,0.966
280.0,304.537,0.966
282.0,304.522,0.966
284.0,304.534,0.966
286.0,304.545,0.966
288.0,304.518,0.966
290.0,304.52,0.966
292.0,304.525,0.966
294.0,304.523,0.966
296.0,304.518,0.966
298.0,304.53,0.966
300.0,304.518,0.966
302.0,304.515,0.965
304.0,304.52,0.965
306.0,304.499,0.965
308.0,304.516,0.965
310.0,304.519,0.966
312.0,304.506,0.966
314.0,304.507,0.966
316.0,304.514,0.965
318.0,304.516,0.965
320.0,304.497,0.965
322.0,304.501,0.965
324.0,304.485,0.965
326.0,304.503,0.965
328.0,304.509,0.965
330.0,304.51,0.965
332.0,304.517,0.965
334.0,304.51,0.965
336.0,304.504,0.965
338.0,304.499,0.965
340.0,304.508,0.965
342.0,304.515,0.965
344.0,304.502,0.965
346.0,304.503,0.965
348.0,304.499,0.965
350.0,304.492,0.965
352.0,304.503,0.965
354.0,304.499,0.964
356.0,304.487,0.964
358.0,304.487,0.964
360.0,304.489,0.964
362.0,304.495,0.964
364.0,304.498,0.964
366.0,304.501,0.964
368.0,304.485,0.964
370.0,304.476,0.964
372.0,304.489,0.964
374.0,304.506,0.964
376.0,304.478,0.964
378.0,304.479,0.964
380.0,304.49,0.964
382.0,304.481,0.964
384.0,304.485,0.964
386.0,304.494,0.964
388.0,304.498,0.964
390.0,304.472,0.964
392.0,304.47,0.964
394.0,304.477,0.964
396.0,304.492,0.964
398.0,304.49,0.964
400.0,304.482,0.964
402.0,304.467,0.964
404.0,304.497,0.964
406.0,304.484,0.964
408.0,304.485,0.964
410.0,304.489,0.964
412.0,304.464,0.964
414.0,304.483,0.964
416.0,304.487,0.964
418.0,304.492,0.964
420.0,304.49,0.964
422.0,304.496,0.964
424.0,304.486,0.964
426.0,304.483,0.964
428.0,304.475,0.964
430.0,304.466,0.964
432.0,304.471,0.964
434.0,304.47,0.964
436.0,304.472,0.964
438.0,304.474,0.964
440.0,304.466,0.964
442.0,304.489,0.964
444.0,304.489,0.964
446.0,304.477,0.964
448.0,304.469,0.964
450.0,304.473,0.964
452.0,304.461,0.964
454.0,304.492,0.964
456.0,304.46,0.964
458.0,304.482,0.964
460.0,304.477,0.964
462.0,304.472,0.964
464.0,304.482,0.964
466.0,304.49,0.964
468.0,304.484,0.964
470.0,304.481,0.964
472.0,304.474,0.964
474.0,304.489,0.964
476.0,304.488,0.964
478.0,304.468,0.964
480.0,304.484,0.964
482.0,304.48,0.964
484.0,304.475,0.964
486.0,304.47,0.964
488.0,304.452,0.964
490.0,304.453,0.964
492.0,304.462,0.964
494.0,304.466,0.964
496.0,304.472,0.964
498.0,304.464,0.963
500.0,304.472,0.963
502.0,304.471,0.963
504.0,304.47,0.963
506.0,304.462,0.963
508.0,304.46,0.963
510.0,304.458,0.963
512.0,304.474,0.963
514.0,304.468,0.963
516.0,304.481,0.963
518.0,304.464,0.963
520.0,304.461,0.963
522.0,304.449,0.963
524.0,304.466,0.963
526.0,304.459,0.963
528.0,304.467,0.963
530.0,304.479,0.963
532.0,304.458,0.963
534.0,304.461,0.963
536.0,304.459,0.963
538.0,304.484,0.963
540.0,304.468,0.963
542.0,304.461,0.963
544.0,304.465,0.963
546.0,304.466,0.963
548.0,304.458,0.963
550.0,304.473,0.963
552.0,304.452,0.963
554.0,304.457,0.963
556.0,304.454,0.963
558.0,304.472,0.963
560.0,304.463,0.963
562.0,304.468,0.963
564.0,304.468,0.963
566.0,304.463,0.963
568.0,304.479,0.963
570.0,304.477,0.963
572.0,304.475,0.963
574.0,304.463,0.963
576.0,304.461,0.963
578.0,304.465,0.963
580.0,304.47,0.963
582.0,304.473,0.963
584.0,304.464,0.963
586.0,304.462,0.963
588.0,304.472,0.963
590.0,304.465,0.963
592.0,304.478,0.963
594.0,304.468,0.963
596.0,304.466,0.963
598.0,304.459,0.963
600.0,304.466,0.963
602.0,304.484,0.963
604.0,304.473,0.963
606.0,304.457,0.963
608.0,304.466,0.963
610.0,304.46,0.963
612.0,304.466,0.963
614.0,304.458,0.963
616.0,304.458,0.963
618.0,304.468,0.963
620.0,304.472,0.963
622.0,304.463,0.963
624.0,304.462,0.963
626.0,304.478,0.963
628.0,304.49,0.963
630.0,304.463,0.963
632.0,304.474,0.963
634.0,304.476,0.963
636.0,304.482,0.963
638.0,304.472,0.963
640.0,304.463,0.963
642.0,304.47,0.963
644.0,304.455,0.963
646.0,304.467,0.963
648.0,304.463,0.963
650.0,304.459,0.963
652.0,304.467,0.963
654.0,304.446,0.963
656.0,304.463,0.963
658.0,304.47,0.963
660.0,304.471,0.962
662.0,304.442,0.962
664.0,304.47,0.962
666.0,304.463,0.962
668.0,304.476,0.962
670.0,304.467,0.962
672.0,304.477,0.962
674.0,304.471,0.962
676.0,304.479,0.962
678.0,304.467,0.962
680.0,304.466,0.962
682.0,304.461,0.962
684.0,304.452,0.962
686.0,304.46,0.962
688.0,304.449,0.962
690.0,304.46,0.962
692.0,304.453,0.962
694.0,304.46,0.962
696.0,304.464,0.962
698.0,304.474,0.962
700.0,304.455,0.962
702.0,304.473,0.962
704.0,304.46,0.962
706.0,304.476,0.962
708.0,304.463,0.962
710.0,304.463,0.962
712.0,304.484,0.962
714.0,304.45,0.962
716.0,304.449,0.962
718.0,304.477,0.962
720.0,304.463,0.962
722.0,304.466,0.962
724.0,304.46,0.962
726.0,304.468,0.962
728.0,304.463,0.962
730.0,304.454,0.962
732.0,304.455,0.962
734.0,304.458,0.962
736.0,304.46,0.962
738.0,304.461,0.962
740.0,304.461,0.962
742.0,304.467,0.962
744.0,304.475,0.962
746.0,304.465,0.962
748.0,304.456,0.962
750.0,304.459,0.962
752.0,304.468,0.962
754.0,304.455,0.962
756.0,304.47,0.962
758.0,304.466,0.962
760.0,304.471,0.962
762.0,304.468,0.962
764.0,304.46,0.962
766.0,304.463,0.962
768.0,304.477,0.962
770.0,304.452,0.962
772.0,304.466,0.962
774.0,304.465,0.962
776.0,304.46,0.962
778.0,304.461,0.962
780.0,304.458,0.962
782.0,304.454,0.962
784.0,304.453,0.962
786.0,304.453,0.962
788.0,304.456,0.962
790.0,304.45,0.962
792.0,304.461,0.962
794.0,304.466,0.962
796.0,304.459,0.962
798.0,304.455,0.962
800.0,304.473,0.962
802.0,304.472,0.962
804.0,304.451,0.962
806.0,304.461,0.962
808.0,304.462,0.962
810.0,304.464,0.962
812.0,304.456,0.962
814.0,304.46,0.962
816.0,304.464,0.962
818.0,304.448,0.962
820.0,304.467,0.962
822.0,304.461,0.962
824.0,304.456,0.962
826.0,304.467,0.962
828.0,304.456,0.962
830.0,304.464,0.962
832.0,304.447,0.962
834.0,304.451,0.962
836.0,304.46,0.962
838.0,304.464,0.962
840.0,304.469,0.962
842.0,304.457,0.962
844.0,304.467,0.962
846.0,304.454,0.962
848.0,304.466,0.962
850.0,304.462,0.962
852.0,304.454,0.962
854.0,304.45,0.962
856.0,304.449,0.962
858.0,304.452,0.962
860.0,304.459,0.962
862.0,304.453,0.962
864.0,304.471,0.962
866.0,304.464,0.962
868.0,304.457,0.962
870.0,304.465,0.962
872.0,304.466,0.962
874.0,304.466,0.962
876.0,304.476,0.962
878.0,304.481,0.962
880.0,304.461,0.962
882.0,304.461,0.962
884.0,304.453,0.962
886.0,304.466,0.962
888.0,304.462,0.962
890.0,304.457,0.962
892.0,304.449,0.962
894.0,304.473,0.962
896.0,304.461,0.962
898.0,304.452,0.962
900.0,304.451,0.962
902.0,304.463,0.962
904.0,304.432,0.962
906.0,304.463,0.962
908.0,304.455,0.962
910.0,304.457,0.962
912.0,304.446,0.962
914.0,304.455,0.962
916.0,304.475,0.962
918.0,304.456,0.962
920.0,304.466,0.962
922.0,304.446,0.962
924.0,304.444,0.962
926.0,304.447,0.961
928.0,304.449,0.961
930.0,304.457,0.961
932.0,304.46,0.962
934.0,304.46,0.962
936.0,304.457,0.962
938.0,304.437,0.962
940.0,304.44,0.962
942.0,304.462,0.962
944.0,304.459,0.962
946.0,304.447,0.962
948.0,304.444,0.962
950.0,304.469,0.962
952.0,304.449,0.962
954.0,304.457,0.962
956.0,304.437,0.962
958.0,304.437,0.962
960.0,304.444,0.962
962.0,304.452,0.962
964.0,304.45,0.962
966.0,304.465,0.962
968.0,304.447,0.962
970.0,304.459,0.962
972.0,304.445,0.962
974.0,304.46,0.962
976.0,304.456,0.962
978.0,304.443,0.962
980.0,304.477,0.962
982.0,304.461,0.962
984.0,304.46,0.962
986.0,304.463,0.962
988.0,304.466,0.962
990.0,304.464,0.962
992.0,304.453,0.962
994.0,304.446,0.962
996.0,304.453,0.962
998.0,304.453,0.962
1000.0,304.454,0.962
1002.0,304.453,0.962
1004.0,304.455,0.962
1006.0,304.459,0.962
1008.0,304.477,0.962
1010.0,304.469,0.962
1012.0,304.478,0.962
1014.0,304.465,0.961
1016.0,304.455,0.961
1018.0,304.462,0.961
1020.0,304.474,0.961
1022.0,304.463,0.961
1024.0,304.447,0.961
1026.0,304.467,0.961
1028.0,304.453,0.961
1030.0,304.461,0.961
1032.0,304.471,0.961
1034.0,304.464,0.961
1036.0,304.446,0.961
1038.0,304.461,0.961
1040.0,304.46,0.961
1042.0,304.467,0.961
1044.0,304.455,0.961
1046.0,304.461,0.961
1048.0,304.456,0.961
1050.0,304.46,0.961
1052.0,304.446,0.961
1054.0,304.471,0.961
1056.0,304.469,0.961
1058.0,304.447,0.961
1060.0,304.461,0.961
1062.0,304.469,0.961
1064.0,304.465,0.961
1066.0,304.45,0.961
1068.0,304.437,0.961
1070.0,304.45,0.961
1072.0,304.451,0.961
1074.0,304.456,0.961
1076.0,304.456,0.961
1078.0,304.471,0.961
1080.0,304.471,0.961
1082.0,304.47,0.961
1084.0,304.459,0.961
1086.0,304.469,0.961
1088.0,304.468,0.961
1090.0,304.461,0.961
1092.0,304.46,0.961
1094.0,304.471,0.961
1096.0,304.449,0.961
1098.0,304.462,0.961
1100.0,304.459,0.962
1102.0,304.471,0.962
1104.0,304.473,0.962
1106.0,304.464,0.962
1108.0,304.462,0.962
1110.0,304.474,0.962
1112.0,304.465,0.962
1114.0,304.457,0.961
1116.0,304.453,0.961
1118.0,304.454,0.961
1120.0,304.452,0.961
1122.0,304.461,0.961
1124.0,304.462,0.961
1126.0,304.456,0.961
1128.0,304.457,0.961
1130.0,304.466,0.961
1132.0,304.466,0.961
1134.0,304.47,0.961
1136.0,304.472,0.961
1138.0,304.472,0.961
1140.0,304.464,0.961
1142.0,304.477,0.961
1144.0,304.45,0.962
1146.0,304.45,0.962
1148.0,304.467,0.961
1150.0,304.468,0.961
1152.0,304.466,0.961
1154.0,304.469,0.961
1156.0,304.477,0.961
1158.0,304.462,0.961
1160.0,304.461,0.961
1162.0,304.457,0.961
1164.0,304.444,0.961
1166.0,304.449,0.961
1168.0,304.449,0.961
1170.0,304.461,0.961
1172.0,304.471,0.961
1174.0,304.457,0.961
1176.0,304.456,0.961
1178.0,304.457,0.961
1180.0,304.464,0.961
1182.0,304.455,0.961
1184.0,304.439,0.961
1186.0,304.46,0.961
1188.0,304.466,0.961
1190.0,304.456,0.961
1192.0,304.453,0.961
1194.0,304.456,0.961
1196.0,304.461,0.961
1198.0,304.444,0.961
1200.0,304.469,0.961
1202.0,304.513,0.96
1204.0,305.064,0.96
1206.0,305.847,0.959
1208.0,306.569,0.959
1210.0,307.516,0.959
1212.0,308.597,0.961
1214.0,309.764,0.962
1216.0,310.998,0.963
1218.0,312.247,0.964
1220.0,313.509,0.964
1222.0,314.784,0.964
1224.0,316.086,0.964
1226.0,317.394,0.964
1228.0,318.678,0.963
1230.0,319.979,0.963
1232.0,321.305,0.963
1234.0,322.598,0.963
1236.0,323.929,0.962
1238.0,325.22,0.962
1240.0,326.546,0.962
1242.0,327.844,0.962
1244.0,329.173,0.962
1246.0,330.474,0.961
1248.0,331.798,0.961
1250.0,333.086,0.961
1252.0,334.42,0.961
1254.0,335.721,0.96
1256.0,337.042,0.96
1258.0,338.345,0.96
1260.0,339.656,0.96
1262.0,340.986,0.96
1264.0,342.31,0.959
1266.0,343.612,0.959
1268.0,344.942,0.958
1270.0,346.242,0.958
1272.0,347.568,0.958
1274.0,348.886,0.957
1276.0,350.19,0.957
1278.0,351.508,0.957
1280.0,352.83,0.956
1282.0,354.148,0.956
1284.0,355.477,0.956
1286.0,356.792,0.955
1288.0,358.096,0.955
1290.0,359.424,0.955
1292.0,360.745,0.955
1294.0,362.074,0.954
1296.0,363.378,0.954
1298.0,364.709,0.954
1300.0,366.035,0.954
1302.0,367.362,0.954
1304.0,368.677,0.953
1306.0,370.001,0.953
1308.0,371.317,0.953
1310.0,372.644,0.953
1312.0,373.984,0.953
1314.0,375.288,0.953
1316.0,376.627,0.953
1318.0,377.954,0.953
1320.0,379.283,0.952
1322.0,380.608,0.952
1324.0,381.932,0.952
1326.0,383.262,0.952
1328.0,384.596,0.952
1330.0,385.922,0.952
1332.0,387.278,0.952
1334.0,388.604,0.952
1336.0,389.954,0.952
1338.0,391.269,0.952
1340.0,392.601,0.952
1342.0,393.931,0.952
1344.0,395.27,0.952
1346.0,396.615,0.952
1348.0,397.954,0.952
1350.0,399.277,0.952
1352.0,400.636,0.952
1354.0,401.978,0.952
1356.0,403.308,0.952
1358.0,404.652,0.952
1360.0,405.984,0.952
1362.0,407.328,0.952
1364.0,408.686,0.952
1366.0,410.023,0.952
1368.0,411.37,0.952
1370.0,412.712,0.952
1372.0,414.05,0.952
1374.0,415.406,0.952
1376.0,416.753,0.952
1378.0,418.106,0.952
1380.0,419.45,0.952
1382.0,420.794,0.952
1384.0,422.14,0.952
1386.0,423.502,0.951
1388.0,424.843,0.951
1390.0,426.187,0.951
1392.0,427.537,0.951
1394.0,428.901,0.951
1396.0,430.257,0.951
1398.0,431.609,0.951
1400.0,432.968,0.951
1402.0,434.323,0.951
1404.0,435.678,0.951
1406.0,437.049,0.951
1408.0,438.396,0.951
1410.0,439.745,0.951
1412.0,441.114,0.951
1414.0,442.454,0.951
1416.0,443.828,0.95
1418.0,445.169,0.95
1420.0,446.539,0.95
1422.0,447.898,0.95
1424.0,449.275,0.95
1426.0,450.628,0.95
1428.0,451.987,0.949
1430.0,453.349,0.949
1432.0,454.709,0.949
1434.0,456.075,0.949
1436.0,457.44,0.949
1438.0,458.81,0.948
1440.0,460.175,0.948
1442.0,461.528,0.948
1444.0,462.915,0.948
1446.0,464.263,0.947
1448.0,465.648,0.947
1450.0,467.011,0.947
1452.0,468.389,0.946
1454.0,469.752,0.946
1456.0,471.125,0.945
1458.0,472.485,0.945
1460.0,473.849,0.945
1462.0,475.226,0.944
1464.0,476.601,0.944
1466.0,477.969,0.943
1468.0,479.334,0.943
1470.0,480.704,0.942
1472.0,482.083,0.942
1474.0,483.46,0.941
1476.0,484.824,0.941
1478.0,486.194,0.94
1480.0,487.561,0.94
1482.0,488.939,0.939
1484.0,490.315,0.939
1486.0,491.67,0.938
1488.0,493.048,0.937
1490.0,494.413,0.937
1492.0,495.792,0.936
1494.0,497.168,0.936
1496.0,498.523,0.935
1498.0,499.899,0.934
1500.0,501.268,0.933
1502.0,502.65,0.933
1504.0,504.019,0.932
1506.0,505.389,0.931
1508.0,506.75,0.93
1510.0,508.13,0.93
1512.0,509.494,0.929
1514.0,510.875,0.928
1516.0,512.244,0.927
1518.0,513.621,0.926
1520.0,514.981,0.925
1522.0,516.352,0.924
1524.0,517.724,0.923
1526.0,519.085,0.922
1528.0,520.466,0.921
1530.0,521.827,0.92
1532.0,523.194,0.919
1534.0,524.572,0.918
1536.0,525.947,0.916
1538.0,527.314,0.915
1540.0,528.681,0.914
1542.0,530.06,0.912
1544.0,531.422,0.911
1546.0,532.785,0.909
1548.0,534.16,0.908
1550.0,535.519,0.906
1552.0,536.901,0.905
1554.0,538.263,0.903
1556.0,539.632,0.901
1558.0,540.989,0.899
1560.0,542.358,0.898
1562.0,543.719,0.896
1564.0,545.097,0.894
1566.0,546.456,0.892
1568.0,547.819,0.89
1570.0,549.178,0.887
1572.0,550.551,0.885
1574.0,551.91,0.883
1576.0,553.276,0.881
1578.0,554.645,0.878
1580.0,556.005,0.876
1582.0,557.368,0.874
1584.0,558.72,0.871
1586.0,560.089,0.869
1588.0,561.455,0.866
1590.0,562.82,0.864
1592.0,564.193,0.861
1594.0,565.54,0.858
1596.0,566.909,0.856
1598.0,568.257,0.853
1600.0,569.624,0.85
1602.0,570.989,0.848
1604.0,572.35,0.845
1606.0,573.706,0.842
1608.0,575.068,0.839
1610.0,576.429,0.836
1612.0,577.788,0.833
1614.0,579.138,0.83
1616.0,580.497,0.827
1618.0,581.858,0.823
1620.0,583.215,0.82
1622.0,584.566,0.817
1624.0,585.917,0.813
1626.0,587.268,0.81
1628.0,588.632,0.806
1630.0,589.978,0.803
1632.0,591.339,0.799
1634.0,592.698,0.795
1636.0,594.045,0.791
1638.0,595.394,0.787
1640.0,596.753,0.783
1642.0,598.106,0.779
1644.0,599.448,0.774
1646.0,600.807,0.77
1648.0,602.154,0.765
1650.0,603.499,0.76
1652.0,604.836,0.756
1654.0,606.193,0.751
1656.0,607.538,0.745
1658.0,608.884,0.74
1660.0,610.235,0.735
1662.0,611.575,0.729
1664.0,612.928,0.724
1666.0,614.27,0.718
1668.0,615.611,0.712
1670.0,616.962,0.706
1672.0,618.317,0.7
1674.0,619.656,0.694
1676.0,620.999,0.687
1678.0,622.344,0.681
1680.0,623.673,0.674
1682.0,625.015,0.667
1684.0,626.355,0.66
1686.0,627.693,0.653
1688.0,629.032,0.646
1690.0,630.376,0.639
1692.0,631.716,0.632
1694.0,633.049,0.624
1696.0,634.386,0.617
1698.0,635.73,0.609
1700.0,637.067,0.601
1702.0,638.403,0.593
1704.0,639.746,0.585
1706.0,641.084,0.577
1708.0,642.418,0.569
1710.0,643.748,0.561
1712.0,645.083,0.552
1714.0,646.418,0.544
1716.0,647.738,0.535
1718.0,649.074,0.527
1720.0,650.4,0.518
1722.0,651.741,0.509
1724.0,653.065,0.5
1726.0,654.391,0.49
1728.0,655.722,0.481
1730.0,657.061,0.471
1732.0,658.372,0.461
1734.0,659.711,0.451
1736.0,661.029,0.441
1738.0,662.361,0.43
1740.0,663.69,0.42
1742.0,665.006,0.409
1744.0,666.343,0.398
1746.0,667.666,0.386
1748.0,668.984,0.375
1750.0,670.309,0.363
1752.0,671.644,0.351
1754.0,672.959,0.339
1756.0,674.27,0.327
1758.0,675.604,0.315
1760.0,676.927,0.303
1762.0,678.247,0.291
1764.0,679.578,0.28
1766.0,680.903,0.269
1768.0,682.242,0.258
1770.0,683.55,0.248
1772.0,684.876,0.238
1774.0,686.209,0.229
1776.0,687.536,0.221
1778.0,688.869,0.213
1780.0,690.188,0.207
1782.0,691.518,0.201
1784.0,692.853,0.196
1786.0,694.179,0.192
1788.0,695.503,0.189
1790.0,696.817,0.186
1792.0,698.151,0.184
1794.0,699.462,0.182
1796.0,700.786,0.18
1798.0,702.118,0.179
1800.0,703.446,0.177
1802.0,704.766,0.176
1804.0,706.084,0.175
1806.0,707.42,0.174
1808.0,708.73,0.173
1810.0,710.061,0.172
1812.0,711.375,0.171
1814.0,712.692,0.171
1816.0,714.016,0.17
1818.0,715.337,0.169
1820.0,716.657,0.168
1822.0,717.968,0.167
1824.0,719.288,0.166
1826.0,720.605,0.166
1828.0,721.934,0.165
1830.0,723.248,0.164
1832.0,724.572,0.163
1834.0,725.89,0.163
1836.0,727.213,0.162
1838.0,728.533,0.161
1840.0,729.861,0.16
1842.0,731.182,0.159
1844.0,732.489,0.159
1846.0,733.808,0.158
1848.0,735.124,0.157
1850.0,736.449,0.156
1852.0,737.762,0.156
1854.0,739.076,0.155
1856.0,740.408,0.154
1858.0,741.721,0.154
1860.0,743.034,0.153
1862.0,744.352,0.152
1864.0,745.678,0.152
1866.0,746.993,0.151
1868.0,748.315,0.15
1870.0,749.638,0.15
1872.0,750.958,0.149
1874.0,752.266,0.148
1876.0,753.581,0.148
1878.0,754.9,0.147
1880.0,756.212,0.147
1882.0,757.53,0.146
1884.0,758.851,0.145
1886.0,760.165,0.145
1888.0,761.482,0.144
1890.0,762.797,0.144
1892.0,764.12,0.143
1894.0,765.435,0.143
1896.0,766.754,0.142
1898.0,768.075,0.142
1900.0,769.394,0.141
1902.0,770.703,0.141
1904.0,772.03,0.141
1906.0,773.338,0.14
1908.0,774.663,0.14
1910.0,775.981,0.139
1912.0,777.307,0.139
1914.0,778.618,0.139
1916.0,779.943,0.138
1918.0,781.258,0.138
1920.0,782.58,0.138
1922.0,783.895,0.137
1924.0,785.208,0.137
1926.0,786.534,0.137
1928.0,787.858,0.136
1930.0,789.177,0.136
1932.0,790.494,0.135
1934.0,791.812,0.135
1936.0,793.125,0.135
1938.0,794.44,0.134
1940.0,795.766,0.134
1942.0,797.08,0.133
1944.0,798.401,0.133
1946.0,799.721,0.133
1948.0,801.037,0.133
1950.0,802.366,0.132
1952.0,803.687,0.132
1954.0,805.001,0.132
1956.0,806.323,0.131
1958.0,807.64,0.131
1960.0,808.961,0.131
1962.0,810.283,0.13
1964.0,811.599,0.13
1966.0,812.913,0.13
1968.0,814.234,0.13
1970.0,815.553,0.129
1972.0,816.885,0.129
1974.0,818.198,0.129
1976.0,819.513,0.129
1978.0,820.824,0.128
1980.0,822.148,0.128
1982.0,823.473,0.128
1984.0,824.797,0.127
1986.0,826.111,0.127
1988.0,827.43,0.127
1990.0,828.751,0.127
1992.0,830.067,0.126
1994.0,831.394,0.126
1996.0,832.71,0.126
1998.0,834.026,0.126
2000.0,835.351,0.125
2002.0,836.66,0.125
2004.0,837.986,0.125
2006.0,839.312,0.125
2008.0,840.631,0.125
2010.0,841.946,0.124
2012.0,843.271,0.124
2014.0,844.59,0.124
2016.0,845.909,0.124
2018.0,847.232,0.123
2020.0,848.539,0.123
2022.0,849.871,0.123
2024.0,851.191,0.123
2026.0,852.508,0.122
2028.0,853.827,0.122
2030.0,855.152,0.122
2032.0,856.469,0.122
2034.0,857.796,0.122
2036.0,859.12,0.121
2038.0,860.436,0.121
2040.0,861.752,0.121
2042.0,863.082,0.121
2044.0,864.411,0.121
2046.0,865.731,0.12
2048.0,867.056,0.12
2050.0,868.374,0.12
2052.0,869.697,0.12
2054.0,871.022,0.119
2056.0,872.347,0.119
2058.0,873.662,0.119
2060.0,874.981,0.119
2062.0,876.312,0.119
2064.0,877.632,0.119
2066.0,878.952,0.118
2068.0,880.282,0.118
2070.0,881.602,0.118
2072.0,882.931,0.118
2074.0,884.253,0.118
2076.0,885.565,0.117
2078.0,886.901,0.117
2080.0,888.224,0.117
2082.0,889.546,0.117
2084.0,890.87,0.117
2086.0,892.194,0.116
2088.0,893.517,0.116
2090.0,894.834,0.116
2092.0,896.171,0.116
2094.0,897.491,0.116
2096.0,898.823,0.116
2098.0,900.153,0.115
2100.0,901.475,0.115
2102.0,902.799,0.115
2104.0,904.122,0.115
2106.0,905.447,0.115
2108.0,906.768,0.115
2110.0,908.093,0.114
2112.0,909.422,0.114
2114.0,910.744,0.114
2116.0,912.074,0.114
2118.0,913.392,0.114
2120.0,914.712,0.114
2122.0,916.045,0.113
2124.0,917.375,0.113
2126.0,918.702,0.113
2128.0,920.009,0.113
2130.0,921.348,0.113
2132.0,922.678,0.113
2134.0,923.996,0.113
2136.0,925.324,0.112
2138.0,926.652,0.112
2140.0,927.972,0.112
2142.0,929.306,0.112
2144.0,930.622,0.112
2146.0,931.954,0.112
2148.0,933.277,0.112
2150.0,934.608,0.112
2152.0,935.944,0.112
2154.0,937.267,0.112
2156.0,938.602,0.112
2158.0,939.911,0.111
2160.0,941.246,0.111
2162.0,942.576,0.11
2164.0,943.9,0.11
2166.0,945.225,0.11
2168.0,946.544,0.11
2170.0,947.88,0.11
2172.0,949.211,0.11
2174.0,950.536,0.11
2176.0,951.87,0.11
2178.0,953.182,0.11
2180.0,954.516,0.11
2182.0,955.837,0.11
2184.0,957.169,0.11
2186.0,958.5,0.11
2188.0,959.825,0.109
2190.0,961.153,0.109
2192.0,962.488,0.109
2194.0,963.798,0.109
2196.0,965.134,0.109
2198.0,966.465,0.109
2200.0,967.781,0.109
2202.0,969.116,0.108
2204.0,970.438,0.108
2206.0,971.769,0.108
2208.0,973.102,0.108
2210.0,974.42,0.108
2212.0,975.755,0.108
2214.0,977.084,0.108
2216.0,978.41,0.108
2218.0,979.725,0.108
2220.0,981.062,0.108
2222.0,982.387,0.108
2224.0,983.724,0.108
2226.0,985.055,0.108
2228.0,986.372,0.107
2230.0,987.705,0.107
2232.0,989.035,0.107
2234.0,990.355,0.107
2236.0,991.685,0.107
2238.0,993.007,0.107
2240.0,994.343,0.107
2242.0,995.674,0.107
2244.0,997.003,0.106
2246.0,998.329,0.106
2248.0,999.656,0.106
2250.0,1000.99,0.106
2252.0,1002.322,0.106
2254.0,1003.649,0.106
2256.0,1004.974,0.106
2258.0,1006.301,0.106
2260.0,1007.636,0.106
2262.0,1008.96,0.106
2264.0,1010.297,0.106
2266.0,1011.632,0.106
2268.0,1012.949,0.105
2270.0,1014.278,0.105
2272.0,1015.614,0.105
2274.0,1016.946,0.105
2276.0,1018.281,0.105
2278.0,1019.608,0.105
2280.0,1020.945,0.105
2282.0,1022.27,0.105
2284.0,1023.606,0.105
2286.0,1024.922,0.105
2288.0,1026.258,0.105
2290.0,1027.593,0.105
2292.0,1028.929,0.105
2294.0,1030.26,0.104
2296.0,1031.596,0.104
2298.0,1032.92,0.104
2300.0,1034.254,0.104
2302.0,1035.59,0.104
2304.0,1036.916,0.104
2306.0,1038.255,0.104
2308.0,1039.59,0.104
2310.0,1040.916,0.104
2312.0,1042.248,0.104
2314.0,1043.581,0.104
2316.0,1044.915,0.104
2318.0,1046.251,0.104
2320.0,1047.578,0.104
2322.0,1048.903,0.103
2324.0,1050.235,0.103
2326.0,1051.565,0.103
2328.0,1052.905,0.103
2330.0,1054.247,0.103
2332.0,1055.572,0.103
2334.0,1056.906,0.103
2336.0,1057.998,0.103
2338.0,1058.791,0.102
2340.0,1059.719,0.102
2342.0,1060.583,0.102
2344.0,1061.373,0.102
2346.0,1062.099,0.102
2348.0,1062.769,0.102
2350.0,1063.381,0.102
2352.0,1063.96,0.102
2354.0,1064.492,0.102
2356.0,1064.971,0.102
2358.0,1065.434,0.102
2360.0,1065.838,0.102
2362.0,1066.228,0.102
2364.0,1066.575,0.102
2366.0,1066.906,0.102
2368.0,1067.216,0.102
2370.0,1067.496,0.102
2372.0,1067.762,0.101
2374.0,1068.003,0.101
2376.0,1068.239,0.101
2378.0,1068.45,0.101
2380.0,1068.654,0.101
2382.0,1068.826,0.101
2384.0,1068.997,0.101
2386.0,1069.15,0.101
2388.0,1069.298,0.101
2390.0,1069.441,0.101
2392.0,1069.557,0.101
2394.0,1069.682,0.101
2396.0,1069.798,0.101
2398.0,1069.906,0.101
2400.0,1070.002,0.101
2402.0,1070.09,0.101
2404.0,1070.182,0.101
2406.0,1070.268,0.101
2408.0,1070.341,0.101
2410.0,1070.412,0.101
2412.0,1070.485,0.101
2414.0,1070.544,0.101
2416.0,1070.608,0.101
2418.0,1070.669,0.101
2420.0,1070.726,0.101
2422.0,1070.775,0.101
2424.0,1070.83,0.101
2426.0,1070.87,0.101
2428.0,1070.917,0.101
2430.0,1070.95,0.101
2432.0,1070.994,0.101
2434.0,1071.038,0.1
2436.0,1071.071,0.1
2438.0,1071.101,0.1
2440.0,1071.136,0.1
2442.0,1071.167,0.1
2444.0,1071.2,0.1
2446.0,1071.235,0.1
2448.0,1071.268,0.1
2450.0,1071.291,0.1
2452.0,1071.314,0.1
2454.0,1071.338,0.1
2456.0,1071.368,0.1
2458.0,1071.385,0.1
2460.0,1071.412,0.1
2462.0,1071.433,0.1
2464.0,1071.455,0.1
2466.0,1071.474,0.1
2468.0,1071.479,0.1
2470.0,1071.51,0.1
2472.0,1071.535,0.1
2474.0,1071.547,0.1
2476.0,1071.567,0.1
2478.0,1071.576,0.1
2480.0,1071.601,0.1
2482.0,1071.611,0.1
2484.0,1071.637,0.1
2486.0,1071.654,0.1
2488.0,1071.659,0.1
2490.0,1071.673,0.1
2492.0,1071.682,0.1
2494.0,1071.699,0.1
2496.0,1071.725,0.1
2498.0,1071.735,0.099
2500.0,1071.739,0.099
2502.0,1071.748,0.099
2504.0,1071.764,0.099
2506.0,1071.764,0.099
2508.0,1071.784,0.099
2510.0,1071.798,0.099
2512.0,1071.807,0.099
2514.0,1071.811,0.099
2516.0,1071.819,0.099
2518.0,1071.828,0.099
2520.0,1071.838,0.099
2522.0,1071.853,0.099
2524.0,1071.859,0.099
2526.0,1071.866,0.099
2528.0,1071.877,0.099
2530.0,1071.885,0.099
2532.0,1071.891,0.099
2534.0,1071.895,0.099
2536.0,1071.906,0.099
2538.0,1071.914,0.099
2540.0,1071.92,0.099
2542.0,1071.926,0.099
2544.0,1071.931,0.099
2546.0,1071.94,0.099
2548.0,1071.953,0.099
2550.0,1071.956,0.099
2552.0,1071.966,0.099
2554.0,1071.966,0.099
2556.0,1071.973,0.099
2558.0,1071.986,0.099
2560.0,1071.992,0.099
2562.0,1072.001,0.099
2564.0,1072.005,0.099
2566.0,1072.005,0.099
2568.0,1072.003,0.099
2570.0,1072.018,0.099
2572.0,1072.02,0.099
2574.0,1072.025,0.099
2576.0,1072.03,0.099
2578.0,1072.043,0.099
2580.0,1072.036,0.099
2582.0,1072.048,0.099
2584.0,1072.046,0.098
2586.0,1072.048,0.098
2588.0,1072.049,0.098
2590.0,1072.06,0.098
2592.0,1072.06,0.098
2594.0,1072.067,0.098
2596.0,1072.07,0.098
2598.0,1072.067,0.098
2600.0,1072.078,0.098
2602.0,1072.085,0.098
2604.0,1072.092,0.098
2606.0,1072.087,0.098
2608.0,1072.085,0.098
2610.0,1072.095,0.098
2612.0,1072.101,0.098
2614.0,1072.097,0.098
2616.0,1072.109,0.098
2618.0,1072.102,0.098
2620.0,1072.109,0.098
2622.0,1072.111,0.098
2624.0,1072.11,0.098
2626.0,1072.119,0.098
2628.0,1072.111,0.098
2630.0,1072.117,0.098
2632.0,1072.121,0.098
2634.0,1072.128,0.098
2636.0,1072.123,0.098
2638.0,1072.132,0.098
2640.0,1072.133,0.098
2642.0,1072.138,0.098
2644.0,1072.132,0.098
2646.0,1072.144,0.098
2648.0,1072.144,0.098
2650.0,1072.147,0.098
2652.0,1072.151,0.098
2654.0,1072.155,0.098
2655.0,1072.159,0.098