File: Wood/Calibration_Data/TUBS/TUBS_TGA_N2_30K_R3.csv
Time (s),Temperature (K),Mass (mg)
0.0,305.074,1.02
2.0,305.076,1.02
4.0,305.058,1.019
6.0,305.054,1.019
8.0,305.018,1.019
10.0,305.04,1.018
12.0,305.009,1.018
14.0,305.009,1.018
16.0,305.013,1.018
18.0,304.999,1.018
20.0,304.984,1.017
22.0,304.966,1.017
24.0,304.955,1.017
26.0,304.949,1.017
28.0,304.952,1.016
30.0,304.939,1.016
32.0,304.932,1.016
34.0,304.932,1.016
36.0,304.925,1.016
38.0,304.909,1.016
40.0,304.902,1.015
42.0,304.893,1.015
44.0,304.889,1.015
46.0,304.88,1.015
48.0,304.886,1.015
50.0,304.871,1.015
52.0,304.869,1.014
54.0,304.861,1.014
56.0,304.854,1.014
58.0,304.844,1.014
60.0,304.831,1.014
62.0,304.832,1.014
64.0,304.827,1.013
66.0,304.833,1.013
68.0,304.809,1.013
70.0,304.828,1.013
72.0,304.804,1.013
74.0,304.806,1.013
76.0,304.782,1.013
78.0,304.809,1.013
80.0,304.78,1.012
82.0,304.79,1.012
84.0,304.79,1.012
86.0,304.768,1.012
88.0,304.764,1.012
90.0,304.753,1.012
92.0,304.757,1.012
94.0,304.76,1.012
96.0,304.75,1.012
98.0,304.752,1.011
100.0,304.737,1.011
102.0,304.756,1.011
104.0,304.743,1.011
106.0,304.744,1.011
108.0,304.737,1.011
110.0,304.737,1.011
112.0,304.731,1.011
114.0,304.72,1.011
116.0,304.698,1.011
118.0,304.706,1.01
120.0,304.722,1.01
122.0,304.709,1.01
124.0,304.702,1.01
126.0,304.698,1.01
128.0,304.696,1.01
130.0,304.696,1.01
132.0,304.686,1.01
134.0,304.681,1.01
136.0,304.684,1.01
138.0,304.684,1.01
140.0,304.683,1.01
142.0,304.665,1.01
144.0,304.678,1.01
146.0,304.666,1.01
148.0,304.672,1.01
150.0,304.675,1.009
152.0,304.665,1.009
154.0,304.672,1.009
156.0,304.664,1.009
158.0,304.659,1.009
160.0,304.652,1.009
162.0,304.659,1.009
164.0,304.647,1.009
166.0,304.657,1.009
168.0,304.644,1.009
170.0,304.647,1.009
172.0,304.656,1.009
174.0,304.648,1.009
176.0,304.638,1.009
178.0,304.624,1.009
180.0,304.627,1.008
182.0,304.621,1.008
184.0,304.614,1.008
186.0,304.619,1.008
188.0,304.61,1.008
190.0,304.604,1.008
192.0,304.616,1.008
194.0,304.629,1.008
196.0,304.6,1.008
198.0,304.605,1.008
200.0,304.612,1.008
202.0,304.591,1.008
204.0,304.604,1.008
206.0,304.608,1.008
208.0,304.607,1.008
210.0,304.597,1.008
212.0,304.58,1.008
214.0,304.596,1.008
216.0,304.595,1.008
218.0,304.585,1.007
220.0,304.589,1.007
222.0,304.593,1.007
224.0,304.577,1.007
226.0,304.597,1.007
228.0,304.588,1.007
230.0,304.578,1.007
232.0,304.583,1.007
234.0,304.578,1.007
236.0,304.592,1.007
238.0,304.591,1.007
240.0,304.562,1.007
242.0,304.565,1.007
244.0,304.575,1.007
246.0,304.559,1.007
248.0,304.553,1.007
250.0,304.564,1.007
252.0,304.562,1.007
254.0,304.551,1.007
256.0,304.561,1.007
258.0,304.552,1.007
260.0,304.544,1.007
262.0,304.553,1.007
264.0,304.56,1.007
266.0,304.556,1.007
268.0,304.545,1.007
270.0,304.546,1.007
272.0,304.545,1.007
274.0,304.551,1.007
276.0,304.56,1.007
278.0,304.542,1.006
280.0,304.537,1.006
282.0,304.536,1.006
284.0,304.548,1.006
286.0,304.54,1.006
288.0,304.536,1.006
290.0,304.525,1.006
292.0,304.536,1.006
294.0,304.531,1.006
296.0,304.535,1.006
298.0,304.545,1.006
300.0,304.539,1.006
302.0,304.534,1.006
304.0,304.549,1.006
306.0,304.555,1.006
308.0,304.537,1.006
310.0,304.536,1.006
312.0,304.529,1.006
314.0,304.528,1.006
316.0,304.522,1.006
318.0,304.524,1.006
320.0,304.514,1.006
322.0,304.516,1.006
324.0,304.518,1.006
326.0,304.51,1.006
328.0,304.521,1.006
330.0,304.508,1.006
332.0,304.516,1.006
334.0,304.507,1.006
336.0,304.499,1.006
338.0,304.505,1.006
340.0,304.506,1.005
342.0,304.51,1.005
344.0,304.514,1.005
346.0,304.524,1.005
348.0,304.504,1.005
350.0,304.504,1.005
352.0,304.508,1.005
354.0,304.488,1.005
356.0,304.513,1.005
358.0,304.512,1.005
360.0,304.5,1.005
362.0,304.502,1.005
364.0,304.502,1.005
366.0,304.502,1.005
368.0,304.498,1.005
370.0,304.494,1.005
372.0,304.502,1.005
374.0,304.5,1.005
376.0,304.496,1.005
378.0,304.499,1.005
380.0,304.498,1.005
382.0,304.516,1.005
384.0,304.513,1.005
386.0,304.494,1.005
388.0,304.484,1.005
390.0,304.488,1.005
392.0,304.501,1.005
394.0,304.49,1.005
396.0,304.485,1.005
398.0,304.483,1.005
400.0,304.491,1.005
402.0,304.478,1.005
404.0,304.478,1.005
406.0,304.479,1.005
408.0,304.49,1.005
410.0,304.489,1.005
412.0,304.498,1.005
414.0,304.484,1.005
416.0,304.496,1.005
418.0,304.502,1.005
420.0,304.505,1.005
422.0,304.492,1.004
424.0,304.491,1.004
426.0,304.499,1.004
428.0,304.5,1.004
430.0,304.504,1.005
432.0,304.488,1.005
434.0,304.496,1.005
436.0,304.487,1.005
438.0,304.483,1.005
440.0,304.481,1.005
442.0,304.489,1.005
444.0,304.48,1.005
446.0,304.485,1.005
448.0,304.476,1.005
450.0,304.482,1.005
452.0,304.485,1.005
454.0,304.497,1.004
456.0,304.491,1.004
458.0,304.486,1.004
460.0,304.495,1.004
462.0,304.476,1.004
464.0,304.476,1.004
466.0,304.497,1.004
468.0,304.48,1.004
470.0,304.474,1.004
472.0,304.468,1.004
474.0,304.49,1.004
476.0,304.495,1.004
478.0,304.49,1.004
480.0,304.489,1.004
482.0,304.483,1.004
484.0,304.495,1.004
486.0,304.48,1.004
488.0,304.488,1.004
490.0,304.488,1.004
492.0,304.481,1.004
494.0,304.47,1.004
496.0,304.483,1.004
498.0,304.475,1.004
500.0,304.494,1.004
502.0,304.487,1.004
504.0,304.493,1.004
506.0,304.472,1.004
508.0,304.481,1.004
510.0,304.486,1.004
512.0,304.476,1.004
514.0,304.478,1.004
516.0,304.476,1.004
518.0,304.48,1.004
520.0,304.459,1.004
522.0,304.482,1.004
524.0,304.484,1.004
526.0,304.495,1.004
528.0,304.489,1.004
530.0,304.494,1.004
532.0,304.476,1.004
534.0,304.476,1.004
536.0,304.49,1.004
538.0,304.488,1.004
540.0,304.482,1.004
542.0,304.484,1.004
544.0,304.48,1.004
546.0,304.472,1.004
548.0,304.478,1.004
550.0,304.48,1.004
552.0,304.488,1.004
554.0,304.48,1.004
556.0,304.484,1.004
558.0,304.484,1.004
560.0,304.498,1.004
562.0,304.486,1.004
564.0,304.471,1.004
566.0,304.471,1.004
568.0,304.489,1.004
570.0,304.471,1.004
572.0,304.483,1.004
574.0,304.475,1.004
576.0,304.465,1.004
578.0,304.481,1.004
580.0,304.475,1.004
582.0,304.468,1.004
584.0,304.482,1.004
586.0,304.472,1.004
588.0,304.462,1.004
590.0,304.467,1.004
592.0,304.477,1.004
594.0,304.485,1.004
596.0,304.482,1.004
598.0,304.481,1.004
600.0,304.486,1.004
602.0,304.493,1.004
604.0,304.482,1.004
606.0,304.471,1.004
608.0,304.487,1.004
610.0,304.468,1.003
612.0,304.479,1.003
614.0,304.475,1.003
616.0,304.502,1.004
618.0,304.471,1.004
620.0,304.488,1.004
622.0,304.484,1.004
624.0,304.465,1.004
626.0,304.488,1.004
628.0,304.461,1.004
630.0,304.466,1.004
632.0,304.487,1.004
634.0,304.471,1.004
636.0,304.482,1.004
638.0,304.474,1.004
640.0,304.478,1.004
642.0,304.479,1.004
644.0,304.472,1.004
646.0,304.469,1.003
648.0,304.475,1.003
650.0,304.477,1.003
652.0,304.483,1.003
654.0,304.481,1.003
656.0,304.471,1.003
658.0,304.473,1.003
660.0,304.474,1.003
662.0,304.467,1.003
664.0,304.488,1.003
666.0,304.473,1.003
668.0,304.48,1.003
670.0,304.45,1.003
672.0,304.473,1.003
674.0,304.46,1.003
676.0,304.464,1.003
678.0,304.478,1.003
680.0,304.469,1.003
682.0,304.453,1.003
684.0,304.457,1.003
686.0,304.466,1.003
688.0,304.476,1.003
690.0,304.457,1.003
692.0,304.465,1.003
694.0,304.469,1.003
696.0,304.473,1.003
698.0,304.468,1.003
700.0,304.47,1.003
702.0,304.468,1.003
704.0,304.465,1.003
706.0,304.47,1.003
708.0,304.463,1.003
710.0,304.473,1.003
712.0,304.473,1.003
714.0,304.469,1.003
716.0,304.466,1.003
718.0,304.462,1.003
720.0,304.455,1.003
722.0,304.47,1.003
724.0,304.465,1.003
726.0,304.463,1.003
728.0,304.454,1.003
730.0,304.46,1.003
732.0,304.464,1.003
734.0,304.474,1.003
736.0,304.468,1.003
738.0,304.479,1.003
740.0,304.462,1.003
742.0,304.464,1.003
744.0,304.466,1.003
746.0,304.461,1.003
748.0,304.471,1.003
750.0,304.472,1.003
752.0,304.473,1.003
754.0,304.456,1.003
756.0,304.456,1.003
758.0,304.466,1.003
760.0,304.471,1.003
762.0,304.478,1.003
764.0,304.458,1.003
766.0,304.466,1.003
768.0,304.467,1.003
770.0,304.466,1.003
772.0,304.465,1.003
774.0,304.452,1.003
776.0,304.453,1.003
778.0,304.455,1.003
780.0,304.476,1.003
782.0,304.46,1.003
784.0,304.47,1.003
786.0,304.464,1.003
788.0,304.464,1.003
790.0,304.458,1.003
792.0,304.459,1.003
794.0,304.462,1.003
796.0,304.45,1.003
798.0,304.471,1.003
800.0,304.466,1.003
802.0,304.466,1.003
804.0,304.456,1.003
806.0,304.457,1.003
808.0,304.461,1.003
810.0,304.461,1.003
812.0,304.466,1.003
814.0,304.463,1.003
816.0,304.452,1.003
818.0,304.472,1.003
820.0,304.458,1.003
822.0,304.463,1.003
824.0,304.453,1.003
826.0,304.462,1.003
828.0,304.446,1.003
830.0,304.458,1.003
832.0,304.46,1.003
834.0,304.467,1.003
836.0,304.461,1.003
838.0,304.466,1.003
840.0,304.462,1.003
842.0,304.456,1.003
844.0,304.474,1.003
846.0,304.452,1.003
848.0,304.475,1.003
850.0,304.466,1.003
852.0,304.456,1.003
854.0,304.485,1.003
856.0,304.469,1.003
858.0,304.473,1.003
860.0,304.469,1.003
862.0,304.462,1.003
864.0,304.471,1.003
866.0,304.46,1.003
868.0,304.469,1.003
870.0,304.47,1.003
872.0,304.461,1.003
874.0,304.458,1.003
876.0,304.478,1.003
878.0,304.461,1.003
880.0,304.471,1.003
882.0,304.462,1.003
884.0,304.468,1.003
886.0,304.474,1.003
888.0,304.467,1.003
890.0,304.477,1.003
892.0,304.472,1.003
894.0,304.465,1.003
896.0,304.483,1.003
898.0,304.481,1.003
900.0,304.464,1.003
902.0,304.471,1.003
904.0,304.471,1.003
906.0,304.473,1.003
908.0,304.46,1.003
910.0,304.46,1.003
912.0,304.447,1.003
914.0,304.48,1.003
916.0,304.465,1.003
918.0,304.456,1.003
920.0,304.479,1.003
922.0,304.482,1.003
924.0,304.469,1.003
926.0,304.471,1.003
928.0,304.461,1.003
930.0,304.48,1.003
932.0,304.481,1.003
934.0,304.474,1.003
936.0,304.482,1.003
938.0,304.472,1.003
940.0,304.468,1.003
942.0,304.463,1.003
944.0,304.459,1.003
946.0,304.468,1.003
948.0,304.47,1.003
950.0,304.468,1.003
952.0,304.464,1.003
954.0,304.465,1.003
956.0,304.464,1.003
958.0,304.47,1.003
960.0,304.481,1.003
962.0,304.481,1.003
964.0,304.48,1.003
966.0,304.479,1.003
968.0,304.456,1.003
970.0,304.48,1.003
972.0,304.496,1.003
974.0,304.486,1.003
976.0,304.485,1.003
978.0,304.472,1.003
980.0,304.472,1.003
982.0,304.487,1.003
984.0,304.468,1.003
986.0,304.482,1.003
988.0,304.47,1.003
990.0,304.466,1.003
992.0,304.476,1.003
994.0,304.468,1.003
996.0,304.475,1.003
998.0,304.456,1.003
1000.0,304.464,1.003
1002.0,304.477,1.003
1004.0,304.473,1.003
1006.0,304.475,1.003
1008.0,304.473,1.003
1010.0,304.464,1.003
1012.0,304.466,1.003
1014.0,304.473,1.003
1016.0,304.451,1.003
1018.0,304.488,1.003
1020.0,304.48,1.003
1022.0,304.463,1.003
1024.0,304.48,1.003
1026.0,304.461,1.003
1028.0,304.464,1.003
1030.0,304.448,1.003
1032.0,304.459,1.003
1034.0,304.461,1.003
1036.0,304.467,1.002
1038.0,304.45,1.002
1040.0,304.45,1.002
1042.0,304.46,1.002
1044.0,304.474,1.002
1046.0,304.464,1.002
1048.0,304.459,1.002
1050.0,304.455,1.002
1052.0,304.461,1.002
1054.0,304.447,1.002
1056.0,304.456,1.002
1058.0,304.462,1.002
1060.0,304.458,1.002
1062.0,304.46,1.002
1064.0,304.452,1.002
1066.0,304.465,1.002
1068.0,304.47,1.002
1070.0,304.471,1.002
1072.0,304.47,1.002
1074.0,304.481,1.002
1076.0,304.464,1.002
1078.0,304.467,1.002
1080.0,304.484,1.002
1082.0,304.46,1.002
1084.0,304.462,1.002
1086.0,304.473,1.002
1088.0,304.451,1.002
1090.0,304.461,1.002
1092.0,304.461,1.002
1094.0,304.462,1.002
1096.0,304.471,1.002
1098.0,304.474,1.003
1100.0,304.454,1.003
1102.0,304.476,1.003
1104.0,304.45,1.003
1106.0,304.454,1.003
1108.0,304.459,1.003
1110.0,304.476,1.003
1112.0,304.457,1.003
1114.0,304.49,1.003
1116.0,304.476,1.003
1118.0,304.461,1.003
1120.0,304.474,1.003
1122.0,304.465,1.003
1124.0,304.464,1.003
1126.0,304.477,1.003
1128.0,304.465,1.003
1130.0,304.472,1.003
1132.0,304.473,1.003
1134.0,304.457,1.003
1136.0,304.472,1.002
1138.0,304.487,1.002
1140.0,304.472,1.002
1142.0,304.484,1.002
1144.0,304.471,1.002
1146.0,304.468,1.002
1148.0,304.482,1.002
1150.0,304.467,1.003
1152.0,304.476,1.003
1154.0,304.478,1.003
1156.0,304.47,1.003
1158.0,304.471,1.003
1160.0,304.466,1.003
1162.0,304.466,1.003
1164.0,304.472,1.003
1166.0,304.477,1.003
1168.0,304.458,1.003
1170.0,304.456,1.003
1172.0,304.457,1.003
1174.0,304.447,1.003
1176.0,304.451,1.003
1178.0,304.469,1.003
1180.0,304.472,1.003
1182.0,304.458,1.003
1184.0,304.455,1.003
1186.0,304.474,1.003
1188.0,304.46,1.003
1190.0,304.47,1.003
1192.0,304.467,1.003
1194.0,304.457,1.003
1196.0,304.455,1.003
1198.0,304.446,1.003
1200.0,304.463,1.002
1202.0,304.537,1.002
1204.0,305.078,1.001
1206.0,305.883,1.0
1208.0,306.596,1.0
1210.0,307.57,1.001
1212.0,308.679,1.002
1214.0,309.848,1.004
1216.0,311.062,1.005
1218.0,312.326,1.005
1220.0,313.617,1.005
1222.0,314.9,1.005
1224.0,316.175,1.005
1226.0,317.498,1.005
1228.0,318.806,1.004
1230.0,320.099,1.004
1232.0,321.411,1.003
1234.0,322.725,1.003
1236.0,324.054,1.003
1238.0,325.351,1.003
1240.0,326.662,1.002
1242.0,328.0,1.002
1244.0,329.295,1.002
1246.0,330.626,1.002
1248.0,331.934,1.002
1250.0,333.245,1.001
1252.0,334.555,1.001
1254.0,335.878,1.001
1256.0,337.189,1.001
1258.0,338.512,1.0
1260.0,339.833,1.0
1262.0,341.151,1.0
1264.0,342.461,1.0
1266.0,343.773,0.999
1268.0,345.096,0.999
1270.0,346.425,0.998
1272.0,347.718,0.998
1274.0,349.042,0.998
1276.0,350.371,0.997
1278.0,351.674,0.997
1280.0,353.002,0.997
1282.0,354.322,0.997
1284.0,355.642,0.996
1286.0,356.971,0.996
1288.0,358.286,0.996
1290.0,359.616,0.995
1292.0,360.937,0.995
1294.0,362.238,0.995
1296.0,363.549,0.995
1298.0,364.886,0.994
1300.0,366.206,0.994
1302.0,367.548,0.994
1304.0,368.868,0.994
1306.0,370.174,0.994
1308.0,371.497,0.993
1310.0,372.834,0.993
1312.0,374.163,0.993
1314.0,375.488,0.993
1316.0,376.818,0.993
1318.0,378.147,0.993
1320.0,379.469,0.993
1322.0,380.807,0.993
1324.0,382.135,0.993
1326.0,383.467,0.993
1328.0,384.785,0.993
1330.0,386.134,0.992
1332.0,387.456,0.992
1334.0,388.796,0.992
1336.0,390.141,0.992
1338.0,391.467,0.992
1340.0,392.796,0.992
1342.0,394.142,0.993
1344.0,395.483,0.992
1346.0,396.811,0.992
1348.0,398.156,0.992
1350.0,399.495,0.992
1352.0,400.839,0.992
1354.0,402.172,0.992
1356.0,403.504,0.992
1358.0,404.853,0.992
1360.0,406.189,0.992
1362.0,407.535,0.992
1364.0,408.886,0.992
1366.0,410.22,0.992
1368.0,411.573,0.992
1370.0,412.921,0.992
1372.0,414.259,0.992
1374.0,415.611,0.992
1376.0,416.965,0.992
1378.0,418.3,0.992
1380.0,419.656,0.992
1382.0,421.023,0.992
1384.0,422.355,0.992
1386.0,423.709,0.992
1388.0,425.053,0.992
1390.0,426.408,0.992
1392.0,427.75,0.992
1394.0,429.109,0.992
1396.0,430.457,0.992
1398.0,431.815,0.992
1400.0,433.179,0.991
1402.0,434.535,0.991
1404.0,435.878,0.991
1406.0,437.25,0.991
1408.0,438.603,0.991
1410.0,439.951,0.991
1412.0,441.32,0.991
1414.0,442.668,0.991
1416.0,444.032,0.991
1418.0,445.392,0.99
1420.0,446.748,0.99
1422.0,448.112,0.99
1424.0,449.47,0.99
1426.0,450.835,0.99
1428.0,452.19,0.99
1430.0,453.553,0.99
1432.0,454.94,0.989
1434.0,456.294,0.989
1436.0,457.659,0.989
1438.0,459.024,0.989
1440.0,460.397,0.988
1442.0,461.752,0.988
1444.0,463.132,0.988
1446.0,464.506,0.987
1448.0,465.862,0.987
1450.0,467.231,0.987
1452.0,468.599,0.986
1454.0,469.968,0.986
1456.0,471.335,0.985
1458.0,472.708,0.985
1460.0,474.091,0.985
1462.0,475.454,0.984
1464.0,476.817,0.984
1466.0,478.182,0.983
1468.0,479.553,0.983
1470.0,480.924,0.982
1472.0,482.292,0.982
1474.0,483.664,0.981
1476.0,485.037,0.981
1478.0,486.421,0.98
1480.0,487.786,0.98
1482.0,489.159,0.979
1484.0,490.523,0.979
1486.0,491.89,0.978
1488.0,493.258,0.977
1490.0,494.626,0.977
1492.0,496.001,0.976
1494.0,497.376,0.975
1496.0,498.741,0.975
1498.0,500.122,0.974
1500.0,501.479,0.973
1502.0,502.864,0.972
1504.0,504.234,0.972
1506.0,505.607,0.971
1508.0,506.977,0.97
1510.0,508.341,0.969
1512.0,509.718,0.968
1514.0,511.087,0.968
1516.0,512.452,0.967
1518.0,513.833,0.966
1520.0,515.198,0.965
1522.0,516.572,0.964
1524.0,517.94,0.963
1526.0,519.313,0.962
1528.0,520.671,0.961
1530.0,522.05,0.96
1532.0,523.408,0.959
1534.0,524.791,0.957
1536.0,526.15,0.956
1538.0,527.52,0.955
1540.0,528.89,0.953
1542.0,530.253,0.952
1544.0,531.625,0.951
1546.0,532.99,0.949
1548.0,534.361,0.948
1550.0,535.726,0.946
1552.0,537.093,0.944
1554.0,538.464,0.943
1556.0,539.823,0.941
1558.0,541.187,0.939
1560.0,542.557,0.937
1562.0,543.92,0.936
1564.0,545.294,0.934
1566.0,546.648,0.932
1568.0,548.014,0.929
1570.0,549.374,0.927
1572.0,550.744,0.925
1574.0,552.116,0.923
1576.0,553.47,0.92
1578.0,554.835,0.918
1580.0,556.205,0.916
1582.0,557.563,0.914
1584.0,558.929,0.911
1586.0,560.29,0.909
1588.0,561.643,0.907
1590.0,563.007,0.904
1592.0,564.363,0.901
1594.0,565.728,0.899
1596.0,567.077,0.896
1598.0,568.447,0.893
1600.0,569.806,0.891
1602.0,571.165,0.888
1604.0,572.524,0.886
1606.0,573.887,0.883
1608.0,575.239,0.88
1610.0,576.592,0.877
1612.0,577.952,0.874
1614.0,579.299,0.871
1616.0,580.666,0.868
1618.0,582.02,0.865
1620.0,583.373,0.861
1622.0,584.731,0.858
1624.0,586.079,0.855
1626.0,587.434,0.851
1628.0,588.795,0.848
1630.0,590.146,0.844
1632.0,591.489,0.841
1634.0,592.852,0.837
1636.0,594.189,0.833
1638.0,595.536,0.829
1640.0,596.894,0.825
1642.0,598.248,0.821
1644.0,599.601,0.816
1646.0,600.94,0.812
1648.0,602.288,0.807
1650.0,603.636,0.803
1652.0,604.986,0.798
1654.0,606.337,0.793
1656.0,607.676,0.788
1658.0,609.02,0.783
1660.0,610.371,0.777
1662.0,611.715,0.772
1664.0,613.063,0.767
1666.0,614.409,0.761
1668.0,615.76,0.755
1670.0,617.099,0.749
1672.0,618.441,0.743
1674.0,619.785,0.737
1676.0,621.119,0.73
1678.0,622.462,0.724
1680.0,623.805,0.717
1682.0,625.144,0.71
1684.0,626.487,0.703
1686.0,627.822,0.697
1688.0,629.155,0.689
1690.0,630.496,0.682
1692.0,631.839,0.675
1694.0,633.177,0.668
1696.0,634.509,0.66
1698.0,635.852,0.653
1700.0,637.185,0.645
1702.0,638.514,0.637
1704.0,639.85,0.629
1706.0,641.184,0.621
1708.0,642.523,0.613
1710.0,643.854,0.605
1712.0,645.192,0.596
1714.0,646.517,0.588
1716.0,647.857,0.579
1718.0,649.187,0.571
1720.0,650.516,0.562
1722.0,651.851,0.553
1724.0,653.181,0.544
1726.0,654.498,0.535
1728.0,655.821,0.525
1730.0,657.153,0.515
1732.0,658.466,0.506
1734.0,659.798,0.495
1736.0,661.126,0.485
1738.0,662.452,0.475
1740.0,663.771,0.464
1742.0,665.097,0.453
1744.0,666.418,0.442
1746.0,667.735,0.431
1748.0,669.062,0.419
1750.0,670.384,0.408
1752.0,671.711,0.396
1754.0,673.033,0.384
1756.0,674.356,0.372
1758.0,675.678,0.36
1760.0,676.997,0.349
1762.0,678.321,0.337
1764.0,679.651,0.326
1766.0,680.973,0.315
1768.0,682.306,0.304
1770.0,683.63,0.294
1772.0,684.954,0.284
1774.0,686.284,0.276
1776.0,687.606,0.268
1778.0,688.935,0.26
1780.0,690.247,0.254
1782.0,691.586,0.248
1784.0,692.902,0.244
1786.0,694.219,0.239
1788.0,695.552,0.236
1790.0,696.879,0.233
1792.0,698.196,0.231
1794.0,699.519,0.229
1796.0,700.848,0.228
1798.0,702.177,0.226
1800.0,703.491,0.225
1802.0,704.805,0.224
1804.0,706.134,0.223
1806.0,707.447,0.222
1808.0,708.773,0.221
1810.0,710.09,0.22
1812.0,711.413,0.219
1814.0,712.731,0.218
1816.0,714.058,0.218
1818.0,715.374,0.217
1820.0,716.69,0.216
1822.0,718.011,0.215
1824.0,719.331,0.214
1826.0,720.643,0.213
1828.0,721.966,0.213
1830.0,723.289,0.212
1832.0,724.603,0.211
1834.0,725.919,0.21
1836.0,727.248,0.21
1838.0,728.559,0.209
1840.0,729.879,0.208
1842.0,731.192,0.207
1844.0,732.508,0.207
1846.0,733.831,0.206
1848.0,735.153,0.205
1850.0,736.466,0.204
1852.0,737.784,0.204
1854.0,739.109,0.203
1856.0,740.424,0.202
1858.0,741.737,0.202
1860.0,743.056,0.201
1862.0,744.37,0.201
1864.0,745.686,0.2
1866.0,747.003,0.199
1868.0,748.325,0.199
1870.0,749.638,0.198
1872.0,750.96,0.198
1874.0,752.268,0.197
1876.0,753.591,0.196
1878.0,754.907,0.196
1880.0,756.214,0.195
1882.0,757.532,0.194
1884.0,758.85,0.194
1886.0,760.17,0.193
1888.0,761.489,0.193
1890.0,762.805,0.192
1892.0,764.125,0.192
1894.0,765.443,0.191
1896.0,766.76,0.191
1898.0,768.074,0.191
1900.0,769.389,0.19
1902.0,770.705,0.19
1904.0,772.032,0.189
1906.0,773.343,0.189
1908.0,774.655,0.188
1910.0,775.976,0.188
1912.0,777.288,0.188
1914.0,778.612,0.187
1916.0,779.93,0.187
1918.0,781.241,0.187
1920.0,782.566,0.186
1922.0,783.868,0.186
1924.0,785.192,0.185
1926.0,786.514,0.185
1928.0,787.828,0.185
1930.0,789.145,0.184
1932.0,790.466,0.184
1934.0,791.779,0.184
1936.0,793.101,0.183
1938.0,794.417,0.183
1940.0,795.739,0.183
1942.0,797.059,0.182
1944.0,798.37,0.182
1946.0,799.686,0.182
1948.0,801.009,0.181
1950.0,802.325,0.181
1952.0,803.643,0.181
1954.0,804.959,0.18
1956.0,806.272,0.18
1958.0,807.596,0.18
1960.0,808.908,0.18
1962.0,810.22,0.179
1964.0,811.55,0.179
1966.0,812.867,0.179
1968.0,814.184,0.178
1970.0,815.504,0.178
1972.0,816.82,0.178
1974.0,818.137,0.178
1976.0,819.462,0.177
1978.0,820.785,0.177
1980.0,822.101,0.177
1982.0,823.425,0.177
1984.0,824.734,0.176
1986.0,826.057,0.176
1988.0,827.371,0.176
1990.0,828.688,0.176
1992.0,830.008,0.175
1994.0,831.324,0.175
1996.0,832.653,0.175
1998.0,833.953,0.175
2000.0,835.289,0.174
2002.0,836.598,0.174
2004.0,837.927,0.174
2006.0,839.241,0.174
2008.0,840.566,0.174
2010.0,841.888,0.173
2012.0,843.196,0.173
2014.0,844.516,0.173
2016.0,845.84,0.173
2018.0,847.164,0.172
2020.0,848.476,0.172
2022.0,849.8,0.172
2024.0,851.109,0.172
2026.0,852.43,0.171
2028.0,853.753,0.171
2030.0,855.069,0.171
2032.0,856.388,0.171
2034.0,857.707,0.171
2036.0,859.031,0.17
2038.0,860.341,0.17
2040.0,861.663,0.17
2042.0,862.981,0.17
2044.0,864.305,0.17
2046.0,865.633,0.17
2048.0,866.945,0.169
2050.0,868.274,0.169
2052.0,869.589,0.169
2054.0,870.916,0.169
2056.0,872.229,0.168
2058.0,873.558,0.168
2060.0,874.875,0.168
2062.0,876.189,0.168
2064.0,877.516,0.168
2066.0,878.842,0.167
2068.0,880.159,0.167
2070.0,881.486,0.167
2072.0,882.809,0.167
2074.0,884.116,0.167
2076.0,885.446,0.166
2078.0,886.77,0.166
2080.0,888.1,0.166
2082.0,889.421,0.166
2084.0,890.741,0.166
2086.0,892.069,0.166
2088.0,893.383,0.165
2090.0,894.713,0.165
2092.0,896.032,0.165
2094.0,897.366,0.165
2096.0,898.686,0.165
2098.0,900.013,0.165
2100.0,901.334,0.164
2102.0,902.656,0.164
2104.0,903.976,0.164
2106.0,905.303,0.164
2108.0,906.634,0.164
2110.0,907.955,0.164
2112.0,909.284,0.163
2114.0,910.601,0.163
2116.0,911.916,0.163
2118.0,913.247,0.163
2120.0,914.567,0.163
2122.0,915.889,0.163
2124.0,917.215,0.163
2126.0,918.538,0.162
2128.0,919.864,0.162
2130.0,921.183,0.162
2132.0,922.516,0.162
2134.0,923.846,0.162
2136.0,925.167,0.162
2138.0,926.49,0.162
2140.0,927.829,0.161
2142.0,929.154,0.161
2144.0,930.47,0.161
2146.0,931.799,0.161
2148.0,933.116,0.161
2150.0,934.452,0.161
2152.0,935.776,0.16
2154.0,937.099,0.16
2156.0,938.425,0.16
2158.0,939.751,0.16
2160.0,941.069,0.16
2162.0,942.399,0.16
2164.0,943.729,0.16
2166.0,945.049,0.16
2168.0,946.369,0.16
2170.0,947.696,0.159
2172.0,949.023,0.159
2174.0,950.364,0.159
2176.0,951.69,0.159
2178.0,953.008,0.159
2180.0,954.337,0.159
2182.0,955.665,0.159
2184.0,956.996,0.159
2186.0,958.318,0.158
2188.0,959.648,0.158
2190.0,960.976,0.158
2192.0,962.294,0.158
2194.0,963.627,0.158
2196.0,964.952,0.158
2198.0,966.286,0.158
2200.0,967.608,0.158
2202.0,968.927,0.158
2204.0,970.258,0.158
2206.0,971.593,0.158
2208.0,972.907,0.157
2210.0,974.235,0.157
2212.0,975.571,0.157
2214.0,976.901,0.157
2216.0,978.226,0.157
2218.0,979.556,0.157
2220.0,980.882,0.157
2222.0,982.202,0.157
2224.0,983.537,0.157
2226.0,984.864,0.157
2228.0,986.192,0.156
2230.0,987.52,0.156
2232.0,988.853,0.156
2234.0,990.185,0.156
2236.0,991.512,0.156
2238.0,992.841,0.156
2240.0,994.173,0.156
2242.0,995.501,0.156
2244.0,996.831,0.156
2246.0,998.154,0.156
2248.0,999.49,0.155
2250.0,1000.826,0.155
2252.0,1002.157,0.155
2254.0,1003.486,0.155
2256.0,1004.813,0.155
2258.0,1006.146,0.155
2260.0,1007.48,0.155
2262.0,1008.805,0.155
2264.0,1010.134,0.155
2266.0,1011.466,0.155
2268.0,1012.796,0.155
2270.0,1014.134,0.154
2272.0,1015.468,0.154
2274.0,1016.795,0.154
2276.0,1018.136,0.154
2278.0,1019.456,0.154
2280.0,1020.793,0.154
2282.0,1022.126,0.154
2284.0,1023.458,0.154
2286.0,1024.781,0.154
2288.0,1026.126,0.154
2290.0,1027.459,0.154
2292.0,1028.79,0.154
2294.0,1030.119,0.154
2296.0,1031.447,0.154
2298.0,1032.784,0.153
2300.0,1034.119,0.153
2302.0,1035.455,0.153
2304.0,1036.786,0.153
2306.0,1038.122,0.153
2308.0,1039.46,0.153
2310.0,1040.785,0.153
2312.0,1042.117,0.153
2314.0,1043.455,0.153
2316.0,1044.797,0.153
2318.0,1046.129,0.153
2320.0,1047.459,0.153
2322.0,1048.789,0.153
2324.0,1050.128,0.152
2326.0,1051.455,0.152
2328.0,1052.797,0.152
2330.0,1054.13,0.152
2332.0,1055.464,0.152
2334.0,1056.789,0.152
2336.0,1057.895,0.152
2338.0,1058.696,0.152
2340.0,1059.641,0.152
2342.0,1060.516,0.152
2344.0,1061.313,0.151
2346.0,1062.052,0.151
2348.0,1062.738,0.151
2350.0,1063.358,0.151
2352.0,1063.947,0.151
2354.0,1064.478,0.151
2356.0,1064.968,0.151
2358.0,1065.423,0.151
2360.0,1065.846,0.151
2362.0,1066.229,0.151
2364.0,1066.596,0.151
2366.0,1066.926,0.151
2368.0,1067.245,0.151
2370.0,1067.522,0.151
2372.0,1067.795,0.151
2374.0,1068.044,0.151
2376.0,1068.27,0.151
2378.0,1068.482,0.151
2380.0,1068.68,0.151
2382.0,1068.865,0.15
2384.0,1069.036,0.15
2386.0,1069.195,0.15
2388.0,1069.348,0.15
2390.0,1069.486,0.15
2392.0,1069.614,0.15
2394.0,1069.743,0.15
2396.0,1069.863,0.15
2398.0,1069.964,0.15
2400.0,1070.065,0.15
2402.0,1070.158,0.15
2404.0,1070.244,0.15
2406.0,1070.328,0.15
2408.0,1070.408,0.15
2410.0,1070.48,0.15
2412.0,1070.553,0.15
2414.0,1070.615,0.15
2416.0,1070.673,0.15
2418.0,1070.73,0.15
2420.0,1070.784,0.15
2422.0,1070.839,0.15
2424.0,1070.881,0.15
2426.0,1070.932,0.15
2428.0,1070.971,0.15
2430.0,1071.011,0.15
2432.0,1071.053,0.15
2434.0,1071.092,0.15
2436.0,1071.131,0.15
2438.0,1071.169,0.15
2440.0,1071.2,0.15
2442.0,1071.229,0.15
2444.0,1071.266,0.15
2446.0,1071.293,0.15
2448.0,1071.327,0.149
2450.0,1071.344,0.149
2452.0,1071.365,0.149
2454.0,1071.396,0.149
2456.0,1071.418,0.149
2458.0,1071.442,0.149
2460.0,1071.466,0.149
2462.0,1071.48,0.149
2464.0,1071.505,0.149
2466.0,1071.526,0.149
2468.0,1071.547,0.149
2470.0,1071.559,0.149
2472.0,1071.575,0.149
2474.0,1071.596,0.149
2476.0,1071.607,0.149
2478.0,1071.624,0.149
2480.0,1071.646,0.149
2482.0,1071.655,0.149
2484.0,1071.676,0.149
2486.0,1071.689,0.149
2488.0,1071.702,0.149
2490.0,1071.723,0.149
2492.0,1071.732,0.149
2494.0,1071.742,0.149
2496.0,1071.754,0.149
2498.0,1071.766,0.149
2500.0,1071.777,0.149
2502.0,1071.78,0.149
2504.0,1071.794,0.149
2506.0,1071.793,0.149
2508.0,1071.814,0.149
2510.0,1071.819,0.149
2512.0,1071.842,0.149
2514.0,1071.849,0.148
2516.0,1071.847,0.148
2518.0,1071.868,0.148
2520.0,1071.876,0.148
2522.0,1071.88,0.148
2524.0,1071.893,0.148
2526.0,1071.895,0.148
2528.0,1071.901,0.148
2530.0,1071.909,0.148
2532.0,1071.925,0.148
2534.0,1071.94,0.148
2536.0,1071.948,0.148
2538.0,1071.947,0.148
2540.0,1071.962,0.148
2542.0,1071.957,0.148
2544.0,1071.955,0.148
2546.0,1071.968,0.148
2548.0,1071.976,0.148
2550.0,1071.986,0.148
2552.0,1071.992,0.148
2554.0,1071.989,0.148
2556.0,1072.007,0.148
2558.0,1072.008,0.148
2560.0,1072.022,0.148
2562.0,1072.031,0.148
2564.0,1072.029,0.148
2566.0,1072.026,0.148
2568.0,1072.03,0.148
2570.0,1072.042,0.148
2572.0,1072.047,0.148
2574.0,1072.04,0.148
2576.0,1072.059,0.148
2578.0,1072.057,0.148
2580.0,1072.072,0.148
2582.0,1072.061,0.148
2584.0,1072.069,0.148
2586.0,1072.067,0.148
2588.0,1072.08,0.148
2590.0,1072.085,0.148
2592.0,1072.094,0.148
2594.0,1072.088,0.148
2596.0,1072.097,0.148
2598.0,1072.094,0.148
2600.0,1072.1,0.148
2602.0,1072.102,0.148
2604.0,1072.108,0.148
2606.0,1072.116,0.148
2608.0,1072.115,0.148
2610.0,1072.113,0.148
2612.0,1072.119,0.148
2614.0,1072.125,0.147
2616.0,1072.115,0.147
2618.0,1072.124,0.147
2620.0,1072.13,0.147
2622.0,1072.13,0.147
2624.0,1072.137,0.147
2626.0,1072.139,0.147
2628.0,1072.146,0.147
2630.0,1072.139,0.147
2632.0,1072.147,0.147
2634.0,1072.144,0.147
2636.0,1072.143,0.147
2638.0,1072.152,0.147
2640.0,1072.152,0.147
2642.0,1072.146,0.147
2644.0,1072.155,0.147
2646.0,1072.159,0.147
2648.0,1072.156,0.147
2650.0,1072.154,0.147
2652.0,1072.163,0.147
2654.0,1072.168,0.147
2655.0,1072.163,0.147