File: Wood/Calibration_Data/TUBS/TUBS_TGA_N2_50K_R2.csv
Time (s),Temperature (K),Mass (mg)
0.0,305.014,1.019
8.0,304.977,1.017
25.0,304.904,1.015
43.0,304.837,1.013
61.0,304.812,1.011
83.0,304.753,1.009
108.0,304.726,1.007
153.0,304.636,1.005
199.0,304.606,1.003
212.0,304.571,1.003
267.0,304.536,1.001
343.0,304.501,0.999
363.0,304.497,0.999
385.0,304.48,0.999
637.0,304.452,0.997
666.0,304.459,0.997
706.0,304.432,0.997
925.0,304.463,0.997
979.0,304.439,0.997
1045.0,304.47,0.997
1064.0,304.44,0.997
1116.0,304.459,0.997
1203.962,305.0,0.995
1206.107,306.0,0.994
1207.712,307.0,0.993
1209.491,308.0,0.993
1211.127,309.0,0.994
1212.579,310.0,0.995
1213.921,311.0,0.996
1215.233,312.0,0.997
1216.507,313.0,0.998
1217.775,314.0,0.998
1218.995,315.0,0.999
1220.235,316.0,0.999
1221.448,317.0,0.999
1222.662,318.0,0.999
1223.861,319.0,0.999
1225.085,320.0,0.999
1226.285,321.0,0.999
1227.489,322.0,0.999
1228.703,323.0,0.998
1229.894,324.0,0.998
1231.093,325.0,0.998
1232.296,326.0,0.997
1233.498,327.0,0.997
1234.702,328.0,0.997
1235.892,329.0,0.997
1237.09,330.0,0.996
1238.294,331.0,0.996
1239.505,332.0,0.996
1240.708,333.0,0.996
1241.9,334.0,0.995
1243.107,335.0,0.995
1244.318,336.0,0.995
1245.525,337.0,0.995
1246.725,338.0,0.994
1247.927,339.0,0.994
1249.145,340.0,0.994
1250.355,341.0,0.994
1251.562,342.0,0.994
1252.755,343.0,0.993
1253.961,344.0,0.993
1255.153,345.0,0.993
1256.352,346.0,0.993
1257.561,347.0,0.992
1258.777,348.0,0.992
1259.981,349.0,0.992
1261.186,350.0,0.992
1262.398,351.0,0.992
1263.61,352.0,0.991
1264.799,353.0,0.991
1266.012,354.0,0.991
1267.211,355.0,0.99
1268.422,356.0,0.99
1269.628,357.0,0.99
1270.823,358.0,0.989
1272.036,359.0,0.989
1273.245,360.0,0.989
1274.447,361.0,0.989
1275.642,362.0,0.989
1276.854,363.0,0.989
1278.072,364.0,0.989
1279.27,365.0,0.988
1280.471,366.0,0.988
1281.681,367.0,0.988
1282.881,368.0,0.988
1284.09,369.0,0.988
1285.3,370.0,0.988
1286.495,371.0,0.987
1287.693,372.0,0.987
1288.904,373.0,0.987
1290.122,374.0,0.987
1291.315,375.0,0.987
1292.515,376.0,0.987
1293.724,377.0,0.987
1294.934,378.0,0.987
1296.125,379.0,0.987
1297.339,380.0,0.986
1298.536,381.0,0.986
1299.743,382.0,0.986
1300.94,383.0,0.986
1302.146,384.0,0.986
1303.349,385.0,0.986
1304.549,386.0,0.986
1305.738,387.0,0.986
1306.942,388.0,0.986
1308.148,389.0,0.986
1309.354,390.0,0.986
1310.549,391.0,0.985
1311.749,392.0,0.985
1312.953,393.0,0.985
1314.153,394.0,0.985
1315.347,395.0,0.985
1316.547,396.0,0.985
1317.744,397.0,0.985
1318.948,398.0,0.985
1320.146,399.0,0.985
1321.339,400.0,0.985
1322.541,401.0,0.985
1323.733,402.0,0.985
1324.928,403.0,0.985
1326.129,404.0,0.985
1327.322,405.0,0.985
1328.521,406.0,0.985
1329.717,407.0,0.985
1330.895,408.0,0.985
1332.095,409.0,0.985
1333.285,410.0,0.985
1334.491,411.0,0.985
1335.672,412.0,0.985
1336.862,413.0,0.985
1338.057,414.0,0.985
1339.256,415.0,0.985
1340.45,416.0,0.985
1341.631,417.0,0.985
1342.829,418.0,0.985
1344.018,419.0,0.985
1345.206,420.0,0.985
1346.389,421.0,0.985
1347.58,422.0,0.985
1348.78,423.0,0.985
1349.968,424.0,0.985
1351.149,425.0,0.985
1352.329,426.0,0.985
1353.531,427.0,0.985
1354.708,428.0,0.985
1355.888,429.0,0.985
1357.076,430.0,0.985
1358.264,431.0,0.985
1359.448,432.0,0.985
1360.631,433.0,0.985
1361.816,434.0,0.985
1363.002,435.0,0.985
1364.186,436.0,0.985
1365.378,437.0,0.985
1366.556,438.0,0.985
1367.736,439.0,0.985
1368.913,440.0,0.985
1370.099,441.0,0.985
1371.278,442.0,0.984
1372.467,443.0,0.984
1373.642,444.0,0.984
1374.823,445.0,0.984
1375.992,446.0,0.984
1377.172,447.0,0.984
1378.351,448.0,0.984
1379.535,449.0,0.984
1380.71,450.0,0.984
1381.894,451.0,0.984
1383.07,452.0,0.984
1384.25,453.0,0.984
1385.426,454.0,0.984
1386.599,455.0,0.984
1387.788,456.0,0.983
1388.958,457.0,0.983
1390.124,458.0,0.983
1391.295,459.0,0.983
1392.476,460.0,0.983
1393.643,461.0,0.982
1394.813,462.0,0.982
1396.007,463.0,0.982
1397.174,464.0,0.982
1398.342,465.0,0.982
1399.514,466.0,0.982
1400.689,467.0,0.981
1401.856,468.0,0.981
1403.039,469.0,0.981
1404.219,470.0,0.981
1405.386,471.0,0.981
1406.547,472.0,0.981
1407.72,473.0,0.98
1408.895,474.0,0.98
1410.06,475.0,0.98
1411.225,476.0,0.98
1412.397,477.0,0.979
1413.566,478.0,0.979
1414.734,479.0,0.979
1415.902,480.0,0.978
1417.073,481.0,0.978
1418.236,482.0,0.978
1419.414,483.0,0.977
1420.583,484.0,0.977
1421.747,485.0,0.976
1422.912,486.0,0.976
1424.101,487.0,0.976
1425.26,488.0,0.976
1426.423,489.0,0.975
1427.584,490.0,0.975
1428.755,491.0,0.974
1429.93,492.0,0.974
1431.106,493.0,0.974
1432.261,494.0,0.974
1433.426,495.0,0.973
1434.587,496.0,0.973
1435.753,497.0,0.973
1436.928,498.0,0.972
1438.101,499.0,0.972
1439.263,500.0,0.972
1440.425,501.0,0.972
1441.594,502.0,0.971
1442.754,503.0,0.971
1443.934,504.0,0.97
1445.086,505.0,0.97
1446.273,506.0,0.97
1447.423,507.0,0.969
1448.586,508.0,0.969
1449.753,509.0,0.968
1450.928,510.0,0.968
1452.079,511.0,0.968
1453.254,512.0,0.967
1454.417,513.0,0.967
1455.589,514.0,0.966
1456.757,515.0,0.966
1457.91,516.0,0.965
1459.09,517.0,0.965
1460.256,518.0,0.964
1461.415,519.0,0.964
1462.587,520.0,0.963
1463.758,521.0,0.963
1464.918,522.0,0.962
1466.08,523.0,0.962
1467.249,524.0,0.961
1468.419,525.0,0.961
1469.58,526.0,0.96
1470.746,527.0,0.96
1471.916,528.0,0.959
1473.075,529.0,0.959
1474.248,530.0,0.958
1475.423,531.0,0.958
1476.583,532.0,0.957
1477.754,533.0,0.956
1478.928,534.0,0.955
1480.097,535.0,0.955
1481.265,536.0,0.954
1482.436,537.0,0.953
1483.606,538.0,0.952
1484.769,539.0,0.951
1485.936,540.0,0.95
1487.111,541.0,0.95
1488.278,542.0,0.949
1489.442,543.0,0.948
1490.615,544.0,0.946
1491.776,545.0,0.946
1492.953,546.0,0.945
1494.104,547.0,0.944
1495.286,548.0,0.943
1496.459,549.0,0.942
1497.629,550.0,0.94
1498.796,551.0,0.939
1499.963,552.0,0.938
1501.13,553.0,0.937
1502.307,554.0,0.936
1503.478,555.0,0.935
1504.641,556.0,0.933
1505.81,557.0,0.932
1506.982,558.0,0.93
1508.154,559.0,0.929
1509.326,560.0,0.928
1510.499,561.0,0.927
1511.674,562.0,0.925
1512.84,563.0,0.923
1514.013,564.0,0.922
1515.181,565.0,0.921
1516.351,566.0,0.919
1517.518,567.0,0.917
1518.687,568.0,0.916
1519.872,569.0,0.914
1521.034,570.0,0.913
1522.209,571.0,0.911
1523.385,572.0,0.909
1524.564,573.0,0.907
1525.732,574.0,0.906
1526.9,575.0,0.904
1528.09,576.0,0.903
1529.261,577.0,0.9
1530.437,578.0,0.899
1531.622,579.0,0.897
1532.8,580.0,0.895
1533.968,581.0,0.893
1535.146,582.0,0.891
1536.316,583.0,0.889
1537.502,584.0,0.887
1538.677,585.0,0.885
1539.847,586.0,0.882
1541.033,587.0,0.88
1542.216,588.0,0.878
1543.39,589.0,0.876
1544.563,590.0,0.873
1545.736,591.0,0.871
1546.914,592.0,0.868
1548.098,593.0,0.866
1549.267,594.0,0.863
1550.45,595.0,0.861
1551.634,596.0,0.858
1552.813,597.0,0.855
1553.992,598.0,0.853
1555.175,599.0,0.85
1556.356,600.0,0.847
1557.538,601.0,0.844
1558.712,602.0,0.841
1559.883,603.0,0.837
1561.077,604.0,0.835
1562.247,605.0,0.831
1563.435,606.0,0.828
1564.616,607.0,0.825
1565.795,608.0,0.822
1566.983,609.0,0.818
1568.175,610.0,0.814
1569.358,611.0,0.81
1570.54,612.0,0.806
1571.723,613.0,0.803
1572.911,614.0,0.798
1574.092,615.0,0.795
1575.284,616.0,0.791
1576.465,617.0,0.787
1577.654,618.0,0.782
1578.84,619.0,0.778
1580.031,620.0,0.774
1581.205,621.0,0.769
1582.393,622.0,0.764
1583.596,623.0,0.76
1584.782,624.0,0.755
1585.974,625.0,0.75
1587.153,626.0,0.745
1588.341,627.0,0.741
1589.531,628.0,0.736
1590.727,629.0,0.73
1591.919,630.0,0.725
1593.122,631.0,0.72
1594.308,632.0,0.715
1595.49,633.0,0.71
1596.682,634.0,0.704
1597.877,635.0,0.698
1599.064,636.0,0.693
1600.258,637.0,0.688
1601.445,638.0,0.682
1602.637,639.0,0.676
1603.834,640.0,0.671
1605.032,641.0,0.665
1606.233,642.0,0.659
1607.427,643.0,0.653
1608.62,644.0,0.647
1609.819,645.0,0.641
1611.024,646.0,0.635
1612.213,647.0,0.629
1613.411,648.0,0.623
1614.611,649.0,0.617
1615.803,650.0,0.611
1616.999,651.0,0.605
1618.194,652.0,0.598
1619.403,653.0,0.592
1620.6,654.0,0.585
1621.809,655.0,0.578
1623.004,656.0,0.572
1624.209,657.0,0.565
1625.409,658.0,0.558
1626.609,659.0,0.551
1627.812,660.0,0.544
1629.01,661.0,0.537
1630.227,662.0,0.53
1631.423,663.0,0.522
1632.63,664.0,0.514
1633.832,665.0,0.507
1635.041,666.0,0.499
1636.242,667.0,0.491
1637.448,668.0,0.483
1638.655,669.0,0.475
1639.865,670.0,0.467
1641.068,671.0,0.459
1642.288,672.0,0.45
1643.493,673.0,0.442
1644.7,674.0,0.432
1645.905,675.0,0.424
1647.122,676.0,0.415
1648.331,677.0,0.406
1649.539,678.0,0.397
1650.741,679.0,0.388
1651.952,680.0,0.379
1653.154,681.0,0.37
1654.357,682.0,0.361
1655.568,683.0,0.353
1656.784,684.0,0.345
1657.988,685.0,0.336
1659.188,686.0,0.328
1660.401,687.0,0.32
1661.606,688.0,0.312
1662.81,689.0,0.305
1664.018,690.0,0.299
1665.226,691.0,0.293
1666.428,692.0,0.287
1667.629,693.0,0.281
1668.839,694.0,0.277
1670.048,695.0,0.272
1671.251,696.0,0.267
1672.459,697.0,0.264
1673.679,698.0,0.261
1674.875,699.0,0.257
1676.081,700.0,0.256
1677.292,701.0,0.253
1678.502,702.0,0.251
1679.708,703.0,0.249
1680.914,704.0,0.248
1682.12,705.0,0.247
1683.33,706.0,0.246
1684.543,707.0,0.244
1685.754,708.0,0.244
1686.964,709.0,0.243
1688.173,710.0,0.242
1689.388,711.0,0.242
1690.592,712.0,0.241
1691.805,713.0,0.24
1693.016,714.0,0.239
1694.234,715.0,0.239
1695.434,716.0,0.238
1696.641,717.0,0.237
1697.851,718.0,0.237
1699.072,719.0,0.236
1700.281,720.0,0.236
1701.493,721.0,0.235
1702.7,722.0,0.234
1703.917,723.0,0.234
1705.123,724.0,0.233
1706.348,725.0,0.233
1707.558,726.0,0.232
1708.768,727.0,0.231
1709.97,728.0,0.231
1711.193,729.0,0.23
1712.412,730.0,0.23
1713.617,731.0,0.229
1714.823,732.0,0.229
1716.047,733.0,0.228
1717.254,734.0,0.228
1718.466,735.0,0.227
1719.682,736.0,0.227
1720.89,737.0,0.226
1722.109,738.0,0.226
1723.321,739.0,0.225
1724.536,740.0,0.224
1725.735,741.0,0.224
1726.946,742.0,0.224
1728.164,743.0,0.223
1729.384,744.0,0.223
1730.598,745.0,0.222
1731.811,746.0,0.222
1733.02,747.0,0.221
1734.238,748.0,0.221
1735.45,749.0,0.22
1736.663,750.0,0.22
1737.885,751.0,0.219
1739.094,752.0,0.219
1740.303,753.0,0.219
1741.522,754.0,0.218
1742.742,755.0,0.218
1743.957,756.0,0.217
1745.164,757.0,0.217
1746.376,758.0,0.217
1747.592,759.0,0.216
1748.804,760.0,0.216
1750.019,761.0,0.216
1751.232,762.0,0.215
1752.443,763.0,0.215
1753.65,764.0,0.214
1754.87,765.0,0.214
1756.083,766.0,0.214
1757.3,767.0,0.213
1758.514,768.0,0.213
1759.726,769.0,0.212
1760.944,770.0,0.212
1762.157,771.0,0.212
1763.368,772.0,0.212
1764.581,773.0,0.211
1765.787,774.0,0.211
1767.013,775.0,0.211
1768.221,776.0,0.21
1769.434,777.0,0.21
1770.652,778.0,0.21
1771.866,779.0,0.209
1773.087,780.0,0.209
1774.294,781.0,0.209
1775.507,782.0,0.208
1776.72,783.0,0.208
1777.929,784.0,0.208
1779.145,785.0,0.208
1780.357,786.0,0.207
1781.576,787.0,0.207
1782.788,788.0,0.207
1784.001,789.0,0.207
1785.22,790.0,0.206
1786.425,791.0,0.206
1787.639,792.0,0.206
1788.842,793.0,0.205
1790.07,794.0,0.205
1791.287,795.0,0.205
1792.497,796.0,0.205
1793.705,797.0,0.204
1794.926,798.0,0.204
1796.139,799.0,0.204
1797.352,800.0,0.204
1798.565,801.0,0.204
1799.785,802.0,0.204
1800.99,803.0,0.203
1802.205,804.0,0.203
1803.421,805.0,0.203
1804.633,806.0,0.203
1805.849,807.0,0.202
1807.058,808.0,0.202
1808.279,809.0,0.202
1809.495,810.0,0.202
1810.709,811.0,0.202
1811.92,812.0,0.201
1813.132,813.0,0.201
1814.345,814.0,0.201
1815.56,815.0,0.201
1816.767,816.0,0.2
1817.982,817.0,0.2
1819.204,818.0,0.2
1820.421,819.0,0.2
1821.627,820.0,0.2
1822.849,821.0,0.2
1824.065,822.0,0.199
1825.277,823.0,0.199
1826.49,824.0,0.199
1827.701,825.0,0.199
1828.916,826.0,0.198
1830.146,827.0,0.198
1831.346,828.0,0.198
1832.557,829.0,0.198
1833.778,830.0,0.198
1834.984,831.0,0.197
1836.203,832.0,0.197
1837.415,833.0,0.197
1838.627,834.0,0.197
1839.838,835.0,0.197
1841.058,836.0,0.197
1842.271,837.0,0.196
1843.484,838.0,0.196
1844.705,839.0,0.196
1845.917,840.0,0.196
1847.135,841.0,0.196
1848.346,842.0,0.196
1849.559,843.0,0.195
1850.778,844.0,0.195
1851.981,845.0,0.195
1853.195,846.0,0.195
1854.408,847.0,0.195
1855.627,848.0,0.195
1856.836,849.0,0.195
1858.046,850.0,0.194
1859.252,851.0,0.194
1860.468,852.0,0.194
1861.676,853.0,0.194
1862.895,854.0,0.194
1864.104,855.0,0.194
1865.315,856.0,0.193
1866.524,857.0,0.193
1867.738,858.0,0.193
1868.956,859.0,0.193
1870.178,860.0,0.193
1871.378,861.0,0.193
1872.596,862.0,0.192
1873.802,863.0,0.192
1875.02,864.0,0.192
1876.22,865.0,0.192
1877.44,866.0,0.192
1878.65,867.0,0.192
1879.853,868.0,0.192
1881.072,869.0,0.191
1882.282,870.0,0.191
1883.492,871.0,0.191
1884.705,872.0,0.191
1885.922,873.0,0.191
1887.128,874.0,0.191
1888.344,875.0,0.191
1889.555,876.0,0.19
1890.766,877.0,0.19
1891.984,878.0,0.19
1893.196,879.0,0.19
1894.399,880.0,0.19
1895.613,881.0,0.189
1896.825,882.0,0.189
1898.034,883.0,0.189
1899.242,884.0,0.189
1900.457,885.0,0.189
1901.664,886.0,0.189
1902.882,887.0,0.189
1904.087,888.0,0.189
1905.292,889.0,0.189
1906.501,890.0,0.188
1907.704,891.0,0.188
1908.921,892.0,0.188
1910.127,893.0,0.188
1911.339,894.0,0.188
1912.548,895.0,0.188
1913.755,896.0,0.188
1914.96,897.0,0.187
1916.171,898.0,0.187
1917.382,899.0,0.187
1918.595,900.0,0.187
1919.794,901.0,0.187
1920.996,902.0,0.187
1922.206,903.0,0.187
1923.42,904.0,0.186
1924.629,905.0,0.186
1925.833,906.0,0.186
1927.027,907.0,0.186
1928.243,908.0,0.186
1929.456,909.0,0.186
1930.657,910.0,0.186
1931.866,911.0,0.186
1933.07,912.0,0.186
1934.272,913.0,0.185
1935.482,914.0,0.185
1936.69,915.0,0.185
1937.9,916.0,0.185
1939.103,917.0,0.185
1940.306,918.0,0.185
1941.516,919.0,0.185
1942.723,920.0,0.185
1943.922,921.0,0.184
1945.13,922.0,0.184
1946.332,923.0,0.184
1947.535,924.0,0.184
1948.741,925.0,0.184
1949.954,926.0,0.184
1951.145,927.0,0.184
1952.348,928.0,0.184
1953.556,929.0,0.184
1954.763,930.0,0.184
1955.961,931.0,0.183
1957.17,932.0,0.183
1958.373,933.0,0.183
1959.576,934.0,0.183
1960.781,935.0,0.183
1961.983,936.0,0.183
1963.186,937.0,0.183
1964.39,938.0,0.183
1965.592,939.0,0.183
1966.796,940.0,0.182
1968.001,941.0,0.182
1969.202,942.0,0.182
1970.406,943.0,0.182
1971.61,944.0,0.182
1972.817,945.0,0.182
1974.012,946.0,0.182
1975.218,947.0,0.182
1976.419,948.0,0.182
1977.622,949.0,0.182
1978.828,950.0,0.182
1980.032,951.0,0.182
1981.23,952.0,0.182
1982.429,953.0,0.181
1983.632,954.0,0.181
1984.831,955.0,0.181
1986.03,956.0,0.181
1987.225,957.0,0.181
1988.429,958.0,0.181
1989.626,959.0,0.181
1990.825,960.0,0.181
1992.029,961.0,0.181
1993.232,962.0,0.181
1994.433,963.0,0.181
1995.64,964.0,0.181
1996.835,965.0,0.18
1998.036,966.0,0.18
1999.233,967.0,0.18
2000.434,968.0,0.18
2001.629,969.0,0.18
2002.828,970.0,0.18
2004.025,971.0,0.18
2005.224,972.0,0.18
2006.427,973.0,0.18
2007.624,974.0,0.179
2008.812,975.0,0.179
2010.02,976.0,0.179
2011.211,977.0,0.179
2012.412,978.0,0.179
2013.603,979.0,0.179
2014.806,980.0,0.179
2016.0,981.0,0.179
2017.207,982.0,0.179
2018.4,983.0,0.179
2019.595,984.0,0.179
2020.789,985.0,0.179
2021.983,986.0,0.179
2023.181,987.0,0.179
2024.379,988.0,0.179
2025.568,989.0,0.179
2026.768,990.0,0.179
2027.968,991.0,0.179
2029.163,992.0,0.179
2030.362,993.0,0.179
2031.555,994.0,0.179
2032.749,995.0,0.178
2033.946,996.0,0.178
2035.141,997.0,0.178
2036.333,998.0,0.178
2037.528,999.0,0.178
2038.73,1000.0,0.178
2039.932,1001.0,0.178
2041.117,1002.0,0.178
2042.313,1003.0,0.178
2043.51,1004.0,0.178
2044.714,1005.0,0.178
2045.898,1006.0,0.177
2047.086,1007.0,0.177
2048.277,1008.0,0.177
2049.472,1009.0,0.177
2050.668,1010.0,0.177
2051.86,1011.0,0.177
2053.049,1012.0,0.177
2054.248,1013.0,0.177
2055.446,1014.0,0.177
2056.644,1015.0,0.177
2057.839,1016.0,0.177
2059.031,1017.0,0.177
2060.227,1018.0,0.177
2061.42,1019.0,0.177
2062.615,1020.0,0.177
2063.803,1021.0,0.176
2064.989,1022.0,0.176
2066.192,1023.0,0.176
2067.385,1024.0,0.176
2068.58,1025.0,0.176
2069.782,1026.0,0.176
2070.958,1027.0,0.176
2072.149,1028.0,0.176
2073.351,1029.0,0.176
2074.543,1030.0,0.176
2075.731,1031.0,0.176
2076.928,1032.0,0.176
2078.121,1033.0,0.176
2079.312,1034.0,0.176
2080.513,1035.0,0.176
2081.709,1036.0,0.176
2082.897,1037.0,0.175
2084.081,1038.0,0.175
2085.277,1039.0,0.175
2086.468,1040.0,0.175
2087.663,1041.0,0.175
2088.859,1042.0,0.175
2090.048,1043.0,0.175
2091.241,1044.0,0.175
2092.435,1045.0,0.175
2093.634,1046.0,0.175
2094.832,1047.0,0.175
2096.021,1048.0,0.175
2097.217,1049.0,0.175
2098.415,1050.0,0.175
2099.605,1051.0,0.175
2100.802,1052.0,0.175
2102.0,1053.0,0.175
2103.169,1054.0,0.175
2104.521,1055.0,0.175
2106.847,1056.0,0.174
2108.624,1057.0,0.174
2110.477,1058.0,0.174
2112.483,1059.0,0.174
2114.66,1060.0,0.174
2117.049,1061.0,0.174
2119.694,1062.0,0.174
2122.663,1063.0,0.174
2134.0,1065.93,0.174
2154.0,1068.861,0.173
2174.0,1070.326,0.173
2194.0,1071.111,0.172
2214.0,1071.579,0.172
2234.0,1071.894,0.172
2254.0,1072.106,0.171
2274.0,1072.275,0.171
2294.0,1072.393,0.171
2314.0,1072.483,0.17
2334.0,1072.553,0.17
2354.0,1072.619,0.17
2374.0,1072.663,0.169
2394.0,1072.692,0.169
2414.0,1072.723,0.169
2424.0,1072.725,0.169