File: Wood/Calibration_Data/TUBS/TUBS_Wood_TGA_N2_10K_R2.csv
Time (s),Temperature (K),Mass (mg)
0.0,304.896,1.03
10.0,304.852,1.028
25.0,304.784,1.026
41.0,304.728,1.024
62.0,304.679,1.022
88.0,304.624,1.02
112.0,304.591,1.018
156.0,304.535,1.016
204.0,304.473,1.014
289.0,304.412,1.012
413.0,304.362,1.01
542.0,304.346,1.01
660.0,304.352,1.008
944.0,304.34,1.008
1020.0,304.332,1.008
1145.0,304.329,1.008
1211.619,305.0,1.006
1220.372,306.0,1.009
1227.951,307.0,1.008
1235.193,308.0,1.008
1242.076,309.0,1.007
1248.993,310.0,1.007
1255.777,311.0,1.007
1262.422,312.0,1.007
1268.993,313.0,1.007
1275.536,314.0,1.007
1281.886,315.0,1.007
1288.237,316.0,1.007
1294.536,317.0,1.006
1300.683,318.0,1.006
1306.911,319.0,1.006
1313.104,320.0,1.006
1319.249,321.0,1.005
1325.262,322.0,1.005
1331.373,323.0,1.005
1337.376,324.0,1.005
1343.392,325.0,1.005
1349.462,326.0,1.004
1355.485,327.0,1.004
1361.471,328.0,1.003
1367.389,329.0,1.003
1373.4,330.0,1.003
1379.36,331.0,1.003
1385.375,332.0,1.002
1391.345,333.0,1.002
1397.352,334.0,1.002
1403.311,335.0,1.001
1409.267,336.0,1.001
1415.261,337.0,1.001
1421.16,338.0,1.0
1427.126,339.0,1.0
1433.16,340.0,0.999
1439.086,341.0,0.999
1445.097,342.0,0.999
1450.967,343.0,0.999
1456.994,344.0,0.999
1462.86,345.0,0.999
1468.838,346.0,0.998
1474.859,347.0,0.998
1480.793,348.0,0.998
1486.706,349.0,0.998
1492.697,350.0,0.998
1498.633,351.0,0.997
1504.59,352.0,0.997
1510.5,353.0,0.997
1516.52,354.0,0.997
1522.415,355.0,0.997
1528.37,356.0,0.997
1534.34,357.0,0.997
1540.309,358.0,0.997
1546.277,359.0,0.997
1552.12,360.0,0.996
1558.07,361.0,0.996
1564.037,362.0,0.996
1569.989,363.0,0.996
1575.966,364.0,0.996
1581.927,365.0,0.996
1587.829,366.0,0.996
1593.866,367.0,0.996
1599.746,368.0,0.996
1605.689,369.0,0.996
1611.583,370.0,0.996
1617.533,371.0,0.996
1623.451,372.0,0.996
1629.365,373.0,0.996
1635.345,374.0,0.996
1641.199,375.0,0.996
1647.222,376.0,0.996
1653.13,377.0,0.996
1659.036,378.0,0.996
1665.012,379.0,0.996
1670.952,380.0,0.996
1676.84,381.0,0.996
1682.78,382.0,0.996
1688.76,383.0,0.996
1694.656,384.0,0.996
1700.607,385.0,0.996
1706.523,386.0,0.996
1712.466,387.0,0.996
1718.383,388.0,0.996
1724.337,389.0,0.996
1730.247,390.0,0.996
1736.133,391.0,0.996
1742.044,392.0,0.996
1747.959,393.0,0.996
1753.871,394.0,0.996
1759.798,395.0,0.996
1765.759,396.0,0.996
1771.659,397.0,0.996
1777.566,398.0,0.996
1783.497,399.0,0.996
1789.476,400.0,0.996
1795.379,401.0,0.996
1801.259,402.0,0.996
1807.205,403.0,0.996
1813.013,404.0,0.996
1818.988,405.0,0.996
1824.906,406.0,0.996
1830.816,407.0,0.996
1836.733,408.0,0.995
1842.64,409.0,0.995
1848.523,410.0,0.995
1854.457,411.0,0.995
1860.376,412.0,0.995
1866.289,413.0,0.995
1872.207,414.0,0.995
1878.16,415.0,0.995
1884.127,416.0,0.995
1889.949,417.0,0.995
1895.859,418.0,0.995
1901.73,419.0,0.995
1907.678,420.0,0.995
1913.597,421.0,0.995
1919.5,422.0,0.995
1925.423,423.0,0.995
1931.336,424.0,0.994
1937.23,425.0,0.994
1943.184,426.0,0.994
1949.051,427.0,0.994
1954.958,428.0,0.994
1960.864,429.0,0.994
1966.842,430.0,0.994
1972.73,431.0,0.994
1978.682,432.0,0.993
1984.568,433.0,0.993
1990.464,434.0,0.993
1996.398,435.0,0.993
2002.277,436.0,0.993
2008.223,437.0,0.993
2014.119,438.0,0.993
2020.068,439.0,0.992
2025.958,440.0,0.992
2031.817,441.0,0.992
2037.739,442.0,0.992
2043.586,443.0,0.991
2049.559,444.0,0.991
2055.399,445.0,0.991
2061.315,446.0,0.99
2067.188,447.0,0.99
2073.114,448.0,0.99
2079.0,449.0,0.99
2084.927,450.0,0.989
2090.862,451.0,0.989
2096.774,452.0,0.989
2102.641,453.0,0.989
2108.548,454.0,0.988
2114.461,455.0,0.988
2120.38,456.0,0.988
2126.295,457.0,0.988
2132.162,458.0,0.987
2138.129,459.0,0.987
2143.958,460.0,0.987
2149.869,461.0,0.986
2155.784,462.0,0.986
2161.609,463.0,0.986
2167.561,464.0,0.986
2173.467,465.0,0.985
2179.351,466.0,0.985
2185.264,467.0,0.985
2191.137,468.0,0.985
2197.097,469.0,0.984
2203.057,470.0,0.984
2208.934,471.0,0.984
2214.858,472.0,0.984
2220.777,473.0,0.983
2226.711,474.0,0.983
2232.627,475.0,0.983
2238.5,476.0,0.983
2244.423,477.0,0.982
2250.324,478.0,0.982
2256.227,479.0,0.982
2262.111,480.0,0.981
2268.045,481.0,0.981
2273.96,482.0,0.981
2279.895,483.0,0.98
2285.775,484.0,0.98
2291.694,485.0,0.98
2297.621,486.0,0.979
2303.561,487.0,0.979
2309.435,488.0,0.979
2315.407,489.0,0.978
2321.303,490.0,0.978
2327.225,491.0,0.977
2333.113,492.0,0.977
2339.013,493.0,0.977
2345.0,494.0,0.976
2350.866,495.0,0.976
2356.749,496.0,0.975
2362.72,497.0,0.975
2368.58,498.0,0.974
2374.509,499.0,0.974
2380.459,500.0,0.973
2386.352,501.0,0.973
2392.264,502.0,0.972
2398.246,503.0,0.972
2404.106,504.0,0.971
2410.098,505.0,0.97
2415.988,506.0,0.97
2421.944,507.0,0.969
2427.815,508.0,0.968
2433.751,509.0,0.968
2439.724,510.0,0.967
2445.615,511.0,0.966
2451.55,512.0,0.966
2457.514,513.0,0.965
2463.381,514.0,0.964
2469.303,515.0,0.963
2475.304,516.0,0.962
2481.212,517.0,0.961
2487.124,518.0,0.96
2493.069,519.0,0.959
2499.036,520.0,0.958
2504.969,521.0,0.957
2510.817,522.0,0.956
2516.785,523.0,0.955
2522.761,524.0,0.954
2528.654,525.0,0.953
2534.584,526.0,0.951
2540.534,527.0,0.95
2546.446,528.0,0.949
2552.448,529.0,0.948
2558.339,530.0,0.947
2564.289,531.0,0.945
2570.252,532.0,0.944
2576.13,533.0,0.942
2582.164,534.0,0.941
2588.119,535.0,0.939
2593.96,536.0,0.938
2599.994,537.0,0.936
2605.921,538.0,0.935
2611.893,539.0,0.933
2617.817,540.0,0.931
2623.729,541.0,0.929
2629.71,542.0,0.928
2635.65,543.0,0.926
2641.605,544.0,0.924
2647.558,545.0,0.922
2653.448,546.0,0.921
2659.467,547.0,0.919
2665.371,548.0,0.917
2671.357,549.0,0.915
2677.278,550.0,0.913
2683.212,551.0,0.911
2689.204,552.0,0.909
2695.156,553.0,0.907
2701.128,554.0,0.905
2707.055,555.0,0.902
2713.017,556.0,0.9
2718.947,557.0,0.898
2724.934,558.0,0.895
2730.859,559.0,0.893
2736.817,560.0,0.89
2742.826,561.0,0.888
2748.695,562.0,0.885
2754.709,563.0,0.883
2760.686,564.0,0.88
2766.637,565.0,0.877
2772.585,566.0,0.874
2778.583,567.0,0.871
2784.518,568.0,0.868
2790.457,569.0,0.866
2796.474,570.0,0.863
2802.385,571.0,0.859
2808.347,572.0,0.856
2814.333,573.0,0.853
2820.291,574.0,0.85
2826.212,575.0,0.846
2832.236,576.0,0.843
2838.152,577.0,0.839
2844.135,578.0,0.835
2850.104,579.0,0.832
2856.061,580.0,0.828
2862.035,581.0,0.824
2868.0,582.0,0.82
2873.988,583.0,0.815
2879.969,584.0,0.811
2885.949,585.0,0.807
2891.874,586.0,0.802
2897.879,587.0,0.798
2903.847,588.0,0.793
2909.793,589.0,0.789
2915.809,590.0,0.784
2921.798,591.0,0.779
2927.76,592.0,0.774
2933.696,593.0,0.769
2939.665,594.0,0.764
2945.618,595.0,0.759
2951.611,596.0,0.754
2957.701,597.0,0.748
2963.61,598.0,0.743
2969.585,599.0,0.737
2975.589,600.0,0.731
2981.497,601.0,0.727
2987.512,602.0,0.72
2993.446,603.0,0.715
2999.466,604.0,0.709
3005.469,605.0,0.703
3011.445,606.0,0.697
3017.429,607.0,0.691
3023.354,608.0,0.685
3029.373,609.0,0.679
3035.343,610.0,0.672
3041.352,611.0,0.666
3047.297,612.0,0.66
3053.315,613.0,0.653
3059.226,614.0,0.647
3065.28,615.0,0.64
3071.284,616.0,0.633
3077.251,617.0,0.626
3083.214,618.0,0.62
3089.206,619.0,0.613
3095.26,620.0,0.606
3101.175,621.0,0.599
3107.201,622.0,0.592
3113.202,623.0,0.584
3119.185,624.0,0.577
3125.165,625.0,0.57
3131.177,626.0,0.562
3137.176,627.0,0.555
3143.216,628.0,0.547
3149.234,629.0,0.539
3155.174,630.0,0.531
3161.171,631.0,0.523
3167.163,632.0,0.515
3173.153,633.0,0.506
3179.158,634.0,0.498
3185.166,635.0,0.489
3191.196,636.0,0.48
3197.172,637.0,0.471
3203.208,638.0,0.462
3209.208,639.0,0.453
3215.222,640.0,0.444
3221.226,641.0,0.434
3227.202,642.0,0.425
3233.17,643.0,0.415
3239.202,644.0,0.405
3245.213,645.0,0.396
3251.207,646.0,0.386
3257.218,647.0,0.376
3263.232,648.0,0.366
3269.188,649.0,0.356
3275.183,650.0,0.347
3281.211,651.0,0.338
3287.248,652.0,0.329
3293.268,653.0,0.319
3299.281,654.0,0.311
3305.295,655.0,0.303
3311.311,656.0,0.296
3317.241,657.0,0.289
3323.258,658.0,0.283
3329.286,659.0,0.277
3335.291,660.0,0.272
3341.297,661.0,0.267
3347.282,662.0,0.263
3353.232,663.0,0.26
3359.226,664.0,0.257
3365.304,665.0,0.255
3371.301,666.0,0.253
3377.256,667.0,0.251
3383.31,668.0,0.25
3389.273,669.0,0.249
3395.274,670.0,0.248
3401.327,671.0,0.247
3407.36,672.0,0.246
3413.366,673.0,0.245
3419.388,674.0,0.244
3425.388,675.0,0.244
3431.398,676.0,0.243
3437.401,677.0,0.242
3443.414,678.0,0.241
3449.442,679.0,0.241
3455.432,680.0,0.24
3461.482,681.0,0.239
3467.541,682.0,0.239
3473.577,683.0,0.238
3479.534,684.0,0.237
3485.57,685.0,0.236
3491.582,686.0,0.236
3497.652,687.0,0.235
3503.673,688.0,0.235
3509.677,689.0,0.234
3515.697,690.0,0.233
3521.789,691.0,0.233
3527.774,692.0,0.232
3533.768,693.0,0.231
3539.807,694.0,0.231
3545.828,695.0,0.23
3551.87,696.0,0.229
3557.903,697.0,0.229
3563.893,698.0,0.228
3569.957,699.0,0.228
3575.905,700.0,0.227
3581.953,701.0,0.226
3588.024,702.0,0.226
3594.024,703.0,0.225
3600.112,704.0,0.224
3606.134,705.0,0.224
3612.15,706.0,0.223
3618.18,707.0,0.223
3624.154,708.0,0.222
3630.243,709.0,0.222
3636.271,710.0,0.221
3642.282,711.0,0.221
3648.331,712.0,0.22
3654.339,713.0,0.219
3660.43,714.0,0.219
3666.438,715.0,0.218
3672.489,716.0,0.217
3678.558,717.0,0.217
3684.538,718.0,0.216
3690.573,719.0,0.216
3696.605,720.0,0.216
3702.649,721.0,0.215
3708.698,722.0,0.215
3714.699,723.0,0.214
3720.691,724.0,0.213
3726.811,725.0,0.213
3732.873,726.0,0.212
3738.866,727.0,0.212
3744.888,728.0,0.211
3750.893,729.0,0.211
3756.976,730.0,0.211
3762.97,731.0,0.21
3769.048,732.0,0.21
3775.108,733.0,0.209
3781.126,734.0,0.209
3787.18,735.0,0.209
3793.205,736.0,0.208
3799.288,737.0,0.208
3805.321,738.0,0.207
3811.376,739.0,0.207
3817.418,740.0,0.206
3823.515,741.0,0.206
3829.558,742.0,0.206
3835.577,743.0,0.205
3841.65,744.0,0.205
3847.688,745.0,0.205
3853.682,746.0,0.204
3859.729,747.0,0.204
3865.801,748.0,0.204
3871.873,749.0,0.203
3877.916,750.0,0.203
3883.965,751.0,0.203
3890.018,752.0,0.203
3896.076,753.0,0.202
3902.151,754.0,0.202
3908.162,755.0,0.202
3914.201,756.0,0.201
3920.267,757.0,0.201
3926.288,758.0,0.201
3932.296,759.0,0.2
3938.345,760.0,0.2
3944.458,761.0,0.2
3950.46,762.0,0.2
3956.482,763.0,0.199
3962.513,764.0,0.199
3968.567,765.0,0.199
3974.544,766.0,0.199
3980.59,767.0,0.198
3986.669,768.0,0.198
3992.676,769.0,0.198
3998.699,770.0,0.197
4004.798,771.0,0.197
4010.804,772.0,0.197
4016.818,773.0,0.197
4022.867,774.0,0.196
4028.957,775.0,0.196
4034.942,776.0,0.196
4040.994,777.0,0.196
4046.972,778.0,0.196
4053.054,779.0,0.195
4059.037,780.0,0.195
4065.048,781.0,0.195
4071.019,782.0,0.195
4077.117,783.0,0.195
4083.156,784.0,0.194
4089.204,785.0,0.194
4095.238,786.0,0.194
4101.256,787.0,0.194
4107.305,788.0,0.193
4113.278,789.0,0.193
4119.337,790.0,0.193
4125.339,791.0,0.193
4131.378,792.0,0.193
4137.415,793.0,0.193
4143.413,794.0,0.192
4149.479,795.0,0.192
4155.55,796.0,0.192
4161.539,797.0,0.191
4167.593,798.0,0.191
4173.614,799.0,0.191
4179.657,800.0,0.191
4185.669,801.0,0.191
4191.702,802.0,0.191
4197.782,803.0,0.19
4203.767,804.0,0.19
4209.774,805.0,0.19
4215.805,806.0,0.19
4221.887,807.0,0.19
4227.842,808.0,0.189
4233.92,809.0,0.189
4239.994,810.0,0.189
4245.952,811.0,0.189
4252.0,812.0,0.189
4257.983,813.0,0.189
4264.048,814.0,0.188
4270.019,815.0,0.188
4276.095,816.0,0.188
4282.16,817.0,0.188
4288.151,818.0,0.188
4294.229,819.0,0.187
4300.208,820.0,0.187
4306.217,821.0,0.187
4312.241,822.0,0.187
4318.276,823.0,0.187
4324.312,824.0,0.187
4330.331,825.0,0.186
4336.384,826.0,0.186
4342.389,827.0,0.186
4348.388,828.0,0.186
4354.382,829.0,0.186
4360.402,830.0,0.185
4366.388,831.0,0.185
4372.452,832.0,0.185
4378.512,833.0,0.185
4384.503,834.0,0.185
4390.478,835.0,0.185
4396.527,836.0,0.184
4402.518,837.0,0.184
4408.543,838.0,0.184
4414.562,839.0,0.184
4420.615,840.0,0.184
4426.638,841.0,0.184
4432.637,842.0,0.183
4438.667,843.0,0.183
4444.648,844.0,0.183
4450.689,845.0,0.183
4456.694,846.0,0.183
4462.727,847.0,0.183
4468.717,848.0,0.183
4474.705,849.0,0.182
4480.72,850.0,0.182
4486.721,851.0,0.182
4492.801,852.0,0.182
4498.772,853.0,0.182
4504.817,854.0,0.182
4510.794,855.0,0.182
4516.833,856.0,0.181
4522.894,857.0,0.181
4528.924,858.0,0.181
4534.914,859.0,0.181
4540.936,860.0,0.181
4546.943,861.0,0.181
4552.981,862.0,0.18
4559.012,863.0,0.18
4565.025,864.0,0.18
4571.067,865.0,0.18
4577.116,866.0,0.18
4583.112,867.0,0.18
4589.145,868.0,0.18
4595.194,869.0,0.179
4601.185,870.0,0.18
4607.196,871.0,0.18
4613.227,872.0,0.18
4619.274,873.0,0.18
4625.327,874.0,0.179
4631.308,875.0,0.179
4637.335,876.0,0.179
4643.4,877.0,0.179
4649.377,878.0,0.178
4655.376,879.0,0.178
4661.392,880.0,0.178
4667.462,881.0,0.178
4673.468,882.0,0.178
4679.482,883.0,0.177
4685.542,884.0,0.177
4691.609,885.0,0.177
4697.606,886.0,0.177
4703.621,887.0,0.177
4709.687,888.0,0.177
4715.671,889.0,0.177
4721.766,890.0,0.177
4727.735,891.0,0.177
4733.759,892.0,0.177
4739.782,893.0,0.176
4745.85,894.0,0.176
4751.841,895.0,0.176
4757.875,896.0,0.176
4763.94,897.0,0.176
4769.952,898.0,0.176
4775.988,899.0,0.176
4782.024,900.0,0.176
4788.056,901.0,0.176
4794.123,902.0,0.175
4800.143,903.0,0.175
4806.173,904.0,0.175
4812.225,905.0,0.175
4818.259,906.0,0.175
4824.301,907.0,0.175
4830.266,908.0,0.175
4836.357,909.0,0.175
4842.382,910.0,0.175
4848.405,911.0,0.175
4854.439,912.0,0.175
4860.472,913.0,0.175
4866.503,914.0,0.174
4872.524,915.0,0.174
4878.565,916.0,0.174
4884.61,917.0,0.174
4890.63,918.0,0.174
4896.647,919.0,0.174
4902.69,920.0,0.174
4908.759,921.0,0.174
4914.778,922.0,0.174
4920.77,923.0,0.173
4926.838,924.0,0.173
4932.837,925.0,0.173
4938.833,926.0,0.173
4944.871,927.0,0.173
4950.862,928.0,0.173
4956.918,929.0,0.173
4962.964,930.0,0.173
4969.0,931.0,0.173
4975.091,932.0,0.172
4981.074,933.0,0.172
4987.112,934.0,0.172
4993.144,935.0,0.172
4999.207,936.0,0.172
5005.186,937.0,0.172
5011.222,938.0,0.172
5017.274,939.0,0.172
5023.291,940.0,0.172
5029.368,941.0,0.172
5035.351,942.0,0.172
5041.424,943.0,0.171
5047.494,944.0,0.171
5053.458,945.0,0.171
5059.494,946.0,0.171
5065.576,947.0,0.171
5071.601,948.0,0.171
5077.645,949.0,0.171
5083.661,950.0,0.171
5089.663,951.0,0.171
5095.677,952.0,0.171
5101.737,953.0,0.171
5107.748,954.0,0.171
5113.787,955.0,0.171
5119.826,956.0,0.171
5125.802,957.0,0.171
5131.892,958.0,0.17
5137.925,959.0,0.17
5143.921,960.0,0.17
5149.982,961.0,0.17
5156.011,962.0,0.17
5162.088,963.0,0.17
5168.121,964.0,0.17
5174.136,965.0,0.17
5180.167,966.0,0.17
5186.158,967.0,0.17
5192.199,968.0,0.17
5198.274,969.0,0.17
5204.314,970.0,0.169
5210.327,971.0,0.169
5216.387,972.0,0.169
5222.416,973.0,0.169
5228.457,974.0,0.169
5234.515,975.0,0.169
5240.561,976.0,0.169
5246.597,977.0,0.169
5252.605,978.0,0.169
5258.656,979.0,0.169
5264.671,980.0,0.169
5270.707,981.0,0.169
5276.71,982.0,0.169
5282.747,983.0,0.169
5288.712,984.0,0.169
5294.803,985.0,0.169
5300.826,986.0,0.169
5306.877,987.0,0.169
5312.952,988.0,0.169
5318.945,989.0,0.168
5325.006,990.0,0.168
5331.019,991.0,0.168
5337.078,992.0,0.168
5343.118,993.0,0.168
5349.146,994.0,0.168
5355.172,995.0,0.168
5361.164,996.0,0.168
5367.16,997.0,0.168
5373.24,998.0,0.168
5379.284,999.0,0.168
5385.245,1000.0,0.168
5391.363,1001.0,0.167
5397.335,1002.0,0.167
5403.401,1003.0,0.167
5409.407,1004.0,0.167
5415.415,1005.0,0.167
5421.405,1006.0,0.167
5427.425,1007.0,0.167
5433.452,1008.0,0.167
5439.488,1009.0,0.167
5445.509,1010.0,0.167
5451.562,1011.0,0.167
5457.572,1012.0,0.167
5463.626,1013.0,0.167
5469.679,1014.0,0.166
5475.729,1015.0,0.166
5481.767,1016.0,0.166
5487.716,1017.0,0.166
5493.771,1018.0,0.166
5499.824,1019.0,0.166
5505.838,1020.0,0.166
5511.803,1021.0,0.166
5517.834,1022.0,0.166
5523.901,1023.0,0.166
5529.89,1024.0,0.166
5535.903,1025.0,0.166
5541.95,1026.0,0.166
5547.971,1027.0,0.166
5554.035,1028.0,0.166
5560.056,1029.0,0.166
5566.006,1030.0,0.166
5572.115,1031.0,0.165
5578.089,1032.0,0.165
5584.115,1033.0,0.165
5590.135,1034.0,0.165
5596.145,1035.0,0.165
5602.222,1036.0,0.165
5608.247,1037.0,0.165
5614.288,1038.0,0.165
5620.277,1039.0,0.165
5626.318,1040.0,0.165
5632.309,1041.0,0.165
5638.321,1042.0,0.165
5644.362,1043.0,0.165
5650.343,1044.0,0.165
5656.36,1045.0,0.164
5662.396,1046.0,0.164
5668.32,1047.0,0.164
5674.337,1048.0,0.164
5680.381,1049.0,0.164
5686.398,1050.0,0.164
5692.39,1051.0,0.164
5698.391,1052.0,0.164
5704.405,1053.0,0.164
5710.424,1054.0,0.164
5716.439,1055.0,0.164
5722.43,1056.0,0.164
5728.482,1057.0,0.164
5734.512,1058.0,0.163
5740.467,1059.0,0.163
5746.512,1060.0,0.163
5752.518,1061.0,0.163
5758.518,1062.0,0.163
5764.538,1063.0,0.163
5770.589,1064.0,0.163
5776.605,1065.0,0.163
5782.661,1066.0,0.163
5788.62,1067.0,0.163
5794.654,1068.0,0.163
5801.104,1069.0,0.163
5810.643,1070.0,0.162
5830.0,1071.249,0.162
5850.0,1071.866,0.162
5870.0,1072.173,0.162
5890.0,1072.327,0.162
5910.0,1072.427,0.162
5930.0,1072.485,0.162
5950.0,1072.522,0.161
5970.0,1072.551,0.161
5990.0,1072.589,0.161
6010.0,1072.603,0.161
6030.0,1072.622,0.16
6050.0,1072.644,0.161
6070.0,1072.653,0.16
6090.0,1072.661,0.16
6110.0,1072.673,0.16
6120.0,1072.678,0.16