File: Wood/Calibration_Data/TUBS/TUBS_TGA_N2_50K_R1.csv
Time (s),Temperature (K),Mass (mg)
0.0,305.0,0.989
9.0,304.953,0.987
29.0,304.875,0.985
48.0,304.803,0.983
73.0,304.748,0.981
97.0,304.713,0.979
130.0,304.669,0.977
149.0,304.612,0.977
192.0,304.586,0.975
247.0,304.543,0.973
267.0,304.525,0.973
394.0,304.477,0.971
414.0,304.476,0.971
448.0,304.477,0.971
521.0,304.457,0.971
546.0,304.452,0.971
559.0,304.461,0.971
747.0,304.45,0.969
782.0,304.456,0.969
1099.0,304.463,0.969
1152.0,304.447,0.969
1171.0,304.454,0.969
1184.0,304.44,0.969
1203.862,305.0,0.967
1206.01,306.0,0.966
1207.629,307.0,0.966
1209.377,308.0,0.966
1211.009,309.0,0.966
1212.428,310.0,0.967
1213.772,311.0,0.968
1215.086,312.0,0.969
1216.347,313.0,0.969
1217.601,314.0,0.97
1218.839,315.0,0.971
1220.055,316.0,0.971
1221.266,317.0,0.971
1222.466,318.0,0.971
1223.677,319.0,0.971
1224.865,320.0,0.971
1226.083,321.0,0.971
1227.265,322.0,0.97
1228.468,323.0,0.97
1229.672,324.0,0.97
1230.869,325.0,0.969
1232.068,326.0,0.969
1233.265,327.0,0.969
1234.46,328.0,0.969
1235.651,329.0,0.968
1236.838,330.0,0.968
1238.05,331.0,0.968
1239.241,332.0,0.967
1240.434,333.0,0.967
1241.626,334.0,0.967
1242.829,335.0,0.967
1244.049,336.0,0.967
1245.239,337.0,0.966
1246.437,338.0,0.966
1247.642,339.0,0.966
1248.839,340.0,0.966
1250.042,341.0,0.966
1251.252,342.0,0.965
1252.457,343.0,0.965
1253.656,344.0,0.965
1254.857,345.0,0.965
1256.081,346.0,0.965
1257.271,347.0,0.964
1258.475,348.0,0.964
1259.677,349.0,0.964
1260.87,350.0,0.963
1262.08,351.0,0.963
1263.285,352.0,0.963
1264.481,353.0,0.963
1265.692,354.0,0.962
1266.906,355.0,0.962
1268.101,356.0,0.962
1269.307,357.0,0.961
1270.509,358.0,0.961
1271.71,359.0,0.961
1272.919,360.0,0.961
1274.119,361.0,0.961
1275.335,362.0,0.961
1276.531,363.0,0.96
1277.748,364.0,0.96
1278.934,365.0,0.96
1280.136,366.0,0.96
1281.351,367.0,0.96
1282.554,368.0,0.96
1283.76,369.0,0.96
1284.97,370.0,0.959
1286.167,371.0,0.959
1287.372,372.0,0.959
1288.574,373.0,0.959
1289.776,374.0,0.959
1290.989,375.0,0.959
1292.191,376.0,0.959
1293.386,377.0,0.959
1294.601,378.0,0.958
1295.812,379.0,0.958
1297.009,380.0,0.958
1298.199,381.0,0.958
1299.399,382.0,0.958
1300.603,383.0,0.958
1301.803,384.0,0.958
1303.016,385.0,0.958
1304.211,386.0,0.958
1305.412,387.0,0.958
1306.618,388.0,0.958
1307.828,389.0,0.958
1309.025,390.0,0.958
1310.211,391.0,0.957
1311.42,392.0,0.957
1312.617,393.0,0.957
1313.827,394.0,0.957
1315.026,395.0,0.957
1316.21,396.0,0.957
1317.409,397.0,0.957
1318.614,398.0,0.957
1319.811,399.0,0.957
1321.002,400.0,0.957
1322.197,401.0,0.957
1323.405,402.0,0.957
1324.598,403.0,0.957
1325.79,404.0,0.957
1326.989,405.0,0.957
1328.183,406.0,0.957
1329.367,407.0,0.957
1330.563,408.0,0.957
1331.762,409.0,0.957
1332.955,410.0,0.957
1334.152,411.0,0.957
1335.343,412.0,0.957
1336.536,413.0,0.957
1337.722,414.0,0.957
1338.936,415.0,0.957
1340.111,416.0,0.957
1341.3,417.0,0.957
1342.482,418.0,0.957
1343.671,419.0,0.957
1344.874,420.0,0.957
1346.062,421.0,0.957
1347.264,422.0,0.957
1348.442,423.0,0.957
1349.628,424.0,0.957
1350.817,425.0,0.957
1352.012,426.0,0.957
1353.198,427.0,0.956
1354.374,428.0,0.956
1355.565,429.0,0.956
1356.758,430.0,0.956
1357.947,431.0,0.956
1359.125,432.0,0.956
1360.314,433.0,0.956
1361.502,434.0,0.956
1362.687,435.0,0.956
1363.865,436.0,0.956
1365.053,437.0,0.956
1366.239,438.0,0.956
1367.43,439.0,0.956
1368.612,440.0,0.956
1369.791,441.0,0.956
1370.979,442.0,0.956
1372.147,443.0,0.956
1373.335,444.0,0.956
1374.513,445.0,0.956
1375.683,446.0,0.956
1376.871,447.0,0.956
1378.056,448.0,0.956
1379.231,449.0,0.956
1380.409,450.0,0.956
1381.593,451.0,0.955
1382.776,452.0,0.955
1383.95,453.0,0.955
1385.123,454.0,0.955
1386.297,455.0,0.955
1387.462,456.0,0.955
1388.647,457.0,0.955
1389.835,458.0,0.954
1390.994,459.0,0.954
1392.185,460.0,0.954
1393.352,461.0,0.954
1394.526,462.0,0.954
1395.703,463.0,0.954
1396.868,464.0,0.953
1398.031,465.0,0.953
1399.219,466.0,0.953
1400.389,467.0,0.953
1401.546,468.0,0.953
1402.724,469.0,0.953
1403.901,470.0,0.952
1405.091,471.0,0.952
1406.258,472.0,0.952
1407.419,473.0,0.952
1408.597,474.0,0.952
1409.758,475.0,0.951
1410.936,476.0,0.951
1412.101,477.0,0.951
1413.274,478.0,0.951
1414.444,479.0,0.951
1415.626,480.0,0.95
1416.794,481.0,0.95
1417.956,482.0,0.949
1419.112,483.0,0.949
1420.293,484.0,0.948
1421.464,485.0,0.948
1422.633,486.0,0.947
1423.804,487.0,0.947
1424.973,488.0,0.947
1426.143,489.0,0.946
1427.308,490.0,0.946
1428.476,491.0,0.946
1429.648,492.0,0.945
1430.811,493.0,0.945
1431.973,494.0,0.945
1433.142,495.0,0.945
1434.313,496.0,0.944
1435.476,497.0,0.944
1436.653,498.0,0.943
1437.825,499.0,0.943
1438.987,500.0,0.943
1440.161,501.0,0.943
1441.321,502.0,0.942
1442.486,503.0,0.942
1443.662,504.0,0.942
1444.825,505.0,0.941
1445.987,506.0,0.941
1447.145,507.0,0.941
1448.321,508.0,0.941
1449.492,509.0,0.94
1450.658,510.0,0.94
1451.82,511.0,0.939
1452.988,512.0,0.939
1454.158,513.0,0.939
1455.337,514.0,0.938
1456.504,515.0,0.938
1457.672,516.0,0.937
1458.824,517.0,0.937
1459.987,518.0,0.936
1461.153,519.0,0.936
1462.324,520.0,0.935
1463.49,521.0,0.935
1464.657,522.0,0.934
1465.836,523.0,0.934
1466.986,524.0,0.933
1468.159,525.0,0.933
1469.332,526.0,0.932
1470.497,527.0,0.932
1471.667,528.0,0.931
1472.831,529.0,0.93
1474.002,530.0,0.93
1475.166,531.0,0.929
1476.331,532.0,0.929
1477.509,533.0,0.928
1478.677,534.0,0.927
1479.847,535.0,0.927
1481.018,536.0,0.926
1482.174,537.0,0.925
1483.35,538.0,0.925
1484.512,539.0,0.923
1485.68,540.0,0.923
1486.847,541.0,0.922
1488.015,542.0,0.921
1489.19,543.0,0.92
1490.362,544.0,0.92
1491.533,545.0,0.918
1492.697,546.0,0.917
1493.867,547.0,0.916
1495.041,548.0,0.915
1496.213,549.0,0.914
1497.38,550.0,0.914
1498.547,551.0,0.912
1499.716,552.0,0.911
1500.885,553.0,0.91
1502.057,554.0,0.909
1503.221,555.0,0.908
1504.391,556.0,0.907
1505.56,557.0,0.905
1506.736,558.0,0.904
1507.915,559.0,0.902
1509.087,560.0,0.901
1510.261,561.0,0.9
1511.431,562.0,0.898
1512.601,563.0,0.896
1513.77,564.0,0.895
1514.936,565.0,0.894
1516.117,566.0,0.892
1517.284,567.0,0.891
1518.461,568.0,0.889
1519.633,569.0,0.887
1520.815,570.0,0.886
1521.988,571.0,0.884
1523.163,572.0,0.883
1524.332,573.0,0.881
1525.507,574.0,0.879
1526.674,575.0,0.878
1527.847,576.0,0.876
1529.029,577.0,0.874
1530.211,578.0,0.873
1531.377,579.0,0.87
1532.556,580.0,0.868
1533.736,581.0,0.867
1534.91,582.0,0.865
1536.087,583.0,0.863
1537.261,584.0,0.86
1538.437,585.0,0.859
1539.624,586.0,0.857
1540.798,587.0,0.854
1541.974,588.0,0.852
1543.156,589.0,0.85
1544.332,590.0,0.847
1545.505,591.0,0.845
1546.687,592.0,0.843
1547.863,593.0,0.84
1549.038,594.0,0.838
1550.219,595.0,0.836
1551.402,596.0,0.833
1552.589,597.0,0.83
1553.775,598.0,0.827
1554.956,599.0,0.824
1556.125,600.0,0.822
1557.309,601.0,0.818
1558.488,602.0,0.816
1559.669,603.0,0.813
1560.852,604.0,0.809
1562.045,605.0,0.806
1563.221,606.0,0.803
1564.403,607.0,0.8
1565.585,608.0,0.796
1566.763,609.0,0.793
1567.953,610.0,0.789
1569.136,611.0,0.786
1570.316,612.0,0.782
1571.508,613.0,0.778
1572.686,614.0,0.775
1573.875,615.0,0.771
1575.067,616.0,0.767
1576.257,617.0,0.763
1577.436,618.0,0.759
1578.621,619.0,0.755
1579.814,620.0,0.751
1581.006,621.0,0.746
1582.192,622.0,0.741
1583.386,623.0,0.736
1584.573,624.0,0.732
1585.759,625.0,0.727
1586.94,626.0,0.722
1588.138,627.0,0.717
1589.329,628.0,0.713
1590.518,629.0,0.708
1591.708,630.0,0.703
1592.897,631.0,0.698
1594.086,632.0,0.693
1595.284,633.0,0.688
1596.479,634.0,0.682
1597.672,635.0,0.677
1598.868,636.0,0.672
1600.062,637.0,0.666
1601.261,638.0,0.661
1602.455,639.0,0.655
1603.644,640.0,0.65
1604.843,641.0,0.644
1606.032,642.0,0.639
1607.233,643.0,0.633
1608.436,644.0,0.627
1609.628,645.0,0.621
1610.819,646.0,0.615
1612.019,647.0,0.609
1613.222,648.0,0.603
1614.421,649.0,0.597
1615.615,650.0,0.591
1616.811,651.0,0.585
1618.013,652.0,0.579
1619.223,653.0,0.573
1620.42,654.0,0.566
1621.632,655.0,0.56
1622.83,656.0,0.553
1624.029,657.0,0.547
1625.23,658.0,0.54
1626.442,659.0,0.533
1627.642,660.0,0.526
1628.844,661.0,0.519
1630.047,662.0,0.512
1631.257,663.0,0.504
1632.464,664.0,0.497
1633.673,665.0,0.49
1634.883,666.0,0.483
1636.079,667.0,0.475
1637.296,668.0,0.467
1638.5,669.0,0.46
1639.705,670.0,0.451
1640.921,671.0,0.443
1642.126,672.0,0.435
1643.328,673.0,0.427
1644.54,674.0,0.418
1645.753,675.0,0.41
1646.959,676.0,0.401
1648.181,677.0,0.393
1649.398,678.0,0.384
1650.589,679.0,0.376
1651.796,680.0,0.367
1653.012,681.0,0.359
1654.219,682.0,0.35
1655.423,683.0,0.342
1656.639,684.0,0.334
1657.852,685.0,0.326
1659.057,686.0,0.319
1660.27,687.0,0.311
1661.481,688.0,0.304
1662.678,689.0,0.297
1663.884,690.0,0.291
1665.095,691.0,0.286
1666.297,692.0,0.28
1667.507,693.0,0.274
1668.717,694.0,0.27
1669.926,695.0,0.265
1671.133,696.0,0.262
1672.344,697.0,0.258
1673.55,698.0,0.255
1674.762,699.0,0.252
1675.973,700.0,0.25
1677.171,701.0,0.248
1678.384,702.0,0.246
1679.592,703.0,0.244
1680.802,704.0,0.243
1682.013,705.0,0.242
1683.216,706.0,0.241
1684.429,707.0,0.24
1685.636,708.0,0.239
1686.845,709.0,0.238
1688.056,710.0,0.237
1689.272,711.0,0.237
1690.491,712.0,0.236
1691.706,713.0,0.235
1692.911,714.0,0.234
1694.114,715.0,0.234
1695.324,716.0,0.233
1696.547,717.0,0.232
1697.753,718.0,0.232
1698.957,719.0,0.231
1700.179,720.0,0.231
1701.394,721.0,0.23
1702.606,722.0,0.229
1703.82,723.0,0.229
1705.021,724.0,0.228
1706.234,725.0,0.228
1707.44,726.0,0.227
1708.652,727.0,0.227
1709.869,728.0,0.226
1711.079,729.0,0.226
1712.295,730.0,0.225
1713.508,731.0,0.224
1714.72,732.0,0.224
1715.937,733.0,0.224
1717.148,734.0,0.223
1718.362,735.0,0.223
1719.574,736.0,0.222
1720.788,737.0,0.222
1721.995,738.0,0.221
1723.202,739.0,0.221
1724.413,740.0,0.22
1725.626,741.0,0.22
1726.844,742.0,0.219
1728.053,743.0,0.219
1729.269,744.0,0.218
1730.471,745.0,0.218
1731.69,746.0,0.217
1732.901,747.0,0.217
1734.114,748.0,0.217
1735.329,749.0,0.216
1736.553,750.0,0.215
1737.76,751.0,0.215
1738.964,752.0,0.215
1740.189,753.0,0.214
1741.394,754.0,0.214
1742.616,755.0,0.213
1743.821,756.0,0.213
1745.034,757.0,0.213
1746.248,758.0,0.212
1747.462,759.0,0.212
1748.681,760.0,0.212
1749.894,761.0,0.211
1751.104,762.0,0.211
1752.305,763.0,0.211
1753.524,764.0,0.21
1754.744,765.0,0.209
1755.955,766.0,0.209
1757.174,767.0,0.209
1758.386,768.0,0.208
1759.607,769.0,0.208
1760.81,770.0,0.208
1762.034,771.0,0.207
1763.242,772.0,0.207
1764.452,773.0,0.207
1765.67,774.0,0.206
1766.891,775.0,0.206
1768.095,776.0,0.206
1769.303,777.0,0.205
1770.52,778.0,0.205
1771.736,779.0,0.205
1772.954,780.0,0.205
1774.165,781.0,0.204
1775.378,782.0,0.204
1776.586,783.0,0.204
1777.8,784.0,0.204
1779.018,785.0,0.204
1780.225,786.0,0.203
1781.437,787.0,0.203
1782.655,788.0,0.203
1783.865,789.0,0.202
1785.091,790.0,0.202
1786.293,791.0,0.202
1787.51,792.0,0.201
1788.72,793.0,0.201
1789.938,794.0,0.201
1791.137,795.0,0.201
1792.365,796.0,0.201
1793.585,797.0,0.2
1794.798,798.0,0.2
1796.002,799.0,0.2
1797.228,800.0,0.2
1798.441,801.0,0.2
1799.653,802.0,0.199
1800.861,803.0,0.199
1802.079,804.0,0.199
1803.301,805.0,0.199
1804.504,806.0,0.198
1805.718,807.0,0.198
1806.93,808.0,0.198
1808.151,809.0,0.198
1809.363,810.0,0.197
1810.579,811.0,0.197
1811.792,812.0,0.197
1813.007,813.0,0.197
1814.212,814.0,0.197
1815.437,815.0,0.196
1816.647,816.0,0.196
1817.859,817.0,0.196
1819.077,818.0,0.196
1820.284,819.0,0.196
1821.495,820.0,0.195
1822.717,821.0,0.195
1823.934,822.0,0.195
1825.153,823.0,0.195
1826.363,824.0,0.195
1827.573,825.0,0.194
1828.79,826.0,0.194
1830.004,827.0,0.194
1831.21,828.0,0.194
1832.425,829.0,0.194
1833.636,830.0,0.193
1834.86,831.0,0.193
1836.074,832.0,0.193
1837.279,833.0,0.193
1838.487,834.0,0.193
1839.705,835.0,0.193
1840.915,836.0,0.192
1842.131,837.0,0.192
1843.345,838.0,0.192
1844.567,839.0,0.192
1845.772,840.0,0.192
1846.981,841.0,0.192
1848.196,842.0,0.192
1849.413,843.0,0.192
1850.63,844.0,0.191
1851.843,845.0,0.191
1853.052,846.0,0.191
1854.275,847.0,0.191
1855.516,848.0,0.191
1856.734,849.0,0.19
1857.951,850.0,0.19
1859.165,851.0,0.19
1860.379,852.0,0.19
1861.592,853.0,0.19
1862.817,854.0,0.189
1864.017,855.0,0.189
1865.233,856.0,0.189
1866.44,857.0,0.189
1867.649,858.0,0.189
1868.873,859.0,0.189
1870.09,860.0,0.188
1871.293,861.0,0.188
1872.507,862.0,0.188
1873.713,863.0,0.188
1874.922,864.0,0.188
1876.135,865.0,0.188
1877.345,866.0,0.188
1878.559,867.0,0.188
1879.771,868.0,0.187
1880.981,869.0,0.187
1882.192,870.0,0.187
1883.406,871.0,0.187
1884.606,872.0,0.187
1885.824,873.0,0.187
1887.048,874.0,0.187
1888.257,875.0,0.186
1889.467,876.0,0.186
1890.675,877.0,0.186
1891.89,878.0,0.186
1893.092,879.0,0.186
1894.303,880.0,0.186
1895.512,881.0,0.185
1896.721,882.0,0.185
1897.933,883.0,0.185
1899.14,884.0,0.185
1900.355,885.0,0.185
1901.571,886.0,0.185
1902.776,887.0,0.185
1903.978,888.0,0.184
1905.193,889.0,0.184
1906.407,890.0,0.184
1907.617,891.0,0.184
1908.819,892.0,0.184
1910.036,893.0,0.184
1911.247,894.0,0.183
1912.452,895.0,0.183
1913.657,896.0,0.183
1914.87,897.0,0.183
1916.08,898.0,0.183
1917.291,899.0,0.183
1918.495,900.0,0.183
1919.709,901.0,0.182
1920.906,902.0,0.182
1922.115,903.0,0.182
1923.317,904.0,0.182
1924.533,905.0,0.182
1925.742,906.0,0.182
1926.952,907.0,0.182
1928.145,908.0,0.182
1929.355,909.0,0.182
1930.556,910.0,0.181
1931.767,911.0,0.181
1932.977,912.0,0.181
1934.179,913.0,0.181
1935.382,914.0,0.181
1936.591,915.0,0.181
1937.793,916.0,0.181
1939.002,917.0,0.18
1940.212,918.0,0.18
1941.413,919.0,0.18
1942.618,920.0,0.18
1943.821,921.0,0.18
1945.031,922.0,0.18
1946.219,923.0,0.18
1947.433,924.0,0.18
1948.64,925.0,0.179
1949.839,926.0,0.179
1951.048,927.0,0.179
1952.248,928.0,0.179
1953.451,929.0,0.179
1954.651,930.0,0.179
1955.862,931.0,0.179
1957.052,932.0,0.179
1958.264,933.0,0.179
1959.472,934.0,0.178
1960.673,935.0,0.178
1961.874,936.0,0.178
1963.076,937.0,0.178
1964.274,938.0,0.178
1965.485,939.0,0.178
1966.69,940.0,0.178
1967.891,941.0,0.178
1969.095,942.0,0.178
1970.295,943.0,0.178
1971.496,944.0,0.177
1972.7,945.0,0.177
1973.895,946.0,0.177
1975.097,947.0,0.177
1976.301,948.0,0.177
1977.501,949.0,0.177
1978.698,950.0,0.177
1979.889,951.0,0.177
1981.086,952.0,0.177
1982.3,953.0,0.177
1983.503,954.0,0.176
1984.701,955.0,0.176
1985.901,956.0,0.176
1987.103,957.0,0.176
1988.303,958.0,0.176
1989.507,959.0,0.176
1990.714,960.0,0.176
1991.913,961.0,0.176
1993.11,962.0,0.176
1994.302,963.0,0.176
1995.503,964.0,0.175
1996.705,965.0,0.175
1997.904,966.0,0.175
1999.096,967.0,0.175
2000.298,968.0,0.175
2001.499,969.0,0.175
2002.697,970.0,0.175
2003.899,971.0,0.175
2005.088,972.0,0.175
2006.284,973.0,0.174
2007.482,974.0,0.174
2008.677,975.0,0.174
2009.868,976.0,0.174
2011.076,977.0,0.174
2012.275,978.0,0.174
2013.47,979.0,0.174
2014.663,980.0,0.174
2015.868,981.0,0.174
2017.065,982.0,0.174
2018.255,983.0,0.174
2019.451,984.0,0.173
2020.644,985.0,0.173
2021.839,986.0,0.173
2023.044,987.0,0.173
2024.235,988.0,0.173
2025.427,989.0,0.173
2026.618,990.0,0.173
2027.816,991.0,0.173
2029.014,992.0,0.173
2030.206,993.0,0.173
2031.399,994.0,0.173
2032.594,995.0,0.173
2033.798,996.0,0.172
2034.986,997.0,0.172
2036.171,998.0,0.172
2037.369,999.0,0.172
2038.57,1000.0,0.172
2039.763,1001.0,0.172
2040.949,1002.0,0.172
2042.143,1003.0,0.172
2043.328,1004.0,0.171
2044.533,1005.0,0.171
2045.726,1006.0,0.171
2046.925,1007.0,0.171
2048.112,1008.0,0.171
2049.31,1009.0,0.171
2050.501,1010.0,0.171
2051.687,1011.0,0.171
2052.886,1012.0,0.171
2054.074,1013.0,0.171
2055.272,1014.0,0.17
2056.466,1015.0,0.17
2057.661,1016.0,0.17
2058.848,1017.0,0.17
2060.039,1018.0,0.17
2061.233,1019.0,0.17
2062.421,1020.0,0.17
2063.611,1021.0,0.169
2064.803,1022.0,0.169
2065.999,1023.0,0.169
2067.183,1024.0,0.169
2068.378,1025.0,0.169
2069.578,1026.0,0.169
2070.767,1027.0,0.169
2071.955,1028.0,0.169
2073.145,1029.0,0.169
2074.33,1030.0,0.169
2075.519,1031.0,0.168
2076.714,1032.0,0.168
2077.901,1033.0,0.168
2079.092,1034.0,0.168
2080.296,1035.0,0.168
2081.485,1036.0,0.168
2082.673,1037.0,0.168
2083.855,1038.0,0.168
2085.047,1039.0,0.168
2086.244,1040.0,0.168
2087.435,1041.0,0.168
2088.625,1042.0,0.167
2089.827,1043.0,0.167
2091.023,1044.0,0.167
2092.211,1045.0,0.167
2093.406,1046.0,0.167
2094.602,1047.0,0.167
2095.794,1048.0,0.167
2096.99,1049.0,0.167
2098.181,1050.0,0.167
2099.379,1051.0,0.167
2100.577,1052.0,0.167
2101.77,1053.0,0.167
2102.973,1054.0,0.167
2104.044,1055.0,0.167
2106.718,1056.0,0.166
2108.539,1057.0,0.166
2110.396,1058.0,0.166
2112.403,1059.0,0.166
2114.601,1060.0,0.166
2117.028,1061.0,0.166
2119.685,1062.0,0.165
2122.654,1063.0,0.165
2134.0,1065.935,0.165
2154.0,1068.863,0.164
2174.0,1070.335,0.164
2194.0,1071.127,0.163
2214.0,1071.608,0.163
2234.0,1071.911,0.162
2254.0,1072.123,0.162
2274.0,1072.283,0.162
2294.0,1072.401,0.161
2314.0,1072.492,0.161
2334.0,1072.56,0.161
2354.0,1072.619,0.161
2374.0,1072.669,0.16
2394.0,1072.696,0.16
2414.0,1072.731,0.16
2424.0,1072.744,0.16