File: Wood/Calibration_Data/TUBS/TUBS_Wood_TGA_N2_50K_R3.csv
Time (s),Temperature (K),Mass (mg)
0.0,305.021,0.969
16.0,304.937,0.967
35.0,304.862,0.965
52.0,304.817,0.963
77.0,304.751,0.961
108.0,304.717,0.959
142.0,304.639,0.959
155.0,304.624,0.957
206.0,304.581,0.955
313.0,304.494,0.953
334.0,304.483,0.953
351.0,304.487,0.953
369.0,304.491,0.953
492.0,304.462,0.951
568.0,304.452,0.951
714.0,304.443,0.951
771.0,304.439,0.951
821.0,304.447,0.951
846.0,304.448,0.951
869.0,304.437,0.951
901.0,304.455,0.951
1180.0,304.461,0.949
1204.0,305.0,0.948
1206.107,306.0,0.947
1207.691,307.0,0.947
1209.407,308.0,0.947
1211.029,309.0,0.948
1212.431,310.0,0.949
1213.744,311.0,0.95
1215.052,312.0,0.95
1216.315,313.0,0.951
1217.562,314.0,0.952
1218.783,315.0,0.952
1220.008,316.0,0.952
1221.212,317.0,0.952
1222.417,318.0,0.952
1223.617,319.0,0.952
1224.823,320.0,0.952
1226.014,321.0,0.952
1227.213,322.0,0.952
1228.413,323.0,0.951
1229.602,324.0,0.951
1230.798,325.0,0.951
1231.99,326.0,0.951
1233.192,327.0,0.95
1234.384,328.0,0.95
1235.566,329.0,0.95
1236.769,330.0,0.95
1237.972,331.0,0.949
1239.167,332.0,0.949
1240.381,333.0,0.949
1241.573,334.0,0.948
1242.771,335.0,0.948
1243.97,336.0,0.948
1245.162,337.0,0.948
1246.359,338.0,0.948
1247.556,339.0,0.948
1248.745,340.0,0.948
1249.959,341.0,0.947
1251.17,342.0,0.947
1252.375,343.0,0.947
1253.59,344.0,0.947
1254.782,345.0,0.947
1255.987,346.0,0.946
1257.188,347.0,0.946
1258.382,348.0,0.946
1259.584,349.0,0.945
1260.78,350.0,0.945
1261.988,351.0,0.945
1263.2,352.0,0.945
1264.403,353.0,0.944
1265.609,354.0,0.944
1266.818,355.0,0.943
1268.016,356.0,0.943
1269.209,357.0,0.943
1270.408,358.0,0.943
1271.62,359.0,0.943
1272.827,360.0,0.943
1274.02,361.0,0.943
1275.218,362.0,0.943
1276.413,363.0,0.943
1277.633,364.0,0.943
1278.842,365.0,0.943
1280.039,366.0,0.942
1281.242,367.0,0.942
1282.437,368.0,0.942
1283.643,369.0,0.942
1284.843,370.0,0.942
1286.049,371.0,0.942
1287.256,372.0,0.941
1288.453,373.0,0.941
1289.661,374.0,0.941
1290.865,375.0,0.941
1292.067,376.0,0.941
1293.279,377.0,0.941
1294.471,378.0,0.941
1295.673,379.0,0.941
1296.879,380.0,0.941
1298.07,381.0,0.941
1299.275,382.0,0.941
1300.474,383.0,0.94
1301.675,384.0,0.94
1302.883,385.0,0.94
1304.08,386.0,0.94
1305.278,387.0,0.94
1306.475,388.0,0.94
1307.68,389.0,0.94
1308.888,390.0,0.94
1310.074,391.0,0.94
1311.283,392.0,0.94
1312.465,393.0,0.939
1313.665,394.0,0.939
1314.871,395.0,0.939
1316.064,396.0,0.939
1317.254,397.0,0.939
1318.458,398.0,0.939
1319.658,399.0,0.939
1320.853,400.0,0.939
1322.054,401.0,0.939
1323.249,402.0,0.939
1324.439,403.0,0.939
1325.622,404.0,0.939
1326.813,405.0,0.939
1328.018,406.0,0.939
1329.212,407.0,0.939
1330.406,408.0,0.939
1331.607,409.0,0.939
1332.797,410.0,0.939
1333.986,411.0,0.939
1335.18,412.0,0.939
1336.361,413.0,0.939
1337.55,414.0,0.939
1338.744,415.0,0.939
1339.944,416.0,0.939
1341.108,417.0,0.939
1342.308,418.0,0.939
1343.502,419.0,0.939
1344.693,420.0,0.939
1345.888,421.0,0.939
1347.061,422.0,0.939
1348.242,423.0,0.939
1349.438,424.0,0.939
1350.625,425.0,0.939
1351.814,426.0,0.939
1353.0,427.0,0.939
1354.19,428.0,0.939
1355.366,429.0,0.939
1356.553,430.0,0.939
1357.738,431.0,0.939
1358.923,432.0,0.939
1360.113,433.0,0.939
1361.29,434.0,0.939
1362.474,435.0,0.939
1363.661,436.0,0.939
1364.838,437.0,0.939
1366.021,438.0,0.939
1367.205,439.0,0.939
1368.39,440.0,0.938
1369.573,441.0,0.938
1370.755,442.0,0.938
1371.934,443.0,0.938
1373.123,444.0,0.938
1374.302,445.0,0.938
1375.466,446.0,0.938
1376.647,447.0,0.938
1377.823,448.0,0.938
1379.009,449.0,0.938
1380.178,450.0,0.938
1381.368,451.0,0.938
1382.541,452.0,0.938
1383.717,453.0,0.938
1384.906,454.0,0.937
1386.073,455.0,0.937
1387.239,456.0,0.937
1388.413,457.0,0.937
1389.584,458.0,0.937
1390.769,459.0,0.937
1391.942,460.0,0.937
1393.106,461.0,0.936
1394.266,462.0,0.936
1395.449,463.0,0.936
1396.623,464.0,0.936
1397.808,465.0,0.936
1398.968,466.0,0.936
1400.134,467.0,0.935
1401.313,468.0,0.935
1402.485,469.0,0.935
1403.658,470.0,0.935
1404.833,471.0,0.935
1405.997,472.0,0.934
1407.155,473.0,0.934
1408.336,474.0,0.934
1409.517,475.0,0.934
1410.677,476.0,0.934
1411.844,477.0,0.933
1413.022,478.0,0.933
1414.189,479.0,0.933
1415.352,480.0,0.933
1416.523,481.0,0.932
1417.693,482.0,0.932
1418.86,483.0,0.931
1420.027,484.0,0.931
1421.189,485.0,0.931
1422.365,486.0,0.93
1423.526,487.0,0.93
1424.69,488.0,0.929
1425.863,489.0,0.929
1427.03,490.0,0.929
1428.191,491.0,0.929
1429.353,492.0,0.928
1430.509,493.0,0.928
1431.692,494.0,0.928
1432.854,495.0,0.927
1434.023,496.0,0.927
1435.192,497.0,0.927
1436.359,498.0,0.927
1437.522,499.0,0.926
1438.683,500.0,0.926
1439.855,501.0,0.926
1441.015,502.0,0.925
1442.194,503.0,0.925
1443.35,504.0,0.925
1444.521,505.0,0.924
1445.691,506.0,0.924
1446.843,507.0,0.923
1448.016,508.0,0.923
1449.186,509.0,0.923
1450.347,510.0,0.922
1451.512,511.0,0.922
1452.678,512.0,0.921
1453.852,513.0,0.921
1455.011,514.0,0.921
1456.177,515.0,0.92
1457.34,516.0,0.92
1458.509,517.0,0.919
1459.672,518.0,0.919
1460.852,519.0,0.918
1462.005,520.0,0.918
1463.178,521.0,0.918
1464.341,522.0,0.917
1465.501,523.0,0.916
1466.677,524.0,0.916
1467.832,525.0,0.916
1469.008,526.0,0.915
1470.18,527.0,0.915
1471.337,528.0,0.914
1472.504,529.0,0.913
1473.675,530.0,0.913
1474.856,531.0,0.912
1476.002,532.0,0.912
1477.174,533.0,0.911
1478.338,534.0,0.911
1479.508,535.0,0.91
1480.673,536.0,0.909
1481.841,537.0,0.908
1483.018,538.0,0.908
1484.167,539.0,0.907
1485.339,540.0,0.906
1486.512,541.0,0.905
1487.676,542.0,0.904
1488.847,543.0,0.904
1490.022,544.0,0.903
1491.19,545.0,0.902
1492.355,546.0,0.901
1493.524,547.0,0.9
1494.695,548.0,0.899
1495.857,549.0,0.898
1497.031,550.0,0.897
1498.196,551.0,0.896
1499.37,552.0,0.895
1500.539,553.0,0.893
1501.709,554.0,0.892
1502.878,555.0,0.891
1504.038,556.0,0.89
1505.215,557.0,0.889
1506.383,558.0,0.888
1507.551,559.0,0.886
1508.733,560.0,0.885
1509.908,561.0,0.884
1511.066,562.0,0.883
1512.241,563.0,0.881
1513.411,564.0,0.88
1514.579,565.0,0.878
1515.754,566.0,0.877
1516.921,567.0,0.876
1518.093,568.0,0.874
1519.266,569.0,0.873
1520.445,570.0,0.871
1521.622,571.0,0.869
1522.79,572.0,0.868
1523.964,573.0,0.866
1525.134,574.0,0.865
1526.302,575.0,0.863
1527.477,576.0,0.862
1528.658,577.0,0.86
1529.828,578.0,0.858
1531.011,579.0,0.856
1532.181,580.0,0.855
1533.353,581.0,0.852
1534.532,582.0,0.85
1535.71,583.0,0.849
1536.888,584.0,0.847
1538.056,585.0,0.845
1539.229,586.0,0.843
1540.42,587.0,0.841
1541.589,588.0,0.839
1542.757,589.0,0.836
1543.936,590.0,0.834
1545.112,591.0,0.832
1546.292,592.0,0.829
1547.468,593.0,0.827
1548.652,594.0,0.825
1549.835,595.0,0.822
1551.025,596.0,0.82
1552.203,597.0,0.817
1553.384,598.0,0.814
1554.565,599.0,0.812
1555.753,600.0,0.809
1556.923,601.0,0.806
1558.101,602.0,0.804
1559.275,603.0,0.8
1560.453,604.0,0.798
1561.639,605.0,0.795
1562.829,606.0,0.792
1564.005,607.0,0.788
1565.197,608.0,0.785
1566.379,609.0,0.782
1567.558,610.0,0.778
1568.738,611.0,0.775
1569.936,612.0,0.771
1571.111,613.0,0.768
1572.299,614.0,0.764
1573.475,615.0,0.761
1574.664,616.0,0.757
1575.859,617.0,0.753
1577.046,618.0,0.749
1578.224,619.0,0.745
1579.41,620.0,0.74
1580.598,621.0,0.736
1581.789,622.0,0.732
1582.975,623.0,0.728
1584.164,624.0,0.723
1585.356,625.0,0.719
1586.548,626.0,0.714
1587.732,627.0,0.71
1588.928,628.0,0.705
1590.107,629.0,0.701
1591.3,630.0,0.696
1592.493,631.0,0.69
1593.687,632.0,0.685
1594.873,633.0,0.681
1596.065,634.0,0.675
1597.263,635.0,0.67
1598.45,636.0,0.665
1599.638,637.0,0.659
1600.837,638.0,0.655
1602.019,639.0,0.649
1603.215,640.0,0.644
1604.406,641.0,0.638
1605.608,642.0,0.633
1606.801,643.0,0.628
1608.006,644.0,0.622
1609.21,645.0,0.616
1610.398,646.0,0.611
1611.589,647.0,0.605
1612.797,648.0,0.599
1613.988,649.0,0.593
1615.189,650.0,0.588
1616.399,651.0,0.582
1617.592,652.0,0.576
1618.795,653.0,0.57
1619.988,654.0,0.563
1621.191,655.0,0.557
1622.385,656.0,0.551
1623.588,657.0,0.545
1624.798,658.0,0.538
1626.0,659.0,0.532
1627.205,660.0,0.526
1628.402,661.0,0.519
1629.609,662.0,0.512
1630.816,663.0,0.505
1632.016,664.0,0.498
1633.22,665.0,0.491
1634.424,666.0,0.483
1635.631,667.0,0.476
1636.839,668.0,0.469
1638.048,669.0,0.462
1639.257,670.0,0.453
1640.463,671.0,0.446
1641.676,672.0,0.438
1642.876,673.0,0.431
1644.076,674.0,0.422
1645.29,675.0,0.414
1646.502,676.0,0.406
1647.711,677.0,0.398
1648.919,678.0,0.39
1650.123,679.0,0.382
1651.342,680.0,0.374
1652.545,681.0,0.365
1653.752,682.0,0.357
1654.966,683.0,0.349
1656.181,684.0,0.341
1657.381,685.0,0.333
1658.591,686.0,0.325
1659.792,687.0,0.318
1661.004,688.0,0.311
1662.216,689.0,0.305
1663.415,690.0,0.298
1664.613,691.0,0.293
1665.822,692.0,0.287
1667.03,693.0,0.282
1668.235,694.0,0.277
1669.444,695.0,0.273
1670.647,696.0,0.268
1671.855,697.0,0.265
1673.066,698.0,0.262
1674.275,699.0,0.258
1675.477,700.0,0.256
1676.689,701.0,0.254
1677.899,702.0,0.252
1679.113,703.0,0.25
1680.319,704.0,0.249
1681.53,705.0,0.247
1682.743,706.0,0.246
1683.943,707.0,0.246
1685.152,708.0,0.245
1686.368,709.0,0.244
1687.578,710.0,0.243
1688.795,711.0,0.243
1689.999,712.0,0.242
1691.212,713.0,0.241
1692.425,714.0,0.241
1693.638,715.0,0.24
1694.849,716.0,0.239
1696.053,717.0,0.239
1697.275,718.0,0.238
1698.482,719.0,0.238
1699.682,720.0,0.237
1700.9,721.0,0.236
1702.111,722.0,0.236
1703.318,723.0,0.235
1704.53,724.0,0.234
1705.742,725.0,0.234
1706.974,726.0,0.233
1708.174,727.0,0.233
1709.383,728.0,0.232
1710.598,729.0,0.231
1711.804,730.0,0.231
1713.015,731.0,0.231
1714.227,732.0,0.23
1715.44,733.0,0.23
1716.649,734.0,0.229
1717.866,735.0,0.229
1719.076,736.0,0.229
1720.295,737.0,0.228
1721.505,738.0,0.227
1722.715,739.0,0.227
1723.931,740.0,0.227
1725.146,741.0,0.226
1726.358,742.0,0.226
1727.566,743.0,0.225
1728.774,744.0,0.225
1729.988,745.0,0.224
1731.204,746.0,0.224
1732.416,747.0,0.223
1733.628,748.0,0.223
1734.851,749.0,0.222
1736.06,750.0,0.222
1737.269,751.0,0.222
1738.487,752.0,0.221
1739.698,753.0,0.221
1740.914,754.0,0.221
1742.13,755.0,0.22
1743.342,756.0,0.22
1744.548,757.0,0.219
1745.768,758.0,0.219
1746.984,759.0,0.219
1748.195,760.0,0.219
1749.4,761.0,0.218
1750.608,762.0,0.218
1751.826,763.0,0.217
1753.042,764.0,0.217
1754.246,765.0,0.217
1755.466,766.0,0.217
1756.677,767.0,0.216
1757.884,768.0,0.216
1759.108,769.0,0.215
1760.316,770.0,0.215
1761.525,771.0,0.215
1762.746,772.0,0.214
1763.959,773.0,0.214
1765.171,774.0,0.214
1766.386,775.0,0.214
1767.595,776.0,0.213
1768.809,777.0,0.213
1770.018,778.0,0.213
1771.237,779.0,0.212
1772.455,780.0,0.212
1773.672,781.0,0.212
1774.886,782.0,0.212
1776.102,783.0,0.211
1777.314,784.0,0.211
1778.523,785.0,0.211
1779.742,786.0,0.21
1780.959,787.0,0.21
1782.159,788.0,0.21
1783.381,789.0,0.21
1784.594,790.0,0.209
1785.81,791.0,0.209
1787.026,792.0,0.209
1788.243,793.0,0.208
1789.457,794.0,0.208
1790.665,795.0,0.208
1791.886,796.0,0.208
1793.097,797.0,0.207
1794.303,798.0,0.207
1795.525,799.0,0.207
1796.739,800.0,0.207
1797.961,801.0,0.207
1799.178,802.0,0.207
1800.388,803.0,0.207
1801.598,804.0,0.206
1802.812,805.0,0.206
1804.031,806.0,0.206
1805.239,807.0,0.206
1806.452,808.0,0.206
1807.661,809.0,0.205
1808.88,810.0,0.205
1810.107,811.0,0.205
1811.315,812.0,0.205
1812.528,813.0,0.204
1813.738,814.0,0.204
1814.949,815.0,0.204
1816.168,816.0,0.204
1817.379,817.0,0.204
1818.593,818.0,0.204
1819.798,819.0,0.203
1821.019,820.0,0.203
1822.232,821.0,0.203
1823.446,822.0,0.203
1824.659,823.0,0.203
1825.879,824.0,0.203
1827.091,825.0,0.203
1828.302,826.0,0.202
1829.516,827.0,0.202
1830.731,828.0,0.202
1831.949,829.0,0.202
1833.156,830.0,0.202
1834.378,831.0,0.202
1835.592,832.0,0.201
1836.808,833.0,0.201
1838.023,834.0,0.201
1839.228,835.0,0.201
1840.442,836.0,0.201
1841.658,837.0,0.2
1842.873,838.0,0.2
1844.086,839.0,0.2
1845.297,840.0,0.2
1846.515,841.0,0.2
1847.724,842.0,0.199
1848.932,843.0,0.199
1850.146,844.0,0.199
1851.36,845.0,0.199
1852.58,846.0,0.199
1853.79,847.0,0.199
1855.006,848.0,0.199
1856.213,849.0,0.199
1857.422,850.0,0.199
1858.635,851.0,0.198
1859.853,852.0,0.198
1861.064,853.0,0.198
1862.281,854.0,0.198
1863.51,855.0,0.198
1864.73,856.0,0.198
1865.953,857.0,0.197
1867.157,858.0,0.197
1868.377,859.0,0.197
1869.595,860.0,0.197
1870.813,861.0,0.197
1872.035,862.0,0.196
1873.247,863.0,0.196
1874.454,864.0,0.196
1875.672,865.0,0.196
1876.875,866.0,0.196
1878.095,867.0,0.196
1879.308,868.0,0.195
1880.518,869.0,0.195
1881.729,870.0,0.195
1882.925,871.0,0.195
1884.139,872.0,0.195
1885.353,873.0,0.195
1886.563,874.0,0.195
1887.778,875.0,0.195
1888.981,876.0,0.195
1890.201,877.0,0.195
1891.403,878.0,0.195
1892.616,879.0,0.195
1893.828,880.0,0.194
1895.043,881.0,0.194
1896.251,882.0,0.194
1897.463,883.0,0.194
1898.679,884.0,0.194
1899.886,885.0,0.194
1901.095,886.0,0.193
1902.301,887.0,0.193
1903.508,888.0,0.193
1904.726,889.0,0.193
1905.931,890.0,0.193
1907.141,891.0,0.193
1908.351,892.0,0.193
1909.554,893.0,0.192
1910.757,894.0,0.192
1911.98,895.0,0.192
1913.188,896.0,0.192
1914.394,897.0,0.192
1915.603,898.0,0.192
1916.811,899.0,0.192
1918.017,900.0,0.191
1919.222,901.0,0.191
1920.43,902.0,0.191
1921.636,903.0,0.191
1922.844,904.0,0.191
1924.052,905.0,0.191
1925.266,906.0,0.191
1926.472,907.0,0.191
1927.688,908.0,0.19
1928.886,909.0,0.19
1930.079,910.0,0.19
1931.297,911.0,0.19
1932.51,912.0,0.19
1933.715,913.0,0.19
1934.924,914.0,0.19
1936.137,915.0,0.19
1937.336,916.0,0.19
1938.545,917.0,0.19
1939.75,918.0,0.19
1940.96,919.0,0.189
1942.165,920.0,0.189
1943.371,921.0,0.189
1944.578,922.0,0.189
1945.788,923.0,0.189
1946.999,924.0,0.189
1948.203,925.0,0.189
1949.407,926.0,0.189
1950.616,927.0,0.189
1951.83,928.0,0.189
1953.021,929.0,0.188
1954.23,930.0,0.188
1955.436,931.0,0.188
1956.641,932.0,0.188
1957.845,933.0,0.188
1959.053,934.0,0.188
1960.258,935.0,0.188
1961.462,936.0,0.188
1962.666,937.0,0.188
1963.873,938.0,0.188
1965.078,939.0,0.187
1966.281,940.0,0.187
1967.487,941.0,0.187
1968.693,942.0,0.187
1969.893,943.0,0.187
1971.099,944.0,0.187
1972.31,945.0,0.187
1973.512,946.0,0.187
1974.714,947.0,0.187
1975.914,948.0,0.187
1977.128,949.0,0.187
1978.321,950.0,0.187
1979.528,951.0,0.187
1980.726,952.0,0.187
1981.933,953.0,0.186
1983.139,954.0,0.186
1984.337,955.0,0.186
1985.541,956.0,0.186
1986.738,957.0,0.186
1987.941,958.0,0.186
1989.149,959.0,0.186
1990.35,960.0,0.186
1991.555,961.0,0.186
1992.758,962.0,0.186
1993.964,963.0,0.186
1995.158,964.0,0.186
1996.362,965.0,0.186
1997.566,966.0,0.185
1998.765,967.0,0.185
1999.965,968.0,0.185
2001.162,969.0,0.185
2002.36,970.0,0.185
2003.563,971.0,0.185
2004.771,972.0,0.185
2005.971,973.0,0.185
2007.161,974.0,0.185
2008.369,975.0,0.184
2009.569,976.0,0.184
2010.767,977.0,0.184
2011.965,978.0,0.184
2013.172,979.0,0.184
2014.365,980.0,0.184
2015.568,981.0,0.184
2016.767,982.0,0.184
2017.963,983.0,0.184
2019.165,984.0,0.184
2020.362,985.0,0.184
2021.558,986.0,0.184
2022.761,987.0,0.184
2023.962,988.0,0.184
2025.158,989.0,0.184
2026.36,990.0,0.184
2027.558,991.0,0.183
2028.758,992.0,0.183
2029.958,993.0,0.183
2031.159,994.0,0.183
2032.352,995.0,0.183
2033.543,996.0,0.183
2034.745,997.0,0.183
2035.939,998.0,0.183
2037.131,999.0,0.183
2038.329,1000.0,0.183
2039.524,1001.0,0.183
2040.731,1002.0,0.183
2041.913,1003.0,0.183
2043.109,1004.0,0.183
2044.313,1005.0,0.183
2045.515,1006.0,0.182
2046.709,1007.0,0.182
2047.908,1008.0,0.182
2049.109,1009.0,0.182
2050.299,1010.0,0.182
2051.497,1011.0,0.182
2052.695,1012.0,0.182
2053.887,1013.0,0.182
2055.086,1014.0,0.182
2056.283,1015.0,0.182
2057.474,1016.0,0.182
2058.675,1017.0,0.182
2059.869,1018.0,0.182
2061.057,1019.0,0.182
2062.254,1020.0,0.182
2063.453,1021.0,0.182
2064.655,1022.0,0.181
2065.843,1023.0,0.181
2067.031,1024.0,0.181
2068.23,1025.0,0.181
2069.424,1026.0,0.181
2070.621,1027.0,0.181
2071.809,1028.0,0.181
2073.01,1029.0,0.181
2074.2,1030.0,0.181
2075.406,1031.0,0.181
2076.597,1032.0,0.181
2077.785,1033.0,0.181
2078.987,1034.0,0.181
2080.176,1035.0,0.181
2081.373,1036.0,0.181
2082.573,1037.0,0.181
2083.767,1038.0,0.181
2084.958,1039.0,0.181
2086.152,1040.0,0.181
2087.347,1041.0,0.18
2088.54,1042.0,0.18
2089.739,1043.0,0.18
2090.935,1044.0,0.18
2092.131,1045.0,0.18
2093.321,1046.0,0.18
2094.507,1047.0,0.18
2095.704,1048.0,0.18
2096.906,1049.0,0.18
2098.089,1050.0,0.18
2099.286,1051.0,0.18
2100.486,1052.0,0.18
2101.681,1053.0,0.18
2102.887,1054.0,0.18
2103.925,1055.0,0.18
2106.311,1056.0,0.18
2108.143,1057.0,0.18
2109.972,1058.0,0.18
2111.98,1059.0,0.18
2114.161,1060.0,0.18
2116.553,1061.0,0.179
2119.177,1062.0,0.179
2122.158,1063.0,0.179
2134.0,1066.01,0.179
2154.0,1068.84,0.178
2174.0,1070.238,0.178
2194.0,1071.012,0.178
2214.0,1071.469,0.178
2234.0,1071.757,0.177
2254.0,1071.973,0.177
2274.0,1072.135,0.177
2294.0,1072.272,0.176
2314.0,1072.353,0.176
2334.0,1072.405,0.176
2354.0,1072.477,0.176
2374.0,1072.515,0.175
2394.0,1072.548,0.175
2414.0,1072.578,0.175
2424.0,1072.584,0.175