File: Wood/Calibration_Data/TUBS/TUBS_TGA_N2_10K_R1.csv
Time (s),Temperature (K),Mass (mg)
0.0,304.878,1.04
10.0,304.848,1.038
24.0,304.763,1.036
40.0,304.716,1.034
55.0,304.673,1.032
65.0,304.665,1.032
84.0,304.619,1.03
110.0,304.58,1.028
150.0,304.513,1.026
200.0,304.47,1.024
278.0,304.416,1.022
300.0,304.389,1.022
403.0,304.361,1.02
643.0,304.332,1.018
818.0,304.339,1.018
845.0,304.336,1.018
897.0,304.329,1.018
923.0,304.337,1.018
1011.0,304.329,1.016
1097.0,304.356,1.018
1174.0,304.341,1.018
1211.52,305.0,1.016
1220.172,306.0,1.018
1227.734,307.0,1.017
1234.898,308.0,1.017
1241.878,309.0,1.017
1248.737,310.0,1.017
1255.476,311.0,1.017
1262.049,312.0,1.017
1268.636,313.0,1.017
1275.113,314.0,1.016
1281.51,315.0,1.016
1287.842,316.0,1.016
1294.14,317.0,1.016
1300.354,318.0,1.016
1306.533,319.0,1.016
1312.673,320.0,1.015
1318.778,321.0,1.015
1324.863,322.0,1.014
1330.813,323.0,1.014
1336.904,324.0,1.015
1342.935,325.0,1.014
1349.063,326.0,1.014
1354.987,327.0,1.013
1361.096,328.0,1.013
1367.031,329.0,1.013
1373.073,330.0,1.012
1378.976,331.0,1.012
1384.951,332.0,1.012
1390.883,333.0,1.012
1396.895,334.0,1.011
1402.935,335.0,1.011
1408.93,336.0,1.011
1414.824,337.0,1.01
1420.682,338.0,1.01
1426.74,339.0,1.009
1432.585,340.0,1.009
1438.629,341.0,1.008
1444.57,342.0,1.009
1450.571,343.0,1.009
1456.488,344.0,1.008
1462.439,345.0,1.008
1468.46,346.0,1.008
1474.386,347.0,1.008
1480.302,348.0,1.007
1486.322,349.0,1.007
1492.257,350.0,1.007
1498.136,351.0,1.007
1504.112,352.0,1.007
1510.057,353.0,1.006
1516.0,354.0,1.006
1521.95,355.0,1.006
1527.924,356.0,1.006
1533.909,357.0,1.006
1539.789,358.0,1.006
1545.727,359.0,1.006
1551.637,360.0,1.006
1557.601,361.0,1.006
1563.577,362.0,1.005
1569.482,363.0,1.005
1575.438,364.0,1.005
1581.421,365.0,1.005
1587.368,366.0,1.005
1593.29,367.0,1.005
1599.214,368.0,1.005
1605.169,369.0,1.005
1611.114,370.0,1.005
1616.983,371.0,1.005
1623.03,372.0,1.005
1628.915,373.0,1.005
1634.923,374.0,1.005
1640.823,375.0,1.005
1646.716,376.0,1.005
1652.721,377.0,1.005
1658.55,378.0,1.005
1664.508,379.0,1.005
1670.395,380.0,1.005
1676.393,381.0,1.005
1682.319,382.0,1.005
1688.247,383.0,1.005
1694.174,384.0,1.005
1700.118,385.0,1.005
1706.011,386.0,1.005
1711.945,387.0,1.005
1717.851,388.0,1.005
1723.738,389.0,1.005
1729.659,390.0,1.005
1735.659,391.0,1.005
1741.598,392.0,1.005
1747.473,393.0,1.005
1753.459,394.0,1.005
1759.269,395.0,1.005
1765.174,396.0,1.005
1771.126,397.0,1.005
1776.968,398.0,1.005
1783.028,399.0,1.005
1788.865,400.0,1.005
1794.784,401.0,1.005
1800.724,402.0,1.005
1806.591,403.0,1.005
1812.529,404.0,1.005
1818.438,405.0,1.005
1824.337,406.0,1.004
1830.323,407.0,1.004
1836.152,408.0,1.004
1842.099,409.0,1.004
1847.976,410.0,1.004
1853.976,411.0,1.004
1859.808,412.0,1.004
1865.767,413.0,1.004
1871.716,414.0,1.004
1877.61,415.0,1.004
1883.541,416.0,1.004
1889.41,417.0,1.004
1895.308,418.0,1.004
1901.212,419.0,1.004
1907.124,420.0,1.004
1913.048,421.0,1.004
1918.982,422.0,1.004
1924.883,423.0,1.003
1930.782,424.0,1.003
1936.723,425.0,1.003
1942.623,426.0,1.003
1948.53,427.0,1.003
1954.406,428.0,1.003
1960.32,429.0,1.003
1966.261,430.0,1.003
1972.237,431.0,1.003
1978.084,432.0,1.002
1983.972,433.0,1.002
1989.923,434.0,1.002
1995.78,435.0,1.002
2001.747,436.0,1.002
2007.645,437.0,1.002
2013.585,438.0,1.001
2019.491,439.0,1.001
2025.353,440.0,1.001
2031.329,441.0,1.001
2037.222,442.0,1.0
2043.076,443.0,1.0
2049.055,444.0,1.0
2054.922,445.0,1.0
2060.833,446.0,0.999
2066.743,447.0,0.999
2072.648,448.0,0.999
2078.535,449.0,0.999
2084.419,450.0,0.998
2090.341,451.0,0.998
2096.252,452.0,0.998
2102.148,453.0,0.998
2108.032,454.0,0.997
2113.927,455.0,0.997
2119.815,456.0,0.997
2125.761,457.0,0.997
2131.742,458.0,0.996
2137.537,459.0,0.996
2143.466,460.0,0.996
2149.376,461.0,0.996
2155.29,462.0,0.995
2161.168,463.0,0.995
2167.083,464.0,0.995
2172.929,465.0,0.995
2178.833,466.0,0.994
2184.804,467.0,0.994
2190.696,468.0,0.994
2196.602,469.0,0.994
2202.551,470.0,0.993
2208.417,471.0,0.993
2214.288,472.0,0.993
2220.222,473.0,0.993
2226.1,474.0,0.992
2232.086,475.0,0.992
2238.022,476.0,0.992
2243.854,477.0,0.991
2249.813,478.0,0.991
2255.69,479.0,0.991
2261.618,480.0,0.991
2267.527,481.0,0.99
2273.424,482.0,0.99
2279.371,483.0,0.99
2285.283,484.0,0.989
2291.193,485.0,0.989
2297.134,486.0,0.989
2302.988,487.0,0.988
2308.908,488.0,0.988
2314.817,489.0,0.988
2320.758,490.0,0.987
2326.675,491.0,0.987
2332.575,492.0,0.987
2338.509,493.0,0.986
2344.395,494.0,0.986
2350.315,495.0,0.986
2356.234,496.0,0.985
2362.157,497.0,0.984
2368.024,498.0,0.984
2374.077,499.0,0.983
2379.891,500.0,0.983
2385.828,501.0,0.982
2391.737,502.0,0.982
2397.712,503.0,0.981
2403.594,504.0,0.981
2409.535,505.0,0.98
2415.414,506.0,0.98
2421.356,507.0,0.979
2427.28,508.0,0.978
2433.194,509.0,0.978
2439.118,510.0,0.977
2445.024,511.0,0.976
2451.018,512.0,0.976
2456.987,513.0,0.975
2462.891,514.0,0.974
2468.823,515.0,0.973
2474.743,516.0,0.972
2480.678,517.0,0.971
2486.606,518.0,0.97
2492.586,519.0,0.969
2498.483,520.0,0.969
2504.458,521.0,0.968
2510.29,522.0,0.966
2516.312,523.0,0.965
2522.232,524.0,0.964
2528.139,525.0,0.963
2534.084,526.0,0.962
2539.994,527.0,0.961
2545.918,528.0,0.96
2551.845,529.0,0.958
2557.833,530.0,0.957
2563.793,531.0,0.956
2569.701,532.0,0.954
2575.669,533.0,0.953
2581.615,534.0,0.951
2587.523,535.0,0.95
2593.448,536.0,0.948
2599.438,537.0,0.947
2605.405,538.0,0.945
2611.311,539.0,0.944
2617.301,540.0,0.942
2623.197,541.0,0.941
2629.205,542.0,0.939
2635.111,543.0,0.937
2641.03,544.0,0.935
2647.064,545.0,0.933
2652.983,546.0,0.932
2658.943,547.0,0.93
2664.912,548.0,0.928
2670.843,549.0,0.926
2676.762,550.0,0.924
2682.718,551.0,0.922
2688.713,552.0,0.92
2694.669,553.0,0.918
2700.6,554.0,0.916
2706.525,555.0,0.913
2712.479,556.0,0.911
2718.43,557.0,0.909
2724.416,558.0,0.907
2730.362,559.0,0.904
2736.302,560.0,0.902
2742.233,561.0,0.899
2748.212,562.0,0.897
2754.17,563.0,0.894
2760.103,564.0,0.891
2766.092,565.0,0.889
2772.108,566.0,0.886
2778.063,567.0,0.883
2784.03,568.0,0.88
2790.03,569.0,0.877
2795.981,570.0,0.874
2801.905,571.0,0.87
2807.867,572.0,0.867
2813.84,573.0,0.864
2819.814,574.0,0.86
2825.717,575.0,0.857
2831.738,576.0,0.854
2837.711,577.0,0.85
2843.695,578.0,0.846
2849.641,579.0,0.843
2855.593,580.0,0.839
2861.564,581.0,0.835
2867.468,582.0,0.831
2873.521,583.0,0.827
2879.512,584.0,0.822
2885.462,585.0,0.819
2891.425,586.0,0.814
2897.401,587.0,0.81
2903.378,588.0,0.806
2909.324,589.0,0.801
2915.343,590.0,0.796
2921.294,591.0,0.791
2927.244,592.0,0.786
2933.237,593.0,0.781
2939.25,594.0,0.776
2945.231,595.0,0.771
2951.195,596.0,0.766
2957.198,597.0,0.76
2963.146,598.0,0.755
2969.14,599.0,0.749
2975.152,600.0,0.744
2981.129,601.0,0.738
2987.11,602.0,0.732
2993.074,603.0,0.727
2999.048,604.0,0.721
3004.961,605.0,0.715
3011.011,606.0,0.709
3016.927,607.0,0.703
3022.947,608.0,0.696
3028.927,609.0,0.69
3034.964,610.0,0.684
3040.939,611.0,0.678
3046.917,612.0,0.671
3052.902,613.0,0.665
3058.876,614.0,0.658
3064.886,615.0,0.651
3070.872,616.0,0.645
3076.819,617.0,0.638
3082.847,618.0,0.632
3088.818,619.0,0.625
3094.796,620.0,0.618
3100.733,621.0,0.611
3106.815,622.0,0.603
3112.81,623.0,0.596
3118.79,624.0,0.589
3124.765,625.0,0.581
3130.825,626.0,0.574
3136.724,627.0,0.567
3142.75,628.0,0.559
3148.764,629.0,0.551
3154.713,630.0,0.543
3160.75,631.0,0.535
3166.706,632.0,0.527
3172.729,633.0,0.519
3178.754,634.0,0.51
3184.724,635.0,0.502
3190.788,636.0,0.493
3196.818,637.0,0.484
3202.756,638.0,0.475
3208.765,639.0,0.465
3214.802,640.0,0.456
3220.803,641.0,0.447
3226.799,642.0,0.438
3232.832,643.0,0.428
3238.814,644.0,0.418
3244.844,645.0,0.408
3250.834,646.0,0.399
3256.853,647.0,0.389
3262.872,648.0,0.38
3268.84,649.0,0.37
3274.836,650.0,0.361
3280.85,651.0,0.351
3286.93,652.0,0.343
3292.856,653.0,0.334
3298.882,654.0,0.326
3304.825,655.0,0.318
3310.859,656.0,0.311
3316.855,657.0,0.304
3322.784,658.0,0.298
3328.861,659.0,0.293
3334.901,660.0,0.288
3340.884,661.0,0.283
3346.834,662.0,0.28
3352.83,663.0,0.277
3358.866,664.0,0.274
3364.893,665.0,0.272
3370.871,666.0,0.27
3376.882,667.0,0.268
3382.914,668.0,0.267
3388.876,669.0,0.266
3394.889,670.0,0.265
3400.948,671.0,0.264
3406.947,672.0,0.264
3412.936,673.0,0.263
3418.944,674.0,0.262
3425.0,675.0,0.261
3430.988,676.0,0.26
3436.976,677.0,0.26
3442.964,678.0,0.259
3449.0,679.0,0.258
3455.048,680.0,0.257
3461.084,681.0,0.257
3467.092,682.0,0.256
3473.105,683.0,0.255
3479.145,684.0,0.255
3485.137,685.0,0.254
3491.158,686.0,0.254
3497.16,687.0,0.253
3503.236,688.0,0.252
3509.214,689.0,0.251
3515.247,690.0,0.251
3521.312,691.0,0.25
3527.313,692.0,0.249
3533.345,693.0,0.249
3539.333,694.0,0.248
3545.437,695.0,0.248
3551.462,696.0,0.247
3557.482,697.0,0.247
3563.481,698.0,0.246
3569.516,699.0,0.245
3575.569,700.0,0.245
3581.652,701.0,0.244
3587.652,702.0,0.243
3593.681,703.0,0.243
3599.731,704.0,0.242
3605.768,705.0,0.241
3611.762,706.0,0.241
3617.749,707.0,0.24
3623.827,708.0,0.24
3629.847,709.0,0.239
3635.885,710.0,0.239
3641.931,711.0,0.238
3647.988,712.0,0.238
3653.981,713.0,0.237
3660.056,714.0,0.237
3666.09,715.0,0.236
3672.103,716.0,0.235
3678.18,717.0,0.235
3684.24,718.0,0.235
3690.253,719.0,0.234
3696.267,720.0,0.234
3702.327,721.0,0.233
3708.369,722.0,0.232
3714.43,723.0,0.232
3720.446,724.0,0.231
3726.476,725.0,0.231
3732.512,726.0,0.23
3738.552,727.0,0.23
3744.599,728.0,0.23
3750.623,729.0,0.229
3756.642,730.0,0.229
3762.7,731.0,0.228
3768.741,732.0,0.228
3774.814,733.0,0.227
3780.827,734.0,0.227
3786.824,735.0,0.227
3792.93,736.0,0.226
3799.0,737.0,0.226
3804.959,738.0,0.226
3811.018,739.0,0.225
3817.096,740.0,0.225
3823.121,741.0,0.224
3829.174,742.0,0.224
3835.247,743.0,0.223
3841.338,744.0,0.223
3847.357,745.0,0.223
3853.347,746.0,0.223
3859.406,747.0,0.222
3865.446,748.0,0.222
3871.503,749.0,0.222
3877.531,750.0,0.221
3883.585,751.0,0.221
3889.654,752.0,0.221
3895.688,753.0,0.22
3901.728,754.0,0.22
3907.783,755.0,0.22
3913.844,756.0,0.22
3919.813,757.0,0.219
3925.855,758.0,0.219
3931.912,759.0,0.219
3937.946,760.0,0.218
3944.012,761.0,0.218
3950.012,762.0,0.218
3956.108,763.0,0.218
3962.139,764.0,0.217
3968.127,765.0,0.217
3974.183,766.0,0.217
3980.223,767.0,0.217
3986.268,768.0,0.216
3992.301,769.0,0.216
3998.325,770.0,0.216
4004.331,771.0,0.215
4010.376,772.0,0.215
4016.446,773.0,0.215
4022.487,774.0,0.215
4028.491,775.0,0.215
4034.551,776.0,0.214
4040.623,777.0,0.214
4046.578,778.0,0.214
4052.625,779.0,0.214
4058.679,780.0,0.214
4064.767,781.0,0.213
4070.756,782.0,0.213
4076.835,783.0,0.213
4082.844,784.0,0.213
4088.864,785.0,0.212
4094.899,786.0,0.212
4100.958,787.0,0.212
4107.017,788.0,0.212
4113.036,789.0,0.212
4119.031,790.0,0.211
4125.064,791.0,0.211
4131.087,792.0,0.211
4137.112,793.0,0.211
4143.108,794.0,0.211
4149.113,795.0,0.21
4155.252,796.0,0.21
4161.266,797.0,0.21
4167.271,798.0,0.21
4173.294,799.0,0.21
4179.331,800.0,0.209
4185.339,801.0,0.209
4191.395,802.0,0.209
4197.42,803.0,0.209
4203.445,804.0,0.208
4209.468,805.0,0.208
4215.488,806.0,0.208
4221.536,807.0,0.208
4227.573,808.0,0.208
4233.586,809.0,0.207
4239.591,810.0,0.207
4245.648,811.0,0.207
4251.636,812.0,0.207
4257.68,813.0,0.207
4263.712,814.0,0.206
4269.799,815.0,0.206
4275.75,816.0,0.206
4281.792,817.0,0.206
4287.792,818.0,0.206
4293.831,819.0,0.206
4299.834,820.0,0.206
4305.876,821.0,0.205
4311.903,822.0,0.205
4317.97,823.0,0.205
4323.929,824.0,0.205
4329.952,825.0,0.204
4335.982,826.0,0.204
4341.988,827.0,0.204
4348.052,828.0,0.204
4354.019,829.0,0.204
4360.081,830.0,0.203
4366.103,831.0,0.203
4372.07,832.0,0.203
4378.156,833.0,0.203
4384.135,834.0,0.203
4390.178,835.0,0.203
4396.248,836.0,0.202
4402.223,837.0,0.202
4408.256,838.0,0.202
4414.254,839.0,0.202
4420.287,840.0,0.202
4426.298,841.0,0.202
4432.347,842.0,0.202
4438.351,843.0,0.201
4444.41,844.0,0.201
4450.418,845.0,0.201
4456.494,846.0,0.201
4462.497,847.0,0.201
4468.488,848.0,0.201
4474.538,849.0,0.2
4480.549,850.0,0.2
4486.572,851.0,0.2
4492.585,852.0,0.2
4498.6,853.0,0.2
4504.627,854.0,0.2
4510.607,855.0,0.2
4516.612,856.0,0.199
4522.587,857.0,0.199
4528.568,858.0,0.199
4534.633,859.0,0.199
4540.644,860.0,0.199
4546.708,861.0,0.199
4552.702,862.0,0.198
4558.732,863.0,0.198
4564.743,864.0,0.198
4570.822,865.0,0.198
4576.879,866.0,0.198
4582.893,867.0,0.198
4588.873,868.0,0.198
4594.898,869.0,0.197
4600.909,870.0,0.197
4606.953,871.0,0.198
4613.0,872.0,0.199
4618.964,873.0,0.198
4624.952,874.0,0.197
4630.97,875.0,0.197
4637.048,876.0,0.197
4643.081,877.0,0.197
4649.078,878.0,0.196
4655.105,879.0,0.196
4661.109,880.0,0.196
4667.132,881.0,0.196
4673.171,882.0,0.196
4679.205,883.0,0.195
4685.235,884.0,0.195
4691.26,885.0,0.195
4697.301,886.0,0.195
4703.307,887.0,0.195
4709.329,888.0,0.195
4715.363,889.0,0.195
4721.418,890.0,0.195
4727.432,891.0,0.195
4733.457,892.0,0.195
4739.488,893.0,0.195
4745.516,894.0,0.194
4751.542,895.0,0.194
4757.622,896.0,0.194
4763.643,897.0,0.194
4769.676,898.0,0.194
4775.706,899.0,0.194
4781.769,900.0,0.194
4787.785,901.0,0.193
4793.829,902.0,0.193
4799.825,903.0,0.193
4805.861,904.0,0.193
4811.897,905.0,0.193
4817.942,906.0,0.193
4823.982,907.0,0.193
4830.017,908.0,0.193
4836.037,909.0,0.193
4842.026,910.0,0.193
4848.108,911.0,0.193
4854.112,912.0,0.192
4860.152,913.0,0.192
4866.196,914.0,0.192
4872.254,915.0,0.192
4878.273,916.0,0.192
4884.313,917.0,0.192
4890.329,918.0,0.192
4896.341,919.0,0.192
4902.379,920.0,0.191
4908.371,921.0,0.191
4914.448,922.0,0.191
4920.467,923.0,0.191
4926.506,924.0,0.191
4932.506,925.0,0.191
4938.568,926.0,0.191
4944.591,927.0,0.191
4950.594,928.0,0.191
4956.633,929.0,0.19
4962.695,930.0,0.19
4968.732,931.0,0.19
4974.731,932.0,0.19
4980.775,933.0,0.19
4986.77,934.0,0.19
4992.823,935.0,0.19
4998.864,936.0,0.19
5004.865,937.0,0.19
5010.911,938.0,0.19
5016.914,939.0,0.19
5022.963,940.0,0.19
5028.971,941.0,0.189
5035.012,942.0,0.189
5041.031,943.0,0.189
5047.066,944.0,0.189
5053.12,945.0,0.189
5059.059,946.0,0.189
5065.094,947.0,0.189
5071.101,948.0,0.189
5077.187,949.0,0.189
5083.185,950.0,0.189
5089.226,951.0,0.189
5095.28,952.0,0.189
5101.263,953.0,0.189
5107.297,954.0,0.188
5113.354,955.0,0.188
5119.396,956.0,0.188
5125.413,957.0,0.188
5131.491,958.0,0.188
5137.544,959.0,0.188
5143.591,960.0,0.188
5149.632,961.0,0.188
5155.667,962.0,0.188
5161.689,963.0,0.188
5167.752,964.0,0.188
5173.791,965.0,0.187
5179.884,966.0,0.187
5185.847,967.0,0.187
5191.935,968.0,0.187
5198.0,969.0,0.187
5203.988,970.0,0.187
5210.023,971.0,0.187
5216.019,972.0,0.187
5222.08,973.0,0.187
5228.12,974.0,0.187
5234.168,975.0,0.187
5240.169,976.0,0.187
5246.193,977.0,0.187
5252.212,978.0,0.187
5258.24,979.0,0.186
5264.232,980.0,0.186
5270.265,981.0,0.186
5276.307,982.0,0.186
5282.393,983.0,0.186
5288.391,984.0,0.186
5294.453,985.0,0.186
5300.48,986.0,0.186
5306.465,987.0,0.186
5312.488,988.0,0.186
5318.549,989.0,0.185
5324.571,990.0,0.185
5330.583,991.0,0.185
5336.638,992.0,0.185
5342.652,993.0,0.185
5348.682,994.0,0.185
5354.765,995.0,0.185
5360.764,996.0,0.185
5366.814,997.0,0.185
5372.865,998.0,0.185
5378.855,999.0,0.185
5384.874,1000.0,0.185
5390.895,1001.0,0.184
5396.976,1002.0,0.184
5403.019,1003.0,0.184
5409.088,1004.0,0.184
5415.068,1005.0,0.184
5421.103,1006.0,0.184
5427.14,1007.0,0.184
5433.173,1008.0,0.184
5439.198,1009.0,0.184
5445.21,1010.0,0.184
5451.225,1011.0,0.183
5457.296,1012.0,0.183
5463.328,1013.0,0.183
5469.335,1014.0,0.183
5475.329,1015.0,0.183
5481.407,1016.0,0.183
5487.378,1017.0,0.183
5493.398,1018.0,0.183
5499.42,1019.0,0.183
5505.442,1020.0,0.183
5511.441,1021.0,0.183
5517.466,1022.0,0.183
5523.472,1023.0,0.182
5529.524,1024.0,0.182
5535.591,1025.0,0.182
5541.582,1026.0,0.182
5547.62,1027.0,0.182
5553.61,1028.0,0.182
5559.677,1029.0,0.182
5565.645,1030.0,0.182
5571.671,1031.0,0.182
5577.704,1032.0,0.182
5583.716,1033.0,0.182
5589.79,1034.0,0.182
5595.736,1035.0,0.182
5601.757,1036.0,0.181
5607.825,1037.0,0.181
5613.839,1038.0,0.181
5619.828,1039.0,0.181
5625.84,1040.0,0.181
5631.856,1041.0,0.181
5637.863,1042.0,0.181
5643.907,1043.0,0.181
5649.884,1044.0,0.181
5655.901,1045.0,0.18
5661.927,1046.0,0.18
5667.921,1047.0,0.18
5673.912,1048.0,0.18
5679.925,1049.0,0.18
5685.92,1050.0,0.18
5691.906,1051.0,0.18
5697.905,1052.0,0.18
5703.94,1053.0,0.18
5709.917,1054.0,0.18
5715.964,1055.0,0.179
5721.97,1056.0,0.18
5727.965,1057.0,0.18
5734.012,1058.0,0.179
5739.982,1059.0,0.179
5745.988,1060.0,0.179
5752.052,1061.0,0.179
5758.031,1062.0,0.179
5764.042,1063.0,0.179
5770.112,1064.0,0.179
5776.123,1065.0,0.179
5782.117,1066.0,0.179
5788.099,1067.0,0.179
5794.139,1068.0,0.178
5800.041,1069.0,0.178
5809.837,1070.0,0.178
5830.0,1071.342,0.178
5850.0,1071.953,0.178
5870.0,1072.268,0.178
5890.0,1072.435,0.177
5910.0,1072.536,0.177
5930.0,1072.603,0.177
5950.0,1072.634,0.177
5970.0,1072.679,0.177
5990.0,1072.708,0.176
6010.0,1072.726,0.176
6030.0,1072.743,0.176
6050.0,1072.757,0.177
6070.0,1072.77,0.176
6090.0,1072.781,0.176
6110.0,1072.792,0.176
6120.0,1072.795,0.176