File: Wood/Calibration_Data/TUBS/TUBS_TGA_N2_20K_R1.csv
Time (s),Temperature (K),Mass (mg)
0.0,304.035,1.09
2.0,305.103,1.09
4.0,305.08,1.089
6.0,305.075,1.089
8.0,305.062,1.089
10.0,305.06,1.089
12.0,305.041,1.088
14.0,305.029,1.088
16.0,305.027,1.088
18.0,305.006,1.088
20.0,304.993,1.088
22.0,304.978,1.087
24.0,304.966,1.087
26.0,304.97,1.087
28.0,304.973,1.087
30.0,304.967,1.086
32.0,304.961,1.086
34.0,304.945,1.086
36.0,304.938,1.086
38.0,304.919,1.086
40.0,304.912,1.085
42.0,304.895,1.085
44.0,304.907,1.085
46.0,304.901,1.085
48.0,304.881,1.085
50.0,304.897,1.085
52.0,304.888,1.084
54.0,304.865,1.084
56.0,304.866,1.084
58.0,304.857,1.084
60.0,304.862,1.084
62.0,304.856,1.084
64.0,304.845,1.084
66.0,304.833,1.083
68.0,304.849,1.083
70.0,304.835,1.083
72.0,304.825,1.083
74.0,304.822,1.083
76.0,304.808,1.083
78.0,304.813,1.083
80.0,304.791,1.083
82.0,304.788,1.082
84.0,304.798,1.082
86.0,304.799,1.082
88.0,304.78,1.082
90.0,304.761,1.082
92.0,304.773,1.082
94.0,304.77,1.082
96.0,304.762,1.082
98.0,304.746,1.082
100.0,304.75,1.081
102.0,304.735,1.081
104.0,304.745,1.081
106.0,304.741,1.081
108.0,304.742,1.081
110.0,304.751,1.081
112.0,304.738,1.081
114.0,304.743,1.081
116.0,304.711,1.081
118.0,304.71,1.08
120.0,304.703,1.08
122.0,304.698,1.08
124.0,304.71,1.08
126.0,304.687,1.08
128.0,304.697,1.08
130.0,304.706,1.08
132.0,304.7,1.08
134.0,304.692,1.079
136.0,304.675,1.079
138.0,304.688,1.079
140.0,304.683,1.079
142.0,304.668,1.079
144.0,304.666,1.079
146.0,304.662,1.079
148.0,304.662,1.079
150.0,304.666,1.079
152.0,304.643,1.079
154.0,304.662,1.079
156.0,304.656,1.079
158.0,304.65,1.079
160.0,304.644,1.079
162.0,304.649,1.079
164.0,304.645,1.078
166.0,304.634,1.078
168.0,304.641,1.078
170.0,304.643,1.078
172.0,304.627,1.078
174.0,304.619,1.078
176.0,304.626,1.078
178.0,304.622,1.078
180.0,304.606,1.078
182.0,304.625,1.078
184.0,304.62,1.078
186.0,304.631,1.078
188.0,304.606,1.078
190.0,304.614,1.078
192.0,304.586,1.078
194.0,304.606,1.077
196.0,304.587,1.077
198.0,304.612,1.077
200.0,304.579,1.077
202.0,304.593,1.077
204.0,304.58,1.077
206.0,304.586,1.077
208.0,304.586,1.077
210.0,304.595,1.077
212.0,304.578,1.077
214.0,304.578,1.077
216.0,304.582,1.077
218.0,304.572,1.077
220.0,304.563,1.077
222.0,304.569,1.077
224.0,304.567,1.077
226.0,304.556,1.076
228.0,304.555,1.076
230.0,304.555,1.076
232.0,304.559,1.076
234.0,304.561,1.076
236.0,304.555,1.076
238.0,304.562,1.076
240.0,304.548,1.076
242.0,304.559,1.076
244.0,304.543,1.076
246.0,304.541,1.076
248.0,304.522,1.076
250.0,304.544,1.076
252.0,304.542,1.076
254.0,304.549,1.076
256.0,304.531,1.076
258.0,304.533,1.076
260.0,304.534,1.076
262.0,304.535,1.076
264.0,304.523,1.076
266.0,304.539,1.076
268.0,304.532,1.076
270.0,304.532,1.076
272.0,304.527,1.076
274.0,304.527,1.076
276.0,304.533,1.076
278.0,304.517,1.076
280.0,304.523,1.076
282.0,304.521,1.075
284.0,304.526,1.075
286.0,304.526,1.075
288.0,304.524,1.075
290.0,304.518,1.075
292.0,304.519,1.075
294.0,304.507,1.075
296.0,304.506,1.075
298.0,304.5,1.075
300.0,304.507,1.075
302.0,304.494,1.075
304.0,304.505,1.075
306.0,304.512,1.075
308.0,304.5,1.075
310.0,304.495,1.075
312.0,304.493,1.075
314.0,304.502,1.075
316.0,304.498,1.075
318.0,304.501,1.075
320.0,304.5,1.075
322.0,304.49,1.075
324.0,304.506,1.075
326.0,304.515,1.075
328.0,304.492,1.075
330.0,304.503,1.075
332.0,304.501,1.075
334.0,304.499,1.075
336.0,304.494,1.075
338.0,304.497,1.074
340.0,304.483,1.074
342.0,304.483,1.074
344.0,304.487,1.074
346.0,304.477,1.074
348.0,304.48,1.074
350.0,304.489,1.074
352.0,304.494,1.074
354.0,304.49,1.074
356.0,304.49,1.074
358.0,304.478,1.074
360.0,304.47,1.074
362.0,304.49,1.074
364.0,304.472,1.074
366.0,304.481,1.074
368.0,304.48,1.074
370.0,304.469,1.074
372.0,304.477,1.074
374.0,304.49,1.074
376.0,304.47,1.074
378.0,304.475,1.074
380.0,304.478,1.074
382.0,304.474,1.074
384.0,304.47,1.074
386.0,304.468,1.074
388.0,304.476,1.074
390.0,304.464,1.074
392.0,304.46,1.074
394.0,304.477,1.074
396.0,304.475,1.074
398.0,304.468,1.074
400.0,304.469,1.074
402.0,304.455,1.074
404.0,304.452,1.074
406.0,304.46,1.074
408.0,304.464,1.074
410.0,304.472,1.074
412.0,304.475,1.074
414.0,304.471,1.074
416.0,304.463,1.074
418.0,304.47,1.074
420.0,304.469,1.074
422.0,304.474,1.074
424.0,304.462,1.074
426.0,304.469,1.074
428.0,304.472,1.074
430.0,304.46,1.073
432.0,304.474,1.073
434.0,304.462,1.073
436.0,304.465,1.073
438.0,304.477,1.073
440.0,304.472,1.073
442.0,304.47,1.073
444.0,304.482,1.073
446.0,304.46,1.073
448.0,304.47,1.073
450.0,304.459,1.073
452.0,304.486,1.073
454.0,304.473,1.073
456.0,304.46,1.073
458.0,304.469,1.073
460.0,304.466,1.073
462.0,304.454,1.073
464.0,304.462,1.073
466.0,304.468,1.073
468.0,304.471,1.073
470.0,304.466,1.073
472.0,304.453,1.073
474.0,304.458,1.073
476.0,304.45,1.073
478.0,304.444,1.073
480.0,304.466,1.073
482.0,304.454,1.073
484.0,304.462,1.073
486.0,304.442,1.073
488.0,304.448,1.073
490.0,304.461,1.073
492.0,304.458,1.073
494.0,304.467,1.073
496.0,304.461,1.073
498.0,304.459,1.073
500.0,304.46,1.073
502.0,304.451,1.073
504.0,304.457,1.073
506.0,304.444,1.073
508.0,304.438,1.073
510.0,304.448,1.073
512.0,304.428,1.073
514.0,304.453,1.073
516.0,304.448,1.073
518.0,304.452,1.073
520.0,304.448,1.073
522.0,304.453,1.073
524.0,304.453,1.073
526.0,304.46,1.073
528.0,304.454,1.073
530.0,304.447,1.073
532.0,304.452,1.073
534.0,304.454,1.073
536.0,304.466,1.073
538.0,304.462,1.073
540.0,304.452,1.073
542.0,304.467,1.073
544.0,304.459,1.073
546.0,304.459,1.073
548.0,304.469,1.073
550.0,304.465,1.073
552.0,304.457,1.073
554.0,304.457,1.073
556.0,304.455,1.073
558.0,304.449,1.073
560.0,304.454,1.072
562.0,304.459,1.072
564.0,304.446,1.072
566.0,304.438,1.072
568.0,304.459,1.073
570.0,304.453,1.073
572.0,304.451,1.073
574.0,304.464,1.073
576.0,304.445,1.073
578.0,304.445,1.073
580.0,304.463,1.072
582.0,304.453,1.072
584.0,304.456,1.072
586.0,304.442,1.072
588.0,304.452,1.072
590.0,304.463,1.072
592.0,304.449,1.072
594.0,304.461,1.072
596.0,304.463,1.072
598.0,304.445,1.072
600.0,304.442,1.072
602.0,304.463,1.072
604.0,304.446,1.072
606.0,304.454,1.072
608.0,304.45,1.072
610.0,304.46,1.072
612.0,304.448,1.072
614.0,304.448,1.072
616.0,304.45,1.072
618.0,304.447,1.072
620.0,304.442,1.072
622.0,304.436,1.072
624.0,304.449,1.072
626.0,304.437,1.072
628.0,304.425,1.072
630.0,304.434,1.072
632.0,304.441,1.072
634.0,304.446,1.072
636.0,304.453,1.072
638.0,304.448,1.072
640.0,304.44,1.072
642.0,304.445,1.072
644.0,304.428,1.072
646.0,304.443,1.072
648.0,304.451,1.072
650.0,304.444,1.072
652.0,304.434,1.072
654.0,304.429,1.072
656.0,304.439,1.072
658.0,304.439,1.072
660.0,304.443,1.072
662.0,304.462,1.072
664.0,304.459,1.072
666.0,304.464,1.072
668.0,304.454,1.072
670.0,304.454,1.072
672.0,304.446,1.072
674.0,304.462,1.072
676.0,304.442,1.072
678.0,304.444,1.072
680.0,304.445,1.072
682.0,304.443,1.072
684.0,304.446,1.072
686.0,304.451,1.072
688.0,304.46,1.072
690.0,304.455,1.072
692.0,304.451,1.072
694.0,304.448,1.072
696.0,304.454,1.072
698.0,304.462,1.072
700.0,304.459,1.072
702.0,304.451,1.072
704.0,304.455,1.072
706.0,304.447,1.072
708.0,304.455,1.072
710.0,304.45,1.072
712.0,304.449,1.072
714.0,304.442,1.072
716.0,304.447,1.072
718.0,304.462,1.072
720.0,304.459,1.072
722.0,304.453,1.072
724.0,304.438,1.072
726.0,304.458,1.072
728.0,304.465,1.072
730.0,304.445,1.072
732.0,304.466,1.072
734.0,304.469,1.072
736.0,304.459,1.072
738.0,304.455,1.072
740.0,304.455,1.072
742.0,304.461,1.072
744.0,304.437,1.072
746.0,304.462,1.072
748.0,304.466,1.072
750.0,304.445,1.072
752.0,304.457,1.072
754.0,304.454,1.072
756.0,304.447,1.072
758.0,304.461,1.072
760.0,304.461,1.072
762.0,304.449,1.072
764.0,304.455,1.072
766.0,304.458,1.072
768.0,304.457,1.072
770.0,304.449,1.072
772.0,304.445,1.072
774.0,304.447,1.072
776.0,304.453,1.072
778.0,304.451,1.072
780.0,304.451,1.072
782.0,304.459,1.072
784.0,304.453,1.072
786.0,304.464,1.072
788.0,304.456,1.072
790.0,304.454,1.072
792.0,304.45,1.072
794.0,304.467,1.072
796.0,304.46,1.072
798.0,304.469,1.072
800.0,304.464,1.072
802.0,304.463,1.072
804.0,304.453,1.072
806.0,304.453,1.071
808.0,304.454,1.071
810.0,304.464,1.071
812.0,304.465,1.071
814.0,304.476,1.071
816.0,304.458,1.071
818.0,304.471,1.071
820.0,304.458,1.071
822.0,304.451,1.071
824.0,304.442,1.071
826.0,304.463,1.071
828.0,304.468,1.071
830.0,304.466,1.071
832.0,304.476,1.072
834.0,304.462,1.072
836.0,304.451,1.072
838.0,304.456,1.072
840.0,304.464,1.072
842.0,304.461,1.071
844.0,304.46,1.071
846.0,304.464,1.071
848.0,304.464,1.071
850.0,304.469,1.071
852.0,304.467,1.071
854.0,304.466,1.071
856.0,304.484,1.071
858.0,304.468,1.071
860.0,304.463,1.071
862.0,304.451,1.071
864.0,304.459,1.071
866.0,304.479,1.071
868.0,304.465,1.071
870.0,304.449,1.071
872.0,304.469,1.071
874.0,304.453,1.071
876.0,304.47,1.071
878.0,304.454,1.071
880.0,304.468,1.071
882.0,304.468,1.071
884.0,304.461,1.071
886.0,304.455,1.071
888.0,304.462,1.071
890.0,304.466,1.071
892.0,304.464,1.071
894.0,304.474,1.071
896.0,304.454,1.071
898.0,304.447,1.071
900.0,304.46,1.071
902.0,304.46,1.071
904.0,304.461,1.071
906.0,304.45,1.071
908.0,304.462,1.071
910.0,304.463,1.071
912.0,304.464,1.071
914.0,304.463,1.071
916.0,304.466,1.071
918.0,304.455,1.071
920.0,304.458,1.071
922.0,304.458,1.071
924.0,304.437,1.071
926.0,304.442,1.071
928.0,304.456,1.071
930.0,304.466,1.071
932.0,304.443,1.071
934.0,304.439,1.071
936.0,304.463,1.071
938.0,304.471,1.071
940.0,304.451,1.071
942.0,304.454,1.071
944.0,304.454,1.071
946.0,304.447,1.071
948.0,304.457,1.071
950.0,304.466,1.071
952.0,304.479,1.071
954.0,304.455,1.071
956.0,304.449,1.071
958.0,304.45,1.071
960.0,304.462,1.071
962.0,304.446,1.071
964.0,304.468,1.071
966.0,304.464,1.071
968.0,304.46,1.071
970.0,304.463,1.071
972.0,304.463,1.071
974.0,304.456,1.071
976.0,304.445,1.071
978.0,304.452,1.071
980.0,304.457,1.071
982.0,304.456,1.071
984.0,304.458,1.071
986.0,304.456,1.071
988.0,304.453,1.071
990.0,304.457,1.071
992.0,304.429,1.071
994.0,304.456,1.071
996.0,304.445,1.071
998.0,304.467,1.071
1000.0,304.445,1.071
1002.0,304.447,1.071
1004.0,304.448,1.071
1006.0,304.454,1.071
1008.0,304.445,1.071
1010.0,304.456,1.071
1012.0,304.454,1.071
1014.0,304.46,1.071
1016.0,304.469,1.071
1018.0,304.457,1.071
1020.0,304.451,1.071
1022.0,304.437,1.071
1024.0,304.453,1.071
1026.0,304.459,1.071
1028.0,304.46,1.071
1030.0,304.449,1.071
1032.0,304.461,1.071
1034.0,304.464,1.071
1036.0,304.447,1.071
1038.0,304.441,1.071
1040.0,304.433,1.071
1042.0,304.449,1.071
1044.0,304.435,1.071
1046.0,304.444,1.071
1048.0,304.446,1.071
1050.0,304.45,1.071
1052.0,304.454,1.071
1054.0,304.45,1.071
1056.0,304.456,1.071
1058.0,304.453,1.071
1060.0,304.438,1.071
1062.0,304.458,1.071
1064.0,304.456,1.071
1066.0,304.451,1.071
1068.0,304.458,1.071
1070.0,304.453,1.071
1072.0,304.438,1.071
1074.0,304.442,1.071
1076.0,304.457,1.071
1078.0,304.457,1.071
1080.0,304.451,1.071
1082.0,304.453,1.071
1084.0,304.454,1.071
1086.0,304.444,1.071
1088.0,304.463,1.071
1090.0,304.448,1.071
1092.0,304.432,1.071
1094.0,304.456,1.071
1096.0,304.434,1.071
1098.0,304.444,1.071
1100.0,304.444,1.071
1102.0,304.461,1.071
1104.0,304.437,1.071
1106.0,304.441,1.071
1108.0,304.449,1.071
1110.0,304.441,1.071
1112.0,304.447,1.071
1114.0,304.44,1.071
1116.0,304.44,1.071
1118.0,304.454,1.071
1120.0,304.467,1.071
1122.0,304.464,1.071
1124.0,304.45,1.071
1126.0,304.467,1.071
1128.0,304.447,1.071
1130.0,304.453,1.071
1132.0,304.463,1.071
1134.0,304.464,1.071
1136.0,304.451,1.071
1138.0,304.44,1.071
1140.0,304.472,1.071
1142.0,304.455,1.071
1144.0,304.459,1.071
1146.0,304.44,1.071
1148.0,304.437,1.071
1150.0,304.463,1.071
1152.0,304.449,1.071
1154.0,304.44,1.071
1156.0,304.449,1.071
1158.0,304.444,1.071
1160.0,304.443,1.071
1162.0,304.44,1.071
1164.0,304.446,1.071
1166.0,304.441,1.071
1168.0,304.452,1.071
1170.0,304.457,1.071
1172.0,304.452,1.071
1174.0,304.46,1.071
1176.0,304.464,1.071
1178.0,304.465,1.071
1180.0,304.459,1.071
1182.0,304.444,1.071
1184.0,304.458,1.071
1186.0,304.463,1.071
1188.0,304.452,1.071
1190.0,304.456,1.071
1192.0,304.461,1.071
1194.0,304.458,1.071
1196.0,304.463,1.071
1198.0,304.459,1.071
1200.0,304.469,1.07
1202.0,304.532,1.07
1204.0,305.076,1.069
1206.0,305.862,1.069
1208.0,306.564,1.068
1210.0,307.522,1.069
1212.0,308.599,1.07
1214.0,309.759,1.072
1216.0,310.973,1.073
1218.0,312.225,1.073
1220.0,313.499,1.074
1222.0,314.757,1.074
1224.0,316.047,1.074
1226.0,317.347,1.073
1228.0,318.646,1.073
1230.0,319.948,1.073
1232.0,321.262,1.072
1234.0,322.555,1.072
1236.0,323.86,1.071
1238.0,325.163,1.071
1240.0,326.478,1.071
1242.0,327.776,1.071
1244.0,329.1,1.071
1246.0,330.409,1.07
1248.0,331.722,1.07
1250.0,333.033,1.07
1252.0,334.338,1.07
1254.0,335.645,1.069
1256.0,336.97,1.069
1258.0,338.281,1.069
1260.0,339.597,1.068
1262.0,340.912,1.068
1264.0,342.224,1.068
1266.0,343.535,1.067
1268.0,344.861,1.067
1270.0,346.173,1.067
1272.0,347.479,1.066
1274.0,348.794,1.066
1276.0,350.101,1.066
1278.0,351.424,1.065
1280.0,352.752,1.065
1282.0,354.056,1.065
1284.0,355.381,1.064
1286.0,356.699,1.064
1288.0,358.01,1.064
1290.0,359.337,1.063
1292.0,360.65,1.063
1294.0,361.986,1.063
1296.0,363.296,1.062
1298.0,364.624,1.062
1300.0,365.931,1.062
1302.0,367.262,1.062
1304.0,368.583,1.062
1306.0,369.909,1.061
1308.0,371.246,1.061
1310.0,372.559,1.061
1312.0,373.893,1.061
1314.0,375.2,1.061
1316.0,376.534,1.061
1318.0,377.857,1.061
1320.0,379.189,1.061
1322.0,380.53,1.061
1324.0,381.862,1.061
1326.0,383.174,1.06
1328.0,384.517,1.06
1330.0,385.84,1.06
1332.0,387.167,1.06
1334.0,388.505,1.06
1336.0,389.841,1.06
1338.0,391.169,1.06
1340.0,392.498,1.06
1342.0,393.847,1.06
1344.0,395.17,1.06
1346.0,396.512,1.06
1348.0,397.848,1.06
1350.0,399.189,1.06
1352.0,400.526,1.06
1354.0,401.869,1.06
1356.0,403.199,1.06
1358.0,404.543,1.06
1360.0,405.882,1.06
1362.0,407.23,1.06
1364.0,408.568,1.06
1366.0,409.91,1.06
1368.0,411.257,1.06
1370.0,412.601,1.06
1372.0,413.945,1.06
1374.0,415.291,1.06
1376.0,416.656,1.06
1378.0,417.983,1.06
1380.0,419.335,1.06
1382.0,420.69,1.06
1384.0,422.035,1.06
1386.0,423.383,1.06
1388.0,424.731,1.06
1390.0,426.082,1.06
1392.0,427.444,1.06
1394.0,428.804,1.06
1396.0,430.15,1.059
1398.0,431.489,1.059
1400.0,432.844,1.059
1402.0,434.211,1.059
1404.0,435.556,1.059
1406.0,436.909,1.059
1408.0,438.287,1.059
1410.0,439.64,1.059
1412.0,440.977,1.059
1414.0,442.338,1.059
1416.0,443.712,1.059
1418.0,445.062,1.058
1420.0,446.419,1.058
1422.0,447.785,1.058
1424.0,449.142,1.058
1426.0,450.508,1.058
1428.0,451.87,1.058
1430.0,453.239,1.058
1432.0,454.597,1.057
1434.0,455.973,1.057
1436.0,457.322,1.057
1438.0,458.699,1.057
1440.0,460.055,1.056
1442.0,461.413,1.056
1444.0,462.793,1.056
1446.0,464.159,1.055
1448.0,465.522,1.055
1450.0,466.897,1.055
1452.0,468.273,1.054
1454.0,469.639,1.054
1456.0,471.005,1.053
1458.0,472.377,1.053
1460.0,473.745,1.053
1462.0,475.117,1.052
1464.0,476.492,1.052
1466.0,477.854,1.051
1468.0,479.234,1.051
1470.0,480.599,1.05
1472.0,481.96,1.05
1474.0,483.332,1.049
1476.0,484.694,1.049
1478.0,486.071,1.048
1480.0,487.443,1.048
1482.0,488.823,1.047
1484.0,490.202,1.047
1486.0,491.558,1.046
1488.0,492.927,1.045
1490.0,494.308,1.045
1492.0,495.683,1.044
1494.0,497.049,1.043
1496.0,498.42,1.043
1498.0,499.787,1.042
1500.0,501.154,1.041
1502.0,502.53,1.04
1504.0,503.903,1.04
1506.0,505.272,1.039
1508.0,506.643,1.038
1510.0,508.018,1.037
1512.0,509.379,1.037
1514.0,510.77,1.036
1516.0,512.125,1.035
1518.0,513.496,1.034
1520.0,514.87,1.033
1522.0,516.246,1.032
1524.0,517.62,1.031
1526.0,518.981,1.03
1528.0,520.356,1.029
1530.0,521.73,1.028
1532.0,523.097,1.026
1534.0,524.47,1.025
1536.0,525.832,1.024
1538.0,527.203,1.022
1540.0,528.581,1.021
1542.0,529.953,1.019
1544.0,531.318,1.018
1546.0,532.683,1.016
1548.0,534.046,1.015
1550.0,535.405,1.013
1552.0,536.78,1.011
1554.0,538.15,1.01
1556.0,539.522,1.008
1558.0,540.888,1.006
1560.0,542.258,1.004
1562.0,543.604,1.002
1564.0,544.972,1.0
1566.0,546.342,0.998
1568.0,547.709,0.996
1570.0,549.078,0.994
1572.0,550.431,0.991
1574.0,551.809,0.989
1576.0,553.175,0.986
1578.0,554.528,0.984
1580.0,555.899,0.982
1582.0,557.264,0.979
1584.0,558.63,0.976
1586.0,559.996,0.974
1588.0,561.354,0.971
1590.0,562.715,0.969
1592.0,564.077,0.966
1594.0,565.449,0.963
1596.0,566.805,0.96
1598.0,568.163,0.957
1600.0,569.541,0.954
1602.0,570.901,0.951
1604.0,572.257,0.948
1606.0,573.624,0.945
1608.0,574.983,0.942
1610.0,576.353,0.938
1612.0,577.719,0.935
1614.0,579.079,0.931
1616.0,580.444,0.928
1618.0,581.808,0.924
1620.0,583.174,0.92
1622.0,584.537,0.915
1624.0,585.897,0.911
1626.0,587.256,0.906
1628.0,588.614,0.902
1630.0,589.98,0.897
1632.0,591.333,0.892
1634.0,592.695,0.888
1636.0,594.056,0.883
1638.0,595.406,0.878
1640.0,596.764,0.873
1642.0,598.118,0.868
1644.0,599.474,0.863
1646.0,600.828,0.858
1648.0,602.186,0.852
1650.0,603.53,0.847
1652.0,604.886,0.841
1654.0,606.238,0.836
1656.0,607.59,0.83
1658.0,608.932,0.824
1660.0,610.27,0.818
1662.0,611.623,0.812
1664.0,612.973,0.806
1666.0,614.311,0.799
1668.0,615.67,0.792
1670.0,616.998,0.786
1672.0,618.338,0.779
1674.0,619.686,0.772
1676.0,621.025,0.764
1678.0,622.357,0.757
1680.0,623.703,0.75
1682.0,625.039,0.742
1684.0,626.379,0.735
1686.0,627.714,0.727
1688.0,629.05,0.719
1690.0,630.401,0.711
1692.0,631.726,0.703
1694.0,633.079,0.695
1696.0,634.413,0.687
1698.0,635.744,0.679
1700.0,637.083,0.67
1702.0,638.418,0.662
1704.0,639.753,0.653
1706.0,641.081,0.645
1708.0,642.424,0.636
1710.0,643.762,0.627
1712.0,645.088,0.618
1714.0,646.422,0.609
1716.0,647.757,0.6
1718.0,649.083,0.59
1720.0,650.407,0.581
1722.0,651.746,0.571
1724.0,653.075,0.561
1726.0,654.414,0.551
1728.0,655.743,0.541
1730.0,657.072,0.53
1732.0,658.391,0.52
1734.0,659.727,0.509
1736.0,661.048,0.498
1738.0,662.378,0.487
1740.0,663.701,0.475
1742.0,665.022,0.463
1744.0,666.352,0.451
1746.0,667.67,0.439
1748.0,668.99,0.426
1750.0,670.324,0.414
1752.0,671.647,0.401
1754.0,672.971,0.388
1756.0,674.286,0.375
1758.0,675.616,0.362
1760.0,676.939,0.349
1762.0,678.263,0.337
1764.0,679.587,0.324
1766.0,680.915,0.312
1768.0,682.237,0.301
1770.0,683.566,0.289
1772.0,684.886,0.279
1774.0,686.219,0.27
1776.0,687.545,0.261
1778.0,688.873,0.253
1780.0,690.195,0.247
1782.0,691.526,0.24
1784.0,692.844,0.235
1786.0,694.183,0.231
1788.0,695.503,0.227
1790.0,696.835,0.224
1792.0,698.165,0.222
1794.0,699.49,0.22
1796.0,700.801,0.218
1798.0,702.133,0.216
1800.0,703.457,0.215
1802.0,704.778,0.214
1804.0,706.097,0.213
1806.0,707.423,0.212
1808.0,708.738,0.211
1810.0,710.059,0.21
1812.0,711.369,0.209
1814.0,712.697,0.208
1816.0,714.023,0.207
1818.0,715.34,0.206
1820.0,716.668,0.205
1822.0,717.991,0.204
1824.0,719.313,0.203
1826.0,720.633,0.202
1828.0,721.956,0.201
1830.0,723.27,0.2
1832.0,724.595,0.199
1834.0,725.906,0.199
1836.0,727.229,0.198
1838.0,728.543,0.197
1840.0,729.866,0.196
1842.0,731.184,0.195
1844.0,732.493,0.194
1846.0,733.818,0.193
1848.0,735.128,0.193
1850.0,736.451,0.192
1852.0,737.77,0.191
1854.0,739.092,0.19
1856.0,740.411,0.189
1858.0,741.734,0.189
1860.0,743.039,0.188
1862.0,744.361,0.187
1864.0,745.68,0.186
1866.0,746.997,0.186
1868.0,748.304,0.185
1870.0,749.62,0.184
1872.0,750.94,0.183
1874.0,752.253,0.182
1876.0,753.574,0.182
1878.0,754.888,0.181
1880.0,756.206,0.18
1882.0,757.52,0.18
1884.0,758.83,0.179
1886.0,760.156,0.178
1888.0,761.468,0.178
1890.0,762.779,0.177
1892.0,764.093,0.176
1894.0,765.415,0.176
1896.0,766.72,0.175
1898.0,768.04,0.175
1900.0,769.349,0.174
1902.0,770.677,0.173
1904.0,771.985,0.173
1906.0,773.296,0.172
1908.0,774.611,0.172
1910.0,775.923,0.171
1912.0,777.243,0.171
1914.0,778.559,0.171
1916.0,779.863,0.17
1918.0,781.185,0.17
1920.0,782.49,0.169
1922.0,783.814,0.169
1924.0,785.117,0.168
1926.0,786.428,0.168
1928.0,787.744,0.167
1930.0,789.056,0.167
1932.0,790.371,0.167
1934.0,791.684,0.166
1936.0,792.993,0.166
1938.0,794.304,0.165
1940.0,795.628,0.165
1942.0,796.94,0.164
1944.0,798.255,0.164
1946.0,799.573,0.164
1948.0,800.887,0.163
1950.0,802.187,0.163
1952.0,803.514,0.163
1954.0,804.827,0.162
1956.0,806.134,0.162
1958.0,807.452,0.162
1960.0,808.768,0.161
1962.0,810.091,0.161
1964.0,811.404,0.16
1966.0,812.719,0.16
1968.0,814.026,0.16
1970.0,815.346,0.159
1972.0,816.668,0.159
1974.0,817.984,0.159
1976.0,819.303,0.159
1978.0,820.616,0.158
1980.0,821.925,0.158
1982.0,823.249,0.158
1984.0,824.56,0.157
1986.0,825.879,0.157
1988.0,827.184,0.157
1990.0,828.512,0.157
1992.0,829.828,0.156
1994.0,831.144,0.156
1996.0,832.464,0.156
1998.0,833.77,0.156
2000.0,835.098,0.155
2002.0,836.418,0.155
2004.0,837.742,0.155
2006.0,839.05,0.155
2008.0,840.368,0.154
2010.0,841.688,0.154
2012.0,843.001,0.154
2014.0,844.324,0.154
2016.0,845.635,0.153
2018.0,846.96,0.153
2020.0,848.278,0.153
2022.0,849.588,0.153
2024.0,850.903,0.152
2026.0,852.234,0.152
2028.0,853.551,0.152
2030.0,854.869,0.152
2032.0,856.196,0.151
2034.0,857.5,0.151
2036.0,858.828,0.151
2038.0,860.141,0.151
2040.0,861.467,0.151
2042.0,862.791,0.15
2044.0,864.113,0.15
2046.0,865.431,0.15
2048.0,866.75,0.15
2050.0,868.068,0.149
2052.0,869.39,0.149
2054.0,870.705,0.149
2056.0,872.029,0.149
2058.0,873.347,0.149
2060.0,874.672,0.148
2062.0,875.99,0.148
2064.0,877.309,0.148
2066.0,878.637,0.148
2068.0,879.963,0.148
2070.0,881.279,0.147
2072.0,882.61,0.147
2074.0,883.927,0.147
2076.0,885.247,0.147
2078.0,886.564,0.146
2080.0,887.896,0.146
2082.0,889.22,0.146
2084.0,890.538,0.146
2086.0,891.858,0.146
2088.0,893.181,0.145
2090.0,894.508,0.145
2092.0,895.836,0.145
2094.0,897.139,0.145
2096.0,898.473,0.144
2098.0,899.795,0.144
2100.0,901.118,0.144
2102.0,902.443,0.144
2104.0,903.763,0.144
2106.0,905.092,0.144
2108.0,906.419,0.144
2110.0,907.741,0.143
2112.0,909.065,0.143
2114.0,910.388,0.143
2116.0,911.716,0.143
2118.0,913.047,0.143
2120.0,914.38,0.142
2122.0,915.692,0.142
2124.0,917.031,0.142
2126.0,918.355,0.142
2128.0,919.676,0.142
2130.0,920.999,0.142
2132.0,922.328,0.142
2134.0,923.661,0.141
2136.0,924.989,0.141
2138.0,926.313,0.141
2140.0,927.642,0.141
2142.0,928.98,0.141
2144.0,930.302,0.14
2146.0,931.634,0.14
2148.0,932.963,0.14
2150.0,934.283,0.14
2152.0,935.615,0.14
2154.0,936.948,0.14
2156.0,938.266,0.14
2158.0,939.597,0.139
2160.0,940.93,0.139
2162.0,942.262,0.139
2164.0,943.587,0.139
2166.0,944.911,0.139
2168.0,946.245,0.139
2170.0,947.561,0.139
2172.0,948.9,0.138
2174.0,950.236,0.138
2176.0,951.561,0.138
2178.0,952.885,0.138
2180.0,954.216,0.138
2182.0,955.532,0.138
2184.0,956.869,0.137
2186.0,958.201,0.137
2188.0,959.522,0.137
2190.0,960.856,0.137
2192.0,962.186,0.137
2194.0,963.517,0.137
2196.0,964.847,0.137
2198.0,966.177,0.137
2200.0,967.502,0.136
2202.0,968.832,0.136
2204.0,970.158,0.136
2206.0,971.486,0.136
2208.0,972.814,0.136
2210.0,974.149,0.136
2212.0,975.474,0.136
2214.0,976.799,0.136
2216.0,978.127,0.136
2218.0,979.461,0.135
2220.0,980.789,0.135
2222.0,982.118,0.135
2224.0,983.445,0.135
2226.0,984.787,0.135
2228.0,986.106,0.135
2230.0,987.433,0.135
2232.0,988.769,0.135
2234.0,990.1,0.134
2236.0,991.423,0.134
2238.0,992.762,0.134
2240.0,994.087,0.134
2242.0,995.405,0.134
2244.0,996.747,0.134
2246.0,998.076,0.134
2248.0,999.402,0.134
2250.0,1000.743,0.134
2252.0,1002.061,0.134
2254.0,1003.4,0.133
2256.0,1004.732,0.133
2258.0,1006.053,0.133
2260.0,1007.385,0.133
2262.0,1008.721,0.133
2264.0,1010.048,0.133
2266.0,1011.385,0.133
2268.0,1012.715,0.133
2270.0,1014.044,0.133
2272.0,1015.384,0.132
2274.0,1016.713,0.132
2276.0,1018.041,0.132
2278.0,1019.366,0.132
2280.0,1020.703,0.132
2282.0,1022.035,0.132
2284.0,1023.375,0.132
2286.0,1024.701,0.132
2288.0,1026.031,0.132
2290.0,1027.365,0.132
2292.0,1028.685,0.132
2294.0,1030.023,0.131
2296.0,1031.35,0.131
2298.0,1032.685,0.131
2300.0,1034.006,0.131
2302.0,1035.353,0.131
2304.0,1036.673,0.131
2306.0,1038.007,0.131
2308.0,1039.343,0.131
2310.0,1040.662,0.131
2312.0,1042.004,0.13
2314.0,1043.326,0.13
2316.0,1044.656,0.13
2318.0,1045.985,0.13
2320.0,1047.326,0.13
2322.0,1048.657,0.13
2324.0,1049.989,0.13
2326.0,1051.319,0.13
2328.0,1052.654,0.13
2330.0,1053.971,0.129
2332.0,1055.311,0.129
2334.0,1056.65,0.129
2336.0,1057.721,0.129
2338.0,1058.481,0.129
2340.0,1059.4,0.129
2342.0,1060.263,0.129
2344.0,1061.061,0.129
2346.0,1061.795,0.129
2348.0,1062.464,0.128
2350.0,1063.088,0.128
2352.0,1063.664,0.128
2354.0,1064.198,0.128
2356.0,1064.692,0.128
2358.0,1065.15,0.128
2360.0,1065.571,0.128
2362.0,1065.968,0.128
2364.0,1066.329,0.128
2366.0,1066.668,0.128
2368.0,1066.986,0.128
2370.0,1067.286,0.128
2372.0,1067.547,0.128
2374.0,1067.806,0.128
2376.0,1068.043,0.127
2378.0,1068.254,0.127
2380.0,1068.463,0.127
2382.0,1068.658,0.127
2384.0,1068.839,0.127
2386.0,1069.009,0.127
2388.0,1069.164,0.127
2390.0,1069.298,0.127
2392.0,1069.436,0.127
2394.0,1069.569,0.127
2396.0,1069.686,0.127
2398.0,1069.797,0.127
2400.0,1069.905,0.127
2402.0,1069.998,0.127
2404.0,1070.099,0.127
2406.0,1070.182,0.127
2408.0,1070.256,0.127
2410.0,1070.344,0.127
2412.0,1070.409,0.127
2414.0,1070.476,0.127
2416.0,1070.547,0.127
2418.0,1070.608,0.127
2420.0,1070.676,0.126
2422.0,1070.711,0.126
2424.0,1070.766,0.126
2426.0,1070.824,0.126
2428.0,1070.879,0.126
2430.0,1070.92,0.126
2432.0,1070.945,0.126
2434.0,1070.994,0.126
2436.0,1071.039,0.126
2438.0,1071.085,0.126
2440.0,1071.114,0.126
2442.0,1071.15,0.126
2444.0,1071.19,0.126
2446.0,1071.213,0.126
2448.0,1071.247,0.126
2450.0,1071.276,0.126
2452.0,1071.299,0.126
2454.0,1071.324,0.126
2456.0,1071.352,0.126
2458.0,1071.381,0.126
2460.0,1071.403,0.126
2462.0,1071.432,0.126
2464.0,1071.454,0.126
2466.0,1071.477,0.126
2468.0,1071.496,0.126
2470.0,1071.514,0.126
2472.0,1071.535,0.126
2474.0,1071.557,0.126
2476.0,1071.574,0.126
2478.0,1071.592,0.126
2480.0,1071.614,0.125
2482.0,1071.629,0.125
2484.0,1071.643,0.125
2486.0,1071.663,0.125
2488.0,1071.679,0.125
2490.0,1071.695,0.125
2492.0,1071.722,0.125
2494.0,1071.728,0.125
2496.0,1071.738,0.125
2498.0,1071.76,0.125
2500.0,1071.772,0.125
2502.0,1071.79,0.125
2504.0,1071.791,0.125
2506.0,1071.803,0.125
2508.0,1071.817,0.125
2510.0,1071.839,0.125
2512.0,1071.839,0.125
2514.0,1071.856,0.125
2516.0,1071.876,0.125
2518.0,1071.888,0.125
2520.0,1071.901,0.125
2522.0,1071.91,0.125
2524.0,1071.92,0.125
2526.0,1071.924,0.125
2528.0,1071.934,0.125
2530.0,1071.948,0.125
2532.0,1071.954,0.124
2534.0,1071.966,0.124
2536.0,1071.978,0.124
2538.0,1071.975,0.124
2540.0,1071.99,0.124
2542.0,1071.996,0.124
2544.0,1072.005,0.124
2546.0,1072.01,0.124
2548.0,1072.023,0.124
2550.0,1072.029,0.124
2552.0,1072.035,0.124
2554.0,1072.045,0.124
2556.0,1072.043,0.124
2558.0,1072.061,0.124
2560.0,1072.063,0.124
2562.0,1072.073,0.124
2564.0,1072.074,0.124
2566.0,1072.088,0.124
2568.0,1072.093,0.124
2570.0,1072.101,0.124
2572.0,1072.104,0.124
2574.0,1072.112,0.124
2576.0,1072.126,0.124
2578.0,1072.127,0.124
2580.0,1072.133,0.124
2582.0,1072.139,0.124
2584.0,1072.15,0.124
2586.0,1072.148,0.124
2588.0,1072.159,0.124
2590.0,1072.159,0.124
2592.0,1072.165,0.124
2594.0,1072.168,0.124
2596.0,1072.173,0.124
2598.0,1072.167,0.124
2600.0,1072.188,0.124
2602.0,1072.191,0.124
2604.0,1072.2,0.124
2606.0,1072.202,0.124
2608.0,1072.203,0.124
2610.0,1072.213,0.124
2612.0,1072.219,0.124
2614.0,1072.209,0.124
2616.0,1072.22,0.124
2618.0,1072.227,0.124
2620.0,1072.224,0.124
2622.0,1072.239,0.124
2624.0,1072.244,0.124
2626.0,1072.239,0.124
2628.0,1072.256,0.124
2630.0,1072.261,0.124
2632.0,1072.252,0.124
2634.0,1072.259,0.124
2636.0,1072.258,0.124
2638.0,1072.265,0.123
2640.0,1072.266,0.123
2642.0,1072.275,0.123
2644.0,1072.278,0.123
2646.0,1072.284,0.123
2648.0,1072.277,0.123
2650.0,1072.285,0.123
2652.0,1072.295,0.123
2654.0,1072.287,0.123
2655.0,1072.296,0.123