File: Wood/Calibration_Data/TUBS/TUBS_TGA_N2_30K_R1.csv
Time (s),Temperature (K),Mass (mg)
0.0,304.023,0.93
2.0,305.089,0.93
4.0,305.085,0.93
6.0,305.064,0.93
8.0,305.062,0.929
10.0,305.058,0.929
12.0,305.043,0.929
14.0,305.025,0.929
16.0,305.032,0.928
18.0,305.004,0.928
20.0,305.003,0.928
22.0,304.987,0.928
24.0,305.001,0.928
26.0,304.978,0.928
28.0,304.973,0.927
30.0,304.963,0.927
32.0,304.97,0.927
34.0,304.952,0.927
36.0,304.938,0.927
38.0,304.96,0.927
40.0,304.934,0.926
42.0,304.927,0.926
44.0,304.912,0.926
46.0,304.898,0.926
48.0,304.89,0.926
50.0,304.899,0.926
52.0,304.889,0.926
54.0,304.88,0.925
56.0,304.875,0.925
58.0,304.864,0.925
60.0,304.875,0.925
62.0,304.855,0.925
64.0,304.852,0.925
66.0,304.848,0.925
68.0,304.841,0.925
70.0,304.842,0.925
72.0,304.811,0.924
74.0,304.833,0.924
76.0,304.809,0.924
78.0,304.812,0.924
80.0,304.812,0.924
82.0,304.798,0.924
84.0,304.792,0.924
86.0,304.779,0.924
88.0,304.778,0.924
90.0,304.783,0.924
92.0,304.78,0.923
94.0,304.771,0.923
96.0,304.757,0.923
98.0,304.752,0.923
100.0,304.753,0.923
102.0,304.75,0.923
104.0,304.748,0.923
106.0,304.761,0.923
108.0,304.752,0.923
110.0,304.748,0.923
112.0,304.736,0.923
114.0,304.747,0.923
116.0,304.728,0.922
118.0,304.733,0.922
120.0,304.734,0.922
122.0,304.737,0.922
124.0,304.718,0.922
126.0,304.72,0.922
128.0,304.727,0.922
130.0,304.705,0.922
132.0,304.695,0.922
134.0,304.704,0.922
136.0,304.698,0.922
138.0,304.699,0.922
140.0,304.695,0.922
142.0,304.703,0.922
144.0,304.685,0.922
146.0,304.676,0.922
148.0,304.687,0.922
150.0,304.67,0.922
152.0,304.679,0.921
154.0,304.679,0.921
156.0,304.656,0.921
158.0,304.677,0.921
160.0,304.665,0.921
162.0,304.66,0.921
164.0,304.665,0.921
166.0,304.655,0.921
168.0,304.662,0.921
170.0,304.66,0.921
172.0,304.66,0.921
174.0,304.643,0.921
176.0,304.659,0.921
178.0,304.637,0.921
180.0,304.638,0.921
182.0,304.641,0.921
184.0,304.631,0.921
186.0,304.623,0.921
188.0,304.629,0.921
190.0,304.626,0.921
192.0,304.629,0.921
194.0,304.608,0.92
196.0,304.622,0.92
198.0,304.626,0.92
200.0,304.609,0.92
202.0,304.619,0.92
204.0,304.623,0.92
206.0,304.61,0.92
208.0,304.614,0.92
210.0,304.603,0.92
212.0,304.595,0.92
214.0,304.586,0.92
216.0,304.587,0.92
218.0,304.596,0.92
220.0,304.603,0.92
222.0,304.589,0.92
224.0,304.59,0.92
226.0,304.592,0.92
228.0,304.573,0.919
230.0,304.58,0.919
232.0,304.581,0.919
234.0,304.576,0.92
236.0,304.584,0.92
238.0,304.556,0.92
240.0,304.577,0.92
242.0,304.567,0.92
244.0,304.566,0.92
246.0,304.565,0.92
248.0,304.569,0.92
250.0,304.556,0.92
252.0,304.553,0.92
254.0,304.553,0.92
256.0,304.564,0.919
258.0,304.566,0.919
260.0,304.553,0.919
262.0,304.543,0.919
264.0,304.545,0.919
266.0,304.532,0.919
268.0,304.547,0.919
270.0,304.544,0.919
272.0,304.534,0.919
274.0,304.537,0.919
276.0,304.535,0.919
278.0,304.526,0.919
280.0,304.543,0.919
282.0,304.516,0.919
284.0,304.508,0.919
286.0,304.528,0.919
288.0,304.538,0.919
290.0,304.51,0.919
292.0,304.524,0.919
294.0,304.519,0.919
296.0,304.526,0.919
298.0,304.513,0.919
300.0,304.498,0.919
302.0,304.524,0.919
304.0,304.504,0.919
306.0,304.517,0.919
308.0,304.517,0.919
310.0,304.508,0.919
312.0,304.53,0.919
314.0,304.516,0.919
316.0,304.534,0.919
318.0,304.509,0.919
320.0,304.5,0.919
322.0,304.51,0.919
324.0,304.522,0.919
326.0,304.509,0.919
328.0,304.51,0.919
330.0,304.513,0.919
332.0,304.511,0.919
334.0,304.514,0.919
336.0,304.496,0.919
338.0,304.517,0.919
340.0,304.505,0.919
342.0,304.512,0.919
344.0,304.504,0.919
346.0,304.511,0.919
348.0,304.496,0.919
350.0,304.522,0.919
352.0,304.493,0.919
354.0,304.487,0.918
356.0,304.48,0.918
358.0,304.471,0.918
360.0,304.469,0.918
362.0,304.499,0.918
364.0,304.48,0.918
366.0,304.481,0.918
368.0,304.48,0.918
370.0,304.477,0.918
372.0,304.479,0.918
374.0,304.463,0.918
376.0,304.48,0.918
378.0,304.484,0.918
380.0,304.481,0.918
382.0,304.494,0.918
384.0,304.481,0.918
386.0,304.502,0.918
388.0,304.476,0.918
390.0,304.462,0.918
392.0,304.474,0.918
394.0,304.48,0.918
396.0,304.467,0.918
398.0,304.474,0.918
400.0,304.481,0.918
402.0,304.476,0.918
404.0,304.465,0.918
406.0,304.468,0.918
408.0,304.474,0.918
410.0,304.463,0.918
412.0,304.467,0.918
414.0,304.478,0.918
416.0,304.46,0.918
418.0,304.468,0.918
420.0,304.463,0.918
422.0,304.477,0.918
424.0,304.474,0.918
426.0,304.457,0.918
428.0,304.472,0.918
430.0,304.45,0.918
432.0,304.473,0.918
434.0,304.453,0.918
436.0,304.45,0.918
438.0,304.463,0.918
440.0,304.462,0.918
442.0,304.456,0.918
444.0,304.458,0.918
446.0,304.455,0.918
448.0,304.448,0.918
450.0,304.463,0.918
452.0,304.448,0.918
454.0,304.439,0.918
456.0,304.442,0.918
458.0,304.46,0.918
460.0,304.458,0.918
462.0,304.434,0.918
464.0,304.451,0.918
466.0,304.452,0.918
468.0,304.447,0.918
470.0,304.467,0.918
472.0,304.46,0.918
474.0,304.443,0.918
476.0,304.447,0.918
478.0,304.448,0.918
480.0,304.448,0.918
482.0,304.445,0.918
484.0,304.456,0.917
486.0,304.454,0.917
488.0,304.455,0.917
490.0,304.469,0.917
492.0,304.454,0.917
494.0,304.44,0.917
496.0,304.464,0.917
498.0,304.465,0.917
500.0,304.462,0.917
502.0,304.459,0.917
504.0,304.461,0.918
506.0,304.459,0.918
508.0,304.449,0.918
510.0,304.462,0.918
512.0,304.457,0.918
514.0,304.45,0.918
516.0,304.446,0.918
518.0,304.472,0.917
520.0,304.448,0.917
522.0,304.456,0.917
524.0,304.46,0.917
526.0,304.458,0.917
528.0,304.479,0.917
530.0,304.465,0.917
532.0,304.462,0.917
534.0,304.452,0.917
536.0,304.456,0.917
538.0,304.46,0.917
540.0,304.456,0.917
542.0,304.451,0.917
544.0,304.456,0.917
546.0,304.459,0.917
548.0,304.462,0.917
550.0,304.46,0.917
552.0,304.442,0.917
554.0,304.447,0.917
556.0,304.462,0.917
558.0,304.452,0.917
560.0,304.465,0.917
562.0,304.45,0.917
564.0,304.457,0.917
566.0,304.47,0.917
568.0,304.463,0.917
570.0,304.471,0.917
572.0,304.474,0.917
574.0,304.464,0.917
576.0,304.46,0.917
578.0,304.463,0.917
580.0,304.469,0.917
582.0,304.46,0.917
584.0,304.454,0.917
586.0,304.467,0.917
588.0,304.45,0.917
590.0,304.475,0.917
592.0,304.469,0.917
594.0,304.476,0.917
596.0,304.452,0.917
598.0,304.476,0.917
600.0,304.45,0.917
602.0,304.467,0.917
604.0,304.452,0.917
606.0,304.452,0.917
608.0,304.449,0.917
610.0,304.439,0.917
612.0,304.445,0.917
614.0,304.429,0.917
616.0,304.439,0.917
618.0,304.436,0.917
620.0,304.432,0.917
622.0,304.432,0.917
624.0,304.449,0.917
626.0,304.435,0.917
628.0,304.443,0.917
630.0,304.454,0.917
632.0,304.433,0.917
634.0,304.424,0.917
636.0,304.45,0.917
638.0,304.458,0.917
640.0,304.447,0.917
642.0,304.448,0.917
644.0,304.438,0.917
646.0,304.445,0.917
648.0,304.443,0.917
650.0,304.444,0.917
652.0,304.443,0.917
654.0,304.443,0.917
656.0,304.438,0.917
658.0,304.45,0.917
660.0,304.429,0.917
662.0,304.435,0.917
664.0,304.439,0.917
666.0,304.448,0.917
668.0,304.446,0.917
670.0,304.436,0.917
672.0,304.448,0.917
674.0,304.45,0.917
676.0,304.451,0.917
678.0,304.46,0.917
680.0,304.458,0.917
682.0,304.435,0.917
684.0,304.453,0.917
686.0,304.434,0.917
688.0,304.446,0.917
690.0,304.437,0.917
692.0,304.442,0.917
694.0,304.442,0.917
696.0,304.464,0.917
698.0,304.447,0.917
700.0,304.433,0.917
702.0,304.463,0.917
704.0,304.446,0.917
706.0,304.453,0.917
708.0,304.438,0.917
710.0,304.458,0.917
712.0,304.445,0.917
714.0,304.45,0.917
716.0,304.453,0.917
718.0,304.455,0.917
720.0,304.453,0.917
722.0,304.444,0.917
724.0,304.451,0.917
726.0,304.458,0.917
728.0,304.442,0.917
730.0,304.449,0.917
732.0,304.452,0.917
734.0,304.439,0.917
736.0,304.418,0.917
738.0,304.445,0.917
740.0,304.443,0.917
742.0,304.427,0.917
744.0,304.441,0.917
746.0,304.437,0.917
748.0,304.46,0.917
750.0,304.458,0.917
752.0,304.442,0.917
754.0,304.436,0.917
756.0,304.427,0.917
758.0,304.439,0.916
760.0,304.437,0.916
762.0,304.448,0.916
764.0,304.438,0.916
766.0,304.44,0.917
768.0,304.441,0.917
770.0,304.442,0.917
772.0,304.451,0.917
774.0,304.448,0.917
776.0,304.442,0.917
778.0,304.452,0.917
780.0,304.448,0.917
782.0,304.446,0.917
784.0,304.441,0.917
786.0,304.451,0.917
788.0,304.434,0.917
790.0,304.44,0.917
792.0,304.453,0.917
794.0,304.457,0.917
796.0,304.442,0.917
798.0,304.44,0.917
800.0,304.462,0.917
802.0,304.453,0.917
804.0,304.45,0.917
806.0,304.438,0.917
808.0,304.449,0.917
810.0,304.454,0.917
812.0,304.458,0.917
814.0,304.451,0.917
816.0,304.438,0.917
818.0,304.44,0.916
820.0,304.445,0.916
822.0,304.44,0.916
824.0,304.445,0.916
826.0,304.439,0.916
828.0,304.438,0.916
830.0,304.442,0.916
832.0,304.46,0.916
834.0,304.438,0.916
836.0,304.443,0.916
838.0,304.436,0.917
840.0,304.454,0.917
842.0,304.439,0.917
844.0,304.448,0.917
846.0,304.433,0.917
848.0,304.442,0.917
850.0,304.453,0.917
852.0,304.439,0.917
854.0,304.455,0.917
856.0,304.446,0.917
858.0,304.444,0.917
860.0,304.437,0.917
862.0,304.432,0.917
864.0,304.445,0.917
866.0,304.448,0.917
868.0,304.434,0.916
870.0,304.423,0.916
872.0,304.436,0.916
874.0,304.451,0.916
876.0,304.439,0.916
878.0,304.446,0.916
880.0,304.433,0.916
882.0,304.438,0.916
884.0,304.442,0.916
886.0,304.441,0.916
888.0,304.429,0.916
890.0,304.439,0.916
892.0,304.434,0.916
894.0,304.447,0.916
896.0,304.443,0.916
898.0,304.449,0.916
900.0,304.426,0.916
902.0,304.446,0.916
904.0,304.441,0.916
906.0,304.454,0.916
908.0,304.43,0.916
910.0,304.445,0.916
912.0,304.43,0.916
914.0,304.435,0.916
916.0,304.434,0.916
918.0,304.435,0.916
920.0,304.442,0.916
922.0,304.442,0.916
924.0,304.438,0.916
926.0,304.444,0.916
928.0,304.428,0.916
930.0,304.439,0.916
932.0,304.442,0.916
934.0,304.453,0.916
936.0,304.439,0.916
938.0,304.439,0.916
940.0,304.449,0.916
942.0,304.456,0.916
944.0,304.437,0.916
946.0,304.446,0.916
948.0,304.434,0.916
950.0,304.426,0.916
952.0,304.445,0.916
954.0,304.436,0.916
956.0,304.434,0.916
958.0,304.432,0.916
960.0,304.424,0.916
962.0,304.431,0.916
964.0,304.443,0.916
966.0,304.427,0.916
968.0,304.442,0.916
970.0,304.423,0.916
972.0,304.446,0.916
974.0,304.435,0.916
976.0,304.439,0.916
978.0,304.439,0.916
980.0,304.428,0.916
982.0,304.428,0.916
984.0,304.443,0.916
986.0,304.439,0.916
988.0,304.433,0.916
990.0,304.443,0.916
992.0,304.437,0.916
994.0,304.45,0.916
996.0,304.446,0.916
998.0,304.446,0.916
1000.0,304.443,0.916
1002.0,304.449,0.916
1004.0,304.442,0.916
1006.0,304.442,0.917
1008.0,304.44,0.917
1010.0,304.45,0.917
1012.0,304.439,0.916
1014.0,304.455,0.916
1016.0,304.444,0.916
1018.0,304.449,0.916
1020.0,304.442,0.916
1022.0,304.442,0.916
1024.0,304.451,0.916
1026.0,304.439,0.916
1028.0,304.44,0.916
1030.0,304.438,0.916
1032.0,304.432,0.916
1034.0,304.443,0.916
1036.0,304.456,0.916
1038.0,304.453,0.916
1040.0,304.446,0.916
1042.0,304.456,0.916
1044.0,304.448,0.916
1046.0,304.453,0.916
1048.0,304.448,0.916
1050.0,304.467,0.916
1052.0,304.451,0.916
1054.0,304.454,0.916
1056.0,304.448,0.916
1058.0,304.458,0.916
1060.0,304.451,0.916
1062.0,304.45,0.916
1064.0,304.439,0.916
1066.0,304.448,0.916
1068.0,304.443,0.916
1070.0,304.444,0.916
1072.0,304.459,0.916
1074.0,304.464,0.916
1076.0,304.454,0.916
1078.0,304.449,0.916
1080.0,304.448,0.916
1082.0,304.451,0.916
1084.0,304.443,0.916
1086.0,304.441,0.916
1088.0,304.45,0.916
1090.0,304.45,0.916
1092.0,304.437,0.916
1094.0,304.45,0.916
1096.0,304.458,0.916
1098.0,304.441,0.917
1100.0,304.443,0.917
1102.0,304.438,0.917
1104.0,304.45,0.917
1106.0,304.45,0.917
1108.0,304.451,0.917
1110.0,304.459,0.916
1112.0,304.454,0.916
1114.0,304.452,0.916
1116.0,304.454,0.916
1118.0,304.447,0.916
1120.0,304.449,0.916
1122.0,304.449,0.916
1124.0,304.442,0.916
1126.0,304.44,0.916
1128.0,304.448,0.916
1130.0,304.451,0.916
1132.0,304.465,0.916
1134.0,304.452,0.916
1136.0,304.446,0.916
1138.0,304.462,0.916
1140.0,304.456,0.916
1142.0,304.456,0.916
1144.0,304.474,0.916
1146.0,304.461,0.916
1148.0,304.461,0.916
1150.0,304.442,0.916
1152.0,304.456,0.916
1154.0,304.448,0.916
1156.0,304.467,0.916
1158.0,304.443,0.916
1160.0,304.437,0.916
1162.0,304.452,0.916
1164.0,304.441,0.916
1166.0,304.45,0.916
1168.0,304.44,0.916
1170.0,304.461,0.916
1172.0,304.441,0.916
1174.0,304.454,0.916
1176.0,304.436,0.916
1178.0,304.44,0.916
1180.0,304.444,0.916
1182.0,304.453,0.916
1184.0,304.437,0.916
1186.0,304.443,0.916
1188.0,304.438,0.916
1190.0,304.453,0.916
1192.0,304.434,0.916
1194.0,304.438,0.916
1196.0,304.454,0.916
1198.0,304.44,0.916
1200.0,304.462,0.916
1202.0,304.541,0.915
1204.0,305.059,0.915
1206.0,305.87,0.914
1208.0,306.54,0.914
1210.0,307.489,0.914
1212.0,308.56,0.916
1214.0,309.737,0.917
1216.0,310.935,0.918
1218.0,312.184,0.918
1220.0,313.439,0.919
1222.0,314.719,0.919
1224.0,316.019,0.918
1226.0,317.302,0.918
1228.0,318.607,0.918
1230.0,319.908,0.917
1232.0,321.215,0.917
1234.0,322.51,0.917
1236.0,323.824,0.916
1238.0,325.126,0.916
1240.0,326.436,0.916
1242.0,327.747,0.916
1244.0,329.055,0.915
1246.0,330.366,0.915
1248.0,331.676,0.915
1250.0,332.98,0.915
1252.0,334.291,0.915
1254.0,335.622,0.915
1256.0,336.914,0.914
1258.0,338.24,0.914
1260.0,339.545,0.914
1262.0,340.861,0.913
1264.0,342.188,0.913
1266.0,343.493,0.913
1268.0,344.806,0.913
1270.0,346.1,0.913
1272.0,347.431,0.913
1274.0,348.754,0.912
1276.0,350.066,0.912
1278.0,351.387,0.912
1280.0,352.704,0.911
1282.0,354.031,0.911
1284.0,355.342,0.911
1286.0,356.66,0.91
1288.0,357.978,0.91
1290.0,359.281,0.91
1292.0,360.598,0.909
1294.0,361.923,0.909
1296.0,363.234,0.909
1298.0,364.556,0.909
1300.0,365.896,0.908
1302.0,367.214,0.908
1304.0,368.532,0.908
1306.0,369.855,0.908
1308.0,371.176,0.908
1310.0,372.506,0.908
1312.0,373.82,0.908
1314.0,375.151,0.908
1316.0,376.481,0.908
1318.0,377.802,0.908
1320.0,379.13,0.908
1322.0,380.458,0.907
1324.0,381.773,0.907
1326.0,383.122,0.907
1328.0,384.449,0.907
1330.0,385.785,0.907
1332.0,387.118,0.907
1334.0,388.45,0.907
1336.0,389.776,0.907
1338.0,391.095,0.907
1340.0,392.437,0.907
1342.0,393.765,0.907
1344.0,395.108,0.907
1346.0,396.439,0.907
1348.0,397.788,0.907
1350.0,399.119,0.907
1352.0,400.446,0.907
1354.0,401.799,0.907
1356.0,403.137,0.907
1358.0,404.472,0.907
1360.0,405.816,0.907
1362.0,407.149,0.907
1364.0,408.492,0.907
1366.0,409.833,0.907
1368.0,411.186,0.907
1370.0,412.533,0.907
1372.0,413.888,0.907
1374.0,415.225,0.907
1376.0,416.569,0.907
1378.0,417.919,0.907
1380.0,419.264,0.907
1382.0,420.615,0.907
1384.0,421.973,0.907
1386.0,423.321,0.907
1388.0,424.659,0.907
1390.0,426.02,0.907
1392.0,427.36,0.907
1394.0,428.723,0.907
1396.0,430.069,0.907
1398.0,431.428,0.907
1400.0,432.794,0.907
1402.0,434.139,0.907
1404.0,435.494,0.906
1406.0,436.853,0.906
1408.0,438.203,0.906
1410.0,439.564,0.906
1412.0,440.919,0.906
1414.0,442.286,0.906
1416.0,443.64,0.906
1418.0,444.995,0.906
1420.0,446.358,0.905
1422.0,447.716,0.905
1424.0,449.081,0.905
1426.0,450.436,0.905
1428.0,451.806,0.905
1430.0,453.161,0.905
1432.0,454.537,0.905
1434.0,455.899,0.904
1436.0,457.261,0.904
1438.0,458.634,0.904
1440.0,460.003,0.904
1442.0,461.371,0.903
1444.0,462.738,0.903
1446.0,464.103,0.903
1448.0,465.464,0.903
1450.0,466.829,0.902
1452.0,468.196,0.902
1454.0,469.568,0.902
1456.0,470.943,0.901
1458.0,472.316,0.901
1460.0,473.682,0.9
1462.0,475.055,0.9
1464.0,476.418,0.9
1466.0,477.792,0.899
1468.0,479.16,0.899
1470.0,480.539,0.898
1472.0,481.907,0.898
1474.0,483.264,0.897
1476.0,484.649,0.896
1478.0,486.014,0.896
1480.0,487.386,0.895
1482.0,488.761,0.895
1484.0,490.135,0.894
1486.0,491.498,0.894
1488.0,492.868,0.893
1490.0,494.243,0.892
1492.0,495.621,0.892
1494.0,496.987,0.891
1496.0,498.353,0.89
1498.0,499.723,0.889
1500.0,501.095,0.889
1502.0,502.477,0.888
1504.0,503.843,0.887
1506.0,505.209,0.886
1508.0,506.571,0.885
1510.0,507.974,0.885
1512.0,509.329,0.884
1514.0,510.703,0.883
1516.0,512.082,0.882
1518.0,513.447,0.882
1520.0,514.809,0.881
1522.0,516.185,0.88
1524.0,517.56,0.879
1526.0,518.932,0.878
1528.0,520.294,0.877
1530.0,521.66,0.876
1532.0,523.032,0.875
1534.0,524.409,0.874
1536.0,525.776,0.872
1538.0,527.152,0.871
1540.0,528.527,0.87
1542.0,529.89,0.869
1544.0,531.254,0.867
1546.0,532.611,0.866
1548.0,533.99,0.864
1550.0,535.367,0.863
1552.0,536.723,0.862
1554.0,538.095,0.86
1556.0,539.461,0.859
1558.0,540.83,0.857
1560.0,542.198,0.856
1562.0,543.569,0.854
1564.0,544.936,0.852
1566.0,546.295,0.85
1568.0,547.666,0.848
1570.0,549.022,0.846
1572.0,550.386,0.845
1574.0,551.756,0.842
1576.0,553.123,0.84
1578.0,554.488,0.838
1580.0,555.853,0.836
1582.0,557.216,0.834
1584.0,558.575,0.832
1586.0,559.933,0.83
1588.0,561.301,0.827
1590.0,562.67,0.825
1592.0,564.026,0.823
1594.0,565.385,0.821
1596.0,566.754,0.818
1598.0,568.116,0.816
1600.0,569.478,0.813
1602.0,570.84,0.811
1604.0,572.198,0.808
1606.0,573.574,0.806
1608.0,574.936,0.803
1610.0,576.295,0.8
1612.0,577.653,0.797
1614.0,579.012,0.794
1616.0,580.386,0.791
1618.0,581.739,0.788
1620.0,583.102,0.785
1622.0,584.461,0.781
1624.0,585.824,0.778
1626.0,587.179,0.774
1628.0,588.545,0.77
1630.0,589.904,0.766
1632.0,591.26,0.762
1634.0,592.624,0.758
1636.0,593.969,0.754
1638.0,595.328,0.75
1640.0,596.687,0.746
1642.0,598.04,0.742
1644.0,599.382,0.737
1646.0,600.74,0.733
1648.0,602.104,0.729
1650.0,603.452,0.724
1652.0,604.801,0.72
1654.0,606.152,0.715
1656.0,607.513,0.71
1658.0,608.859,0.705
1660.0,610.194,0.7
1662.0,611.554,0.695
1664.0,612.898,0.69
1666.0,614.237,0.685
1668.0,615.576,0.679
1670.0,616.923,0.673
1672.0,618.272,0.668
1674.0,619.607,0.662
1676.0,620.947,0.656
1678.0,622.294,0.65
1680.0,623.647,0.644
1682.0,624.968,0.638
1684.0,626.316,0.631
1686.0,627.667,0.625
1688.0,629.001,0.618
1690.0,630.331,0.612
1692.0,631.67,0.605
1694.0,633.003,0.598
1696.0,634.342,0.591
1698.0,635.682,0.584
1700.0,637.01,0.577
1702.0,638.354,0.57
1704.0,639.681,0.563
1706.0,641.019,0.556
1708.0,642.351,0.549
1710.0,643.687,0.541
1712.0,645.017,0.534
1714.0,646.345,0.526
1716.0,647.681,0.518
1718.0,649.022,0.511
1720.0,650.346,0.503
1722.0,651.684,0.495
1724.0,653.016,0.487
1726.0,654.336,0.478
1728.0,655.668,0.47
1730.0,656.996,0.462
1732.0,658.319,0.453
1734.0,659.658,0.444
1736.0,660.983,0.435
1738.0,662.302,0.426
1740.0,663.633,0.416
1742.0,664.961,0.406
1744.0,666.29,0.397
1746.0,667.612,0.387
1748.0,668.926,0.376
1750.0,670.259,0.366
1752.0,671.593,0.356
1754.0,672.908,0.345
1756.0,674.231,0.334
1758.0,675.558,0.324
1760.0,676.883,0.313
1762.0,678.206,0.303
1764.0,679.538,0.293
1766.0,680.868,0.283
1768.0,682.19,0.273
1770.0,683.514,0.264
1772.0,684.837,0.256
1774.0,686.163,0.248
1776.0,687.492,0.241
1778.0,688.826,0.234
1780.0,690.149,0.229
1782.0,691.475,0.224
1784.0,692.795,0.22
1786.0,694.123,0.216
1788.0,695.456,0.213
1790.0,696.782,0.21
1792.0,698.101,0.208
1794.0,699.435,0.207
1796.0,700.757,0.205
1798.0,702.081,0.204
1800.0,703.4,0.203
1802.0,704.718,0.202
1804.0,706.043,0.201
1806.0,707.363,0.2
1808.0,708.682,0.199
1810.0,710.004,0.198
1812.0,711.328,0.198
1814.0,712.654,0.197
1816.0,713.967,0.196
1818.0,715.288,0.195
1820.0,716.609,0.194
1822.0,717.935,0.194
1824.0,719.254,0.193
1826.0,720.574,0.192
1828.0,721.887,0.191
1830.0,723.209,0.191
1832.0,724.52,0.19
1834.0,725.841,0.189
1836.0,727.168,0.189
1838.0,728.487,0.188
1840.0,729.795,0.187
1842.0,731.116,0.187
1844.0,732.443,0.186
1846.0,733.762,0.185
1848.0,735.079,0.184
1850.0,736.398,0.184
1852.0,737.717,0.183
1854.0,739.025,0.182
1856.0,740.35,0.182
1858.0,741.661,0.181
1860.0,742.986,0.18
1862.0,744.299,0.18
1864.0,745.616,0.179
1866.0,746.923,0.178
1868.0,748.242,0.178
1870.0,749.555,0.177
1872.0,750.877,0.177
1874.0,752.198,0.176
1876.0,753.515,0.175
1878.0,754.823,0.175
1880.0,756.141,0.174
1882.0,757.458,0.174
1884.0,758.776,0.173
1886.0,760.088,0.172
1888.0,761.403,0.172
1890.0,762.728,0.171
1892.0,764.044,0.171
1894.0,765.353,0.17
1896.0,766.675,0.17
1898.0,767.979,0.169
1900.0,769.288,0.169
1902.0,770.602,0.169
1904.0,771.917,0.168
1906.0,773.236,0.168
1908.0,774.548,0.167
1910.0,775.864,0.167
1912.0,777.177,0.166
1914.0,778.496,0.166
1916.0,779.81,0.165
1918.0,781.125,0.165
1920.0,782.435,0.165
1922.0,783.753,0.164
1924.0,785.061,0.164
1926.0,786.378,0.163
1928.0,787.689,0.163
1930.0,789.014,0.163
1932.0,790.322,0.162
1934.0,791.639,0.162
1936.0,792.953,0.161
1938.0,794.271,0.161
1940.0,795.575,0.161
1942.0,796.897,0.16
1944.0,798.215,0.16
1946.0,799.534,0.16
1948.0,800.84,0.16
1950.0,802.163,0.159
1952.0,803.482,0.159
1954.0,804.79,0.159
1956.0,806.108,0.158
1958.0,807.423,0.158
1960.0,808.741,0.158
1962.0,810.059,0.157
1964.0,811.379,0.157
1966.0,812.693,0.157
1968.0,814.006,0.157
1970.0,815.327,0.157
1972.0,816.645,0.156
1974.0,817.958,0.156
1976.0,819.273,0.156
1978.0,820.596,0.156
1980.0,821.916,0.155
1982.0,823.219,0.155
1984.0,824.546,0.155
1986.0,825.853,0.155
1988.0,827.178,0.154
1990.0,828.495,0.154
1992.0,829.822,0.154
1994.0,831.133,0.154
1996.0,832.452,0.154
1998.0,833.769,0.153
2000.0,835.09,0.153
2002.0,836.407,0.153
2004.0,837.733,0.153
2006.0,839.048,0.153
2008.0,840.358,0.152
2010.0,841.686,0.152
2012.0,843.0,0.152
2014.0,844.321,0.152
2016.0,845.638,0.151
2018.0,846.952,0.151
2020.0,848.268,0.151
2022.0,849.596,0.151
2024.0,850.916,0.151
2026.0,852.235,0.151
2028.0,853.557,0.15
2030.0,854.879,0.15
2032.0,856.196,0.15
2034.0,857.52,0.15
2036.0,858.835,0.15
2038.0,860.15,0.149
2040.0,861.483,0.149
2042.0,862.793,0.149
2044.0,864.118,0.149
2046.0,865.436,0.149
2048.0,866.765,0.148
2050.0,868.082,0.148
2052.0,869.403,0.148
2054.0,870.728,0.148
2056.0,872.055,0.148
2058.0,873.375,0.147
2060.0,874.69,0.147
2062.0,876.021,0.147
2064.0,877.34,0.147
2066.0,878.662,0.147
2068.0,879.991,0.147
2070.0,881.308,0.146
2072.0,882.636,0.146
2074.0,883.952,0.146
2076.0,885.261,0.146
2078.0,886.594,0.146
2080.0,887.914,0.146
2082.0,889.24,0.145
2084.0,890.559,0.145
2086.0,891.887,0.145
2088.0,893.21,0.145
2090.0,894.535,0.145
2092.0,895.845,0.145
2094.0,897.17,0.145
2096.0,898.491,0.144
2098.0,899.827,0.144
2100.0,901.144,0.144
2102.0,902.473,0.144
2104.0,903.793,0.144
2106.0,905.131,0.144
2108.0,906.448,0.144
2110.0,907.77,0.143
2112.0,909.094,0.143
2114.0,910.418,0.143
2116.0,911.748,0.143
2118.0,913.075,0.143
2120.0,914.393,0.143
2122.0,915.733,0.142
2124.0,917.054,0.142
2126.0,918.383,0.142
2128.0,919.705,0.142
2130.0,921.029,0.142
2132.0,922.36,0.142
2134.0,923.693,0.142
2136.0,925.022,0.142
2138.0,926.348,0.141
2140.0,927.668,0.141
2142.0,928.998,0.141
2144.0,930.33,0.141
2146.0,931.655,0.141
2148.0,932.983,0.141
2150.0,934.3,0.141
2152.0,935.636,0.141
2154.0,936.958,0.141
2156.0,938.287,0.14
2158.0,939.61,0.14
2160.0,940.943,0.14
2162.0,942.27,0.14
2164.0,943.589,0.14
2166.0,944.929,0.14
2168.0,946.264,0.14
2170.0,947.591,0.139
2172.0,948.914,0.139
2174.0,950.25,0.139
2176.0,951.579,0.139
2178.0,952.9,0.139
2180.0,954.228,0.139
2182.0,955.561,0.139
2184.0,956.895,0.139
2186.0,958.218,0.139
2188.0,959.546,0.139
2190.0,960.877,0.139
2192.0,962.196,0.138
2194.0,963.523,0.138
2196.0,964.85,0.138
2198.0,966.181,0.138
2200.0,967.507,0.138
2202.0,968.839,0.138
2204.0,970.167,0.138
2206.0,971.495,0.137
2208.0,972.815,0.137
2210.0,974.147,0.137
2212.0,975.48,0.137
2214.0,976.81,0.137
2216.0,978.145,0.137
2218.0,979.469,0.137
2220.0,980.795,0.137
2222.0,982.128,0.137
2224.0,983.456,0.137
2226.0,984.784,0.137
2228.0,986.114,0.137
2230.0,987.447,0.136
2232.0,988.774,0.136
2234.0,990.104,0.136
2236.0,991.434,0.136
2238.0,992.759,0.136
2240.0,994.091,0.136
2242.0,995.405,0.136
2244.0,996.745,0.136
2246.0,998.079,0.136
2248.0,999.409,0.135
2250.0,1000.736,0.135
2252.0,1002.065,0.135
2254.0,1003.394,0.135
2256.0,1004.725,0.135
2258.0,1006.055,0.135
2260.0,1007.378,0.135
2262.0,1008.709,0.135
2264.0,1010.036,0.134
2266.0,1011.377,0.134
2268.0,1012.702,0.134
2270.0,1014.026,0.134
2272.0,1015.357,0.134
2274.0,1016.69,0.134
2276.0,1018.018,0.134
2278.0,1019.352,0.134
2280.0,1020.677,0.134
2282.0,1022.006,0.134
2284.0,1023.338,0.134
2286.0,1024.664,0.134
2288.0,1025.991,0.134
2290.0,1027.329,0.133
2292.0,1028.649,0.133
2294.0,1029.988,0.133
2296.0,1031.312,0.133
2298.0,1032.646,0.133
2300.0,1033.976,0.133
2302.0,1035.305,0.133
2304.0,1036.63,0.133
2306.0,1037.967,0.133
2308.0,1039.299,0.133
2310.0,1040.623,0.133
2312.0,1041.952,0.132
2314.0,1043.276,0.132
2316.0,1044.609,0.132
2318.0,1045.941,0.132
2320.0,1047.262,0.132
2322.0,1048.605,0.132
2324.0,1049.93,0.132
2326.0,1051.262,0.132
2328.0,1052.591,0.132
2330.0,1053.918,0.132
2332.0,1055.249,0.131
2334.0,1056.571,0.131
2336.0,1057.64,0.131
2338.0,1058.414,0.131
2340.0,1059.336,0.131
2342.0,1060.203,0.131
2344.0,1060.997,0.131
2346.0,1061.738,0.131
2348.0,1062.424,0.131
2350.0,1063.049,0.131
2352.0,1063.627,0.131
2354.0,1064.173,0.131
2356.0,1064.67,0.131
2358.0,1065.129,0.131
2360.0,1065.553,0.131
2362.0,1065.958,0.13
2364.0,1066.33,0.13
2366.0,1066.672,0.13
2368.0,1066.992,0.13
2370.0,1067.287,0.13
2372.0,1067.565,0.13
2374.0,1067.823,0.13
2376.0,1068.059,0.13
2378.0,1068.282,0.13
2380.0,1068.481,0.13
2382.0,1068.682,0.13
2384.0,1068.869,0.13
2386.0,1069.033,0.13
2388.0,1069.192,0.13
2390.0,1069.332,0.13
2392.0,1069.466,0.13
2394.0,1069.601,0.13
2396.0,1069.721,0.129
2398.0,1069.825,0.129
2400.0,1069.944,0.129
2402.0,1070.034,0.129
2404.0,1070.122,0.129
2406.0,1070.224,0.129
2408.0,1070.312,0.129
2410.0,1070.378,0.129
2412.0,1070.446,0.129
2414.0,1070.528,0.129
2416.0,1070.598,0.129
2418.0,1070.661,0.129
2420.0,1070.716,0.129
2422.0,1070.764,0.129
2424.0,1070.82,0.129
2426.0,1070.879,0.129
2428.0,1070.931,0.129
2430.0,1070.979,0.129
2432.0,1071.019,0.129
2434.0,1071.059,0.129
2436.0,1071.102,0.129
2438.0,1071.142,0.129
2440.0,1071.171,0.129
2442.0,1071.211,0.129
2444.0,1071.242,0.129
2446.0,1071.281,0.129
2448.0,1071.317,0.128
2450.0,1071.338,0.128
2452.0,1071.369,0.128
2454.0,1071.402,0.128
2456.0,1071.421,0.128
2458.0,1071.441,0.128
2460.0,1071.47,0.128
2462.0,1071.495,0.128
2464.0,1071.519,0.128
2466.0,1071.545,0.128
2468.0,1071.565,0.128
2470.0,1071.596,0.128
2472.0,1071.606,0.128
2474.0,1071.626,0.128
2476.0,1071.652,0.128
2478.0,1071.67,0.128
2480.0,1071.684,0.128
2482.0,1071.698,0.129
2484.0,1071.714,0.128
2486.0,1071.724,0.128
2488.0,1071.744,0.128
2490.0,1071.759,0.128
2492.0,1071.782,0.128
2494.0,1071.795,0.127
2496.0,1071.803,0.128
2498.0,1071.817,0.128
2500.0,1071.828,0.128
2502.0,1071.843,0.128
2504.0,1071.861,0.128
2506.0,1071.867,0.128
2508.0,1071.882,0.128
2510.0,1071.893,0.127
2512.0,1071.914,0.127
2514.0,1071.912,0.127
2516.0,1071.93,0.127
2518.0,1071.946,0.127
2520.0,1071.949,0.127
2522.0,1071.96,0.127
2524.0,1071.981,0.127
2526.0,1071.984,0.127
2528.0,1071.996,0.127
2530.0,1072.013,0.127
2532.0,1072.026,0.127
2534.0,1072.029,0.127
2536.0,1072.034,0.127
2538.0,1072.042,0.127
2540.0,1072.056,0.127
2542.0,1072.055,0.127
2544.0,1072.068,0.127
2546.0,1072.062,0.127
2548.0,1072.08,0.127
2550.0,1072.091,0.127
2552.0,1072.103,0.127
2554.0,1072.103,0.127
2556.0,1072.106,0.127
2558.0,1072.12,0.127
2560.0,1072.123,0.127
2562.0,1072.12,0.127
2564.0,1072.138,0.127
2566.0,1072.142,0.127
2568.0,1072.163,0.127
2570.0,1072.161,0.127
2572.0,1072.167,0.127
2574.0,1072.175,0.127
2576.0,1072.184,0.127
2578.0,1072.192,0.127
2580.0,1072.205,0.127
2582.0,1072.206,0.127
2584.0,1072.207,0.127
2586.0,1072.214,0.127
2588.0,1072.213,0.127
2590.0,1072.219,0.127
2592.0,1072.227,0.127
2594.0,1072.238,0.127
2596.0,1072.24,0.127
2598.0,1072.244,0.127
2600.0,1072.253,0.127
2602.0,1072.249,0.127
2604.0,1072.256,0.127
2606.0,1072.254,0.127
2608.0,1072.259,0.127
2610.0,1072.265,0.127
2612.0,1072.275,0.127
2614.0,1072.282,0.127
2616.0,1072.284,0.127
2618.0,1072.288,0.127
2620.0,1072.29,0.127
2622.0,1072.293,0.127
2624.0,1072.305,0.127
2626.0,1072.304,0.127
2628.0,1072.307,0.127
2630.0,1072.314,0.127
2632.0,1072.314,0.126
2634.0,1072.319,0.126
2636.0,1072.325,0.126
2638.0,1072.322,0.126
2640.0,1072.336,0.126
2642.0,1072.334,0.126
2644.0,1072.336,0.126
2646.0,1072.34,0.127
2648.0,1072.344,0.127
2650.0,1072.347,0.127
2652.0,1072.346,0.127
2654.0,1072.345,0.127
2655.0,1072.347,0.127