File: Wood/Calibration_Data/TUBS/TUBS_TGA_N2_40K_R2.csv
Time (s),Temperature (K),Mass (mg)
0.0,305.094,0.94
2.0,305.086,0.94
4.0,305.085,0.939
6.0,305.071,0.939
8.0,305.056,0.939
10.0,305.052,0.939
12.0,305.039,0.939
14.0,305.032,0.938
16.0,305.017,0.938
18.0,305.014,0.938
20.0,305.005,0.938
22.0,304.984,0.938
24.0,304.975,0.937
26.0,304.977,0.937
28.0,304.958,0.937
30.0,304.959,0.937
32.0,304.941,0.937
34.0,304.938,0.936
36.0,304.928,0.936
38.0,304.916,0.936
40.0,304.904,0.936
42.0,304.899,0.936
44.0,304.91,0.936
46.0,304.884,0.936
48.0,304.894,0.935
50.0,304.89,0.935
52.0,304.866,0.935
54.0,304.866,0.935
56.0,304.855,0.935
58.0,304.845,0.935
60.0,304.825,0.935
62.0,304.84,0.935
64.0,304.823,0.934
66.0,304.827,0.934
68.0,304.823,0.934
70.0,304.819,0.934
72.0,304.811,0.934
74.0,304.804,0.934
76.0,304.818,0.934
78.0,304.8,0.934
80.0,304.788,0.933
82.0,304.799,0.933
84.0,304.78,0.933
86.0,304.769,0.933
88.0,304.771,0.933
90.0,304.775,0.933
92.0,304.776,0.933
94.0,304.775,0.933
96.0,304.751,0.933
98.0,304.758,0.933
100.0,304.746,0.933
102.0,304.734,0.933
104.0,304.741,0.932
106.0,304.759,0.932
108.0,304.751,0.932
110.0,304.744,0.932
112.0,304.727,0.932
114.0,304.726,0.932
116.0,304.737,0.932
118.0,304.706,0.932
120.0,304.701,0.932
122.0,304.719,0.931
124.0,304.695,0.931
126.0,304.688,0.931
128.0,304.698,0.931
130.0,304.693,0.931
132.0,304.696,0.931
134.0,304.682,0.931
136.0,304.683,0.931
138.0,304.671,0.931
140.0,304.684,0.931
142.0,304.674,0.931
144.0,304.663,0.931
146.0,304.671,0.931
148.0,304.653,0.931
150.0,304.655,0.931
152.0,304.667,0.93
154.0,304.658,0.93
156.0,304.657,0.93
158.0,304.665,0.93
160.0,304.642,0.93
162.0,304.648,0.93
164.0,304.642,0.93
166.0,304.633,0.93
168.0,304.626,0.93
170.0,304.636,0.93
172.0,304.64,0.93
174.0,304.652,0.93
176.0,304.63,0.93
178.0,304.636,0.93
180.0,304.628,0.93
182.0,304.628,0.93
184.0,304.618,0.93
186.0,304.615,0.929
188.0,304.6,0.929
190.0,304.624,0.929
192.0,304.613,0.929
194.0,304.618,0.929
196.0,304.592,0.929
198.0,304.61,0.929
200.0,304.596,0.929
202.0,304.599,0.929
204.0,304.582,0.929
206.0,304.599,0.929
208.0,304.604,0.929
210.0,304.579,0.929
212.0,304.574,0.929
214.0,304.59,0.929
216.0,304.578,0.929
218.0,304.587,0.929
220.0,304.563,0.929
222.0,304.578,0.929
224.0,304.58,0.929
226.0,304.577,0.929
228.0,304.567,0.929
230.0,304.578,0.929
232.0,304.585,0.928
234.0,304.57,0.928
236.0,304.562,0.928
238.0,304.552,0.928
240.0,304.57,0.928
242.0,304.572,0.928
244.0,304.54,0.928
246.0,304.558,0.928
248.0,304.54,0.928
250.0,304.538,0.928
252.0,304.544,0.928
254.0,304.543,0.928
256.0,304.54,0.928
258.0,304.539,0.928
260.0,304.546,0.928
262.0,304.553,0.928
264.0,304.537,0.928
266.0,304.534,0.928
268.0,304.541,0.928
270.0,304.528,0.928
272.0,304.538,0.928
274.0,304.534,0.928
276.0,304.53,0.928
278.0,304.538,0.928
280.0,304.529,0.928
282.0,304.529,0.928
284.0,304.512,0.928
286.0,304.518,0.928
288.0,304.523,0.928
290.0,304.52,0.928
292.0,304.519,0.928
294.0,304.522,0.928
296.0,304.508,0.928
298.0,304.513,0.928
300.0,304.502,0.928
302.0,304.501,0.928
304.0,304.512,0.928
306.0,304.506,0.928
308.0,304.504,0.928
310.0,304.502,0.928
312.0,304.499,0.928
314.0,304.513,0.928
316.0,304.503,0.927
318.0,304.499,0.927
320.0,304.506,0.927
322.0,304.497,0.927
324.0,304.499,0.927
326.0,304.506,0.927
328.0,304.494,0.927
330.0,304.498,0.927
332.0,304.504,0.927
334.0,304.512,0.927
336.0,304.497,0.927
338.0,304.5,0.927
340.0,304.504,0.927
342.0,304.495,0.927
344.0,304.491,0.927
346.0,304.499,0.927
348.0,304.488,0.927
350.0,304.488,0.927
352.0,304.483,0.927
354.0,304.484,0.927
356.0,304.491,0.927
358.0,304.484,0.927
360.0,304.487,0.927
362.0,304.479,0.927
364.0,304.467,0.927
366.0,304.471,0.927
368.0,304.485,0.927
370.0,304.468,0.927
372.0,304.48,0.927
374.0,304.484,0.927
376.0,304.484,0.927
378.0,304.484,0.927
380.0,304.467,0.927
382.0,304.461,0.927
384.0,304.475,0.927
386.0,304.474,0.927
388.0,304.472,0.927
390.0,304.466,0.927
392.0,304.468,0.927
394.0,304.474,0.927
396.0,304.462,0.926
398.0,304.474,0.926
400.0,304.472,0.926
402.0,304.489,0.926
404.0,304.466,0.926
406.0,304.467,0.926
408.0,304.454,0.926
410.0,304.45,0.926
412.0,304.476,0.926
414.0,304.487,0.926
416.0,304.459,0.926
418.0,304.458,0.926
420.0,304.47,0.926
422.0,304.452,0.926
424.0,304.466,0.926
426.0,304.459,0.926
428.0,304.455,0.926
430.0,304.46,0.926
432.0,304.468,0.926
434.0,304.46,0.926
436.0,304.453,0.926
438.0,304.45,0.926
440.0,304.475,0.926
442.0,304.465,0.926
444.0,304.468,0.926
446.0,304.461,0.926
448.0,304.478,0.926
450.0,304.464,0.926
452.0,304.461,0.926
454.0,304.466,0.926
456.0,304.455,0.926
458.0,304.476,0.926
460.0,304.459,0.926
462.0,304.465,0.926
464.0,304.473,0.926
466.0,304.472,0.926
468.0,304.464,0.926
470.0,304.462,0.926
472.0,304.468,0.926
474.0,304.451,0.926
476.0,304.446,0.926
478.0,304.464,0.926
480.0,304.46,0.926
482.0,304.462,0.926
484.0,304.45,0.926
486.0,304.457,0.926
488.0,304.445,0.926
490.0,304.47,0.926
492.0,304.467,0.926
494.0,304.462,0.926
496.0,304.454,0.926
498.0,304.443,0.926
500.0,304.439,0.926
502.0,304.452,0.926
504.0,304.446,0.926
506.0,304.444,0.926
508.0,304.445,0.926
510.0,304.47,0.926
512.0,304.467,0.926
514.0,304.452,0.926
516.0,304.459,0.926
518.0,304.459,0.926
520.0,304.462,0.926
522.0,304.463,0.926
524.0,304.438,0.926
526.0,304.468,0.926
528.0,304.456,0.926
530.0,304.457,0.926
532.0,304.462,0.926
534.0,304.458,0.926
536.0,304.465,0.926
538.0,304.467,0.926
540.0,304.449,0.926
542.0,304.46,0.926
544.0,304.459,0.926
546.0,304.452,0.926
548.0,304.452,0.926
550.0,304.456,0.926
552.0,304.459,0.926
554.0,304.458,0.925
556.0,304.458,0.925
558.0,304.465,0.925
560.0,304.471,0.925
562.0,304.456,0.925
564.0,304.465,0.925
566.0,304.451,0.925
568.0,304.45,0.925
570.0,304.458,0.925
572.0,304.45,0.925
574.0,304.471,0.925
576.0,304.462,0.925
578.0,304.462,0.925
580.0,304.444,0.925
582.0,304.445,0.925
584.0,304.437,0.925
586.0,304.45,0.925
588.0,304.453,0.925
590.0,304.448,0.925
592.0,304.442,0.925
594.0,304.442,0.925
596.0,304.452,0.925
598.0,304.45,0.925
600.0,304.445,0.925
602.0,304.448,0.925
604.0,304.437,0.925
606.0,304.426,0.925
608.0,304.428,0.925
610.0,304.442,0.925
612.0,304.432,0.925
614.0,304.431,0.925
616.0,304.449,0.925
618.0,304.445,0.925
620.0,304.445,0.925
622.0,304.44,0.925
624.0,304.456,0.925
626.0,304.442,0.925
628.0,304.452,0.925
630.0,304.458,0.925
632.0,304.462,0.925
634.0,304.454,0.925
636.0,304.446,0.925
638.0,304.459,0.925
640.0,304.449,0.925
642.0,304.454,0.925
644.0,304.438,0.925
646.0,304.452,0.925
648.0,304.439,0.925
650.0,304.449,0.925
652.0,304.457,0.925
654.0,304.442,0.925
656.0,304.45,0.925
658.0,304.45,0.925
660.0,304.448,0.925
662.0,304.446,0.925
664.0,304.447,0.925
666.0,304.444,0.925
668.0,304.433,0.925
670.0,304.434,0.925
672.0,304.446,0.925
674.0,304.44,0.925
676.0,304.444,0.925
678.0,304.444,0.925
680.0,304.434,0.925
682.0,304.456,0.925
684.0,304.462,0.925
686.0,304.445,0.925
688.0,304.442,0.925
690.0,304.45,0.925
692.0,304.45,0.925
694.0,304.431,0.925
696.0,304.453,0.925
698.0,304.434,0.925
700.0,304.452,0.925
702.0,304.425,0.925
704.0,304.444,0.925
706.0,304.439,0.925
708.0,304.44,0.925
710.0,304.444,0.925
712.0,304.438,0.925
714.0,304.443,0.925
716.0,304.441,0.925
718.0,304.431,0.925
720.0,304.431,0.925
722.0,304.44,0.925
724.0,304.437,0.925
726.0,304.439,0.925
728.0,304.432,0.925
730.0,304.441,0.925
732.0,304.436,0.925
734.0,304.443,0.925
736.0,304.441,0.925
738.0,304.433,0.925
740.0,304.444,0.925
742.0,304.455,0.925
744.0,304.444,0.925
746.0,304.448,0.925
748.0,304.454,0.925
750.0,304.451,0.925
752.0,304.434,0.925
754.0,304.447,0.925
756.0,304.436,0.925
758.0,304.447,0.925
760.0,304.449,0.925
762.0,304.455,0.925
764.0,304.454,0.925
766.0,304.435,0.925
768.0,304.434,0.925
770.0,304.434,0.925
772.0,304.441,0.925
774.0,304.443,0.925
776.0,304.453,0.925
778.0,304.434,0.925
780.0,304.433,0.925
782.0,304.434,0.925
784.0,304.447,0.925
786.0,304.446,0.925
788.0,304.435,0.925
790.0,304.438,0.925
792.0,304.431,0.925
794.0,304.459,0.925
796.0,304.452,0.925
798.0,304.449,0.925
800.0,304.445,0.925
802.0,304.442,0.925
804.0,304.457,0.925
806.0,304.44,0.925
808.0,304.438,0.925
810.0,304.44,0.925
812.0,304.46,0.925
814.0,304.453,0.925
816.0,304.458,0.925
818.0,304.455,0.925
820.0,304.439,0.925
822.0,304.448,0.925
824.0,304.464,0.925
826.0,304.453,0.925
828.0,304.441,0.925
830.0,304.445,0.925
832.0,304.443,0.925
834.0,304.442,0.925
836.0,304.45,0.925
838.0,304.448,0.925
840.0,304.446,0.925
842.0,304.438,0.925
844.0,304.447,0.925
846.0,304.444,0.925
848.0,304.449,0.925
850.0,304.44,0.925
852.0,304.453,0.925
854.0,304.437,0.925
856.0,304.453,0.925
858.0,304.451,0.925
860.0,304.459,0.925
862.0,304.452,0.925
864.0,304.455,0.925
866.0,304.465,0.925
868.0,304.454,0.925
870.0,304.451,0.925
872.0,304.448,0.925
874.0,304.453,0.925
876.0,304.456,0.925
878.0,304.447,0.925
880.0,304.45,0.925
882.0,304.437,0.925
884.0,304.448,0.925
886.0,304.443,0.925
888.0,304.442,0.925
890.0,304.442,0.925
892.0,304.442,0.925
894.0,304.448,0.925
896.0,304.445,0.925
898.0,304.456,0.925
900.0,304.452,0.925
902.0,304.453,0.925
904.0,304.443,0.925
906.0,304.439,0.925
908.0,304.446,0.925
910.0,304.448,0.925
912.0,304.435,0.925
914.0,304.445,0.925
916.0,304.438,0.925
918.0,304.455,0.925
920.0,304.453,0.925
922.0,304.449,0.925
924.0,304.45,0.925
926.0,304.446,0.925
928.0,304.439,0.925
930.0,304.446,0.925
932.0,304.447,0.925
934.0,304.45,0.925
936.0,304.446,0.925
938.0,304.455,0.925
940.0,304.446,0.925
942.0,304.457,0.925
944.0,304.451,0.925
946.0,304.455,0.925
948.0,304.466,0.925
950.0,304.438,0.925
952.0,304.44,0.925
954.0,304.456,0.925
956.0,304.461,0.925
958.0,304.457,0.925
960.0,304.435,0.925
962.0,304.444,0.925
964.0,304.45,0.925
966.0,304.447,0.925
968.0,304.443,0.925
970.0,304.447,0.925
972.0,304.448,0.925
974.0,304.46,0.925
976.0,304.455,0.925
978.0,304.43,0.925
980.0,304.442,0.925
982.0,304.434,0.925
984.0,304.43,0.925
986.0,304.465,0.925
988.0,304.458,0.925
990.0,304.438,0.925
992.0,304.44,0.925
994.0,304.441,0.925
996.0,304.44,0.925
998.0,304.436,0.925
1000.0,304.437,0.925
1002.0,304.437,0.925
1004.0,304.438,0.925
1006.0,304.451,0.925
1008.0,304.45,0.925
1010.0,304.442,0.925
1012.0,304.452,0.925
1014.0,304.465,0.925
1016.0,304.448,0.925
1018.0,304.438,0.924
1020.0,304.447,0.924
1022.0,304.447,0.924
1024.0,304.447,0.924
1026.0,304.444,0.924
1028.0,304.453,0.924
1030.0,304.444,0.924
1032.0,304.461,0.924
1034.0,304.45,0.924
1036.0,304.447,0.924
1038.0,304.456,0.924
1040.0,304.455,0.924
1042.0,304.44,0.924
1044.0,304.45,0.924
1046.0,304.452,0.924
1048.0,304.445,0.924
1050.0,304.462,0.924
1052.0,304.463,0.924
1054.0,304.463,0.924
1056.0,304.466,0.924
1058.0,304.452,0.924
1060.0,304.446,0.924
1062.0,304.448,0.924
1064.0,304.453,0.924
1066.0,304.457,0.924
1068.0,304.45,0.924
1070.0,304.463,0.924
1072.0,304.452,0.924
1074.0,304.446,0.924
1076.0,304.463,0.924
1078.0,304.463,0.924
1080.0,304.452,0.924
1082.0,304.454,0.924
1084.0,304.453,0.924
1086.0,304.456,0.924
1088.0,304.442,0.924
1090.0,304.454,0.924
1092.0,304.443,0.924
1094.0,304.46,0.924
1096.0,304.459,0.924
1098.0,304.463,0.924
1100.0,304.448,0.925
1102.0,304.443,0.925
1104.0,304.457,0.925
1106.0,304.457,0.925
1108.0,304.438,0.925
1110.0,304.466,0.925
1112.0,304.457,0.925
1114.0,304.441,0.924
1116.0,304.452,0.924
1118.0,304.464,0.924
1120.0,304.445,0.924
1122.0,304.451,0.924
1124.0,304.451,0.924
1126.0,304.448,0.924
1128.0,304.459,0.924
1130.0,304.446,0.924
1132.0,304.455,0.924
1134.0,304.444,0.924
1136.0,304.452,0.924
1138.0,304.453,0.924
1140.0,304.445,0.924
1142.0,304.438,0.924
1144.0,304.461,0.924
1146.0,304.439,0.924
1148.0,304.448,0.924
1150.0,304.46,0.924
1152.0,304.456,0.924
1154.0,304.447,0.925
1156.0,304.456,0.925
1158.0,304.449,0.925
1160.0,304.468,0.925
1162.0,304.461,0.925
1164.0,304.454,0.925
1166.0,304.452,0.925
1168.0,304.456,0.925
1170.0,304.444,0.925
1172.0,304.435,0.925
1174.0,304.451,0.925
1176.0,304.448,0.925
1178.0,304.459,0.925
1180.0,304.439,0.925
1182.0,304.454,0.924
1184.0,304.453,0.924
1186.0,304.453,0.924
1188.0,304.45,0.924
1190.0,304.444,0.924
1192.0,304.455,0.924
1194.0,304.455,0.924
1196.0,304.448,0.924
1198.0,304.455,0.924
1200.0,304.477,0.924
1202.0,304.527,0.924
1204.0,305.085,0.923
1206.0,305.894,0.922
1208.0,306.605,0.922
1210.0,307.578,0.922
1212.0,308.664,0.924
1214.0,309.832,0.925
1216.0,311.048,0.926
1218.0,312.302,0.927
1220.0,313.594,0.927
1222.0,314.882,0.927
1224.0,316.17,0.926
1226.0,317.481,0.926
1228.0,318.778,0.926
1230.0,320.088,0.925
1232.0,321.409,0.925
1234.0,322.707,0.924
1236.0,324.016,0.924
1238.0,325.325,0.924
1240.0,326.64,0.923
1242.0,327.966,0.923
1244.0,329.273,0.923
1246.0,330.607,0.923
1248.0,331.915,0.923
1250.0,333.232,0.922
1252.0,334.533,0.922
1254.0,335.851,0.922
1256.0,337.163,0.922
1258.0,338.483,0.922
1260.0,339.794,0.921
1262.0,341.116,0.921
1264.0,342.434,0.921
1266.0,343.747,0.92
1268.0,345.055,0.92
1270.0,346.385,0.92
1272.0,347.699,0.92
1274.0,349.023,0.919
1276.0,350.338,0.919
1278.0,351.656,0.919
1280.0,352.979,0.918
1282.0,354.291,0.918
1284.0,355.618,0.918
1286.0,356.944,0.917
1288.0,358.274,0.917
1290.0,359.588,0.917
1292.0,360.905,0.917
1294.0,362.235,0.916
1296.0,363.55,0.916
1298.0,364.876,0.916
1300.0,366.182,0.916
1302.0,367.513,0.916
1304.0,368.844,0.915
1306.0,370.169,0.915
1308.0,371.5,0.915
1310.0,372.82,0.915
1312.0,374.136,0.915
1314.0,375.476,0.915
1316.0,376.788,0.915
1318.0,378.123,0.915
1320.0,379.445,0.915
1322.0,380.779,0.915
1324.0,382.112,0.915
1326.0,383.455,0.914
1328.0,384.774,0.914
1330.0,386.114,0.914
1332.0,387.447,0.914
1334.0,388.778,0.914
1336.0,390.114,0.914
1338.0,391.45,0.914
1340.0,392.784,0.914
1342.0,394.108,0.914
1344.0,395.455,0.914
1346.0,396.784,0.914
1348.0,398.111,0.914
1350.0,399.459,0.914
1352.0,400.806,0.914
1354.0,402.146,0.914
1356.0,403.484,0.914
1358.0,404.824,0.914
1360.0,406.173,0.914
1362.0,407.513,0.914
1364.0,408.865,0.914
1366.0,410.211,0.914
1368.0,411.549,0.914
1370.0,412.903,0.914
1372.0,414.248,0.914
1374.0,415.598,0.914
1376.0,416.946,0.914
1378.0,418.29,0.914
1380.0,419.656,0.914
1382.0,420.996,0.914
1384.0,422.333,0.914
1386.0,423.694,0.914
1388.0,425.051,0.914
1390.0,426.385,0.914
1392.0,427.748,0.914
1394.0,429.097,0.914
1396.0,430.451,0.914
1398.0,431.807,0.913
1400.0,433.157,0.913
1402.0,434.514,0.913
1404.0,435.869,0.913
1406.0,437.231,0.913
1408.0,438.585,0.913
1410.0,439.943,0.913
1412.0,441.298,0.913
1414.0,442.658,0.913
1416.0,444.021,0.913
1418.0,445.381,0.912
1420.0,446.735,0.912
1422.0,448.108,0.912
1424.0,449.462,0.912
1426.0,450.839,0.912
1428.0,452.2,0.912
1430.0,453.563,0.911
1432.0,454.923,0.911
1434.0,456.282,0.911
1436.0,457.637,0.911
1438.0,459.014,0.911
1440.0,460.373,0.91
1442.0,461.756,0.91
1444.0,463.112,0.91
1446.0,464.477,0.909
1448.0,465.845,0.909
1450.0,467.212,0.909
1452.0,468.579,0.908
1454.0,469.942,0.908
1456.0,471.326,0.908
1458.0,472.691,0.907
1460.0,474.062,0.907
1462.0,475.434,0.906
1464.0,476.804,0.906
1466.0,478.18,0.905
1468.0,479.554,0.905
1470.0,480.92,0.905
1472.0,482.291,0.904
1474.0,483.663,0.904
1476.0,485.042,0.903
1478.0,486.414,0.903
1480.0,487.783,0.902
1482.0,489.146,0.902
1484.0,490.521,0.901
1486.0,491.892,0.901
1488.0,493.259,0.9
1490.0,494.628,0.9
1492.0,496.011,0.899
1494.0,497.375,0.899
1496.0,498.754,0.898
1498.0,500.114,0.897
1500.0,501.493,0.897
1502.0,502.85,0.896
1504.0,504.239,0.895
1506.0,505.617,0.895
1508.0,506.976,0.894
1510.0,508.358,0.893
1512.0,509.722,0.892
1514.0,511.098,0.892
1516.0,512.461,0.891
1518.0,513.83,0.89
1520.0,515.197,0.889
1522.0,516.573,0.888
1524.0,517.947,0.888
1526.0,519.318,0.887
1528.0,520.674,0.886
1530.0,522.058,0.885
1532.0,523.424,0.883
1534.0,524.799,0.882
1536.0,526.155,0.881
1538.0,527.531,0.88
1540.0,528.894,0.879
1542.0,530.262,0.878
1544.0,531.637,0.876
1546.0,533.003,0.875
1548.0,534.369,0.874
1550.0,535.728,0.872
1552.0,537.099,0.871
1554.0,538.472,0.869
1556.0,539.835,0.867
1558.0,541.2,0.866
1560.0,542.565,0.864
1562.0,543.936,0.862
1564.0,545.296,0.861
1566.0,546.66,0.859
1568.0,548.029,0.857
1570.0,549.395,0.855
1572.0,550.755,0.853
1574.0,552.119,0.851
1576.0,553.493,0.849
1578.0,554.849,0.847
1580.0,556.209,0.845
1582.0,557.57,0.843
1584.0,558.936,0.841
1586.0,560.291,0.838
1588.0,561.668,0.836
1590.0,563.02,0.834
1592.0,564.375,0.832
1594.0,565.732,0.829
1596.0,567.093,0.827
1598.0,568.453,0.825
1600.0,569.812,0.822
1602.0,571.182,0.82
1604.0,572.537,0.817
1606.0,573.896,0.815
1608.0,575.255,0.812
1610.0,576.602,0.809
1612.0,577.968,0.807
1614.0,579.319,0.804
1616.0,580.67,0.801
1618.0,582.043,0.798
1620.0,583.391,0.795
1622.0,584.739,0.792
1624.0,586.092,0.789
1626.0,587.449,0.786
1628.0,588.795,0.783
1630.0,590.152,0.78
1632.0,591.504,0.776
1634.0,592.858,0.773
1636.0,594.21,0.769
1638.0,595.559,0.765
1640.0,596.908,0.762
1642.0,598.253,0.758
1644.0,599.613,0.754
1646.0,600.964,0.75
1648.0,602.306,0.745
1650.0,603.66,0.741
1652.0,605.0,0.737
1654.0,606.342,0.732
1656.0,607.69,0.728
1658.0,609.039,0.723
1660.0,610.389,0.718
1662.0,611.728,0.713
1664.0,613.077,0.708
1666.0,614.428,0.703
1668.0,615.758,0.697
1670.0,617.11,0.692
1672.0,618.444,0.686
1674.0,619.785,0.681
1676.0,621.143,0.675
1678.0,622.477,0.669
1680.0,623.818,0.663
1682.0,625.156,0.657
1684.0,626.503,0.65
1686.0,627.839,0.644
1688.0,629.163,0.637
1690.0,630.511,0.631
1692.0,631.857,0.624
1694.0,633.185,0.617
1696.0,634.523,0.61
1698.0,635.855,0.603
1700.0,637.193,0.596
1702.0,638.532,0.589
1704.0,639.862,0.582
1706.0,641.2,0.575
1708.0,642.536,0.567
1710.0,643.868,0.56
1712.0,645.196,0.552
1714.0,646.525,0.545
1716.0,647.87,0.537
1718.0,649.199,0.529
1720.0,650.529,0.521
1722.0,651.861,0.513
1724.0,653.192,0.504
1726.0,654.516,0.496
1728.0,655.837,0.488
1730.0,657.168,0.479
1732.0,658.495,0.47
1734.0,659.828,0.461
1736.0,661.147,0.452
1738.0,662.473,0.442
1740.0,663.798,0.432
1742.0,665.121,0.423
1744.0,666.441,0.413
1746.0,667.771,0.402
1748.0,669.086,0.392
1750.0,670.409,0.381
1752.0,671.741,0.37
1754.0,673.052,0.36
1756.0,674.384,0.349
1758.0,675.702,0.338
1760.0,677.028,0.327
1762.0,678.353,0.316
1764.0,679.663,0.306
1766.0,680.999,0.295
1768.0,682.312,0.285
1770.0,683.638,0.276
1772.0,684.971,0.267
1774.0,686.286,0.259
1776.0,687.613,0.251
1778.0,688.935,0.244
1780.0,690.265,0.238
1782.0,691.587,0.232
1784.0,692.919,0.228
1786.0,694.241,0.224
1788.0,695.563,0.221
1790.0,696.888,0.218
1792.0,698.212,0.216
1794.0,699.538,0.214
1796.0,700.862,0.212
1798.0,702.172,0.211
1800.0,703.491,0.209
1802.0,704.808,0.208
1804.0,706.139,0.207
1806.0,707.456,0.207
1808.0,708.772,0.206
1810.0,710.1,0.205
1812.0,711.421,0.204
1814.0,712.736,0.203
1816.0,714.058,0.203
1818.0,715.384,0.202
1820.0,716.692,0.201
1822.0,718.008,0.2
1824.0,719.336,0.2
1826.0,720.649,0.199
1828.0,721.961,0.198
1830.0,723.286,0.198
1832.0,724.604,0.197
1834.0,725.928,0.196
1836.0,727.241,0.195
1838.0,728.545,0.195
1840.0,729.872,0.194
1842.0,731.186,0.193
1844.0,732.508,0.192
1846.0,733.825,0.192
1848.0,735.148,0.191
1850.0,736.469,0.191
1852.0,737.783,0.19
1854.0,739.092,0.189
1856.0,740.407,0.189
1858.0,741.725,0.188
1860.0,743.042,0.187
1862.0,744.358,0.187
1864.0,745.667,0.186
1866.0,746.98,0.186
1868.0,748.304,0.185
1870.0,749.624,0.184
1872.0,750.937,0.184
1874.0,752.257,0.183
1876.0,753.573,0.183
1878.0,754.898,0.182
1880.0,756.208,0.182
1882.0,757.528,0.181
1884.0,758.845,0.181
1886.0,760.164,0.18
1888.0,761.471,0.18
1890.0,762.793,0.179
1892.0,764.104,0.179
1894.0,765.426,0.178
1896.0,766.733,0.178
1898.0,768.051,0.178
1900.0,769.372,0.177
1902.0,770.692,0.177
1904.0,772.002,0.176
1906.0,773.331,0.176
1908.0,774.645,0.175
1910.0,775.952,0.175
1912.0,777.273,0.175
1914.0,778.602,0.174
1916.0,779.915,0.174
1918.0,781.23,0.174
1920.0,782.542,0.174
1922.0,783.866,0.173
1924.0,785.179,0.173
1926.0,786.488,0.173
1928.0,787.817,0.172
1930.0,789.133,0.172
1932.0,790.447,0.172
1934.0,791.764,0.171
1936.0,793.09,0.171
1938.0,794.401,0.171
1940.0,795.719,0.17
1942.0,797.038,0.17
1944.0,798.347,0.17
1946.0,799.677,0.169
1948.0,800.991,0.169
1950.0,802.314,0.169
1952.0,803.62,0.168
1954.0,804.942,0.168
1956.0,806.259,0.168
1958.0,807.583,0.168
1960.0,808.896,0.167
1962.0,810.215,0.167
1964.0,811.525,0.167
1966.0,812.836,0.167
1968.0,814.169,0.166
1970.0,815.485,0.166
1972.0,816.81,0.166
1974.0,818.126,0.166
1976.0,819.443,0.165
1978.0,820.761,0.165
1980.0,822.07,0.165
1982.0,823.401,0.165
1984.0,824.715,0.164
1986.0,826.03,0.164
1988.0,827.359,0.164
1990.0,828.669,0.164
1992.0,829.991,0.163
1994.0,831.312,0.163
1996.0,832.639,0.163
1998.0,833.954,0.163
2000.0,835.263,0.163
2002.0,836.584,0.162
2004.0,837.903,0.162
2006.0,839.229,0.162
2008.0,840.546,0.162
2010.0,841.87,0.162
2012.0,843.196,0.161
2014.0,844.506,0.161
2016.0,845.819,0.161
2018.0,847.13,0.161
2020.0,848.452,0.16
2022.0,849.772,0.16
2024.0,851.104,0.16
2026.0,852.419,0.16
2028.0,853.747,0.16
2030.0,855.057,0.159
2032.0,856.38,0.159
2034.0,857.704,0.159
2036.0,859.018,0.159
2038.0,860.335,0.159
2040.0,861.67,0.158
2042.0,862.983,0.158
2044.0,864.303,0.158
2046.0,865.628,0.158
2048.0,866.957,0.158
2050.0,868.277,0.157
2052.0,869.605,0.157
2054.0,870.919,0.157
2056.0,872.241,0.157
2058.0,873.559,0.157
2060.0,874.886,0.156
2062.0,876.204,0.156
2064.0,877.522,0.156
2066.0,878.85,0.156
2068.0,880.18,0.156
2070.0,881.497,0.156
2072.0,882.824,0.155
2074.0,884.145,0.155
2076.0,885.458,0.155
2078.0,886.788,0.155
2080.0,888.109,0.155
2082.0,889.44,0.155
2084.0,890.764,0.154
2086.0,892.087,0.154
2088.0,893.411,0.154
2090.0,894.743,0.154
2092.0,896.061,0.154
2094.0,897.385,0.154
2096.0,898.709,0.154
2098.0,900.037,0.154
2100.0,901.355,0.154
2102.0,902.673,0.153
2104.0,903.998,0.153
2106.0,905.327,0.153
2108.0,906.652,0.153
2110.0,907.979,0.153
2112.0,909.308,0.152
2114.0,910.636,0.152
2116.0,911.953,0.152
2118.0,913.287,0.152
2120.0,914.616,0.152
2122.0,915.94,0.151
2124.0,917.268,0.151
2126.0,918.59,0.151
2128.0,919.91,0.151
2130.0,921.248,0.151
2132.0,922.568,0.151
2134.0,923.893,0.151
2136.0,925.211,0.151
2138.0,926.543,0.15
2140.0,927.872,0.15
2142.0,929.202,0.15
2144.0,930.521,0.15
2146.0,931.85,0.15
2148.0,933.189,0.15
2150.0,934.514,0.15
2152.0,935.847,0.15
2154.0,937.16,0.15
2156.0,938.49,0.149
2158.0,939.821,0.149
2160.0,941.147,0.149
2162.0,942.478,0.149
2164.0,943.8,0.149
2166.0,945.133,0.149
2168.0,946.458,0.149
2170.0,947.787,0.149
2172.0,949.113,0.149
2174.0,950.441,0.148
2176.0,951.77,0.148
2178.0,953.095,0.148
2180.0,954.417,0.148
2182.0,955.744,0.148
2184.0,957.077,0.148
2186.0,958.401,0.148
2188.0,959.73,0.147
2190.0,961.059,0.147
2192.0,962.391,0.147
2194.0,963.705,0.147
2196.0,965.034,0.147
2198.0,966.37,0.147
2200.0,967.7,0.147
2202.0,969.023,0.147
2204.0,970.353,0.147
2206.0,971.677,0.147
2208.0,973.011,0.147
2210.0,974.328,0.147
2212.0,975.664,0.147
2214.0,976.999,0.146
2216.0,978.325,0.146
2218.0,979.648,0.146
2220.0,980.986,0.146
2222.0,982.306,0.146
2224.0,983.633,0.146
2226.0,984.967,0.146
2228.0,986.294,0.146
2230.0,987.612,0.146
2232.0,988.949,0.146
2234.0,990.278,0.146
2236.0,991.611,0.145
2238.0,992.951,0.145
2240.0,994.272,0.145
2242.0,995.607,0.145
2244.0,996.931,0.145
2246.0,998.265,0.145
2248.0,999.594,0.145
2250.0,1000.911,0.145
2252.0,1002.252,0.145
2254.0,1003.584,0.145
2256.0,1004.909,0.144
2258.0,1006.24,0.144
2260.0,1007.571,0.144
2262.0,1008.902,0.144
2264.0,1010.233,0.144
2266.0,1011.564,0.144
2268.0,1012.901,0.144
2270.0,1014.231,0.144
2272.0,1015.559,0.144
2274.0,1016.894,0.144
2276.0,1018.226,0.144
2278.0,1019.556,0.144
2280.0,1020.897,0.144
2282.0,1022.225,0.144
2284.0,1023.559,0.144
2286.0,1024.887,0.143
2288.0,1026.232,0.143
2290.0,1027.562,0.143
2292.0,1028.891,0.143
2294.0,1030.223,0.143
2296.0,1031.556,0.143
2298.0,1032.892,0.143
2300.0,1034.229,0.143
2302.0,1035.56,0.142
2304.0,1036.895,0.142
2306.0,1038.23,0.142
2308.0,1039.56,0.142
2310.0,1040.897,0.142
2312.0,1042.229,0.142
2314.0,1043.565,0.142
2316.0,1044.901,0.142
2318.0,1046.228,0.142
2320.0,1047.56,0.142
2322.0,1048.898,0.142
2324.0,1050.227,0.142
2326.0,1051.565,0.141
2328.0,1052.891,0.141
2330.0,1054.226,0.141
2332.0,1055.552,0.141
2334.0,1056.897,0.141
2336.0,1057.967,0.141
2338.0,1058.76,0.141
2340.0,1059.697,0.141
2342.0,1060.564,0.141
2344.0,1061.358,0.14
2346.0,1062.094,0.14
2348.0,1062.777,0.14
2350.0,1063.404,0.14
2352.0,1063.984,0.14
2354.0,1064.519,0.14
2356.0,1065.009,0.14
2358.0,1065.461,0.14
2360.0,1065.886,0.14
2362.0,1066.279,0.14
2364.0,1066.64,0.14
2366.0,1066.982,0.14
2368.0,1067.288,0.14
2370.0,1067.588,0.14
2372.0,1067.853,0.14
2374.0,1068.103,0.14
2376.0,1068.333,0.14
2378.0,1068.556,0.14
2380.0,1068.749,0.14
2382.0,1068.947,0.14
2384.0,1069.108,0.14
2386.0,1069.282,0.14
2388.0,1069.427,0.14
2390.0,1069.563,0.14
2392.0,1069.7,0.14
2394.0,1069.821,0.14
2396.0,1069.939,0.14
2398.0,1070.047,0.14
2400.0,1070.149,0.139
2402.0,1070.247,0.139
2404.0,1070.347,0.139
2406.0,1070.413,0.139
2408.0,1070.496,0.139
2410.0,1070.575,0.139
2412.0,1070.643,0.139
2414.0,1070.71,0.139
2416.0,1070.769,0.139
2418.0,1070.823,0.139
2420.0,1070.878,0.139
2422.0,1070.933,0.139
2424.0,1070.987,0.139
2426.0,1071.038,0.139
2428.0,1071.082,0.139
2430.0,1071.121,0.139
2432.0,1071.159,0.139
2434.0,1071.198,0.139
2436.0,1071.238,0.139
2438.0,1071.276,0.139
2440.0,1071.311,0.139
2442.0,1071.344,0.139
2444.0,1071.374,0.139
2446.0,1071.4,0.139
2448.0,1071.431,0.139
2450.0,1071.464,0.139
2452.0,1071.48,0.139
2454.0,1071.501,0.139
2456.0,1071.525,0.139
2458.0,1071.552,0.139
2460.0,1071.577,0.139
2462.0,1071.598,0.139
2464.0,1071.624,0.139
2466.0,1071.645,0.139
2468.0,1071.653,0.138
2470.0,1071.673,0.138
2472.0,1071.698,0.138
2474.0,1071.713,0.138
2476.0,1071.727,0.138
2478.0,1071.756,0.138
2480.0,1071.768,0.138
2482.0,1071.782,0.138
2484.0,1071.798,0.138
2486.0,1071.817,0.138
2488.0,1071.822,0.138
2490.0,1071.843,0.138
2492.0,1071.86,0.138
2494.0,1071.859,0.138
2496.0,1071.884,0.138
2498.0,1071.887,0.138
2500.0,1071.902,0.138
2502.0,1071.913,0.138
2504.0,1071.921,0.138
2506.0,1071.941,0.138
2508.0,1071.943,0.138
2510.0,1071.956,0.138
2512.0,1071.977,0.138
2514.0,1071.972,0.138
2516.0,1071.987,0.138
2518.0,1071.994,0.138
2520.0,1072.002,0.138
2522.0,1072.026,0.138
2524.0,1072.028,0.138
2526.0,1072.032,0.138
2528.0,1072.051,0.138
2530.0,1072.05,0.138
2532.0,1072.064,0.138
2534.0,1072.066,0.138
2536.0,1072.073,0.138
2538.0,1072.084,0.138
2540.0,1072.087,0.138
2542.0,1072.104,0.138
2544.0,1072.106,0.138
2546.0,1072.116,0.138
2548.0,1072.122,0.138
2550.0,1072.126,0.137
2552.0,1072.123,0.137
2554.0,1072.127,0.137
2556.0,1072.139,0.137
2558.0,1072.143,0.137
2560.0,1072.152,0.137
2562.0,1072.155,0.137
2564.0,1072.161,0.137
2566.0,1072.164,0.137
2568.0,1072.166,0.137
2570.0,1072.182,0.137
2572.0,1072.189,0.137
2574.0,1072.188,0.137
2576.0,1072.191,0.137
2578.0,1072.193,0.137
2580.0,1072.206,0.137
2582.0,1072.208,0.137
2584.0,1072.217,0.137
2586.0,1072.217,0.137
2588.0,1072.219,0.137
2590.0,1072.225,0.137
2592.0,1072.233,0.137
2594.0,1072.234,0.137
2596.0,1072.244,0.137
2598.0,1072.246,0.137
2600.0,1072.242,0.137
2602.0,1072.254,0.137
2604.0,1072.249,0.137
2606.0,1072.255,0.137
2608.0,1072.254,0.137
2610.0,1072.259,0.137
2612.0,1072.264,0.137
2614.0,1072.268,0.137
2616.0,1072.275,0.137
2618.0,1072.27,0.137
2620.0,1072.282,0.137
2622.0,1072.282,0.137
2624.0,1072.282,0.137
2626.0,1072.288,0.137
2628.0,1072.28,0.137
2630.0,1072.296,0.137
2632.0,1072.289,0.137
2634.0,1072.296,0.137
2636.0,1072.294,0.137
2638.0,1072.296,0.137
2640.0,1072.295,0.137
2642.0,1072.299,0.137
2644.0,1072.303,0.137
2646.0,1072.312,0.137
2648.0,1072.302,0.137
2650.0,1072.299,0.137
2652.0,1072.311,0.137
2654.0,1072.306,0.137
2655.0,1072.312,0.137