File: Wood/Calibration_Data/TUBS/TUBS_TGA_N2_40K_R3.csv
Time (s),Temperature (K),Mass (mg)
0.0,305.071,0.95
2.0,305.067,0.95
4.0,305.055,0.95
6.0,305.052,0.949
8.0,305.028,0.949
10.0,305.041,0.949
12.0,305.03,0.949
14.0,305.015,0.948
16.0,305.001,0.948
18.0,304.995,0.948
20.0,304.98,0.948
22.0,304.975,0.948
24.0,304.965,0.948
26.0,304.948,0.947
28.0,304.927,0.947
30.0,304.93,0.947
32.0,304.929,0.947
34.0,304.908,0.946
36.0,304.899,0.946
38.0,304.907,0.946
40.0,304.893,0.946
42.0,304.889,0.946
44.0,304.896,0.946
46.0,304.878,0.946
48.0,304.866,0.945
50.0,304.857,0.945
52.0,304.867,0.945
54.0,304.858,0.945
56.0,304.851,0.945
58.0,304.847,0.945
60.0,304.837,0.945
62.0,304.832,0.945
64.0,304.849,0.944
66.0,304.832,0.944
68.0,304.824,0.944
70.0,304.827,0.944
72.0,304.817,0.944
74.0,304.811,0.944
76.0,304.802,0.944
78.0,304.8,0.944
80.0,304.78,0.943
82.0,304.787,0.943
84.0,304.772,0.943
86.0,304.771,0.943
88.0,304.791,0.943
90.0,304.751,0.943
92.0,304.754,0.943
94.0,304.771,0.943
96.0,304.763,0.943
98.0,304.745,0.943
100.0,304.75,0.943
102.0,304.732,0.943
104.0,304.742,0.943
106.0,304.743,0.943
108.0,304.734,0.942
110.0,304.736,0.942
112.0,304.721,0.942
114.0,304.721,0.942
116.0,304.711,0.942
118.0,304.718,0.942
120.0,304.7,0.942
122.0,304.703,0.942
124.0,304.703,0.942
126.0,304.696,0.942
128.0,304.686,0.941
130.0,304.686,0.941
132.0,304.672,0.941
134.0,304.699,0.941
136.0,304.687,0.941
138.0,304.683,0.941
140.0,304.653,0.941
142.0,304.668,0.941
144.0,304.663,0.941
146.0,304.673,0.941
148.0,304.655,0.941
150.0,304.658,0.941
152.0,304.644,0.941
154.0,304.659,0.941
156.0,304.641,0.941
158.0,304.642,0.941
160.0,304.64,0.94
162.0,304.631,0.94
164.0,304.626,0.94
166.0,304.639,0.94
168.0,304.635,0.94
170.0,304.629,0.94
172.0,304.628,0.94
174.0,304.624,0.94
176.0,304.628,0.94
178.0,304.629,0.94
180.0,304.62,0.94
182.0,304.617,0.94
184.0,304.604,0.94
186.0,304.618,0.94
188.0,304.61,0.94
190.0,304.624,0.94
192.0,304.616,0.94
194.0,304.602,0.94
196.0,304.601,0.94
198.0,304.6,0.939
200.0,304.604,0.939
202.0,304.584,0.939
204.0,304.6,0.939
206.0,304.588,0.939
208.0,304.598,0.939
210.0,304.583,0.939
212.0,304.571,0.939
214.0,304.576,0.939
216.0,304.572,0.939
218.0,304.577,0.939
220.0,304.573,0.939
222.0,304.579,0.939
224.0,304.581,0.939
226.0,304.579,0.939
228.0,304.587,0.939
230.0,304.573,0.939
232.0,304.567,0.939
234.0,304.579,0.939
236.0,304.567,0.939
238.0,304.558,0.939
240.0,304.575,0.939
242.0,304.569,0.939
244.0,304.545,0.939
246.0,304.559,0.939
248.0,304.558,0.939
250.0,304.572,0.939
252.0,304.537,0.939
254.0,304.553,0.939
256.0,304.558,0.939
258.0,304.536,0.939
260.0,304.54,0.939
262.0,304.538,0.939
264.0,304.536,0.938
266.0,304.554,0.938
268.0,304.554,0.938
270.0,304.541,0.938
272.0,304.549,0.938
274.0,304.534,0.938
276.0,304.553,0.938
278.0,304.538,0.938
280.0,304.532,0.938
282.0,304.55,0.938
284.0,304.531,0.938
286.0,304.527,0.938
288.0,304.512,0.938
290.0,304.531,0.938
292.0,304.528,0.938
294.0,304.529,0.938
296.0,304.517,0.938
298.0,304.516,0.938
300.0,304.524,0.938
302.0,304.519,0.938
304.0,304.525,0.938
306.0,304.514,0.938
308.0,304.512,0.938
310.0,304.516,0.938
312.0,304.512,0.938
314.0,304.535,0.938
316.0,304.501,0.938
318.0,304.513,0.938
320.0,304.5,0.938
322.0,304.503,0.938
324.0,304.497,0.938
326.0,304.509,0.938
328.0,304.504,0.938
330.0,304.504,0.938
332.0,304.501,0.938
334.0,304.492,0.938
336.0,304.5,0.938
338.0,304.49,0.937
340.0,304.504,0.937
342.0,304.507,0.937
344.0,304.495,0.937
346.0,304.514,0.937
348.0,304.496,0.937
350.0,304.492,0.937
352.0,304.496,0.937
354.0,304.499,0.937
356.0,304.496,0.937
358.0,304.497,0.937
360.0,304.483,0.937
362.0,304.493,0.937
364.0,304.491,0.937
366.0,304.491,0.937
368.0,304.507,0.937
370.0,304.485,0.937
372.0,304.486,0.937
374.0,304.499,0.937
376.0,304.493,0.937
378.0,304.487,0.937
380.0,304.5,0.937
382.0,304.474,0.937
384.0,304.463,0.937
386.0,304.485,0.937
388.0,304.491,0.937
390.0,304.491,0.937
392.0,304.491,0.937
394.0,304.484,0.937
396.0,304.496,0.937
398.0,304.471,0.937
400.0,304.485,0.937
402.0,304.497,0.937
404.0,304.487,0.937
406.0,304.477,0.937
408.0,304.501,0.937
410.0,304.475,0.937
412.0,304.49,0.937
414.0,304.493,0.937
416.0,304.487,0.937
418.0,304.481,0.937
420.0,304.489,0.937
422.0,304.501,0.937
424.0,304.476,0.937
426.0,304.484,0.937
428.0,304.47,0.937
430.0,304.486,0.937
432.0,304.473,0.937
434.0,304.479,0.937
436.0,304.484,0.937
438.0,304.476,0.936
440.0,304.47,0.936
442.0,304.487,0.936
444.0,304.479,0.936
446.0,304.469,0.936
448.0,304.46,0.936
450.0,304.485,0.936
452.0,304.471,0.936
454.0,304.476,0.936
456.0,304.471,0.936
458.0,304.46,0.936
460.0,304.472,0.936
462.0,304.47,0.936
464.0,304.474,0.936
466.0,304.467,0.936
468.0,304.458,0.936
470.0,304.475,0.936
472.0,304.472,0.936
474.0,304.478,0.936
476.0,304.462,0.936
478.0,304.47,0.936
480.0,304.464,0.936
482.0,304.464,0.936
484.0,304.457,0.936
486.0,304.459,0.936
488.0,304.454,0.936
490.0,304.468,0.936
492.0,304.473,0.936
494.0,304.461,0.936
496.0,304.464,0.936
498.0,304.466,0.936
500.0,304.459,0.936
502.0,304.454,0.936
504.0,304.453,0.936
506.0,304.474,0.936
508.0,304.455,0.936
510.0,304.445,0.936
512.0,304.462,0.936
514.0,304.457,0.936
516.0,304.471,0.936
518.0,304.466,0.936
520.0,304.455,0.936
522.0,304.438,0.936
524.0,304.46,0.936
526.0,304.463,0.936
528.0,304.462,0.936
530.0,304.47,0.936
532.0,304.46,0.936
534.0,304.462,0.936
536.0,304.451,0.936
538.0,304.454,0.936
540.0,304.46,0.936
542.0,304.453,0.936
544.0,304.47,0.936
546.0,304.464,0.936
548.0,304.469,0.936
550.0,304.455,0.936
552.0,304.449,0.936
554.0,304.451,0.936
556.0,304.451,0.936
558.0,304.461,0.936
560.0,304.46,0.936
562.0,304.466,0.936
564.0,304.449,0.936
566.0,304.449,0.936
568.0,304.466,0.936
570.0,304.456,0.936
572.0,304.46,0.936
574.0,304.465,0.936
576.0,304.452,0.936
578.0,304.459,0.936
580.0,304.453,0.936
582.0,304.451,0.936
584.0,304.453,0.936
586.0,304.457,0.936
588.0,304.434,0.936
590.0,304.461,0.936
592.0,304.451,0.936
594.0,304.459,0.936
596.0,304.45,0.936
598.0,304.456,0.936
600.0,304.453,0.936
602.0,304.444,0.936
604.0,304.456,0.936
606.0,304.44,0.936
608.0,304.472,0.936
610.0,304.466,0.936
612.0,304.463,0.936
614.0,304.466,0.936
616.0,304.464,0.936
618.0,304.455,0.936
620.0,304.455,0.936
622.0,304.451,0.936
624.0,304.45,0.936
626.0,304.454,0.936
628.0,304.453,0.936
630.0,304.472,0.936
632.0,304.448,0.936
634.0,304.457,0.936
636.0,304.446,0.936
638.0,304.441,0.936
640.0,304.445,0.936
642.0,304.468,0.936
644.0,304.475,0.936
646.0,304.469,0.936
648.0,304.456,0.936
650.0,304.451,0.936
652.0,304.464,0.936
654.0,304.453,0.936
656.0,304.465,0.936
658.0,304.443,0.936
660.0,304.449,0.935
662.0,304.44,0.935
664.0,304.468,0.935
666.0,304.466,0.935
668.0,304.462,0.935
670.0,304.455,0.935
672.0,304.484,0.936
674.0,304.471,0.936
676.0,304.457,0.936
678.0,304.464,0.935
680.0,304.478,0.935
682.0,304.46,0.935
684.0,304.462,0.935
686.0,304.459,0.935
688.0,304.466,0.935
690.0,304.446,0.935
692.0,304.463,0.935
694.0,304.459,0.935
696.0,304.458,0.935
698.0,304.475,0.936
700.0,304.462,0.935
702.0,304.464,0.935
704.0,304.462,0.935
706.0,304.45,0.935
708.0,304.454,0.935
710.0,304.468,0.935
712.0,304.46,0.935
714.0,304.466,0.935
716.0,304.452,0.935
718.0,304.462,0.935
720.0,304.45,0.935
722.0,304.462,0.935
724.0,304.462,0.935
726.0,304.462,0.935
728.0,304.475,0.935
730.0,304.46,0.935
732.0,304.453,0.936
734.0,304.472,0.936
736.0,304.467,0.936
738.0,304.452,0.936
740.0,304.466,0.936
742.0,304.452,0.936
744.0,304.459,0.936
746.0,304.474,0.936
748.0,304.453,0.935
750.0,304.459,0.935
752.0,304.462,0.935
754.0,304.455,0.935
756.0,304.466,0.935
758.0,304.477,0.935
760.0,304.468,0.935
762.0,304.467,0.935
764.0,304.449,0.935
766.0,304.444,0.935
768.0,304.453,0.935
770.0,304.444,0.935
772.0,304.452,0.935
774.0,304.451,0.935
776.0,304.455,0.935
778.0,304.457,0.935
780.0,304.451,0.935
782.0,304.476,0.935
784.0,304.467,0.935
786.0,304.455,0.935
788.0,304.464,0.935
790.0,304.454,0.935
792.0,304.439,0.935
794.0,304.45,0.935
796.0,304.456,0.935
798.0,304.463,0.935
800.0,304.456,0.935
802.0,304.46,0.935
804.0,304.441,0.935
806.0,304.452,0.935
808.0,304.455,0.935
810.0,304.453,0.935
812.0,304.429,0.935
814.0,304.451,0.935
816.0,304.45,0.935
818.0,304.444,0.935
820.0,304.456,0.935
822.0,304.456,0.935
824.0,304.439,0.935
826.0,304.465,0.935
828.0,304.457,0.935
830.0,304.451,0.935
832.0,304.463,0.935
834.0,304.451,0.935
836.0,304.459,0.935
838.0,304.445,0.935
840.0,304.454,0.935
842.0,304.46,0.935
844.0,304.458,0.935
846.0,304.456,0.935
848.0,304.446,0.935
850.0,304.468,0.935
852.0,304.449,0.935
854.0,304.462,0.935
856.0,304.469,0.935
858.0,304.45,0.935
860.0,304.467,0.935
862.0,304.465,0.935
864.0,304.454,0.935
866.0,304.457,0.935
868.0,304.451,0.935
870.0,304.451,0.935
872.0,304.464,0.935
874.0,304.444,0.935
876.0,304.445,0.935
878.0,304.454,0.935
880.0,304.444,0.935
882.0,304.438,0.935
884.0,304.458,0.935
886.0,304.463,0.935
888.0,304.468,0.935
890.0,304.453,0.935
892.0,304.444,0.935
894.0,304.457,0.935
896.0,304.465,0.935
898.0,304.446,0.935
900.0,304.445,0.935
902.0,304.45,0.935
904.0,304.453,0.935
906.0,304.449,0.935
908.0,304.467,0.935
910.0,304.471,0.935
912.0,304.448,0.935
914.0,304.454,0.935
916.0,304.446,0.935
918.0,304.453,0.935
920.0,304.457,0.935
922.0,304.46,0.935
924.0,304.462,0.935
926.0,304.464,0.935
928.0,304.451,0.935
930.0,304.451,0.935
932.0,304.458,0.935
934.0,304.448,0.935
936.0,304.462,0.935
938.0,304.474,0.935
940.0,304.447,0.935
942.0,304.464,0.935
944.0,304.46,0.935
946.0,304.465,0.935
948.0,304.449,0.935
950.0,304.462,0.935
952.0,304.454,0.935
954.0,304.455,0.935
956.0,304.446,0.935
958.0,304.462,0.935
960.0,304.466,0.935
962.0,304.459,0.935
964.0,304.465,0.935
966.0,304.47,0.935
968.0,304.474,0.935
970.0,304.461,0.935
972.0,304.449,0.935
974.0,304.448,0.935
976.0,304.45,0.935
978.0,304.456,0.935
980.0,304.462,0.935
982.0,304.455,0.935
984.0,304.459,0.935
986.0,304.473,0.935
988.0,304.458,0.935
990.0,304.46,0.935
992.0,304.462,0.935
994.0,304.467,0.935
996.0,304.469,0.935
998.0,304.465,0.935
1000.0,304.471,0.935
1002.0,304.452,0.935
1004.0,304.453,0.935
1006.0,304.467,0.935
1008.0,304.458,0.935
1010.0,304.455,0.935
1012.0,304.449,0.935
1014.0,304.461,0.935
1016.0,304.466,0.935
1018.0,304.458,0.935
1020.0,304.47,0.935
1022.0,304.47,0.935
1024.0,304.476,0.935
1026.0,304.477,0.935
1028.0,304.462,0.935
1030.0,304.456,0.935
1032.0,304.473,0.935
1034.0,304.481,0.935
1036.0,304.46,0.935
1038.0,304.476,0.935
1040.0,304.477,0.935
1042.0,304.468,0.935
1044.0,304.468,0.935
1046.0,304.483,0.935
1048.0,304.473,0.935
1050.0,304.492,0.935
1052.0,304.484,0.935
1054.0,304.482,0.935
1056.0,304.487,0.935
1058.0,304.476,0.935
1060.0,304.466,0.935
1062.0,304.472,0.935
1064.0,304.468,0.935
1066.0,304.482,0.935
1068.0,304.481,0.935
1070.0,304.471,0.935
1072.0,304.484,0.935
1074.0,304.482,0.935
1076.0,304.476,0.935
1078.0,304.478,0.935
1080.0,304.462,0.935
1082.0,304.48,0.935
1084.0,304.458,0.935
1086.0,304.454,0.935
1088.0,304.462,0.935
1090.0,304.468,0.935
1092.0,304.468,0.935
1094.0,304.47,0.935
1096.0,304.477,0.935
1098.0,304.472,0.935
1100.0,304.472,0.935
1102.0,304.476,0.935
1104.0,304.478,0.935
1106.0,304.466,0.935
1108.0,304.49,0.935
1110.0,304.479,0.935
1112.0,304.473,0.935
1114.0,304.465,0.935
1116.0,304.471,0.935
1118.0,304.465,0.935
1120.0,304.456,0.935
1122.0,304.475,0.935
1124.0,304.48,0.935
1126.0,304.463,0.935
1128.0,304.448,0.935
1130.0,304.465,0.935
1132.0,304.456,0.935
1134.0,304.454,0.935
1136.0,304.47,0.935
1138.0,304.482,0.935
1140.0,304.473,0.935
1142.0,304.469,0.935
1144.0,304.471,0.935
1146.0,304.482,0.935
1148.0,304.462,0.935
1150.0,304.482,0.935
1152.0,304.487,0.935
1154.0,304.476,0.935
1156.0,304.476,0.935
1158.0,304.481,0.935
1160.0,304.488,0.935
1162.0,304.485,0.935
1164.0,304.468,0.935
1166.0,304.487,0.935
1168.0,304.469,0.935
1170.0,304.469,0.935
1172.0,304.471,0.935
1174.0,304.469,0.935
1176.0,304.47,0.935
1178.0,304.488,0.935
1180.0,304.491,0.935
1182.0,304.463,0.935
1184.0,304.472,0.935
1186.0,304.461,0.935
1188.0,304.49,0.935
1190.0,304.469,0.935
1192.0,304.475,0.935
1194.0,304.464,0.935
1196.0,304.469,0.935
1198.0,304.474,0.935
1200.0,304.487,0.935
1202.0,304.551,0.934
1204.0,305.123,0.933
1206.0,305.92,0.933
1208.0,306.648,0.933
1210.0,307.624,0.933
1212.0,308.756,0.934
1214.0,309.949,0.936
1216.0,311.182,0.937
1218.0,312.449,0.937
1220.0,313.742,0.937
1222.0,315.023,0.937
1224.0,316.343,0.937
1226.0,317.651,0.936
1228.0,318.959,0.936
1230.0,320.274,0.935
1232.0,321.603,0.935
1234.0,322.913,0.935
1236.0,324.229,0.934
1238.0,325.556,0.934
1240.0,326.854,0.934
1242.0,328.178,0.934
1244.0,329.506,0.933
1246.0,330.817,0.933
1248.0,332.14,0.933
1250.0,333.451,0.932
1252.0,334.762,0.932
1254.0,336.099,0.932
1256.0,337.418,0.932
1258.0,338.728,0.931
1260.0,340.044,0.931
1262.0,341.361,0.931
1264.0,342.672,0.931
1266.0,344.006,0.931
1268.0,345.318,0.93
1270.0,346.636,0.93
1272.0,347.959,0.93
1274.0,349.278,0.929
1276.0,350.604,0.929
1278.0,351.918,0.929
1280.0,353.237,0.928
1282.0,354.569,0.928
1284.0,355.88,0.928
1286.0,357.197,0.927
1288.0,358.522,0.927
1290.0,359.834,0.927
1292.0,361.17,0.927
1294.0,362.483,0.926
1296.0,363.818,0.926
1298.0,365.14,0.926
1300.0,366.48,0.926
1302.0,367.776,0.926
1304.0,369.112,0.926
1306.0,370.443,0.926
1308.0,371.779,0.925
1310.0,373.098,0.925
1312.0,374.427,0.925
1314.0,375.743,0.925
1316.0,377.094,0.925
1318.0,378.412,0.925
1320.0,379.752,0.925
1322.0,381.074,0.925
1324.0,382.408,0.925
1326.0,383.737,0.925
1328.0,385.08,0.925
1330.0,386.418,0.925
1332.0,387.745,0.925
1334.0,389.08,0.924
1336.0,390.409,0.924
1338.0,391.754,0.924
1340.0,393.073,0.924
1342.0,394.432,0.924
1344.0,395.771,0.924
1346.0,397.104,0.924
1348.0,398.435,0.924
1350.0,399.784,0.924
1352.0,401.118,0.924
1354.0,402.464,0.924
1356.0,403.806,0.924
1358.0,405.151,0.924
1360.0,406.49,0.924
1362.0,407.835,0.924
1364.0,409.166,0.924
1366.0,410.524,0.924
1368.0,411.881,0.924
1370.0,413.218,0.924
1372.0,414.573,0.924
1374.0,415.919,0.924
1376.0,417.262,0.924
1378.0,418.621,0.924
1380.0,419.971,0.924
1382.0,421.319,0.924
1384.0,422.673,0.924
1386.0,424.028,0.924
1388.0,425.354,0.924
1390.0,426.714,0.924
1392.0,428.073,0.924
1394.0,429.427,0.924
1396.0,430.784,0.924
1398.0,432.128,0.923
1400.0,433.483,0.923
1402.0,434.848,0.923
1404.0,436.206,0.923
1406.0,437.571,0.923
1408.0,438.914,0.923
1410.0,440.279,0.923
1412.0,441.64,0.923
1414.0,443.001,0.923
1416.0,444.361,0.923
1418.0,445.713,0.922
1420.0,447.082,0.922
1422.0,448.439,0.922
1424.0,449.804,0.922
1426.0,451.162,0.922
1428.0,452.526,0.922
1430.0,453.891,0.921
1432.0,455.255,0.921
1434.0,456.625,0.921
1436.0,457.985,0.921
1438.0,459.356,0.921
1440.0,460.725,0.92
1442.0,462.09,0.92
1444.0,463.456,0.92
1446.0,464.838,0.919
1448.0,466.181,0.919
1450.0,467.564,0.919
1452.0,468.945,0.918
1454.0,470.303,0.918
1456.0,471.678,0.917
1458.0,473.041,0.917
1460.0,474.421,0.917
1462.0,475.786,0.916
1464.0,477.164,0.916
1466.0,478.527,0.915
1468.0,479.902,0.915
1470.0,481.268,0.914
1472.0,482.642,0.914
1474.0,484.02,0.913
1476.0,485.387,0.913
1478.0,486.754,0.913
1480.0,488.139,0.912
1482.0,489.504,0.912
1484.0,490.881,0.911
1486.0,492.246,0.91
1488.0,493.622,0.91
1490.0,494.988,0.909
1492.0,496.358,0.909
1494.0,497.738,0.908
1496.0,499.112,0.908
1498.0,500.467,0.907
1500.0,501.855,0.906
1502.0,503.222,0.905
1504.0,504.595,0.905
1506.0,505.974,0.904
1508.0,507.337,0.903
1510.0,508.707,0.902
1512.0,510.074,0.902
1514.0,511.447,0.901
1516.0,512.812,0.9
1518.0,514.181,0.899
1520.0,515.549,0.898
1522.0,516.931,0.898
1524.0,518.309,0.897
1526.0,519.67,0.896
1528.0,521.045,0.895
1530.0,522.415,0.894
1532.0,523.777,0.893
1534.0,525.151,0.892
1536.0,526.523,0.891
1538.0,527.889,0.889
1540.0,529.26,0.888
1542.0,530.632,0.887
1544.0,531.997,0.885
1546.0,533.358,0.884
1548.0,534.731,0.882
1550.0,536.109,0.881
1552.0,537.469,0.88
1554.0,538.832,0.878
1556.0,540.2,0.877
1558.0,541.567,0.875
1560.0,542.928,0.873
1562.0,544.297,0.871
1564.0,545.657,0.87
1566.0,547.02,0.868
1568.0,548.392,0.866
1570.0,549.758,0.864
1572.0,551.116,0.862
1574.0,552.482,0.86
1576.0,553.845,0.858
1578.0,555.211,0.856
1580.0,556.577,0.854
1582.0,557.936,0.852
1584.0,559.297,0.849
1586.0,560.663,0.847
1588.0,562.025,0.845
1590.0,563.39,0.843
1592.0,564.749,0.84
1594.0,566.114,0.838
1596.0,567.458,0.836
1598.0,568.826,0.833
1600.0,570.183,0.831
1602.0,571.533,0.828
1604.0,572.9,0.826
1606.0,574.246,0.823
1608.0,575.615,0.821
1610.0,576.967,0.818
1612.0,578.34,0.816
1614.0,579.687,0.813
1616.0,581.045,0.81
1618.0,582.393,0.807
1620.0,583.756,0.804
1622.0,585.101,0.801
1624.0,586.462,0.798
1626.0,587.822,0.795
1628.0,589.169,0.792
1630.0,590.52,0.788
1632.0,591.879,0.785
1634.0,593.22,0.782
1636.0,594.569,0.778
1638.0,595.927,0.775
1640.0,597.272,0.771
1642.0,598.623,0.767
1644.0,599.976,0.763
1646.0,601.33,0.759
1648.0,602.68,0.755
1650.0,604.025,0.751
1652.0,605.374,0.746
1654.0,606.718,0.742
1656.0,608.066,0.737
1658.0,609.414,0.732
1660.0,610.758,0.728
1662.0,612.1,0.723
1664.0,613.448,0.717
1666.0,614.8,0.712
1668.0,616.141,0.707
1670.0,617.485,0.701
1672.0,618.821,0.696
1674.0,620.162,0.69
1676.0,621.503,0.684
1678.0,622.839,0.678
1680.0,624.185,0.672
1682.0,625.507,0.666
1684.0,626.864,0.66
1686.0,628.202,0.654
1688.0,629.538,0.647
1690.0,630.87,0.641
1692.0,632.222,0.634
1694.0,633.566,0.627
1696.0,634.898,0.62
1698.0,636.236,0.614
1700.0,637.574,0.607
1702.0,638.899,0.6
1704.0,640.236,0.592
1706.0,641.565,0.585
1708.0,642.911,0.578
1710.0,644.234,0.57
1712.0,645.561,0.563
1714.0,646.905,0.555
1716.0,648.226,0.547
1718.0,649.563,0.54
1720.0,650.894,0.532
1722.0,652.228,0.523
1724.0,653.552,0.515
1726.0,654.886,0.507
1728.0,656.218,0.498
1730.0,657.538,0.49
1732.0,658.862,0.481
1734.0,660.196,0.471
1736.0,661.524,0.462
1738.0,662.849,0.453
1740.0,664.172,0.443
1742.0,665.496,0.433
1744.0,666.81,0.423
1746.0,668.131,0.413
1748.0,669.457,0.403
1750.0,670.78,0.392
1752.0,672.101,0.381
1754.0,673.429,0.371
1756.0,674.747,0.36
1758.0,676.066,0.349
1760.0,677.396,0.338
1762.0,678.717,0.327
1764.0,680.045,0.317
1766.0,681.367,0.307
1768.0,682.692,0.297
1770.0,684.015,0.288
1772.0,685.326,0.279
1774.0,686.661,0.271
1776.0,687.984,0.263
1778.0,689.309,0.256
1780.0,690.639,0.251
1782.0,691.959,0.245
1784.0,693.287,0.241
1786.0,694.598,0.237
1788.0,695.932,0.234
1790.0,697.253,0.232
1792.0,698.577,0.23
1794.0,699.913,0.228
1796.0,701.231,0.226
1798.0,702.539,0.225
1800.0,703.871,0.224
1802.0,705.189,0.223
1804.0,706.511,0.222
1806.0,707.833,0.221
1808.0,709.15,0.22
1810.0,710.471,0.219
1812.0,711.782,0.219
1814.0,713.101,0.218
1816.0,714.43,0.217
1818.0,715.747,0.216
1820.0,717.066,0.216
1822.0,718.39,0.215
1824.0,719.704,0.214
1826.0,721.034,0.213
1828.0,722.348,0.213
1830.0,723.668,0.212
1832.0,724.979,0.211
1834.0,726.306,0.211
1836.0,727.618,0.21
1838.0,728.941,0.209
1840.0,730.255,0.209
1842.0,731.577,0.208
1844.0,732.9,0.207
1846.0,734.211,0.207
1848.0,735.518,0.206
1850.0,736.838,0.205
1852.0,738.157,0.205
1854.0,739.472,0.204
1856.0,740.788,0.203
1858.0,742.112,0.203
1860.0,743.426,0.202
1862.0,744.747,0.202
1864.0,746.068,0.201
1866.0,747.389,0.201
1868.0,748.693,0.2
1870.0,750.006,0.199
1872.0,751.327,0.199
1874.0,752.646,0.198
1876.0,753.963,0.198
1878.0,755.282,0.197
1880.0,756.603,0.197
1882.0,757.907,0.196
1884.0,759.23,0.196
1886.0,760.551,0.195
1888.0,761.86,0.195
1890.0,763.175,0.194
1892.0,764.495,0.194
1894.0,765.81,0.193
1896.0,767.125,0.193
1898.0,768.44,0.193
1900.0,769.763,0.192
1902.0,771.085,0.192
1904.0,772.397,0.191
1906.0,773.722,0.191
1908.0,775.032,0.191
1910.0,776.353,0.19
1912.0,777.667,0.19
1914.0,778.982,0.19
1916.0,780.299,0.189
1918.0,781.623,0.189
1920.0,782.95,0.189
1922.0,784.261,0.189
1924.0,785.574,0.188
1926.0,786.894,0.188
1928.0,788.206,0.188
1930.0,789.53,0.187
1932.0,790.847,0.187
1934.0,792.173,0.186
1936.0,793.486,0.186
1938.0,794.8,0.186
1940.0,796.113,0.185
1942.0,797.436,0.185
1944.0,798.757,0.185
1946.0,800.077,0.185
1948.0,801.395,0.184
1950.0,802.714,0.184
1952.0,804.031,0.184
1954.0,805.356,0.184
1956.0,806.667,0.183
1958.0,807.973,0.183
1960.0,809.305,0.183
1962.0,810.624,0.182
1964.0,811.935,0.182
1966.0,813.255,0.182
1968.0,814.57,0.182
1970.0,815.898,0.181
1972.0,817.211,0.181
1974.0,818.536,0.181
1976.0,819.855,0.181
1978.0,821.175,0.18
1980.0,822.49,0.18
1982.0,823.817,0.18
1984.0,825.131,0.18
1986.0,826.448,0.179
1988.0,827.765,0.179
1990.0,829.081,0.179
1992.0,830.402,0.179
1994.0,831.718,0.178
1996.0,833.039,0.178
1998.0,834.344,0.178
2000.0,835.686,0.178
2002.0,836.998,0.178
2004.0,838.314,0.177
2006.0,839.635,0.177
2008.0,840.948,0.177
2010.0,842.277,0.177
2012.0,843.59,0.177
2014.0,844.892,0.177
2016.0,846.226,0.176
2018.0,847.536,0.176
2020.0,848.852,0.176
2022.0,850.179,0.176
2024.0,851.491,0.176
2026.0,852.818,0.175
2028.0,854.136,0.175
2030.0,855.459,0.175
2032.0,856.782,0.175
2034.0,858.101,0.175
2036.0,859.418,0.174
2038.0,860.743,0.174
2040.0,862.066,0.174
2042.0,863.401,0.174
2044.0,864.713,0.173
2046.0,866.044,0.173
2048.0,867.351,0.173
2050.0,868.683,0.173
2052.0,870.001,0.173
2054.0,871.314,0.173
2056.0,872.637,0.173
2058.0,873.965,0.172
2060.0,875.287,0.172
2062.0,876.609,0.172
2064.0,877.93,0.172
2066.0,879.261,0.172
2068.0,880.579,0.171
2070.0,881.901,0.171
2072.0,883.226,0.171
2074.0,884.548,0.171
2076.0,885.871,0.171
2078.0,887.201,0.171
2080.0,888.532,0.17
2082.0,889.842,0.17
2084.0,891.164,0.17
2086.0,892.494,0.17
2088.0,893.812,0.17
2090.0,895.142,0.17
2092.0,896.471,0.17
2094.0,897.787,0.169
2096.0,899.113,0.169
2098.0,900.434,0.169
2100.0,901.757,0.169
2102.0,903.08,0.169
2104.0,904.402,0.169
2106.0,905.724,0.168
2108.0,907.053,0.168
2110.0,908.375,0.168
2112.0,909.702,0.168
2114.0,911.024,0.168
2116.0,912.355,0.168
2118.0,913.668,0.168
2120.0,915.003,0.167
2122.0,916.319,0.167
2124.0,917.652,0.167
2126.0,918.975,0.167
2128.0,920.293,0.167
2130.0,921.623,0.167
2132.0,922.951,0.167
2134.0,924.274,0.166
2136.0,925.599,0.166
2138.0,926.929,0.166
2140.0,928.242,0.166
2142.0,929.575,0.166
2144.0,930.893,0.166
2146.0,932.226,0.166
2148.0,933.552,0.166
2150.0,934.871,0.166
2152.0,936.206,0.165
2154.0,937.533,0.165
2156.0,938.853,0.165
2158.0,940.178,0.165
2160.0,941.51,0.165
2162.0,942.824,0.165
2164.0,944.156,0.165
2166.0,945.482,0.164
2168.0,946.811,0.164
2170.0,948.127,0.164
2172.0,949.455,0.164
2174.0,950.784,0.164
2176.0,952.112,0.164
2178.0,953.438,0.164
2180.0,954.765,0.164
2182.0,956.089,0.164
2184.0,957.412,0.164
2186.0,958.745,0.164
2188.0,960.07,0.163
2190.0,961.392,0.163
2192.0,962.719,0.163
2194.0,964.041,0.163
2196.0,965.368,0.163
2198.0,966.698,0.163
2200.0,968.027,0.163
2202.0,969.362,0.163
2204.0,970.677,0.163
2206.0,972.005,0.162
2208.0,973.334,0.162
2210.0,974.655,0.162
2212.0,975.987,0.162
2214.0,977.306,0.162
2216.0,978.644,0.162
2218.0,979.972,0.162
2220.0,981.301,0.162
2222.0,982.625,0.162
2224.0,983.953,0.161
2226.0,985.279,0.161
2228.0,986.61,0.161
2230.0,987.938,0.161
2232.0,989.261,0.161
2234.0,990.595,0.161
2236.0,991.918,0.161
2238.0,993.253,0.161
2240.0,994.578,0.161
2242.0,995.909,0.161
2244.0,997.231,0.161
2246.0,998.564,0.161
2248.0,999.889,0.161
2250.0,1001.225,0.161
2252.0,1002.558,0.161
2254.0,1003.889,0.161
2256.0,1005.211,0.161
2258.0,1006.538,0.16
2260.0,1007.873,0.16
2262.0,1009.191,0.16
2264.0,1010.519,0.16
2266.0,1011.854,0.16
2268.0,1013.185,0.16
2270.0,1014.517,0.16
2272.0,1015.844,0.16
2274.0,1017.184,0.16
2276.0,1018.513,0.16
2278.0,1019.844,0.159
2280.0,1021.177,0.159
2282.0,1022.506,0.159
2284.0,1023.839,0.159
2286.0,1025.168,0.159
2288.0,1026.508,0.159
2290.0,1027.838,0.159
2292.0,1029.166,0.159
2294.0,1030.501,0.159
2296.0,1031.83,0.159
2298.0,1033.171,0.159
2300.0,1034.499,0.159
2302.0,1035.84,0.159
2304.0,1037.155,0.159
2306.0,1038.493,0.159
2308.0,1039.82,0.158
2310.0,1041.152,0.158
2312.0,1042.485,0.158
2314.0,1043.817,0.158
2316.0,1045.153,0.158
2318.0,1046.476,0.158
2320.0,1047.81,0.158
2322.0,1049.141,0.158
2324.0,1050.48,0.158
2326.0,1051.81,0.158
2328.0,1053.132,0.157
2330.0,1054.475,0.157
2332.0,1055.805,0.157
2334.0,1057.133,0.157
2336.0,1058.23,0.157
2338.0,1059.022,0.157
2340.0,1059.943,0.157
2342.0,1060.801,0.157
2344.0,1061.589,0.157
2346.0,1062.312,0.157
2348.0,1062.986,0.157
2350.0,1063.608,0.157
2352.0,1064.176,0.157
2354.0,1064.706,0.157
2356.0,1065.192,0.157
2358.0,1065.633,0.157
2360.0,1066.047,0.157
2362.0,1066.429,0.157
2364.0,1066.791,0.157
2366.0,1067.108,0.157
2368.0,1067.42,0.156
2370.0,1067.698,0.156
2372.0,1067.952,0.156
2374.0,1068.2,0.156
2376.0,1068.427,0.156
2378.0,1068.63,0.156
2380.0,1068.828,0.156
2382.0,1069.015,0.156
2384.0,1069.174,0.156
2386.0,1069.331,0.156
2388.0,1069.484,0.156
2390.0,1069.62,0.156
2392.0,1069.747,0.156
2394.0,1069.861,0.156
2396.0,1069.976,0.156
2398.0,1070.066,0.156
2400.0,1070.177,0.156
2402.0,1070.258,0.156
2404.0,1070.347,0.156
2406.0,1070.427,0.156
2408.0,1070.507,0.156
2410.0,1070.57,0.156
2412.0,1070.645,0.156
2414.0,1070.706,0.156
2416.0,1070.756,0.156
2418.0,1070.819,0.156
2420.0,1070.875,0.156
2422.0,1070.932,0.156
2424.0,1070.973,0.156
2426.0,1071.022,0.156
2428.0,1071.059,0.156
2430.0,1071.098,0.156
2432.0,1071.147,0.156
2434.0,1071.179,0.155
2436.0,1071.218,0.155
2438.0,1071.251,0.155
2440.0,1071.284,0.155
2442.0,1071.317,0.155
2444.0,1071.34,0.155
2446.0,1071.369,0.155
2448.0,1071.399,0.155
2450.0,1071.435,0.155
2452.0,1071.454,0.155
2454.0,1071.48,0.155
2456.0,1071.505,0.155
2458.0,1071.522,0.155
2460.0,1071.548,0.155
2462.0,1071.57,0.155
2464.0,1071.587,0.155
2466.0,1071.613,0.155
2468.0,1071.625,0.155
2470.0,1071.644,0.155
2472.0,1071.667,0.155
2474.0,1071.686,0.155
2476.0,1071.69,0.155
2478.0,1071.712,0.155
2480.0,1071.738,0.155
2482.0,1071.749,0.155
2484.0,1071.762,0.155
2486.0,1071.776,0.155
2488.0,1071.781,0.155
2490.0,1071.802,0.155
2492.0,1071.812,0.155
2494.0,1071.829,0.155
2496.0,1071.837,0.155
2498.0,1071.849,0.155
2500.0,1071.866,0.155
2502.0,1071.869,0.155
2504.0,1071.885,0.155
2506.0,1071.898,0.155
2508.0,1071.918,0.154
2510.0,1071.926,0.154
2512.0,1071.927,0.154
2514.0,1071.94,0.154
2516.0,1071.948,0.154
2518.0,1071.953,0.154
2520.0,1071.961,0.154
2522.0,1071.975,0.154
2524.0,1071.977,0.154
2526.0,1071.988,0.154
2528.0,1071.992,0.154
2530.0,1071.999,0.154
2532.0,1072.011,0.154
2534.0,1072.021,0.154
2536.0,1072.022,0.154
2538.0,1072.032,0.154
2540.0,1072.038,0.154
2542.0,1072.04,0.154
2544.0,1072.055,0.154
2546.0,1072.058,0.154
2548.0,1072.067,0.154
2550.0,1072.071,0.154
2552.0,1072.077,0.154
2554.0,1072.074,0.154
2556.0,1072.092,0.154
2558.0,1072.092,0.154
2560.0,1072.094,0.154
2562.0,1072.102,0.154
2564.0,1072.104,0.154
2566.0,1072.108,0.154
2568.0,1072.117,0.154
2570.0,1072.118,0.154
2572.0,1072.132,0.154
2574.0,1072.124,0.154
2576.0,1072.136,0.154
2578.0,1072.144,0.154
2580.0,1072.142,0.154
2582.0,1072.146,0.154
2584.0,1072.146,0.154
2586.0,1072.148,0.154
2588.0,1072.156,0.154
2590.0,1072.161,0.154
2592.0,1072.162,0.154
2594.0,1072.172,0.154
2596.0,1072.17,0.154
2598.0,1072.172,0.154
2600.0,1072.179,0.153
2602.0,1072.172,0.153
2604.0,1072.182,0.153
2606.0,1072.187,0.153
2608.0,1072.184,0.153
2610.0,1072.192,0.153
2612.0,1072.195,0.153
2614.0,1072.192,0.153
2616.0,1072.199,0.153
2618.0,1072.197,0.153
2620.0,1072.207,0.153
2622.0,1072.2,0.153
2624.0,1072.205,0.153
2626.0,1072.204,0.153
2628.0,1072.213,0.153
2630.0,1072.221,0.153
2632.0,1072.225,0.153
2634.0,1072.221,0.153
2636.0,1072.219,0.153
2638.0,1072.23,0.153
2640.0,1072.226,0.153
2642.0,1072.224,0.153
2644.0,1072.229,0.153
2646.0,1072.234,0.153
2648.0,1072.232,0.153
2650.0,1072.237,0.153
2652.0,1072.237,0.153
2654.0,1072.234,0.153
2655.0,1072.24,0.153