File: Wood/Calibration_Data/TUBS/TUBS_Wood_TGA_N2_5K_R1.csv
Time (s),Temperature (K),Mass (mg)
0.0,304.84,0.98
9.0,304.792,0.978
24.0,304.754,0.976
39.0,304.68,0.974
65.0,304.644,0.972
84.0,304.616,0.97
114.0,304.564,0.968
152.0,304.516,0.966
207.0,304.469,0.964
293.0,304.416,0.962
397.0,304.41,0.96
435.0,304.381,0.96
582.0,304.38,0.96
596.0,304.365,0.96
615.0,304.381,0.958
649.0,304.356,0.956
670.0,304.386,0.956
694.0,304.364,0.956
896.0,304.348,0.956
912.0,304.342,0.956
948.0,304.36,0.956
1024.0,304.354,0.956
1051.0,304.343,0.956
1123.0,304.344,0.956
1150.0,304.342,0.956
1219.708,305.0,0.956
1236.275,306.0,0.955
1251.116,307.0,0.955
1264.971,308.0,0.955
1277.989,309.0,0.955
1290.622,310.0,0.955
1303.242,311.0,0.955
1315.535,312.0,0.954
1327.699,313.0,0.954
1339.735,314.0,0.954
1351.8,315.0,0.954
1363.618,316.0,0.953
1375.69,317.0,0.953
1387.783,318.0,0.954
1399.698,319.0,0.953
1411.54,320.0,0.952
1423.636,321.0,0.952
1435.471,322.0,0.952
1447.449,323.0,0.952
1459.643,324.0,0.951
1471.541,325.0,0.951
1483.587,326.0,0.95
1495.54,327.0,0.95
1507.719,328.0,0.95
1519.757,329.0,0.95
1531.723,330.0,0.949
1543.78,331.0,0.949
1555.812,332.0,0.949
1567.756,333.0,0.949
1579.805,334.0,0.948
1591.771,335.0,0.948
1603.677,336.0,0.948
1615.824,337.0,0.948
1627.659,338.0,0.947
1639.73,339.0,0.947
1651.831,340.0,0.947
1663.818,341.0,0.947
1675.653,342.0,0.947
1687.785,343.0,0.946
1699.969,344.0,0.946
1711.915,345.0,0.946
1724.012,346.0,0.946
1735.932,347.0,0.946
1747.919,348.0,0.946
1759.869,349.0,0.946
1771.796,350.0,0.946
1783.863,351.0,0.946
1795.911,352.0,0.945
1808.042,353.0,0.945
1819.941,354.0,0.945
1831.881,355.0,0.946
1843.946,356.0,0.946
1855.889,357.0,0.945
1867.81,358.0,0.945
1879.875,359.0,0.945
1891.865,360.0,0.945
1903.748,361.0,0.945
1915.75,362.0,0.945
1927.839,363.0,0.945
1939.739,364.0,0.945
1951.6,365.0,0.945
1963.766,366.0,0.945
1975.802,367.0,0.945
1987.679,368.0,0.945
1999.671,369.0,0.945
2011.692,370.0,0.945
2023.691,371.0,0.945
2035.521,372.0,0.945
2047.667,373.0,0.945
2059.449,374.0,0.945
2071.526,375.0,0.945
2083.443,376.0,0.945
2095.364,377.0,0.944
2107.354,378.0,0.945
2119.122,379.0,0.945
2131.207,380.0,0.945
2142.966,381.0,0.944
2154.95,382.0,0.944
2166.845,383.0,0.945
2178.92,384.0,0.945
2190.813,385.0,0.944
2202.8,386.0,0.945
2214.789,387.0,0.945
2226.708,388.0,0.945
2238.538,389.0,0.944
2250.458,390.0,0.945
2262.041,391.0,0.944
2274.29,392.0,0.944
2286.139,393.0,0.944
2298.108,394.0,0.944
2310.091,395.0,0.944
2322.093,396.0,0.944
2333.898,397.0,0.944
2345.869,398.0,0.944
2357.897,399.0,0.944
2369.875,400.0,0.944
2381.636,401.0,0.944
2393.616,402.0,0.944
2405.536,403.0,0.944
2417.404,404.0,0.944
2429.167,405.0,0.944
2441.069,406.0,0.944
2453.039,407.0,0.944
2465.023,408.0,0.944
2477.0,409.0,0.944
2488.921,410.0,0.944
2500.833,411.0,0.944
2512.728,412.0,0.944
2524.651,413.0,0.944
2536.442,414.0,0.943
2548.329,415.0,0.943
2560.356,416.0,0.944
2572.238,417.0,0.943
2584.085,418.0,0.943
2596.079,419.0,0.943
2607.813,420.0,0.943
2619.843,421.0,0.943
2631.568,422.0,0.943
2643.547,423.0,0.942
2655.488,424.0,0.942
2667.373,425.0,0.942
2679.292,426.0,0.942
2691.168,427.0,0.942
2703.206,428.0,0.942
2715.189,429.0,0.942
2727.031,430.0,0.941
2738.919,431.0,0.941
2750.741,432.0,0.941
2762.56,433.0,0.94
2774.56,434.0,0.94
2786.477,435.0,0.94
2798.232,436.0,0.939
2810.179,437.0,0.939
2822.108,438.0,0.939
2833.977,439.0,0.939
2845.989,440.0,0.938
2857.899,441.0,0.938
2869.702,442.0,0.938
2881.619,443.0,0.938
2893.518,444.0,0.937
2905.277,445.0,0.937
2917.311,446.0,0.936
2929.156,447.0,0.936
2941.012,448.0,0.936
2952.771,449.0,0.936
2964.732,450.0,0.935
2976.506,451.0,0.935
2988.457,452.0,0.935
3000.416,453.0,0.935
3012.165,454.0,0.935
3024.105,455.0,0.934
3036.0,456.0,0.934
3047.87,457.0,0.934
3059.746,458.0,0.934
3071.609,459.0,0.933
3083.41,460.0,0.933
3095.371,461.0,0.933
3107.196,462.0,0.933
3119.093,463.0,0.933
3130.893,464.0,0.932
3142.791,465.0,0.932
3154.66,466.0,0.932
3166.636,467.0,0.932
3178.493,468.0,0.932
3190.393,469.0,0.931
3202.287,470.0,0.931
3214.133,471.0,0.931
3225.977,472.0,0.931
3237.841,473.0,0.93
3249.702,474.0,0.93
3261.492,475.0,0.93
3273.5,476.0,0.929
3285.443,477.0,0.929
3297.424,478.0,0.929
3309.314,479.0,0.928
3321.0,480.0,0.928
3332.864,481.0,0.928
3344.744,482.0,0.928
3356.61,483.0,0.927
3368.629,484.0,0.927
3380.511,485.0,0.927
3392.442,486.0,0.926
3404.325,487.0,0.926
3416.232,488.0,0.926
3428.022,489.0,0.925
3439.957,490.0,0.924
3451.9,491.0,0.924
3463.765,492.0,0.924
3475.616,493.0,0.923
3487.629,494.0,0.922
3499.506,495.0,0.922
3511.333,496.0,0.922
3523.271,497.0,0.921
3535.026,498.0,0.92
3547.082,499.0,0.92
3558.926,500.0,0.919
3570.77,501.0,0.919
3582.675,502.0,0.918
3594.57,503.0,0.917
3606.483,504.0,0.917
3618.425,505.0,0.916
3630.305,506.0,0.915
3642.207,507.0,0.914
3654.067,508.0,0.914
3665.898,509.0,0.913
3677.897,510.0,0.912
3689.962,511.0,0.911
3701.656,512.0,0.91
3713.634,513.0,0.909
3725.524,514.0,0.909
3737.414,515.0,0.908
3749.36,516.0,0.906
3761.2,517.0,0.905
3773.256,518.0,0.904
3785.177,519.0,0.903
3797.085,520.0,0.902
3809.085,521.0,0.901
3820.901,522.0,0.899
3832.877,523.0,0.898
3844.732,524.0,0.897
3856.71,525.0,0.896
3868.618,526.0,0.894
3880.677,527.0,0.893
3892.488,528.0,0.891
3904.367,529.0,0.89
3916.308,530.0,0.888
3928.205,531.0,0.887
3940.136,532.0,0.886
3951.977,533.0,0.884
3964.0,534.0,0.882
3975.908,535.0,0.88
3987.75,536.0,0.879
3999.731,537.0,0.877
4011.753,538.0,0.875
4023.667,539.0,0.874
4035.495,540.0,0.872
4047.406,541.0,0.87
4059.566,542.0,0.868
4071.444,543.0,0.866
4083.269,544.0,0.864
4095.147,545.0,0.862
4107.188,546.0,0.86
4119.167,547.0,0.857
4131.13,548.0,0.855
4142.893,549.0,0.853
4154.903,550.0,0.851
4166.663,551.0,0.848
4178.675,552.0,0.846
4190.667,553.0,0.843
4202.593,554.0,0.841
4214.486,555.0,0.838
4226.47,556.0,0.835
4238.37,557.0,0.833
4250.299,558.0,0.83
4262.231,559.0,0.827
4274.188,560.0,0.824
4286.06,561.0,0.821
4298.0,562.0,0.818
4309.918,563.0,0.814
4321.918,564.0,0.811
4333.795,565.0,0.808
4345.79,566.0,0.804
4357.663,567.0,0.801
4369.7,568.0,0.797
4381.6,569.0,0.793
4393.568,570.0,0.79
4405.5,571.0,0.786
4417.426,572.0,0.782
4429.393,573.0,0.778
4441.472,574.0,0.774
4453.375,575.0,0.77
4465.5,576.0,0.765
4477.329,577.0,0.761
4489.207,578.0,0.757
4501.239,579.0,0.752
4513.149,580.0,0.748
4525.082,581.0,0.743
4536.946,582.0,0.738
4548.987,583.0,0.733
4560.893,584.0,0.728
4572.944,585.0,0.723
4584.767,586.0,0.718
4596.759,587.0,0.713
4608.764,588.0,0.708
4620.632,589.0,0.702
4632.511,590.0,0.697
4644.505,591.0,0.691
4656.44,592.0,0.686
4668.5,593.0,0.68
4680.523,594.0,0.674
4692.4,595.0,0.669
4704.333,596.0,0.663
4716.321,597.0,0.657
4728.247,598.0,0.651
4740.218,599.0,0.645
4752.135,600.0,0.639
4764.225,601.0,0.632
4776.195,602.0,0.626
4788.0,603.0,0.62
4800.025,604.0,0.613
4812.176,605.0,0.607
4824.037,606.0,0.6
4836.127,607.0,0.594
4848.068,608.0,0.587
4860.138,609.0,0.58
4871.978,610.0,0.573
4883.976,611.0,0.566
4895.952,612.0,0.559
4907.894,613.0,0.552
4920.0,614.0,0.545
4931.937,615.0,0.538
4943.827,616.0,0.53
4955.872,617.0,0.522
4967.885,618.0,0.515
4979.832,619.0,0.507
4991.818,620.0,0.499
5003.795,621.0,0.491
5015.776,622.0,0.483
5027.728,623.0,0.474
5039.773,624.0,0.466
5051.741,625.0,0.457
5063.733,626.0,0.448
5075.674,627.0,0.44
5087.791,628.0,0.431
5099.613,629.0,0.422
5111.582,630.0,0.412
5123.57,631.0,0.403
5135.604,632.0,0.394
5147.644,633.0,0.385
5159.685,634.0,0.376
5171.659,635.0,0.367
5183.625,636.0,0.358
5195.5,637.0,0.35
5207.522,638.0,0.34
5219.539,639.0,0.332
5231.468,640.0,0.325
5243.571,641.0,0.317
5255.511,642.0,0.31
5267.44,643.0,0.303
5279.488,644.0,0.297
5291.36,645.0,0.292
5303.453,646.0,0.287
5315.346,647.0,0.282
5327.316,648.0,0.279
5339.346,649.0,0.276
5351.411,650.0,0.273
5363.321,651.0,0.271
5375.261,652.0,0.269
5387.256,653.0,0.268
5399.241,654.0,0.266
5411.364,655.0,0.265
5423.32,656.0,0.264
5435.304,657.0,0.263
5447.31,658.0,0.263
5459.277,659.0,0.262
5471.311,660.0,0.261
5483.406,661.0,0.261
5495.393,662.0,0.26
5507.447,663.0,0.259
5519.37,664.0,0.258
5531.404,665.0,0.258
5543.463,666.0,0.257
5555.376,667.0,0.256
5567.481,668.0,0.256
5579.506,669.0,0.255
5591.549,670.0,0.254
5603.506,671.0,0.254
5615.566,672.0,0.253
5627.655,673.0,0.253
5639.776,674.0,0.252
5651.656,675.0,0.251
5663.663,676.0,0.251
5675.75,677.0,0.25
5687.782,678.0,0.25
5699.734,679.0,0.249
5711.843,680.0,0.248
5723.852,681.0,0.248
5735.882,682.0,0.247
5748.011,683.0,0.247
5759.923,684.0,0.246
5772.055,685.0,0.245
5784.049,686.0,0.245
5796.023,687.0,0.244
5808.037,688.0,0.244
5820.062,689.0,0.243
5832.064,690.0,0.243
5844.131,691.0,0.242
5856.256,692.0,0.241
5868.247,693.0,0.241
5880.337,694.0,0.24
5892.469,695.0,0.24
5904.396,696.0,0.239
5916.389,697.0,0.239
5928.451,698.0,0.238
5940.565,699.0,0.238
5952.628,700.0,0.237
5964.597,701.0,0.237
5976.659,702.0,0.236
5988.667,703.0,0.235
6000.738,704.0,0.235
6012.947,705.0,0.234
6024.857,706.0,0.234
6037.048,707.0,0.234
6049.037,708.0,0.233
6061.089,709.0,0.233
6073.299,710.0,0.232
6085.27,711.0,0.232
6097.387,712.0,0.231
6109.36,713.0,0.231
6121.344,714.0,0.23
6133.422,715.0,0.23
6145.5,716.0,0.23
6157.633,717.0,0.229
6169.648,718.0,0.229
6181.797,719.0,0.228
6193.825,720.0,0.228
6205.962,721.0,0.228
6218.128,722.0,0.227
6230.081,723.0,0.227
6242.148,724.0,0.226
6254.213,725.0,0.226
6266.316,726.0,0.226
6278.468,727.0,0.225
6290.529,728.0,0.225
6302.541,729.0,0.225
6314.612,730.0,0.224
6326.589,731.0,0.224
6338.617,732.0,0.224
6350.75,733.0,0.224
6362.768,734.0,0.223
6374.875,735.0,0.223
6386.864,736.0,0.223
6398.985,737.0,0.222
6410.951,738.0,0.222
6423.045,739.0,0.222
6435.236,740.0,0.222
6447.235,741.0,0.221
6459.393,742.0,0.221
6471.464,743.0,0.221
6483.608,744.0,0.22
6495.482,745.0,0.22
6507.654,746.0,0.22
6519.733,747.0,0.22
6531.762,748.0,0.219
6543.818,749.0,0.219
6555.895,750.0,0.219
6568.0,751.0,0.219
6580.011,752.0,0.219
6592.073,753.0,0.218
6604.169,754.0,0.218
6616.239,755.0,0.218
6628.159,756.0,0.218
6640.349,757.0,0.217
6652.372,758.0,0.217
6664.452,759.0,0.217
6676.54,760.0,0.217
6688.565,761.0,0.217
6700.674,762.0,0.216
6712.719,763.0,0.216
6724.768,764.0,0.216
6736.818,765.0,0.216
6748.94,766.0,0.215
6760.966,767.0,0.215
6773.024,768.0,0.215
6785.171,769.0,0.215
6797.086,770.0,0.215
6809.063,771.0,0.214
6821.163,772.0,0.214
6833.259,773.0,0.214
6845.297,774.0,0.214
6857.378,775.0,0.214
6869.482,776.0,0.213
6881.521,777.0,0.213
6893.516,778.0,0.213
6905.595,779.0,0.213
6917.604,780.0,0.213
6929.613,781.0,0.212
6941.662,782.0,0.212
6953.718,783.0,0.212
6965.732,784.0,0.212
6977.817,785.0,0.212
6989.774,786.0,0.212
7001.86,787.0,0.211
7013.773,788.0,0.211
7025.976,789.0,0.211
7037.976,790.0,0.211
7050.048,791.0,0.211
7061.975,792.0,0.21
7074.091,793.0,0.211
7086.133,794.0,0.21
7098.143,795.0,0.21
7110.304,796.0,0.21
7122.33,797.0,0.21
7134.282,798.0,0.209
7146.354,799.0,0.209
7158.344,800.0,0.209
7170.388,801.0,0.209
7182.391,802.0,0.209
7194.388,803.0,0.209
7206.545,804.0,0.208
7218.518,805.0,0.208
7230.578,806.0,0.208
7242.651,807.0,0.208
7254.648,808.0,0.208
7266.724,809.0,0.207
7278.603,810.0,0.208
7290.788,811.0,0.207
7302.807,812.0,0.207
7314.888,813.0,0.207
7326.772,814.0,0.207
7338.917,815.0,0.206
7351.0,816.0,0.206
7362.976,817.0,0.206
7375.012,818.0,0.206
7387.098,819.0,0.206
7399.235,820.0,0.206
7411.233,821.0,0.206
7423.316,822.0,0.205
7435.221,823.0,0.205
7447.282,824.0,0.205
7459.42,825.0,0.205
7471.378,826.0,0.205
7483.381,827.0,0.205
7495.366,828.0,0.205
7507.528,829.0,0.204
7519.649,830.0,0.204
7531.506,831.0,0.204
7543.571,832.0,0.204
7555.727,833.0,0.204
7567.822,834.0,0.204
7579.85,835.0,0.204
7591.907,836.0,0.203
7603.913,837.0,0.203
7616.059,838.0,0.203
7628.021,839.0,0.203
7640.104,840.0,0.203
7652.198,841.0,0.203
7664.105,842.0,0.203
7676.128,843.0,0.202
7688.172,844.0,0.202
7700.2,845.0,0.202
7712.325,846.0,0.202
7724.376,847.0,0.202
7736.408,848.0,0.202
7748.494,849.0,0.201
7760.455,850.0,0.201
7772.446,851.0,0.201
7784.595,852.0,0.201
7796.593,853.0,0.201
7808.598,854.0,0.201
7820.625,855.0,0.201
7832.632,856.0,0.2
7844.726,857.0,0.2
7856.78,858.0,0.2
7868.747,859.0,0.2
7880.852,860.0,0.2
7892.949,861.0,0.2
7905.021,862.0,0.2
7916.989,863.0,0.199
7929.052,864.0,0.2
7941.138,865.0,0.199
7953.32,866.0,0.199
7965.208,867.0,0.199
7977.121,868.0,0.199
7988.904,869.0,0.199
8000.871,870.0,0.199
8012.877,871.0,0.199
8024.94,872.0,0.199
8036.94,873.0,0.198
8048.924,874.0,0.198
8060.863,875.0,0.198
8072.953,876.0,0.198
8085.08,877.0,0.198
8097.062,878.0,0.198
8109.115,879.0,0.198
8121.291,880.0,0.198
8133.185,881.0,0.197
8145.366,882.0,0.197
8157.213,883.0,0.198
8169.329,884.0,0.197
8181.541,885.0,0.197
8193.561,886.0,0.197
8205.638,887.0,0.197
8217.695,888.0,0.197
8229.696,889.0,0.197
8241.825,890.0,0.196
8253.91,891.0,0.196
8266.0,892.0,0.196
8277.966,893.0,0.196
8289.989,894.0,0.196
8302.125,895.0,0.196
8314.266,896.0,0.196
8326.265,897.0,0.196
8338.353,898.0,0.196
8350.447,899.0,0.196
8362.517,900.0,0.196
8374.701,901.0,0.195
8386.602,902.0,0.195
8398.667,903.0,0.195
8410.782,904.0,0.195
8422.756,905.0,0.195
8434.898,906.0,0.195
8446.893,907.0,0.195
8458.943,908.0,0.195
8471.106,909.0,0.195
8483.167,910.0,0.195
8495.181,911.0,0.194
8507.31,912.0,0.195
8519.301,913.0,0.194
8531.356,914.0,0.194
8543.397,915.0,0.194
8555.456,916.0,0.194
8567.549,917.0,0.194
8579.511,918.0,0.194
8591.687,919.0,0.194
8603.675,920.0,0.194
8615.741,921.0,0.194
8627.852,922.0,0.194
8639.838,923.0,0.193
8651.904,924.0,0.194
8663.978,925.0,0.193
8676.101,926.0,0.193
8688.141,927.0,0.193
8700.091,928.0,0.193
8712.25,929.0,0.193
8724.347,930.0,0.193
8736.302,931.0,0.193
8748.341,932.0,0.193
8760.377,933.0,0.193
8772.376,934.0,0.193
8784.573,935.0,0.193
8796.57,936.0,0.193
8808.647,937.0,0.193
8820.686,938.0,0.192
8832.686,939.0,0.192
8844.721,940.0,0.192
8856.765,941.0,0.191
8868.853,942.0,0.192
8880.774,943.0,0.192
8892.892,944.0,0.192
8904.852,945.0,0.192
8917.036,946.0,0.192
8928.99,947.0,0.192
8941.12,948.0,0.192
8953.207,949.0,0.191
8965.272,950.0,0.192
8977.337,951.0,0.192
8989.393,952.0,0.191
9001.432,953.0,0.191
9013.506,954.0,0.191
9025.447,955.0,0.191
9037.47,956.0,0.191
9049.464,957.0,0.191
9061.583,958.0,0.191
9073.622,959.0,0.191
9085.69,960.0,0.191
9097.771,961.0,0.191
9109.674,962.0,0.191
9122.011,963.0,0.19
9133.903,964.0,0.19
9146.056,965.0,0.19
9158.076,966.0,0.191
9170.0,967.0,0.19
9182.04,968.0,0.19
9194.152,969.0,0.19
9206.118,970.0,0.19
9218.228,971.0,0.19
9230.302,972.0,0.19
9242.263,973.0,0.19
9254.366,974.0,0.19
9266.407,975.0,0.189
9278.465,976.0,0.19
9290.506,977.0,0.189
9302.59,978.0,0.189
9314.662,979.0,0.189
9326.77,980.0,0.189
9338.856,981.0,0.189
9350.987,982.0,0.189
9363.06,983.0,0.189
9375.055,984.0,0.188
9387.099,985.0,0.188
9399.117,986.0,0.188
9411.173,987.0,0.188
9423.396,988.0,0.188
9435.474,989.0,0.188
9447.487,990.0,0.188
9459.525,991.0,0.188
9471.527,992.0,0.188
9483.602,993.0,0.188
9495.675,994.0,0.188
9507.623,995.0,0.188
9519.624,996.0,0.187
9531.823,997.0,0.187
9543.787,998.0,0.187
9555.885,999.0,0.187
9567.911,1000.0,0.187
9579.921,1001.0,0.186
9591.886,1002.0,0.186
9604.025,1003.0,0.187
9616.106,1004.0,0.187
9628.058,1005.0,0.187
9640.046,1006.0,0.186
9652.046,1007.0,0.186
9664.048,1008.0,0.186
9676.16,1009.0,0.186
9688.167,1010.0,0.186
9700.171,1011.0,0.186
9712.208,1012.0,0.186
9724.298,1013.0,0.186
9736.214,1014.0,0.186
9748.271,1015.0,0.186
9760.22,1016.0,0.186
9772.225,1017.0,0.185
9784.275,1018.0,0.185
9796.337,1019.0,0.185
9808.361,1020.0,0.185
9820.247,1021.0,0.185
9832.417,1022.0,0.185
9844.429,1023.0,0.185
9856.395,1024.0,0.185
9868.388,1025.0,0.184
9880.455,1026.0,0.184
9892.494,1027.0,0.184
9904.549,1028.0,0.184
9916.456,1029.0,0.184
9928.519,1030.0,0.184
9940.453,1031.0,0.184
9952.591,1032.0,0.184
9964.586,1033.0,0.184
9976.506,1034.0,0.184
9988.55,1035.0,0.184
10000.506,1036.0,0.184
10012.5,1037.0,0.184
10024.552,1038.0,0.183
10036.55,1039.0,0.183
10048.56,1040.0,0.183
10060.644,1041.0,0.183
10072.607,1042.0,0.183
10084.582,1043.0,0.183
10096.617,1044.0,0.183
10108.608,1045.0,0.183
10120.652,1046.0,0.183
10132.625,1047.0,0.183
10144.591,1048.0,0.183
10156.589,1049.0,0.183
10168.537,1050.0,0.182
10180.593,1051.0,0.183
10192.585,1052.0,0.183
10204.551,1053.0,0.182
10216.524,1054.0,0.182
10228.631,1055.0,0.182
10240.563,1056.0,0.182
10252.57,1057.0,0.182
10264.55,1058.0,0.182
10276.595,1059.0,0.182
10288.571,1060.0,0.182
10300.635,1061.0,0.182
10312.825,1062.0,0.18
10324.977,1063.0,0.177
10336.795,1064.0,0.181
10348.667,1065.0,0.182
10360.634,1066.0,0.182
10372.573,1067.0,0.181
10384.585,1068.0,0.181
10396.441,1069.0,0.181
10408.556,1070.0,0.181
10420.8,1071.0,0.181
10450.0,1072.2,0.181
10470.0,1072.523,0.181
10490.0,1072.682,0.181
10510.0,1072.765,0.181
10530.0,1072.822,0.181
10550.0,1072.845,0.18
10570.0,1072.873,0.18
10590.0,1072.885,0.18
10610.0,1072.897,0.18
10630.0,1072.905,0.18
10650.0,1072.917,0.18
10670.0,1072.923,0.18
10690.0,1072.93,0.18
10710.0,1072.93,0.18
10730.0,1072.941,0.18
10740.0,1072.938,0.18