File: Wood/Calibration_Data/TUBS/TUBS_Wood_TGA_N2_20K_R1.csv
Time (s),Temperature (K),Mass (mg)
0.0,304.913,1.03
10.0,304.871,1.028
23.0,304.815,1.026
40.0,304.73,1.024
58.0,304.697,1.022
82.0,304.642,1.02
109.0,304.585,1.018
142.0,304.538,1.016
184.0,304.498,1.014
255.0,304.43,1.012
342.0,304.378,1.01
455.0,304.355,1.01
468.0,304.358,1.01
507.0,304.35,1.008
540.0,304.346,1.008
562.0,304.342,1.008
805.0,304.35,1.008
1190.0,304.371,1.006
1208.615,305.5,1.004
1212.697,306.5,1.007
1216.444,307.5,1.009
1219.913,308.5,1.009
1223.383,309.5,1.008
1226.705,310.5,1.007
1230.03,311.5,1.007
1233.321,312.5,1.007
1236.565,313.5,1.006
1239.822,314.5,1.006
1243.032,315.5,1.006
1246.257,316.5,1.006
1249.436,317.5,1.006
1252.629,318.5,1.006
1255.785,319.5,1.006
1258.974,320.5,1.005
1262.096,321.5,1.005
1265.267,322.5,1.005
1268.376,323.5,1.005
1271.521,324.5,1.005
1274.624,325.5,1.004
1277.746,326.5,1.004
1280.829,327.5,1.004
1283.931,328.5,1.004
1287.006,329.5,1.004
1290.013,330.5,1.003
1293.108,331.5,1.003
1296.149,332.5,1.003
1299.213,333.5,1.002
1302.265,334.5,1.002
1305.351,335.5,1.002
1308.384,336.5,1.002
1311.398,337.5,1.001
1314.464,338.5,1.001
1317.503,339.5,1.001
1320.549,340.5,1.001
1323.549,341.5,1.0
1326.583,342.5,1.0
1329.616,343.5,1.0
1332.594,344.5,0.999
1335.647,345.5,0.999
1338.671,346.5,0.999
1341.669,347.5,0.999
1344.668,348.5,0.998
1347.674,349.5,0.998
1350.666,350.5,0.998
1353.722,351.5,0.998
1356.682,352.5,0.997
1359.683,353.5,0.997
1362.671,354.5,0.997
1365.666,355.5,0.997
1368.687,356.5,0.997
1371.688,357.5,0.996
1374.667,358.5,0.996
1377.65,359.5,0.996
1380.618,360.5,0.996
1383.64,361.5,0.996
1386.596,362.5,0.996
1389.593,363.5,0.995
1392.602,364.5,0.995
1395.591,365.5,0.995
1398.553,366.5,0.995
1401.525,367.5,0.995
1404.508,368.5,0.995
1407.494,369.5,0.995
1410.448,370.5,0.995
1413.427,371.5,0.995
1416.408,372.5,0.995
1419.38,373.5,0.995
1422.332,374.5,0.995
1425.312,375.5,0.995
1428.289,376.5,0.995
1431.261,377.5,0.995
1434.235,378.5,0.995
1437.195,379.5,0.995
1440.182,380.5,0.994
1443.115,381.5,0.994
1446.09,382.5,0.994
1449.069,383.5,0.994
1452.012,384.5,0.994
1454.982,385.5,0.994
1457.929,386.5,0.994
1460.88,387.5,0.994
1463.81,388.5,0.994
1466.808,389.5,0.994
1469.752,390.5,0.994
1472.716,391.5,0.994
1475.672,392.5,0.994
1478.614,393.5,0.994
1481.587,394.5,0.994
1484.529,395.5,0.994
1487.476,396.5,0.994
1490.416,397.5,0.994
1493.375,398.5,0.994
1496.302,399.5,0.994
1499.249,400.5,0.994
1502.188,401.5,0.994
1505.148,402.5,0.994
1508.138,403.5,0.994
1511.038,404.5,0.994
1514.003,405.5,0.994
1516.923,406.5,0.994
1519.874,407.5,0.994
1522.833,408.5,0.994
1525.755,409.5,0.994
1528.703,410.5,0.994
1531.636,411.5,0.994
1534.586,412.5,0.994
1537.545,413.5,0.994
1540.484,414.5,0.994
1543.385,415.5,0.993
1546.327,416.5,0.993
1549.273,417.5,0.993
1552.192,418.5,0.993
1555.143,419.5,0.993
1558.071,420.5,0.993
1561.023,421.5,0.993
1563.997,422.5,0.993
1566.886,423.5,0.993
1569.824,424.5,0.993
1572.764,425.5,0.993
1575.706,426.5,0.993
1578.642,427.5,0.993
1581.565,428.5,0.993
1584.497,429.5,0.993
1587.442,430.5,0.993
1590.385,431.5,0.993
1593.314,432.5,0.993
1596.274,433.5,0.993
1599.178,434.5,0.993
1602.108,435.5,0.993
1605.059,436.5,0.992
1608.006,437.5,0.992
1610.891,438.5,0.992
1613.869,439.5,0.992
1616.777,440.5,0.992
1619.724,441.5,0.992
1622.639,442.5,0.992
1625.562,443.5,0.992
1628.544,444.5,0.991
1631.436,445.5,0.991
1634.355,446.5,0.991
1637.311,447.5,0.991
1640.224,448.5,0.991
1643.173,449.5,0.99
1646.074,450.5,0.99
1649.032,451.5,0.99
1651.953,452.5,0.99
1654.88,453.5,0.99
1657.839,454.5,0.989
1660.733,455.5,0.989
1663.616,456.5,0.989
1666.548,457.5,0.989
1669.499,458.5,0.989
1672.455,459.5,0.988
1675.37,460.5,0.988
1678.288,461.5,0.988
1681.228,462.5,0.987
1684.149,463.5,0.987
1687.08,464.5,0.987
1690.014,465.5,0.986
1692.931,466.5,0.986
1695.837,467.5,0.986
1698.78,468.5,0.985
1701.691,469.5,0.985
1704.626,470.5,0.985
1707.559,471.5,0.985
1710.485,472.5,0.984
1713.426,473.5,0.984
1716.341,474.5,0.984
1719.274,475.5,0.983
1722.203,476.5,0.983
1725.139,477.5,0.983
1728.033,478.5,0.983
1730.957,479.5,0.982
1733.925,480.5,0.982
1736.822,481.5,0.982
1739.784,482.5,0.982
1742.698,483.5,0.981
1745.639,484.5,0.981
1748.551,485.5,0.981
1751.515,486.5,0.98
1754.429,487.5,0.98
1757.358,488.5,0.98
1760.303,489.5,0.979
1763.23,490.5,0.979
1766.13,491.5,0.979
1769.104,492.5,0.978
1772.015,493.5,0.978
1774.939,494.5,0.978
1777.88,495.5,0.977
1780.844,496.5,0.977
1783.74,497.5,0.977
1786.678,498.5,0.976
1789.618,499.5,0.976
1792.528,500.5,0.975
1795.484,501.5,0.975
1798.437,502.5,0.975
1801.353,503.5,0.974
1804.297,504.5,0.974
1807.26,505.5,0.973
1810.201,506.5,0.973
1813.138,507.5,0.972
1816.077,508.5,0.972
1819.018,509.5,0.971
1821.952,510.5,0.971
1824.885,511.5,0.97
1827.829,512.5,0.97
1830.774,513.5,0.969
1833.732,514.5,0.969
1836.689,515.5,0.968
1839.591,516.5,0.967
1842.558,517.5,0.967
1845.493,518.5,0.966
1848.418,519.5,0.965
1851.376,520.5,0.964
1854.32,521.5,0.964
1857.282,522.5,0.963
1860.24,523.5,0.962
1863.199,524.5,0.961
1866.137,525.5,0.961
1869.089,526.5,0.96
1872.035,527.5,0.959
1874.976,528.5,0.958
1877.935,529.5,0.957
1880.864,530.5,0.956
1883.828,531.5,0.955
1886.778,532.5,0.954
1889.731,533.5,0.953
1892.666,534.5,0.952
1895.603,535.5,0.95
1898.549,536.5,0.949
1901.496,537.5,0.948
1904.475,538.5,0.947
1907.412,539.5,0.946
1910.369,540.5,0.944
1913.329,541.5,0.943
1916.302,542.5,0.942
1919.246,543.5,0.94
1922.234,544.5,0.939
1925.159,545.5,0.937
1928.125,546.5,0.936
1931.097,547.5,0.934
1934.021,548.5,0.933
1937.014,549.5,0.931
1939.939,550.5,0.93
1942.898,551.5,0.928
1945.847,552.5,0.927
1948.809,553.5,0.925
1951.755,554.5,0.923
1954.733,555.5,0.922
1957.693,556.5,0.92
1960.692,557.5,0.918
1963.644,558.5,0.916
1966.583,559.5,0.914
1969.554,560.5,0.913
1972.519,561.5,0.911
1975.507,562.5,0.909
1978.449,563.5,0.907
1981.4,564.5,0.905
1984.38,565.5,0.903
1987.366,566.5,0.901
1990.294,567.5,0.899
1993.288,568.5,0.897
1996.258,569.5,0.894
1999.244,570.5,0.892
2002.186,571.5,0.889
2005.172,572.5,0.887
2008.111,573.5,0.885
2011.099,574.5,0.882
2014.077,575.5,0.88
2017.034,576.5,0.877
2020.027,577.5,0.874
2023.009,578.5,0.872
2025.967,579.5,0.869
2028.94,580.5,0.866
2031.918,581.5,0.863
2034.883,582.5,0.86
2037.859,583.5,0.857
2040.81,584.5,0.854
2043.785,585.5,0.85
2046.774,586.5,0.847
2049.73,587.5,0.844
2052.73,588.5,0.841
2055.723,589.5,0.837
2058.668,590.5,0.834
2061.647,591.5,0.83
2064.656,592.5,0.826
2067.616,593.5,0.822
2070.601,594.5,0.819
2073.565,595.5,0.815
2076.537,596.5,0.81
2079.532,597.5,0.806
2082.508,598.5,0.802
2085.491,599.5,0.798
2088.49,600.5,0.794
2091.458,601.5,0.789
2094.448,602.5,0.785
2097.437,603.5,0.78
2100.412,604.5,0.775
2103.389,605.5,0.771
2106.389,606.5,0.766
2109.383,607.5,0.761
2112.367,608.5,0.756
2115.358,609.5,0.751
2118.32,610.5,0.745
2121.321,611.5,0.74
2124.345,612.5,0.734
2127.322,613.5,0.729
2130.26,614.5,0.723
2133.287,615.5,0.718
2136.26,616.5,0.712
2139.258,617.5,0.707
2142.241,618.5,0.702
2145.243,619.5,0.696
2148.211,620.5,0.69
2151.226,621.5,0.684
2154.201,622.5,0.678
2157.212,623.5,0.672
2160.212,624.5,0.666
2163.187,625.5,0.66
2166.221,626.5,0.654
2169.166,627.5,0.648
2172.16,628.5,0.641
2175.165,629.5,0.635
2178.184,630.5,0.628
2181.149,631.5,0.622
2184.167,632.5,0.615
2187.15,633.5,0.609
2190.156,634.5,0.602
2193.147,635.5,0.595
2196.158,636.5,0.589
2199.16,637.5,0.582
2202.178,638.5,0.574
2205.166,639.5,0.567
2208.194,640.5,0.56
2211.208,641.5,0.552
2214.198,642.5,0.545
2217.208,643.5,0.537
2220.203,644.5,0.53
2223.224,645.5,0.522
2226.237,646.5,0.514
2229.23,647.5,0.506
2232.233,648.5,0.498
2235.225,649.5,0.489
2238.248,650.5,0.481
2241.236,651.5,0.472
2244.261,652.5,0.463
2247.277,653.5,0.454
2250.309,654.5,0.446
2253.302,655.5,0.437
2256.318,656.5,0.428
2259.336,657.5,0.418
2262.381,658.5,0.409
2265.36,659.5,0.4
2268.365,660.5,0.391
2271.42,661.5,0.381
2274.402,662.5,0.372
2277.435,663.5,0.363
2280.449,664.5,0.354
2283.455,665.5,0.345
2286.469,666.5,0.337
2289.471,667.5,0.329
2292.466,668.5,0.321
2295.491,669.5,0.313
2298.521,670.5,0.306
2301.508,671.5,0.3
2304.514,672.5,0.294
2307.527,673.5,0.288
2310.547,674.5,0.283
2313.531,675.5,0.279
2316.524,676.5,0.275
2319.553,677.5,0.272
2322.545,678.5,0.269
2325.568,679.5,0.267
2328.572,680.5,0.265
2331.596,681.5,0.264
2334.58,682.5,0.262
2337.618,683.5,0.261
2340.627,684.5,0.26
2343.64,685.5,0.259
2346.656,686.5,0.258
2349.659,687.5,0.257
2352.67,688.5,0.257
2355.695,689.5,0.256
2358.695,690.5,0.255
2361.695,691.5,0.254
2364.739,692.5,0.254
2367.767,693.5,0.253
2370.764,694.5,0.252
2373.778,695.5,0.252
2376.818,696.5,0.251
2379.795,697.5,0.25
2382.832,698.5,0.25
2385.842,699.5,0.249
2388.853,700.5,0.248
2391.883,701.5,0.248
2394.912,702.5,0.247
2397.901,703.5,0.247
2400.948,704.5,0.246
2403.955,705.5,0.246
2406.991,706.5,0.245
2409.994,707.5,0.244
2413.012,708.5,0.244
2415.997,709.5,0.243
2419.059,710.5,0.243
2422.102,711.5,0.242
2425.125,712.5,0.241
2428.119,713.5,0.241
2431.148,714.5,0.24
2434.155,715.5,0.24
2437.19,716.5,0.239
2440.218,717.5,0.239
2443.252,718.5,0.238
2446.264,719.5,0.238
2449.304,720.5,0.237
2452.331,721.5,0.236
2455.337,722.5,0.236
2458.374,723.5,0.236
2461.408,724.5,0.235
2464.429,725.5,0.234
2467.44,726.5,0.234
2470.466,727.5,0.233
2473.483,728.5,0.233
2476.521,729.5,0.232
2479.543,730.5,0.232
2482.574,731.5,0.231
2485.591,732.5,0.231
2488.604,733.5,0.23
2491.657,734.5,0.23
2494.701,735.5,0.229
2497.714,736.5,0.229
2500.726,737.5,0.228
2503.758,738.5,0.228
2506.772,739.5,0.228
2509.798,740.5,0.227
2512.849,741.5,0.227
2515.872,742.5,0.226
2518.893,743.5,0.226
2521.933,744.5,0.226
2524.988,745.5,0.225
2527.994,746.5,0.225
2531.018,747.5,0.224
2534.062,748.5,0.224
2537.075,749.5,0.224
2540.1,750.5,0.223
2543.134,751.5,0.223
2546.175,752.5,0.222
2549.208,753.5,0.222
2552.206,754.5,0.222
2555.258,755.5,0.221
2558.264,756.5,0.221
2561.306,757.5,0.221
2564.327,758.5,0.22
2567.361,759.5,0.22
2570.4,760.5,0.22
2573.413,761.5,0.219
2576.458,762.5,0.219
2579.5,763.5,0.219
2582.526,764.5,0.218
2585.537,765.5,0.218
2588.553,766.5,0.218
2591.574,767.5,0.218
2594.619,768.5,0.217
2597.642,769.5,0.217
2600.679,770.5,0.217
2603.718,771.5,0.216
2606.732,772.5,0.216
2609.755,773.5,0.216
2612.78,774.5,0.216
2615.821,775.5,0.215
2618.847,776.5,0.215
2621.861,777.5,0.215
2624.891,778.5,0.215
2627.919,779.5,0.214
2630.952,780.5,0.214
2633.976,781.5,0.214
2636.994,782.5,0.214
2640.039,783.5,0.213
2643.056,784.5,0.213
2646.064,785.5,0.213
2649.082,786.5,0.213
2652.092,787.5,0.212
2655.14,788.5,0.212
2658.16,789.5,0.212
2661.189,790.5,0.212
2664.196,791.5,0.212
2667.219,792.5,0.211
2670.255,793.5,0.211
2673.256,794.5,0.211
2676.311,795.5,0.211
2679.309,796.5,0.21
2682.35,797.5,0.21
2685.363,798.5,0.21
2688.362,799.5,0.21
2691.403,800.5,0.21
2694.43,801.5,0.209
2697.436,802.5,0.209
2700.461,803.5,0.209
2703.477,804.5,0.209
2706.51,805.5,0.208
2709.517,806.5,0.208
2712.526,807.5,0.208
2715.556,808.5,0.208
2718.57,809.5,0.208
2721.589,810.5,0.208
2724.624,811.5,0.207
2727.638,812.5,0.207
2730.654,813.5,0.207
2733.662,814.5,0.207
2736.684,815.5,0.207
2739.716,816.5,0.207
2742.722,817.5,0.206
2745.754,818.5,0.206
2748.765,819.5,0.206
2751.779,820.5,0.206
2754.793,821.5,0.205
2757.825,822.5,0.205
2760.842,823.5,0.205
2763.845,824.5,0.205
2766.871,825.5,0.205
2769.885,826.5,0.204
2772.913,827.5,0.204
2775.935,828.5,0.204
2778.961,829.5,0.204
2781.976,830.5,0.204
2785.015,831.5,0.204
2788.027,832.5,0.204
2791.039,833.5,0.204
2794.054,834.5,0.203
2797.077,835.5,0.203
2800.122,836.5,0.203
2803.101,837.5,0.203
2806.122,838.5,0.202
2809.154,839.5,0.202
2812.181,840.5,0.202
2815.202,841.5,0.202
2818.201,842.5,0.202
2821.265,843.5,0.202
2824.266,844.5,0.201
2827.279,845.5,0.201
2830.294,846.5,0.201
2833.293,847.5,0.201
2836.319,848.5,0.201
2839.331,849.5,0.201
2842.379,850.5,0.2
2845.386,851.5,0.2
2848.404,852.5,0.2
2851.412,853.5,0.2
2854.438,854.5,0.2
2857.46,855.5,0.2
2860.483,856.5,0.199
2863.503,857.5,0.199
2866.51,858.5,0.199
2869.539,859.5,0.199
2872.545,860.5,0.199
2875.567,861.5,0.199
2878.577,862.5,0.199
2881.597,863.5,0.199
2884.611,864.5,0.199
2887.622,865.5,0.198
2890.641,866.5,0.198
2893.656,867.5,0.198
2896.69,868.5,0.198
2899.722,869.5,0.198
2902.69,870.5,0.198
2905.708,871.5,0.197
2908.73,872.5,0.197
2911.747,873.5,0.197
2914.743,874.5,0.197
2917.791,875.5,0.197
2920.782,876.5,0.197
2923.82,877.5,0.197
2926.834,878.5,0.196
2929.825,879.5,0.196
2932.856,880.5,0.196
2935.864,881.5,0.196
2938.887,882.5,0.196
2941.924,883.5,0.196
2944.917,884.5,0.196
2947.94,885.5,0.196
2950.955,886.5,0.195
2953.962,887.5,0.195
2956.994,888.5,0.195
2960.0,889.5,0.195
2963.021,890.5,0.195
2966.034,891.5,0.195
2969.051,892.5,0.194
2972.083,893.5,0.194
2975.094,894.5,0.194
2978.07,895.5,0.194
2981.122,896.5,0.194
2984.119,897.5,0.194
2987.144,898.5,0.194
2990.154,899.5,0.194
2993.174,900.5,0.193
2996.199,901.5,0.193
2999.204,902.5,0.193
3002.212,903.5,0.193
3005.212,904.5,0.193
3008.217,905.5,0.193
3011.247,906.5,0.193
3014.248,907.5,0.193
3017.261,908.5,0.193
3020.278,909.5,0.193
3023.291,910.5,0.192
3026.302,911.5,0.192
3029.327,912.5,0.192
3032.356,913.5,0.192
3035.361,914.5,0.192
3038.37,915.5,0.192
3041.397,916.5,0.192
3044.408,917.5,0.192
3047.425,918.5,0.191
3050.414,919.5,0.191
3053.434,920.5,0.191
3056.457,921.5,0.191
3059.464,922.5,0.191
3062.465,923.5,0.191
3065.488,924.5,0.191
3068.503,925.5,0.191
3071.514,926.5,0.191
3074.541,927.5,0.19
3077.528,928.5,0.19
3080.548,929.5,0.19
3083.58,930.5,0.19
3086.582,931.5,0.19
3089.585,932.5,0.19
3092.607,933.5,0.19
3095.604,934.5,0.19
3098.605,935.5,0.19
3101.627,936.5,0.19
3104.641,937.5,0.19
3107.658,938.5,0.189
3110.669,939.5,0.189
3113.65,940.5,0.189
3116.66,941.5,0.189
3119.685,942.5,0.189
3122.699,943.5,0.189
3125.713,944.5,0.189
3128.733,945.5,0.189
3131.732,946.5,0.189
3134.751,947.5,0.189
3137.766,948.5,0.189
3140.768,949.5,0.189
3143.792,950.5,0.188
3146.791,951.5,0.188
3149.834,952.5,0.188
3152.839,953.5,0.188
3155.894,954.5,0.188
3158.907,955.5,0.188
3161.906,956.5,0.188
3164.934,957.5,0.188
3167.928,958.5,0.188
3170.961,959.5,0.188
3173.961,960.5,0.188
3176.987,961.5,0.187
3180.006,962.5,0.187
3182.982,963.5,0.187
3186.056,964.5,0.187
3189.059,965.5,0.187
3192.066,966.5,0.187
3195.084,967.5,0.187
3198.106,968.5,0.187
3201.095,969.5,0.187
3204.116,970.5,0.187
3207.139,971.5,0.187
3210.137,972.5,0.186
3213.169,973.5,0.186
3216.166,974.5,0.186
3219.171,975.5,0.186
3222.204,976.5,0.186
3225.205,977.5,0.186
3228.202,978.5,0.186
3231.209,979.5,0.186
3234.224,980.5,0.186
3237.245,981.5,0.186
3240.248,982.5,0.186
3243.276,983.5,0.185
3246.269,984.5,0.185
3249.281,985.5,0.185
3252.306,986.5,0.186
3255.311,987.5,0.186
3258.331,988.5,0.185
3261.373,989.5,0.185
3264.36,990.5,0.185
3267.378,991.5,0.185
3270.382,992.5,0.185
3273.401,993.5,0.185
3276.405,994.5,0.185
3279.433,995.5,0.185
3282.436,996.5,0.185
3285.472,997.5,0.185
3288.466,998.5,0.185
3291.473,999.5,0.184
3294.504,1000.5,0.184
3297.5,1001.5,0.184
3300.535,1002.5,0.184
3303.547,1003.5,0.184
3306.584,1004.5,0.184
3309.561,1005.5,0.184
3312.605,1006.5,0.184
3315.615,1007.5,0.184
3318.616,1008.5,0.184
3321.617,1009.5,0.184
3324.634,1010.5,0.184
3327.64,1011.5,0.184
3330.65,1012.5,0.183
3333.642,1013.5,0.183
3336.65,1014.5,0.183
3339.655,1015.5,0.183
3342.667,1016.5,0.183
3345.68,1017.5,0.183
3348.692,1018.5,0.183
3351.701,1019.5,0.183
3354.719,1020.5,0.182
3357.729,1021.5,0.182
3360.727,1022.5,0.182
3363.741,1023.5,0.182
3366.756,1024.5,0.182
3369.769,1025.5,0.182
3372.771,1026.5,0.182
3375.779,1027.5,0.182
3378.804,1028.5,0.182
3381.809,1029.5,0.182
3384.784,1030.5,0.182
3387.806,1031.5,0.182
3390.828,1032.5,0.182
3393.87,1033.5,0.181
3396.86,1034.5,0.181
3399.861,1035.5,0.181
3402.85,1036.5,0.181
3405.843,1037.5,0.181
3408.89,1038.5,0.181
3411.89,1039.5,0.181
3414.892,1040.5,0.181
3417.9,1041.5,0.181
3420.903,1042.5,0.181
3423.895,1043.5,0.181
3426.887,1044.5,0.181
3429.901,1045.5,0.181
3432.913,1046.5,0.181
3435.928,1047.5,0.181
3438.939,1048.5,0.181
3441.961,1049.5,0.18
3444.937,1050.5,0.18
3447.925,1051.5,0.18
3450.954,1052.5,0.18
3453.964,1053.5,0.18
3456.967,1054.5,0.18
3459.982,1055.5,0.18
3462.967,1056.5,0.18
3465.977,1057.5,0.18
3469.003,1058.5,0.18
3472.012,1059.5,0.18
3475.033,1060.5,0.179
3478.041,1061.5,0.179
3481.038,1062.5,0.179
3484.064,1063.5,0.179
3487.056,1064.5,0.179
3489.929,1065.5,0.18
3495.149,1066.5,0.18
3500.089,1067.5,0.179
3510.0,1068.98,0.179
3530.0,1070.691,0.178
3550.0,1071.514,0.178
3570.0,1071.934,0.178
3590.0,1072.162,0.177
3610.0,1072.31,0.177
3630.0,1072.402,0.177
3650.0,1072.47,0.177
3670.0,1072.541,0.176
3690.0,1072.58,0.176
3710.0,1072.627,0.176
3730.0,1072.649,0.176
3750.0,1072.674,0.176
3770.0,1072.693,0.175
3790.0,1072.713,0.175
3810.0,1072.728,0.175