File: Wood/Calibration_Data/TUBS/TUBS_Wood_TGA_N2_20K_R3.csv
Time (s),Temperature (K),Mass (mg)
0.0,304.943,1.04
11.0,304.871,1.038
27.0,304.797,1.036
43.0,304.743,1.034
62.0,304.704,1.032
89.0,304.642,1.03
123.0,304.584,1.028
159.0,304.547,1.026
220.0,304.506,1.024
304.0,304.432,1.022
376.0,304.41,1.022
459.0,304.386,1.02
889.0,304.385,1.018
1057.0,304.371,1.018
1107.0,304.39,1.018
1208.58,305.5,1.016
1212.686,306.5,1.019
1216.458,307.5,1.021
1219.968,308.5,1.021
1223.426,309.5,1.02
1226.758,310.5,1.019
1230.035,311.5,1.019
1233.34,312.5,1.018
1236.606,313.5,1.018
1239.875,314.5,1.018
1243.1,315.5,1.018
1246.292,316.5,1.018
1249.506,317.5,1.017
1252.696,318.5,1.017
1255.899,319.5,1.017
1259.09,320.5,1.017
1262.196,321.5,1.017
1265.378,322.5,1.017
1268.494,323.5,1.017
1271.614,324.5,1.016
1274.669,325.5,1.016
1277.824,326.5,1.016
1280.89,327.5,1.016
1283.975,328.5,1.015
1287.024,329.5,1.015
1290.134,330.5,1.015
1293.182,331.5,1.015
1296.243,332.5,1.014
1299.342,333.5,1.014
1302.383,334.5,1.014
1305.442,335.5,1.014
1308.479,336.5,1.013
1311.506,337.5,1.013
1314.568,338.5,1.013
1317.595,339.5,1.012
1320.585,340.5,1.012
1323.67,341.5,1.012
1326.693,342.5,1.012
1329.691,343.5,1.011
1332.717,344.5,1.011
1335.731,345.5,1.011
1338.741,346.5,1.011
1341.745,347.5,1.01
1344.773,348.5,1.01
1347.758,349.5,1.01
1350.773,350.5,1.01
1353.767,351.5,1.009
1356.806,352.5,1.009
1359.821,353.5,1.009
1362.809,354.5,1.009
1365.805,355.5,1.008
1368.799,356.5,1.008
1371.763,357.5,1.008
1374.795,358.5,1.008
1377.766,359.5,1.008
1380.763,360.5,1.008
1383.739,361.5,1.008
1386.755,362.5,1.008
1389.742,363.5,1.008
1392.693,364.5,1.007
1395.686,365.5,1.007
1398.683,366.5,1.007
1401.655,367.5,1.007
1404.633,368.5,1.007
1407.599,369.5,1.007
1410.592,370.5,1.007
1413.544,371.5,1.007
1416.563,372.5,1.007
1419.509,373.5,1.007
1422.49,374.5,1.007
1425.47,375.5,1.007
1428.432,376.5,1.007
1431.404,377.5,1.007
1434.363,378.5,1.007
1437.343,379.5,1.007
1440.279,380.5,1.007
1443.253,381.5,1.007
1446.234,382.5,1.007
1449.209,383.5,1.006
1452.129,384.5,1.006
1455.116,385.5,1.006
1458.076,386.5,1.006
1461.0,387.5,1.006
1463.986,388.5,1.006
1466.952,389.5,1.006
1469.889,390.5,1.006
1472.848,391.5,1.006
1475.789,392.5,1.006
1478.736,393.5,1.006
1481.688,394.5,1.006
1484.646,395.5,1.006
1487.599,396.5,1.006
1490.538,397.5,1.006
1493.5,398.5,1.006
1496.423,399.5,1.006
1499.405,400.5,1.006
1502.329,401.5,1.006
1505.271,402.5,1.006
1508.227,403.5,1.006
1511.144,404.5,1.006
1514.115,405.5,1.006
1517.012,406.5,1.006
1519.971,407.5,1.006
1522.894,408.5,1.006
1525.843,409.5,1.006
1528.8,410.5,1.006
1531.74,411.5,1.006
1534.682,412.5,1.006
1537.658,413.5,1.006
1540.59,414.5,1.006
1543.496,415.5,1.006
1546.457,416.5,1.006
1549.377,417.5,1.006
1552.308,418.5,1.006
1555.247,419.5,1.006
1558.211,420.5,1.006
1561.116,421.5,1.006
1564.058,422.5,1.006
1567.02,423.5,1.006
1569.95,424.5,1.006
1572.868,425.5,1.005
1575.8,426.5,1.005
1578.737,427.5,1.005
1581.676,428.5,1.005
1584.597,429.5,1.005
1587.529,430.5,1.005
1590.455,431.5,1.005
1593.417,432.5,1.005
1596.362,433.5,1.005
1599.3,434.5,1.005
1602.214,435.5,1.005
1605.149,436.5,1.005
1608.069,437.5,1.005
1611.0,438.5,1.004
1613.934,439.5,1.004
1616.871,440.5,1.004
1619.776,441.5,1.004
1622.667,442.5,1.004
1625.623,443.5,1.004
1628.549,444.5,1.004
1631.466,445.5,1.004
1634.414,446.5,1.003
1637.328,447.5,1.003
1640.264,448.5,1.003
1643.202,449.5,1.003
1646.106,450.5,1.002
1649.03,451.5,1.002
1651.936,452.5,1.002
1654.891,453.5,1.002
1657.801,454.5,1.001
1660.726,455.5,1.001
1663.643,456.5,1.001
1666.602,457.5,1.001
1669.519,458.5,1.0
1672.43,459.5,1.0
1675.342,460.5,1.0
1678.286,461.5,1.0
1681.235,462.5,0.999
1684.145,463.5,0.999
1687.058,464.5,0.999
1689.977,465.5,0.998
1692.928,466.5,0.998
1695.821,467.5,0.998
1698.768,468.5,0.997
1701.702,469.5,0.997
1704.607,470.5,0.997
1707.556,471.5,0.996
1710.478,472.5,0.996
1713.42,473.5,0.996
1716.34,474.5,0.996
1719.26,475.5,0.995
1722.183,476.5,0.995
1725.107,477.5,0.995
1728.05,478.5,0.994
1730.971,479.5,0.994
1733.908,480.5,0.994
1736.843,481.5,0.993
1739.789,482.5,0.993
1742.713,483.5,0.993
1745.654,484.5,0.993
1748.585,485.5,0.992
1751.504,486.5,0.992
1754.429,487.5,0.992
1757.354,488.5,0.991
1760.312,489.5,0.991
1763.22,490.5,0.99
1766.177,491.5,0.99
1769.113,492.5,0.99
1772.027,493.5,0.989
1774.955,494.5,0.989
1777.907,495.5,0.989
1780.828,496.5,0.988
1783.795,497.5,0.988
1786.722,498.5,0.988
1789.634,499.5,0.987
1792.56,500.5,0.987
1795.506,501.5,0.986
1798.448,502.5,0.986
1801.38,503.5,0.985
1804.335,504.5,0.985
1807.293,505.5,0.984
1810.184,506.5,0.984
1813.126,507.5,0.983
1816.064,508.5,0.983
1819.003,509.5,0.982
1821.945,510.5,0.982
1824.898,511.5,0.981
1827.825,512.5,0.981
1830.773,513.5,0.98
1833.695,514.5,0.979
1836.624,515.5,0.979
1839.589,516.5,0.978
1842.55,517.5,0.977
1845.49,518.5,0.977
1848.416,519.5,0.976
1851.378,520.5,0.975
1854.309,521.5,0.974
1857.25,522.5,0.973
1860.214,523.5,0.972
1863.149,524.5,0.972
1866.108,525.5,0.971
1869.05,526.5,0.97
1871.979,527.5,0.969
1874.963,528.5,0.968
1877.882,529.5,0.967
1880.822,530.5,0.966
1883.789,531.5,0.965
1886.712,532.5,0.963
1889.668,533.5,0.962
1892.614,534.5,0.961
1895.586,535.5,0.96
1898.541,536.5,0.958
1901.46,537.5,0.958
1904.438,538.5,0.956
1907.366,539.5,0.955
1910.348,540.5,0.954
1913.304,541.5,0.952
1916.263,542.5,0.951
1919.209,543.5,0.949
1922.16,544.5,0.948
1925.122,545.5,0.946
1928.056,546.5,0.945
1931.017,547.5,0.943
1933.962,548.5,0.942
1936.915,549.5,0.94
1939.92,550.5,0.938
1942.883,551.5,0.937
1945.821,552.5,0.935
1948.802,553.5,0.933
1951.748,554.5,0.932
1954.685,555.5,0.93
1957.659,556.5,0.928
1960.64,557.5,0.926
1963.608,558.5,0.924
1966.552,559.5,0.923
1969.538,560.5,0.921
1972.5,561.5,0.919
1975.445,562.5,0.917
1978.407,563.5,0.915
1981.374,564.5,0.913
1984.317,565.5,0.911
1987.286,566.5,0.909
1990.24,567.5,0.907
1993.258,568.5,0.904
1996.203,569.5,0.902
1999.162,570.5,0.9
2002.139,571.5,0.897
2005.092,572.5,0.895
2008.07,573.5,0.892
2011.04,574.5,0.89
2013.988,575.5,0.887
2016.988,576.5,0.885
2019.964,577.5,0.882
2022.945,578.5,0.879
2025.887,579.5,0.876
2028.875,580.5,0.873
2031.849,581.5,0.871
2034.795,582.5,0.868
2037.787,583.5,0.864
2040.737,584.5,0.861
2043.726,585.5,0.858
2046.691,586.5,0.855
2049.697,587.5,0.851
2052.659,588.5,0.848
2055.632,589.5,0.844
2058.611,590.5,0.841
2061.576,591.5,0.837
2064.575,592.5,0.833
2067.538,593.5,0.83
2070.509,594.5,0.826
2073.52,595.5,0.822
2076.506,596.5,0.818
2079.462,597.5,0.814
2082.447,598.5,0.81
2085.428,599.5,0.806
2088.394,600.5,0.801
2091.408,601.5,0.797
2094.385,602.5,0.792
2097.394,603.5,0.787
2100.341,604.5,0.783
2103.344,605.5,0.778
2106.34,606.5,0.773
2109.305,607.5,0.768
2112.318,608.5,0.763
2115.276,609.5,0.758
2118.295,610.5,0.752
2121.249,611.5,0.748
2124.257,612.5,0.742
2127.243,613.5,0.737
2130.22,614.5,0.732
2133.209,615.5,0.726
2136.215,616.5,0.72
2139.202,617.5,0.715
2142.188,618.5,0.709
2145.161,619.5,0.703
2148.157,620.5,0.698
2151.162,621.5,0.692
2154.159,622.5,0.686
2157.153,623.5,0.679
2160.12,624.5,0.673
2163.16,625.5,0.667
2166.152,626.5,0.661
2169.13,627.5,0.655
2172.133,628.5,0.648
2175.135,629.5,0.642
2178.12,630.5,0.636
2181.11,631.5,0.629
2184.123,632.5,0.623
2187.12,633.5,0.616
2190.115,634.5,0.609
2193.113,635.5,0.602
2196.124,636.5,0.595
2199.098,637.5,0.588
2202.13,638.5,0.581
2205.073,639.5,0.574
2208.134,640.5,0.567
2211.095,641.5,0.559
2214.139,642.5,0.552
2217.137,643.5,0.544
2220.142,644.5,0.537
2223.166,645.5,0.529
2226.166,646.5,0.521
2229.186,647.5,0.512
2232.177,648.5,0.504
2235.217,649.5,0.495
2238.21,650.5,0.487
2241.235,651.5,0.478
2244.26,652.5,0.469
2247.248,653.5,0.461
2250.234,654.5,0.452
2253.26,655.5,0.443
2256.283,656.5,0.433
2259.265,657.5,0.424
2262.316,658.5,0.415
2265.336,659.5,0.406
2268.342,660.5,0.396
2271.354,661.5,0.387
2274.377,662.5,0.378
2277.383,663.5,0.369
2280.424,664.5,0.36
2283.418,665.5,0.351
2286.425,666.5,0.343
2289.457,667.5,0.335
2292.444,668.5,0.327
2295.469,669.5,0.32
2298.448,670.5,0.313
2301.466,671.5,0.306
2304.479,672.5,0.3
2307.455,673.5,0.295
2310.476,674.5,0.291
2313.466,675.5,0.286
2316.508,676.5,0.282
2319.534,677.5,0.279
2322.534,678.5,0.276
2325.519,679.5,0.274
2328.559,680.5,0.272
2331.526,681.5,0.271
2334.567,682.5,0.269
2337.571,683.5,0.268
2340.571,684.5,0.267
2343.596,685.5,0.266
2346.588,686.5,0.265
2349.634,687.5,0.265
2352.628,688.5,0.264
2355.642,689.5,0.263
2358.651,690.5,0.262
2361.668,691.5,0.261
2364.696,692.5,0.261
2367.704,693.5,0.26
2370.696,694.5,0.259
2373.704,695.5,0.259
2376.756,696.5,0.258
2379.765,697.5,0.258
2382.803,698.5,0.257
2385.791,699.5,0.256
2388.818,700.5,0.256
2391.84,701.5,0.255
2394.856,702.5,0.254
2397.88,703.5,0.254
2400.879,704.5,0.253
2403.914,705.5,0.253
2406.919,706.5,0.252
2409.952,707.5,0.251
2413.0,708.5,0.251
2416.027,709.5,0.25
2419.006,710.5,0.25
2422.031,711.5,0.249
2425.037,712.5,0.249
2428.089,713.5,0.248
2431.112,714.5,0.247
2434.125,715.5,0.247
2437.133,716.5,0.246
2440.188,717.5,0.246
2443.211,718.5,0.245
2446.246,719.5,0.245
2449.268,720.5,0.244
2452.284,721.5,0.244
2455.325,722.5,0.243
2458.356,723.5,0.242
2461.368,724.5,0.242
2464.382,725.5,0.241
2467.422,726.5,0.241
2470.441,727.5,0.24
2473.486,728.5,0.24
2476.494,729.5,0.239
2479.521,730.5,0.239
2482.553,731.5,0.238
2485.559,732.5,0.238
2488.6,733.5,0.237
2491.634,734.5,0.237
2494.702,735.5,0.236
2497.692,736.5,0.236
2500.738,737.5,0.235
2503.769,738.5,0.235
2506.812,739.5,0.235
2509.791,740.5,0.234
2512.836,741.5,0.234
2515.853,742.5,0.233
2518.894,743.5,0.233
2521.904,744.5,0.232
2524.911,745.5,0.232
2527.982,746.5,0.232
2531.021,747.5,0.231
2534.036,748.5,0.231
2537.075,749.5,0.231
2540.11,750.5,0.23
2543.116,751.5,0.23
2546.141,752.5,0.229
2549.18,753.5,0.229
2552.189,754.5,0.229
2555.197,755.5,0.228
2558.255,756.5,0.228
2561.29,757.5,0.228
2564.318,758.5,0.227
2567.333,759.5,0.227
2570.373,760.5,0.227
2573.409,761.5,0.226
2576.416,762.5,0.226
2579.447,763.5,0.226
2582.464,764.5,0.226
2585.502,765.5,0.225
2588.559,766.5,0.225
2591.6,767.5,0.225
2594.618,768.5,0.224
2597.629,769.5,0.224
2600.651,770.5,0.224
2603.686,771.5,0.223
2606.725,772.5,0.223
2609.74,773.5,0.223
2612.776,774.5,0.223
2615.801,775.5,0.222
2618.797,776.5,0.222
2621.829,777.5,0.222
2624.869,778.5,0.222
2627.905,779.5,0.221
2630.907,780.5,0.221
2633.946,781.5,0.221
2636.947,782.5,0.221
2639.967,783.5,0.22
2643.024,784.5,0.22
2646.033,785.5,0.22
2649.055,786.5,0.22
2652.091,787.5,0.219
2655.116,788.5,0.219
2658.134,789.5,0.219
2661.176,790.5,0.219
2664.167,791.5,0.219
2667.219,792.5,0.219
2670.211,793.5,0.218
2673.204,794.5,0.218
2676.26,795.5,0.218
2679.289,796.5,0.217
2682.317,797.5,0.217
2685.337,798.5,0.217
2688.358,799.5,0.217
2691.373,800.5,0.217
2694.391,801.5,0.216
2697.392,802.5,0.216
2700.418,803.5,0.216
2703.436,804.5,0.216
2706.458,805.5,0.216
2709.505,806.5,0.215
2712.533,807.5,0.215
2715.573,808.5,0.215
2718.594,809.5,0.215
2721.604,810.5,0.214
2724.605,811.5,0.214
2727.655,812.5,0.214
2730.65,813.5,0.214
2733.673,814.5,0.214
2736.71,815.5,0.214
2739.723,816.5,0.213
2742.743,817.5,0.213
2745.752,818.5,0.213
2748.76,819.5,0.213
2751.794,820.5,0.213
2754.813,821.5,0.213
2757.838,822.5,0.212
2760.868,823.5,0.212
2763.894,824.5,0.212
2766.896,825.5,0.212
2769.931,826.5,0.212
2772.943,827.5,0.211
2775.962,828.5,0.211
2778.971,829.5,0.211
2782.012,830.5,0.211
2785.041,831.5,0.211
2788.036,832.5,0.211
2791.051,833.5,0.21
2794.055,834.5,0.21
2797.093,835.5,0.21
2800.137,836.5,0.21
2803.124,837.5,0.21
2806.149,838.5,0.21
2809.161,839.5,0.209
2812.194,840.5,0.209
2815.184,841.5,0.209
2818.224,842.5,0.209
2821.248,843.5,0.209
2824.262,844.5,0.209
2827.277,845.5,0.209
2830.27,846.5,0.208
2833.306,847.5,0.208
2836.305,848.5,0.208
2839.358,849.5,0.208
2842.354,850.5,0.208
2845.35,851.5,0.207
2848.38,852.5,0.207
2851.389,853.5,0.207
2854.424,854.5,0.207
2857.43,855.5,0.207
2860.465,856.5,0.207
2863.481,857.5,0.207
2866.495,858.5,0.206
2869.522,859.5,0.206
2872.548,860.5,0.206
2875.548,861.5,0.206
2878.558,862.5,0.206
2881.586,863.5,0.206
2884.583,864.5,0.205
2887.595,865.5,0.205
2890.625,866.5,0.205
2893.646,867.5,0.205
2896.674,868.5,0.205
2899.686,869.5,0.205
2902.696,870.5,0.205
2905.716,871.5,0.205
2908.718,872.5,0.205
2911.752,873.5,0.204
2914.755,874.5,0.204
2917.775,875.5,0.204
2920.813,876.5,0.204
2923.817,877.5,0.204
2926.829,878.5,0.204
2929.838,879.5,0.203
2932.855,880.5,0.203
2935.904,881.5,0.203
2938.899,882.5,0.203
2941.899,883.5,0.203
2944.939,884.5,0.203
2947.929,885.5,0.203
2950.982,886.5,0.202
2954.003,887.5,0.202
2957.0,888.5,0.202
2959.991,889.5,0.202
2963.037,890.5,0.202
2966.069,891.5,0.202
2969.064,892.5,0.202
2972.096,893.5,0.202
2975.106,894.5,0.202
2978.12,895.5,0.201
2981.155,896.5,0.201
2984.197,897.5,0.201
2987.18,898.5,0.201
2990.193,899.5,0.201
2993.239,900.5,0.201
2996.243,901.5,0.201
2999.26,902.5,0.2
3002.289,903.5,0.2
3005.293,904.5,0.2
3008.313,905.5,0.2
3011.333,906.5,0.2
3014.361,907.5,0.2
3017.381,908.5,0.2
3020.379,909.5,0.199
3023.393,910.5,0.199
3026.426,911.5,0.199
3029.429,912.5,0.199
3032.446,913.5,0.199
3035.467,914.5,0.199
3038.471,915.5,0.199
3041.49,916.5,0.199
3044.497,917.5,0.199
3047.534,918.5,0.199
3050.552,919.5,0.199
3053.559,920.5,0.199
3056.571,921.5,0.198
3059.586,922.5,0.198
3062.623,923.5,0.198
3065.622,924.5,0.198
3068.64,925.5,0.198
3071.642,926.5,0.198
3074.656,927.5,0.198
3077.663,928.5,0.198
3080.684,929.5,0.197
3083.706,930.5,0.197
3086.719,931.5,0.197
3089.734,932.5,0.197
3092.734,933.5,0.197
3095.765,934.5,0.197
3098.785,935.5,0.197
3101.823,936.5,0.197
3104.829,937.5,0.197
3107.853,938.5,0.197
3110.864,939.5,0.197
3113.891,940.5,0.197
3116.881,941.5,0.197
3119.927,942.5,0.196
3122.925,943.5,0.196
3125.927,944.5,0.196
3128.943,945.5,0.196
3131.97,946.5,0.196
3134.997,947.5,0.196
3138.02,948.5,0.196
3141.012,949.5,0.196
3144.052,950.5,0.196
3147.091,951.5,0.196
3150.08,952.5,0.196
3153.128,953.5,0.196
3156.123,954.5,0.196
3159.159,955.5,0.196
3162.176,956.5,0.196
3165.173,957.5,0.195
3168.203,958.5,0.195
3171.217,959.5,0.195
3174.23,960.5,0.195
3177.242,961.5,0.195
3180.271,962.5,0.195
3183.301,963.5,0.195
3186.317,964.5,0.195
3189.35,965.5,0.195
3192.362,966.5,0.195
3195.383,967.5,0.195
3198.395,968.5,0.195
3201.409,969.5,0.194
3204.423,970.5,0.194
3207.452,971.5,0.194
3210.469,972.5,0.194
3213.471,973.5,0.194
3216.511,974.5,0.194
3219.5,975.5,0.194
3222.514,976.5,0.194
3225.533,977.5,0.194
3228.54,978.5,0.194
3231.542,979.5,0.194
3234.537,980.5,0.194
3237.551,981.5,0.194
3240.577,982.5,0.194
3243.596,983.5,0.194
3246.644,984.5,0.194
3249.62,985.5,0.193
3252.628,986.5,0.193
3255.635,987.5,0.193
3258.659,988.5,0.193
3261.658,989.5,0.193
3264.667,990.5,0.193
3267.697,991.5,0.193
3270.69,992.5,0.193
3273.722,993.5,0.193
3276.737,994.5,0.193
3279.755,995.5,0.193
3282.763,996.5,0.193
3285.773,997.5,0.193
3288.77,998.5,0.193
3291.787,999.5,0.193
3294.776,1000.5,0.193
3297.854,1001.5,0.193
3300.848,1002.5,0.192
3303.835,1003.5,0.192
3306.855,1004.5,0.192
3309.855,1005.5,0.192
3312.87,1006.5,0.192
3315.866,1007.5,0.192
3318.881,1008.5,0.192
3321.889,1009.5,0.192
3324.893,1010.5,0.192
3327.925,1011.5,0.192
3330.915,1012.5,0.192
3333.943,1013.5,0.192
3336.952,1014.5,0.191
3339.963,1015.5,0.191
3342.967,1016.5,0.191
3345.997,1017.5,0.191
3348.994,1018.5,0.191
3352.006,1019.5,0.191
3355.003,1020.5,0.191
3358.015,1021.5,0.191
3361.041,1022.5,0.191
3364.057,1023.5,0.191
3367.057,1024.5,0.191
3370.081,1025.5,0.191
3373.075,1026.5,0.191
3376.089,1027.5,0.191
3379.111,1028.5,0.191
3382.107,1029.5,0.191
3385.085,1030.5,0.191
3388.097,1031.5,0.191
3391.11,1032.5,0.191
3394.087,1033.5,0.19
3397.103,1034.5,0.19
3400.128,1035.5,0.19
3403.157,1036.5,0.19
3406.104,1037.5,0.19
3409.158,1038.5,0.19
3412.129,1039.5,0.19
3415.124,1040.5,0.19
3418.14,1041.5,0.19
3421.148,1042.5,0.19
3424.131,1043.5,0.19
3427.157,1044.5,0.19
3430.162,1045.5,0.19
3433.146,1046.5,0.19
3436.149,1047.5,0.19
3439.177,1048.5,0.19
3442.157,1049.5,0.19
3445.157,1050.5,0.19
3448.173,1051.5,0.189
3451.171,1052.5,0.189
3454.169,1053.5,0.189
3457.195,1054.5,0.189
3460.187,1055.5,0.189
3463.195,1056.5,0.189
3466.195,1057.5,0.189
3469.213,1058.5,0.189
3472.24,1059.5,0.189
3475.228,1060.5,0.189
3478.217,1061.5,0.189
3481.219,1062.5,0.189
3484.242,1063.5,0.189
3487.248,1064.5,0.189
3490.217,1065.5,0.189
3495.15,1066.5,0.188
3500.11,1067.5,0.188
3510.0,1068.988,0.188
3530.0,1070.673,0.188
3550.0,1071.482,0.188
3570.0,1071.878,0.187
3590.0,1072.1,0.187
3610.0,1072.237,0.187
3630.0,1072.335,0.186
3650.0,1072.397,0.186
3670.0,1072.451,0.186
3690.0,1072.5,0.186
3710.0,1072.529,0.186
3730.0,1072.556,0.186
3750.0,1072.589,0.186
3770.0,1072.595,0.185
3790.0,1072.604,0.185
3810.0,1072.616,0.185