File: Wood/Calibration_Data/TUBS/TUBS_Wood_TGA_N2_50K_R15.csv
Time (s),Temperature (K),Mass (mg)
0.0,305.032,0.51
31.0,304.886,0.508
89.0,304.727,0.506
274.0,304.527,0.504
590.0,304.438,0.504
603.0,304.435,0.504
694.0,304.435,0.504
771.0,304.442,0.504
848.0,304.407,0.504
1006.0,304.424,0.504
1032.0,304.41,0.504
1204.21,305.0,0.502
1206.625,306.0,0.501
1208.385,307.0,0.501
1210.04,308.0,0.501
1211.492,309.0,0.502
1212.799,310.0,0.504
1214.085,311.0,0.504
1215.32,312.0,0.505
1216.546,313.0,0.506
1217.748,314.0,0.506
1218.919,315.0,0.506
1220.121,316.0,0.506
1221.292,317.0,0.506
1222.469,318.0,0.506
1223.649,319.0,0.506
1224.827,320.0,0.506
1225.977,321.0,0.506
1227.164,322.0,0.505
1228.331,323.0,0.505
1229.509,324.0,0.504
1230.683,325.0,0.504
1231.843,326.0,0.504
1233.036,327.0,0.504
1234.194,328.0,0.503
1235.377,329.0,0.503
1236.554,330.0,0.503
1237.742,331.0,0.503
1238.919,332.0,0.502
1240.098,333.0,0.502
1241.284,334.0,0.502
1242.468,335.0,0.502
1243.641,336.0,0.502
1244.84,337.0,0.502
1246.025,338.0,0.501
1247.187,339.0,0.501
1248.385,340.0,0.501
1249.584,341.0,0.501
1250.77,342.0,0.501
1251.968,343.0,0.501
1253.149,344.0,0.501
1254.337,345.0,0.501
1255.53,346.0,0.5
1256.722,347.0,0.5
1257.917,348.0,0.5
1259.12,349.0,0.5
1260.317,350.0,0.5
1261.512,351.0,0.5
1262.704,352.0,0.5
1263.907,353.0,0.5
1265.097,354.0,0.499
1266.286,355.0,0.499
1267.486,356.0,0.499
1268.679,357.0,0.499
1269.877,358.0,0.499
1271.06,359.0,0.499
1272.254,360.0,0.499
1273.454,361.0,0.499
1274.655,362.0,0.499
1275.858,363.0,0.498
1277.048,364.0,0.498
1278.246,365.0,0.498
1279.442,366.0,0.498
1280.641,367.0,0.498
1281.83,368.0,0.498
1283.04,369.0,0.498
1284.245,370.0,0.498
1285.428,371.0,0.498
1286.636,372.0,0.498
1287.837,373.0,0.498
1289.028,374.0,0.498
1290.225,375.0,0.498
1291.422,376.0,0.498
1292.612,377.0,0.498
1293.806,378.0,0.497
1294.989,379.0,0.497
1296.209,380.0,0.497
1297.404,381.0,0.497
1298.6,382.0,0.497
1299.805,383.0,0.497
1300.993,384.0,0.497
1302.203,385.0,0.497
1303.39,386.0,0.497
1304.574,387.0,0.497
1305.772,388.0,0.497
1306.985,389.0,0.497
1308.163,390.0,0.497
1309.369,391.0,0.497
1310.56,392.0,0.497
1311.742,393.0,0.497
1312.94,394.0,0.497
1314.126,395.0,0.497
1315.324,396.0,0.497
1316.512,397.0,0.497
1317.703,398.0,0.497
1318.89,399.0,0.497
1320.092,400.0,0.497
1321.284,401.0,0.497
1322.472,402.0,0.497
1323.665,403.0,0.497
1324.852,404.0,0.497
1326.041,405.0,0.497
1327.227,406.0,0.497
1328.417,407.0,0.497
1329.601,408.0,0.497
1330.786,409.0,0.497
1331.977,410.0,0.497
1333.176,411.0,0.497
1334.356,412.0,0.497
1335.539,413.0,0.497
1336.721,414.0,0.497
1337.925,415.0,0.497
1339.11,416.0,0.497
1340.292,417.0,0.497
1341.48,418.0,0.497
1342.665,419.0,0.497
1343.86,420.0,0.497
1345.035,421.0,0.497
1346.214,422.0,0.497
1347.402,423.0,0.497
1348.584,424.0,0.497
1349.762,425.0,0.497
1350.949,426.0,0.497
1352.118,427.0,0.497
1353.313,428.0,0.497
1354.48,429.0,0.497
1355.656,430.0,0.497
1356.842,431.0,0.497
1358.021,432.0,0.496
1359.194,433.0,0.496
1360.371,434.0,0.496
1361.548,435.0,0.496
1362.732,436.0,0.496
1363.903,437.0,0.496
1365.091,438.0,0.496
1366.276,439.0,0.496
1367.461,440.0,0.496
1368.631,441.0,0.496
1369.8,442.0,0.496
1370.982,443.0,0.496
1372.16,444.0,0.496
1373.337,445.0,0.496
1374.499,446.0,0.496
1375.669,447.0,0.495
1376.852,448.0,0.495
1378.03,449.0,0.495
1379.207,450.0,0.495
1380.371,451.0,0.495
1381.538,452.0,0.495
1382.704,453.0,0.495
1383.885,454.0,0.495
1385.048,455.0,0.495
1386.217,456.0,0.495
1387.395,457.0,0.495
1388.552,458.0,0.494
1389.714,459.0,0.494
1390.901,460.0,0.494
1392.078,461.0,0.494
1393.225,462.0,0.494
1394.398,463.0,0.494
1395.558,464.0,0.494
1396.731,465.0,0.494
1397.908,466.0,0.493
1399.073,467.0,0.493
1400.236,468.0,0.493
1401.404,469.0,0.493
1402.564,470.0,0.493
1403.731,471.0,0.493
1404.898,472.0,0.492
1406.067,473.0,0.492
1407.227,474.0,0.492
1408.39,475.0,0.492
1409.566,476.0,0.492
1410.723,477.0,0.492
1411.896,478.0,0.491
1413.056,479.0,0.491
1414.22,480.0,0.491
1415.387,481.0,0.491
1416.547,482.0,0.491
1417.712,483.0,0.49
1418.875,484.0,0.49
1420.029,485.0,0.49
1421.192,486.0,0.49
1422.359,487.0,0.49
1423.521,488.0,0.489
1424.686,489.0,0.489
1425.852,490.0,0.489
1427.009,491.0,0.489
1428.168,492.0,0.488
1429.329,493.0,0.488
1430.491,494.0,0.488
1431.658,495.0,0.488
1432.821,496.0,0.488
1433.968,497.0,0.487
1435.145,498.0,0.487
1436.311,499.0,0.487
1437.469,500.0,0.487
1438.623,501.0,0.486
1439.777,502.0,0.486
1440.942,503.0,0.486
1442.116,504.0,0.486
1443.282,505.0,0.485
1444.433,506.0,0.485
1445.586,507.0,0.485
1446.75,508.0,0.485
1447.913,509.0,0.484
1449.077,510.0,0.484
1450.236,511.0,0.484
1451.41,512.0,0.483
1452.571,513.0,0.483
1453.732,514.0,0.483
1454.884,515.0,0.482
1456.046,516.0,0.482
1457.205,517.0,0.482
1458.371,518.0,0.482
1459.531,519.0,0.481
1460.689,520.0,0.481
1461.856,521.0,0.48
1463.016,522.0,0.48
1464.185,523.0,0.48
1465.352,524.0,0.479
1466.513,525.0,0.479
1467.667,526.0,0.478
1468.848,527.0,0.478
1470.007,528.0,0.477
1471.166,529.0,0.477
1472.322,530.0,0.477
1473.478,531.0,0.476
1474.649,532.0,0.475
1475.809,533.0,0.475
1476.98,534.0,0.475
1478.139,535.0,0.474
1479.301,536.0,0.474
1480.46,537.0,0.473
1481.627,538.0,0.472
1482.776,539.0,0.472
1483.944,540.0,0.471
1485.125,541.0,0.471
1486.28,542.0,0.47
1487.448,543.0,0.47
1488.609,544.0,0.469
1489.771,545.0,0.468
1490.94,546.0,0.468
1492.087,547.0,0.467
1493.266,548.0,0.466
1494.437,549.0,0.466
1495.597,550.0,0.465
1496.76,551.0,0.464
1497.924,552.0,0.463
1499.096,553.0,0.463
1500.25,554.0,0.462
1501.423,555.0,0.462
1502.588,556.0,0.46
1503.747,557.0,0.46
1504.924,558.0,0.459
1506.096,559.0,0.458
1507.25,560.0,0.458
1508.41,561.0,0.457
1509.582,562.0,0.456
1510.749,563.0,0.455
1511.916,564.0,0.454
1513.081,565.0,0.454
1514.244,566.0,0.453
1515.415,567.0,0.452
1516.589,568.0,0.451
1517.758,569.0,0.45
1518.928,570.0,0.449
1520.094,571.0,0.448
1521.265,572.0,0.448
1522.427,573.0,0.447
1523.603,574.0,0.445
1524.766,575.0,0.445
1525.948,576.0,0.444
1527.114,577.0,0.443
1528.285,578.0,0.442
1529.445,579.0,0.441
1530.616,580.0,0.44
1531.789,581.0,0.439
1532.961,582.0,0.438
1534.128,583.0,0.437
1535.296,584.0,0.436
1536.47,585.0,0.435
1537.642,586.0,0.433
1538.81,587.0,0.432
1539.982,588.0,0.432
1541.152,589.0,0.431
1542.33,590.0,0.43
1543.504,591.0,0.428
1544.684,592.0,0.427
1545.868,593.0,0.426
1547.03,594.0,0.424
1548.204,595.0,0.423
1549.385,596.0,0.422
1550.558,597.0,0.42
1551.732,598.0,0.419
1552.91,599.0,0.418
1554.086,600.0,0.416
1555.261,601.0,0.415
1556.438,602.0,0.414
1557.613,603.0,0.412
1558.791,604.0,0.41
1559.975,605.0,0.409
1561.147,606.0,0.407
1562.319,607.0,0.406
1563.501,608.0,0.404
1564.69,609.0,0.402
1565.872,610.0,0.4
1567.041,611.0,0.399
1568.22,612.0,0.398
1569.409,613.0,0.395
1570.591,614.0,0.393
1571.764,615.0,0.391
1572.95,616.0,0.39
1574.14,617.0,0.388
1575.325,618.0,0.386
1576.504,619.0,0.384
1577.683,620.0,0.382
1578.87,621.0,0.379
1580.062,622.0,0.378
1581.247,623.0,0.376
1582.424,624.0,0.373
1583.609,625.0,0.371
1584.797,626.0,0.368
1585.988,627.0,0.366
1587.169,628.0,0.364
1588.354,629.0,0.361
1589.54,630.0,0.359
1590.732,631.0,0.357
1591.907,632.0,0.354
1593.101,633.0,0.352
1594.286,634.0,0.349
1595.48,635.0,0.347
1596.675,636.0,0.344
1597.867,637.0,0.341
1599.046,638.0,0.339
1600.228,639.0,0.337
1601.415,640.0,0.334
1602.605,641.0,0.331
1603.799,642.0,0.328
1604.996,643.0,0.325
1606.195,644.0,0.323
1607.376,645.0,0.32
1608.575,646.0,0.317
1609.764,647.0,0.314
1610.954,648.0,0.311
1612.149,649.0,0.309
1613.338,650.0,0.305
1614.535,651.0,0.302
1615.727,652.0,0.3
1616.921,653.0,0.296
1618.113,654.0,0.294
1619.315,655.0,0.29
1620.514,656.0,0.287
1621.721,657.0,0.284
1622.908,658.0,0.28
1624.103,659.0,0.278
1625.309,660.0,0.274
1626.501,661.0,0.27
1627.703,662.0,0.268
1628.905,663.0,0.264
1630.106,664.0,0.261
1631.29,665.0,0.257
1632.49,666.0,0.254
1633.695,667.0,0.25
1634.9,668.0,0.246
1636.105,669.0,0.243
1637.303,670.0,0.239
1638.504,671.0,0.235
1639.714,672.0,0.231
1640.917,673.0,0.227
1642.119,674.0,0.223
1643.314,675.0,0.219
1644.52,676.0,0.215
1645.723,677.0,0.211
1646.928,678.0,0.206
1648.134,679.0,0.202
1649.33,680.0,0.198
1650.538,681.0,0.194
1651.75,682.0,0.19
1652.954,683.0,0.185
1654.16,684.0,0.181
1655.367,685.0,0.177
1656.574,686.0,0.173
1657.783,687.0,0.169
1658.981,688.0,0.165
1660.178,689.0,0.161
1661.385,690.0,0.158
1662.59,691.0,0.154
1663.789,692.0,0.151
1664.99,693.0,0.148
1666.204,694.0,0.145
1667.407,695.0,0.142
1668.613,696.0,0.14
1669.819,697.0,0.137
1671.032,698.0,0.135
1672.229,699.0,0.133
1673.439,700.0,0.132
1674.654,701.0,0.13
1675.852,702.0,0.129
1677.057,703.0,0.128
1678.265,704.0,0.127
1679.476,705.0,0.126
1680.686,706.0,0.125
1681.897,707.0,0.124
1683.106,708.0,0.124
1684.319,709.0,0.123
1685.522,710.0,0.123
1686.731,711.0,0.122
1687.945,712.0,0.122
1689.149,713.0,0.122
1690.35,714.0,0.121
1691.567,715.0,0.121
1692.783,716.0,0.121
1693.99,717.0,0.12
1695.201,718.0,0.12
1696.419,719.0,0.12
1697.634,720.0,0.119
1698.837,721.0,0.119
1700.047,722.0,0.119
1701.258,723.0,0.119
1702.463,724.0,0.118
1703.674,725.0,0.118
1704.883,726.0,0.118
1706.098,727.0,0.117
1707.32,728.0,0.117
1708.532,729.0,0.117
1709.744,730.0,0.116
1710.953,731.0,0.116
1712.166,732.0,0.116
1713.377,733.0,0.116
1714.587,734.0,0.115
1715.798,735.0,0.115
1717.007,736.0,0.115
1718.213,737.0,0.115
1719.434,738.0,0.114
1720.647,739.0,0.114
1721.86,740.0,0.114
1723.071,741.0,0.114
1724.291,742.0,0.114
1725.508,743.0,0.113
1726.723,744.0,0.113
1727.938,745.0,0.113
1729.149,746.0,0.113
1730.365,747.0,0.112
1731.581,748.0,0.112
1732.789,749.0,0.112
1734.006,750.0,0.112
1735.218,751.0,0.111
1736.436,752.0,0.111
1737.648,753.0,0.111
1738.871,754.0,0.111
1740.08,755.0,0.111
1741.298,756.0,0.11
1742.516,757.0,0.11
1743.731,758.0,0.11
1744.948,759.0,0.11
1746.153,760.0,0.109
1747.369,761.0,0.109
1748.582,762.0,0.109
1749.794,763.0,0.109
1751.005,764.0,0.109
1752.23,765.0,0.109
1753.449,766.0,0.108
1754.665,767.0,0.108
1755.875,768.0,0.108
1757.103,769.0,0.108
1758.305,770.0,0.108
1759.521,771.0,0.107
1760.742,772.0,0.107
1761.955,773.0,0.107
1763.168,774.0,0.107
1764.386,775.0,0.107
1765.602,776.0,0.107
1766.822,777.0,0.107
1768.043,778.0,0.106
1769.256,779.0,0.106
1770.471,780.0,0.106
1771.684,781.0,0.106
1772.902,782.0,0.106
1774.115,783.0,0.106
1775.316,784.0,0.106
1776.531,785.0,0.105
1777.75,786.0,0.105
1778.972,787.0,0.105
1780.193,788.0,0.105
1781.405,789.0,0.105
1782.62,790.0,0.105
1783.834,791.0,0.105
1785.056,792.0,0.105
1786.272,793.0,0.105
1787.491,794.0,0.104
1788.701,795.0,0.104
1789.925,796.0,0.104
1791.137,797.0,0.104
1792.361,798.0,0.104
1793.574,799.0,0.104
1794.787,800.0,0.104
1796.006,801.0,0.104
1797.21,802.0,0.104
1798.436,803.0,0.103
1799.654,804.0,0.103
1800.863,805.0,0.103
1802.077,806.0,0.103
1803.296,807.0,0.103
1804.501,808.0,0.103
1805.718,809.0,0.103
1806.934,810.0,0.103
1808.156,811.0,0.103
1809.374,812.0,0.103
1810.59,813.0,0.102
1811.796,814.0,0.102
1813.013,815.0,0.102
1814.232,816.0,0.102
1815.455,817.0,0.102
1816.667,818.0,0.102
1817.882,819.0,0.102
1819.105,820.0,0.102
1820.313,821.0,0.102
1821.537,822.0,0.102
1822.747,823.0,0.102
1823.958,824.0,0.102
1825.177,825.0,0.101
1826.397,826.0,0.101
1827.608,827.0,0.101
1828.82,828.0,0.101
1830.025,829.0,0.101
1831.249,830.0,0.101
1832.463,831.0,0.101
1833.684,832.0,0.101
1834.893,833.0,0.101
1836.117,834.0,0.101
1837.336,835.0,0.101
1838.548,836.0,0.101
1839.76,837.0,0.101
1840.979,838.0,0.101
1842.198,839.0,0.1
1843.409,840.0,0.1
1844.625,841.0,0.1
1845.839,842.0,0.1
1847.053,843.0,0.1
1848.265,844.0,0.1
1849.483,845.0,0.1
1850.701,846.0,0.1
1851.921,847.0,0.1
1853.127,848.0,0.1
1854.353,849.0,0.1
1855.564,850.0,0.099
1856.78,851.0,0.099
1858.0,852.0,0.099
1859.216,853.0,0.099
1860.427,854.0,0.099
1861.633,855.0,0.099
1862.849,856.0,0.099
1864.076,857.0,0.099
1865.282,858.0,0.099
1866.498,859.0,0.099
1867.712,860.0,0.099
1868.933,861.0,0.099
1870.149,862.0,0.099
1871.356,863.0,0.099
1872.575,864.0,0.099
1873.784,865.0,0.098
1875.0,866.0,0.098
1876.213,867.0,0.098
1877.426,868.0,0.098
1878.641,869.0,0.098
1879.863,870.0,0.098
1881.077,871.0,0.098
1882.282,872.0,0.098
1883.508,873.0,0.098
1884.728,874.0,0.098
1885.936,875.0,0.098
1887.149,876.0,0.098
1888.366,877.0,0.097
1889.58,878.0,0.097
1890.8,879.0,0.097
1892.005,880.0,0.097
1893.215,881.0,0.097
1894.435,882.0,0.097
1895.646,883.0,0.097
1896.853,884.0,0.097
1898.073,885.0,0.097
1899.286,886.0,0.097
1900.493,887.0,0.097
1901.708,888.0,0.097
1902.918,889.0,0.097
1904.137,890.0,0.097
1905.352,891.0,0.097
1906.566,892.0,0.097
1907.784,893.0,0.096
1908.987,894.0,0.096
1910.203,895.0,0.096
1911.411,896.0,0.096
1912.624,897.0,0.096
1913.84,898.0,0.096
1915.045,899.0,0.096
1916.266,900.0,0.096
1917.481,901.0,0.096
1918.688,902.0,0.096
1919.909,903.0,0.096
1921.12,904.0,0.096
1922.324,905.0,0.096
1923.537,906.0,0.096
1924.748,907.0,0.096
1925.952,908.0,0.096
1927.173,909.0,0.096
1928.385,910.0,0.096
1929.594,911.0,0.095
1930.808,912.0,0.095
1932.029,913.0,0.095
1933.24,914.0,0.095
1934.45,915.0,0.095
1935.657,916.0,0.095
1936.866,917.0,0.095
1938.076,918.0,0.095
1939.293,919.0,0.095
1940.503,920.0,0.095
1941.72,921.0,0.095
1942.929,922.0,0.095
1944.139,923.0,0.095
1945.348,924.0,0.095
1946.562,925.0,0.095
1947.768,926.0,0.095
1948.976,927.0,0.095
1950.197,928.0,0.094
1951.401,929.0,0.094
1952.616,930.0,0.094
1953.825,931.0,0.094
1955.031,932.0,0.094
1956.248,933.0,0.094
1957.45,934.0,0.094
1958.662,935.0,0.094
1959.881,936.0,0.094
1961.089,937.0,0.094
1962.301,938.0,0.094
1963.517,939.0,0.094
1964.725,940.0,0.094
1965.938,941.0,0.094
1967.147,942.0,0.094
1968.364,943.0,0.094
1969.569,944.0,0.094
1970.781,945.0,0.094
1971.977,946.0,0.094
1973.192,947.0,0.094
1974.403,948.0,0.094
1975.608,949.0,0.094
1976.821,950.0,0.093
1978.027,951.0,0.093
1979.245,952.0,0.093
1980.459,953.0,0.093
1981.672,954.0,0.093
1982.878,955.0,0.093
1984.099,956.0,0.093
1985.294,957.0,0.093
1986.509,958.0,0.093
1987.719,959.0,0.093
1988.926,960.0,0.093
1990.148,961.0,0.093
1991.345,962.0,0.093
1992.561,963.0,0.093
1993.775,964.0,0.093
1994.983,965.0,0.093
1996.203,966.0,0.093
1997.408,967.0,0.093
1998.625,968.0,0.093
1999.831,969.0,0.093
2001.034,970.0,0.093
2002.252,971.0,0.093
2003.462,972.0,0.093
2004.673,973.0,0.093
2005.89,974.0,0.093
2007.091,975.0,0.093
2008.298,976.0,0.092
2009.51,977.0,0.092
2010.723,978.0,0.092
2011.932,979.0,0.092
2013.14,980.0,0.092
2014.35,981.0,0.092
2015.556,982.0,0.092
2016.763,983.0,0.092
2017.983,984.0,0.092
2019.193,985.0,0.092
2020.402,986.0,0.092
2021.619,987.0,0.092
2022.824,988.0,0.092
2024.025,989.0,0.092
2025.237,990.0,0.092
2026.457,991.0,0.092
2027.665,992.0,0.092
2028.875,993.0,0.092
2030.09,994.0,0.092
2031.288,995.0,0.092
2032.493,996.0,0.092
2033.704,997.0,0.092
2034.916,998.0,0.092
2036.114,999.0,0.092
2037.329,1000.0,0.092
2038.533,1001.0,0.092
2039.742,1002.0,0.092
2040.955,1003.0,0.091
2042.162,1004.0,0.091
2043.359,1005.0,0.091
2044.573,1006.0,0.091
2045.791,1007.0,0.091
2046.995,1008.0,0.091
2048.209,1009.0,0.091
2049.406,1010.0,0.091
2050.613,1011.0,0.091
2051.826,1012.0,0.091
2053.036,1013.0,0.091
2054.242,1014.0,0.091
2055.449,1015.0,0.091
2056.661,1016.0,0.091
2057.87,1017.0,0.091
2059.068,1018.0,0.091
2060.277,1019.0,0.091
2061.483,1020.0,0.091
2062.691,1021.0,0.091
2063.904,1022.0,0.091
2065.1,1023.0,0.091
2066.306,1024.0,0.091
2067.513,1025.0,0.091
2068.72,1026.0,0.091
2069.915,1027.0,0.091
2071.134,1028.0,0.091
2072.345,1029.0,0.091
2073.546,1030.0,0.09
2074.749,1031.0,0.09
2075.956,1032.0,0.09
2077.152,1033.0,0.09
2078.358,1034.0,0.09
2079.564,1035.0,0.09
2080.775,1036.0,0.09
2081.984,1037.0,0.09
2083.176,1038.0,0.09
2084.378,1039.0,0.09
2085.586,1040.0,0.09
2086.783,1041.0,0.09
2087.999,1042.0,0.09
2089.201,1043.0,0.09
2090.403,1044.0,0.09
2091.607,1045.0,0.09
2092.813,1046.0,0.09
2094.011,1047.0,0.09
2095.216,1048.0,0.09
2096.417,1049.0,0.09
2097.621,1050.0,0.09
2098.82,1051.0,0.09
2100.019,1052.0,0.09
2101.218,1053.0,0.09
2102.424,1054.0,0.09
2103.576,1055.0,0.09
2105.298,1056.0,0.09
2107.155,1057.0,0.09
2108.925,1058.0,0.09
2110.824,1059.0,0.09
2112.891,1060.0,0.09
2115.198,1061.0,0.09
2117.76,1062.0,0.09
2120.613,1063.0,0.089
2134.0,1066.329,0.089
2154.0,1068.921,0.089
2174.0,1070.197,0.089
2194.0,1070.893,0.089
2214.0,1071.317,0.089
2234.0,1071.609,0.089
2254.0,1071.817,0.089
2274.0,1071.982,0.089
2294.0,1072.105,0.089
2314.0,1072.191,0.088
2334.0,1072.27,0.088
2354.0,1072.323,0.088
2374.0,1072.356,0.088
2394.0,1072.403,0.088
2414.0,1072.421,0.088
2424.0,1072.434,0.088