File: Wood/Calibration_Data/TUBS/TUBS_Wood_MCC_N2_30K_R2.csv
Time (s),Temperature (K),HRR (W/g)
2.7,474.0,-0.05
3.7,474.5,-0.46
4.6,475.0,-0.14
5.5,475.5,-0.35
6.6,476.0,0.4
7.6,476.5,-0.08
8.4,477.0,0.83
9.6,477.5,0.7
10.6,478.0,-0.99
11.5,478.5,0.03
12.5,479.0,-0.33
13.5,479.5,-0.17
14.5,480.0,-0.42
15.4,480.5,-0.83
16.5,481.0,-0.09
17.6,481.5,-0.43
18.5,482.0,-0.89
19.5,482.5,-0.26
20.6,483.0,-0.5
21.4,483.5,-1.2
22.6,484.0,-1.82
23.6,484.5,-0.87
24.7,485.0,0.19
25.5,485.5,-0.79
26.7,486.0,-0.3
27.6,486.5,-0.71
28.6,487.0,-0.45
29.6,487.5,0.23
30.6,488.0,-0.75
31.5,488.5,0.04
32.5,489.0,0.08
33.7,489.5,-0.52
34.6,490.0,-0.32
35.6,490.5,-0.76
36.7,491.0,-1.1
37.7,491.5,-1.97
38.6,492.0,-0.93
39.7,492.5,-1.84
40.7,493.0,-0.71
41.6,493.5,-1.03
42.8,494.0,-0.09
43.6,494.5,-0.29
44.7,495.0,1.34
45.6,495.5,1.67
46.6,496.0,1.46
47.6,496.5,1.36
48.5,497.0,2.82
49.6,497.5,1.86
50.5,498.0,3.54
51.6,498.5,3.35
52.6,499.0,2.4
53.4,499.5,3.86
54.5,500.0,3.83
55.5,500.5,2.89
56.5,501.0,2.12
57.5,501.5,3.56
58.5,502.0,3.25
59.5,502.5,2.4
60.5,503.0,2.15
61.4,503.5,2.96
62.5,504.0,2.27
63.5,504.5,3.02
64.4,505.0,2.64
65.3,505.5,1.72
66.5,506.0,3.56
67.4,506.5,2.66
68.4,507.0,2.98
69.4,507.5,3.02
70.4,508.0,3.14
71.4,508.5,2.81
72.3,509.0,3.01
73.4,509.5,2.52
74.4,510.0,3.5
75.3,510.5,2.77
76.4,511.0,3.2
77.3,511.5,2.28
78.3,512.0,2.85
79.3,512.5,2.06
80.4,513.0,1.8
81.3,513.5,3.16
82.1,514.0,3.98
83.0,514.5,2.78
84.2,515.0,3.16
85.1,515.5,4.23
86.2,516.0,4.19
87.0,516.5,2.77
88.0,517.0,4.61
89.0,517.5,4.69
90.2,518.0,3.88
91.1,518.5,5.07
92.0,519.0,5.34
93.0,519.5,5.07
94.1,520.0,5.24
95.1,520.5,6.57
96.0,521.0,5.59
97.1,521.5,6.17
98.0,522.0,6.15
99.0,522.5,5.39
100.0,523.0,6.22
101.1,523.5,6.58
102.0,524.0,7.14
103.0,524.5,8.87
104.0,525.0,6.72
105.0,525.5,6.72
106.0,526.0,7.61
106.9,526.5,7.27
107.9,527.0,8.31
108.8,527.5,7.58
109.8,528.0,8.31
110.9,528.5,8.86
111.9,529.0,8.08
112.8,529.5,8.69
113.9,530.0,9.21
115.0,530.5,8.51
115.8,531.0,9.34
116.8,531.5,9.51
117.8,532.0,9.13
118.7,532.5,9.95
119.7,533.0,10.28
120.6,533.5,10.92
121.6,534.0,9.77
122.6,534.5,11.86
123.7,535.0,10.99
124.7,535.5,12.1
125.5,536.0,10.99
126.7,536.5,11.92
127.5,537.0,12.48
128.6,537.5,12.69
129.4,538.0,12.02
130.5,538.5,12.39
131.5,539.0,11.58
132.4,539.5,11.92
133.4,540.0,10.71
134.3,540.5,11.76
135.4,541.0,11.21
136.3,541.5,10.48
137.3,542.0,11.25
138.5,542.5,10.88
139.3,543.0,11.37
140.3,543.5,11.6
141.3,544.0,11.84
142.3,544.5,11.41
143.2,545.0,11.53
144.3,545.5,11.36
145.3,546.0,12.1
146.3,546.5,11.25
147.3,547.0,11.83
148.3,547.5,11.94
149.2,548.0,12.01
150.3,548.5,11.67
151.2,549.0,11.69
152.2,549.5,12.47
153.1,550.0,12.13
154.1,550.5,12.58
155.2,551.0,11.66
156.2,551.5,13.4
157.1,552.0,13.53
158.1,552.5,13.72
159.0,553.0,14.28
160.0,553.5,13.79
161.0,554.0,13.93
162.0,554.5,15.04
163.0,555.0,14.95
164.1,555.5,15.66
165.0,556.0,13.67
166.0,556.5,14.46
167.0,557.0,16.31
167.9,557.5,16.48
168.9,558.0,16.84
169.9,558.5,17.02
171.0,559.0,17.73
171.9,559.5,17.37
172.8,560.0,17.55
173.9,560.5,18.02
174.9,561.0,17.57
175.9,561.5,17.8
177.0,562.0,18.86
177.9,562.5,18.51
178.8,563.0,19.16
179.8,563.5,20.02
180.8,564.0,19.22
181.9,564.5,19.81
182.9,565.0,18.7
183.8,565.5,18.18
184.9,566.0,19.84
185.9,566.5,19.84
186.9,567.0,19.69
187.9,567.5,19.35
188.8,568.0,20.88
189.8,568.5,20.16
190.7,569.0,20.84
191.9,569.5,20.53
192.8,570.0,21.37
193.9,570.5,20.97
194.8,571.0,21.71
195.8,571.5,22.02
196.6,572.0,21.78
197.7,572.5,21.39
198.8,573.0,22.05
199.6,573.5,21.9
200.6,574.0,21.93
201.6,574.5,22.34
202.7,575.0,21.31
203.8,575.5,21.62
204.7,576.0,21.53
205.6,576.5,22.65
206.5,577.0,23.35
207.7,577.5,22.2
208.7,578.0,22.73
209.7,578.5,22.9
210.6,579.0,23.65
211.7,579.5,23.69
212.7,580.0,24.31
213.6,580.5,24.12
214.6,581.0,24.1
215.6,581.5,24.59
216.7,582.0,24.43
217.7,582.5,25.3
218.5,583.0,27.16
219.6,583.5,25.78
220.7,584.0,25.63
221.7,584.5,26.39
222.7,585.0,27.01
223.7,585.5,27.06
224.7,586.0,27.18
225.8,586.5,27.48
226.8,587.0,26.97
227.8,587.5,27.42
228.8,588.0,28.12
229.7,588.5,27.91
230.8,589.0,28.81
231.8,589.5,28.71
232.8,590.0,29.17
233.8,590.5,28.18
234.7,591.0,27.49
235.8,591.5,28.44
236.9,592.0,30.56
237.8,592.5,29.45
238.8,593.0,29.31
239.8,593.5,30.24
240.8,594.0,30.24
241.8,594.5,31.63
242.8,595.0,31.59
243.8,595.5,31.05
244.8,596.0,31.79
245.8,596.5,32.82
246.9,597.0,31.82
247.8,597.5,32.59
248.8,598.0,32.84
249.8,598.5,32.8
250.9,599.0,34.37
251.9,599.5,33.69
252.8,600.0,34.32
253.9,600.5,33.66
254.9,601.0,35.01
255.8,601.5,35.5
256.9,602.0,36.09
257.9,602.5,36.38
258.9,603.0,37.4
259.8,603.5,37.78
260.9,604.0,37.06
261.8,604.5,37.76
262.8,605.0,38.35
263.9,605.5,37.69
264.8,606.0,39.62
265.8,606.5,39.75
266.8,607.0,39.87
267.8,607.5,39.24
268.8,608.0,39.6
269.7,608.5,40.2
270.7,609.0,40.27
271.7,609.5,39.59
272.7,610.0,40.05
273.7,610.5,39.38
274.7,611.0,41.51
275.7,611.5,41.32
276.7,612.0,41.18
277.6,612.5,42.67
278.6,613.0,42.07
279.7,613.5,41.43
280.8,614.0,42.48
281.6,614.5,42.42
282.7,615.0,43.02
283.7,615.5,41.45
284.7,616.0,43.32
285.7,616.5,42.8
286.7,617.0,42.85
287.7,617.5,42.46
288.7,618.0,41.81
289.7,618.5,42.0
290.7,619.0,42.47
291.7,619.5,42.86
292.7,620.0,43.84
293.6,620.5,44.47
294.6,621.0,44.88
295.6,621.5,45.33
296.6,622.0,45.89
297.6,622.5,46.31
298.6,623.0,46.6
299.6,623.5,46.45
300.4,624.0,46.69
301.4,624.5,47.21
302.5,625.0,47.22
303.4,625.5,48.17
304.5,626.0,47.71
305.5,626.5,49.12
306.4,627.0,49.82
307.4,627.5,50.56
308.5,628.0,48.71
309.5,628.5,49.54
310.4,629.0,48.84
311.5,629.5,49.38
312.4,630.0,49.58
313.5,630.5,49.59
314.6,631.0,50.1
315.7,631.5,50.07
316.5,632.0,51.7
317.6,632.5,51.7
318.6,633.0,52.23
319.7,633.5,52.46
320.6,634.0,51.32
321.7,634.5,53.61
322.7,635.0,53.96
323.8,635.5,54.22
324.7,636.0,54.75
325.8,636.5,54.52
326.8,637.0,53.94
327.8,637.5,55.3
328.8,638.0,55.44
329.8,638.5,56.31
330.8,639.0,56.13
331.9,639.5,56.07
333.0,640.0,57.13
333.9,640.5,56.76
335.0,641.0,56.47
336.0,641.5,58.02
337.0,642.0,57.89
338.0,642.5,57.35
339.1,643.0,57.45
340.0,643.5,57.47
341.2,644.0,58.34
342.1,644.5,58.56
343.2,645.0,58.75
344.2,645.5,58.84
345.2,646.0,59.72
346.2,646.5,60.63
347.2,647.0,61.4
348.2,647.5,60.46
349.2,648.0,61.44
350.3,648.5,62.33
351.4,649.0,62.84
352.3,649.5,62.69
353.3,650.0,62.46
354.3,650.5,62.66
355.3,651.0,62.92
356.2,651.5,62.31
357.2,652.0,62.3
358.3,652.5,62.27
359.3,653.0,62.17
360.3,653.5,62.1
361.2,654.0,62.56
362.3,654.5,61.94
363.3,655.0,62.15
364.4,655.5,62.13
365.4,656.0,61.75
366.4,656.5,62.47
367.3,657.0,60.8
368.3,657.5,60.64
369.4,658.0,60.5
370.3,658.5,58.9
371.3,659.0,58.66
372.3,659.5,57.51
373.4,660.0,56.87
374.4,660.5,55.64
375.4,661.0,54.65
376.4,661.5,53.84
377.3,662.0,52.62
378.3,662.5,51.52
379.4,663.0,50.15
380.4,663.5,48.68
381.2,664.0,48.3
382.3,664.5,47.0
383.3,665.0,44.83
384.4,665.5,43.08
385.4,666.0,41.73
386.4,666.5,40.48
387.4,667.0,39.66
388.3,667.5,37.3
389.4,668.0,35.91
390.4,668.5,33.93
391.3,669.0,33.25
392.3,669.5,30.99
393.4,670.0,29.34
394.3,670.5,29.27
395.4,671.0,25.98
396.4,671.5,24.33
397.4,672.0,23.26
398.4,672.5,23.02
399.4,673.0,21.3
400.4,673.5,20.38
401.4,674.0,17.97
402.4,674.5,16.42
403.4,675.0,17.09
404.4,675.5,14.59
405.5,676.0,14.03
406.6,676.5,12.45
407.6,677.0,11.58
408.7,677.5,11.75
409.7,678.0,10.82
410.6,678.5,9.88
411.7,679.0,9.67
412.6,679.5,8.88
413.7,680.0,8.41
414.7,680.5,7.41
415.7,681.0,7.54
416.7,681.5,7.53
417.7,682.0,7.68
418.7,682.5,7.38
419.8,683.0,5.34
420.7,683.5,6.35
421.7,684.0,4.89
422.7,684.5,4.91
423.8,685.0,3.53
424.8,685.5,3.11
425.8,686.0,2.75
426.8,686.5,2.85
427.9,687.0,2.33
428.9,687.5,1.74
429.9,688.0,2.12
431.0,688.5,1.53
432.0,689.0,1.57
433.0,689.5,-0.48
434.0,690.0,0.55
435.0,690.5,0.24
435.9,691.0,0.35
436.9,691.5,-0.45
437.9,692.0,-0.32
438.8,692.5,-0.54
440.0,693.0,-0.64
441.1,693.5,0.12
442.0,694.0,-0.4
443.1,694.5,-0.92
444.0,695.0,0.21
445.1,695.5,-0.05
446.1,696.0,-1.01
447.1,696.5,-0.39
448.2,697.0,0.12
449.1,697.5,-0.47
450.2,698.0,-0.87
451.2,698.5,-1.09
452.3,699.0,-1.77
453.3,699.5,-1.63
454.2,700.0,-1.33
455.2,700.5,-1.72
456.2,701.0,-2.2
457.2,701.5,-1.25
458.2,702.0,-1.47
459.3,702.5,-0.91
460.2,703.0,-0.72
461.2,703.5,-1.63
462.2,704.0,-0.9
463.2,704.5,-1.33
464.3,705.0,-1.23
465.2,705.5,-1.4
466.3,706.0,-0.75
467.3,706.5,-1.47
468.2,707.0,-0.7
469.3,707.5,-0.97
470.3,708.0,-1.44
471.3,708.5,-2.49
472.4,709.0,-2.29
473.3,709.5,-2.74
474.3,710.0,-2.16
475.3,710.5,-2.5
476.3,711.0,-2.41
477.4,711.5,-2.41
478.3,712.0,-1.41
479.3,712.5,-1.64
480.3,713.0,-2.27
481.3,713.5,-2.21
482.3,714.0,-1.7
483.4,714.5,-0.9
484.4,715.0,-1.19
485.4,715.5,-1.91
486.3,716.0,-1.8
487.3,716.5,-1.3
488.3,717.0,-0.69
489.3,717.5,-0.65
490.3,718.0,-0.67
491.3,718.5,-0.91
492.2,719.0,-1.4
493.2,719.5,-1.54
494.3,720.0,-0.66
495.3,720.5,-1.08
496.2,721.0,-0.85
497.2,721.5,0.18
498.2,722.0,-0.56
499.3,722.5,-0.62
500.3,723.0,0.67
501.3,723.5,1.25
502.3,724.0,1.23
503.3,724.5,1.06
504.3,725.0,0.68
505.3,725.5,0.42
506.4,726.0,0.42
507.3,726.5,0.51
508.4,727.0,0.98
509.3,727.5,0.63
510.3,728.0,1.29
511.3,728.5,0.54
512.3,729.0,1.15
513.3,729.5,0.81
514.3,730.0,0.5
515.3,730.5,1.26
516.3,731.0,1.4
517.3,731.5,0.35
518.4,732.0,0.84
519.3,732.5,0.43
520.3,733.0,0.7
521.3,733.5,0.27
522.3,734.0,0.56
523.4,734.5,-0.37
524.3,735.0,0.32
525.3,735.5,0.36
526.3,736.0,-0.25
527.4,736.5,-0.36
528.4,737.0,-0.41
529.5,737.5,-0.05
530.5,738.0,-0.22
531.4,738.5,-0.22
532.4,739.0,-0.3
533.5,739.5,0.38
534.5,740.0,1.01
535.5,740.5,-0.12
536.5,741.0,-0.2
537.5,741.5,-0.56
538.6,742.0,-1.02
539.6,742.5,-0.93
540.6,743.0,-1.21
541.7,743.5,-0.64
542.6,744.0,-0.23
543.7,744.5,-0.15
544.7,745.0,0.19
545.7,745.5,-0.67
546.8,746.0,-0.69
547.8,746.5,-0.99
548.8,747.0,-0.94
549.8,747.5,-0.54
550.9,748.0,-0.34
551.8,748.5,0.04
552.9,749.0,-0.86
553.9,749.5,-1.38
554.9,750.0,-0.34
556.0,750.5,-0.79
557.0,751.0,0.78
557.9,751.5,0.14
559.0,752.0,0.32
560.0,752.5,0.94
561.0,753.0,0.05
562.0,753.5,0.08
563.0,754.0,0.49
564.1,754.5,-0.07
565.2,755.0,0.2
566.1,755.5,-0.61
567.1,756.0,-0.43
568.1,756.5,-0.56
569.1,757.0,-1.78
570.1,757.5,-1.98
571.1,758.0,-2.04
572.2,758.5,-2.98
573.2,759.0,-2.45
574.3,759.5,-2.41
575.2,760.0,-1.72
576.3,760.5,-1.63
577.3,761.0,-1.57
578.3,761.5,-1.01
579.2,762.0,-0.54
580.4,762.5,-0.52
581.3,763.0,-0.8
582.3,763.5,0.33
583.2,764.0,0.35
584.4,764.5,0.98
585.4,765.0,0.19
586.4,765.5,0.6
587.4,766.0,1.5
588.3,766.5,0.56
589.3,767.0,0.43
590.4,767.5,0.03
591.4,768.0,-0.69
592.4,768.5,-1.01
593.5,769.0,-0.94
594.4,769.5,-1.31
595.5,770.0,-1.28
596.5,770.5,-0.99
597.5,771.0,-1.37
598.4,771.5,-0.36
599.4,772.0,-1.06
600.4,772.5,-0.42
601.5,773.0,-1.28
602.5,773.5,-1.17
603.5,774.0,-1.11
604.4,774.5,-0.62
605.5,775.0,-1.89
606.5,775.5,-1.32
607.5,776.0,-1.47
608.6,776.5,-2.32
609.6,777.0,-0.67
610.5,777.5,-1.64
611.6,778.0,-1.44
612.6,778.5,-0.81
613.7,779.0,-0.65
614.7,779.5,-1.27
615.7,780.0,-0.72
616.8,780.5,-1.09
617.8,781.0,-0.79
618.8,781.5,-1.41
619.8,782.0,-1.01
620.8,782.5,-0.45
621.8,783.0,-0.31
622.8,783.5,-1.36
623.9,784.0,-1.2
624.8,784.5,-0.71
625.8,785.0,-1.38
626.8,785.5,-0.6
628.0,786.0,-0.18
628.9,786.5,-0.32
630.0,787.0,1.2
630.9,787.5,-0.03
631.9,788.0,-0.44
633.0,788.5,-0.65
633.9,789.0,-1.31
635.0,789.5,-1.1
635.9,790.0,-2.11
636.9,790.5,-1.51
638.0,791.0,-2.01
639.0,791.5,-2.01
639.9,792.0,-2.91
640.9,792.5,-2.91
642.1,793.0,-2.3
643.0,793.5,-2.08
644.1,794.0,-2.66
645.1,794.5,-1.91
646.1,795.0,-1.29
647.2,795.5,-2.49
648.2,796.0,-2.88
649.2,796.5,-2.97
650.2,797.0,-1.63
651.1,797.5,-1.08
652.2,798.0,-1.34
653.2,798.5,-1.23
654.3,799.0,-1.67
655.2,799.5,-1.04
656.2,800.0,-1.02
657.3,800.5,-0.79
658.3,801.0,-0.93
659.3,801.5,-0.45
660.3,802.0,-0.91
661.3,802.5,-1.91
662.3,803.0,-2.0
663.3,803.5,-1.32
664.3,804.0,-2.17
665.3,804.5,-1.81
666.4,805.0,-1.92
667.4,805.5,-2.12
668.4,806.0,-2.3
669.4,806.5,-1.82
670.4,807.0,-1.64
671.4,807.5,-2.11
672.4,808.0,-1.07
673.5,808.5,-1.34
674.4,809.0,-1.66
675.4,809.5,-1.69
676.4,810.0,-1.03
677.4,810.5,-1.37
678.4,811.0,-1.32
679.5,811.5,-1.99
680.5,812.0,-2.59
681.5,812.5,-2.48
682.4,813.0,-2.37
683.4,813.5,-2.06
684.5,814.0,-3.0
685.4,814.5,-2.6
686.5,815.0,-3.15
687.4,815.5,-2.62
688.4,816.0,-2.94
689.5,816.5,-2.8
690.4,817.0,-2.22
691.4,817.5,-1.02
692.5,818.0,-1.16
693.5,818.5,-2.21
694.5,819.0,-2.21
695.4,819.5,-2.08
696.4,820.0,-1.72
697.4,820.5,-2.15
698.4,821.0,-2.82
699.4,821.5,-2.15
700.3,822.0,-1.94
701.4,822.5,-1.33
702.3,823.0,-1.59
703.3,823.5,-1.71
704.3,824.0,-1.94
705.4,824.5,-2.3
706.4,825.0,-2.15
707.3,825.5,-1.15
708.4,826.0,-1.52
709.4,826.5,-1.58
710.4,827.0,-1.79
711.5,827.5,-2.47
712.4,828.0,-2.83
713.4,828.5,-2.0
714.4,829.0,-1.89
715.4,829.5,-2.09
716.3,830.0,-2.01
717.4,830.5,-1.69
718.3,831.0,-1.24
719.3,831.5,-1.66
720.4,832.0,-1.93
721.4,832.5,-1.81
722.4,833.0,-1.29
723.5,833.5,-2.19
724.3,834.0,-1.77
725.3,834.5,-1.88
726.3,835.0,-1.2
727.3,835.5,-2.31
728.3,836.0,-2.94
729.3,836.5,-3.05
730.4,837.0,-2.69
731.3,837.5,-2.93
732.3,838.0,-2.93
733.3,838.5,-2.94
734.3,839.0,-2.46
735.3,839.5,-2.34
736.4,840.0,-1.84
737.4,840.5,-2.03
738.4,841.0,-2.96
739.4,841.5,-1.38
740.4,842.0,-1.66
741.5,842.5,-1.95
742.4,843.0,0.34
743.4,843.5,-0.48
744.4,844.0,-0.86
745.4,844.5,-0.73
746.4,845.0,-0.06
747.5,845.5,-0.35
748.5,846.0,-0.09
749.4,846.5,0.61
750.4,847.0,0.22
751.5,847.5,-0.22
752.4,848.0,-1.59
753.4,848.5,-0.05
754.5,849.0,0.03
755.3,849.5,-0.04
756.4,850.0,-0.9
757.5,850.5,-1.18
758.5,851.0,-1.45
759.4,851.5,-0.5
760.4,852.0,-0.83
761.5,852.5,-1.53
762.4,853.0,-1.71
763.4,853.5,-0.88
764.5,854.0,-1.64
765.5,854.5,-0.78
766.4,855.0,-1.42
767.4,855.5,-1.62
768.4,856.0,-1.1
769.4,856.5,-1.79
770.4,857.0,-1.26
771.3,857.5,-0.69
772.3,858.0,-1.55
773.4,858.5,-0.99
774.3,859.0,-2.13
775.3,859.5,-2.05
776.2,860.0,-1.58
777.2,860.5,-1.81
778.2,861.0,-1.98
779.3,861.5,-0.94
780.2,862.0,-1.14
781.2,862.5,-0.56
782.2,863.0,-1.89
783.3,863.5,-1.38
784.3,864.0,-1.83
785.3,864.5,-1.4
786.3,865.0,-2.31
787.3,865.5,-1.79
788.3,866.0,-1.86
789.2,866.5,-3.5
790.2,867.0,-3.8
791.2,867.5,-3.49
792.2,868.0,-3.02
793.2,868.5,-3.38
794.2,869.0,-2.95
795.3,869.5,-2.5
796.3,870.0,-2.63
797.2,870.5,-2.62
798.2,871.0,-2.52
799.2,871.5,-2.4
800.2,872.0,-1.36
801.2,872.5,-1.97
802.2,873.0,-1.77