File: Wood/Calibration_Data/TUBS/TUBS_Wood_TGA_N2_50K_R11.csv
Time (s),Temperature (K),Mass (mg)
0.0,304.986,0.99978
2.0,305.005,0.99959
4.0,305.001,0.99935
6.0,304.979,0.99913
8.0,304.958,0.99891
10.0,304.948,0.99868
12.0,304.944,0.99843
14.0,304.931,0.99817
16.0,304.934,0.99792
18.0,304.927,0.99767
20.0,304.907,0.99742
22.0,304.895,0.99716
24.0,304.882,0.99691
26.0,304.879,0.99668
28.0,304.871,0.99646
30.0,304.852,0.99624
32.0,304.853,0.99601
34.0,304.853,0.99581
36.0,304.841,0.99564
38.0,304.818,0.99547
40.0,304.827,0.99532
42.0,304.814,0.99515
44.0,304.81,0.99496
46.0,304.807,0.99477
48.0,304.806,0.99458
50.0,304.795,0.9944
52.0,304.787,0.99422
54.0,304.791,0.99403
56.0,304.784,0.99383
58.0,304.76,0.99363
60.0,304.775,0.99344
62.0,304.78,0.99327
64.0,304.762,0.99312
66.0,304.754,0.99296
68.0,304.751,0.99282
70.0,304.734,0.99268
72.0,304.744,0.99253
74.0,304.75,0.99238
76.0,304.742,0.99225
78.0,304.732,0.9921
80.0,304.726,0.99196
82.0,304.722,0.99182
84.0,304.731,0.99167
86.0,304.715,0.99152
88.0,304.721,0.99136
90.0,304.722,0.99121
92.0,304.716,0.99108
94.0,304.697,0.99095
96.0,304.72,0.99084
98.0,304.721,0.99073
100.0,304.692,0.99062
102.0,304.687,0.99052
104.0,304.656,0.9904
106.0,304.679,0.99029
108.0,304.661,0.99017
110.0,304.669,0.99005
112.0,304.668,0.98994
114.0,304.665,0.98982
116.0,304.646,0.98971
118.0,304.667,0.98961
120.0,304.668,0.98951
122.0,304.65,0.98941
124.0,304.648,0.98932
126.0,304.649,0.98922
128.0,304.653,0.98912
130.0,304.641,0.98902
132.0,304.642,0.98892
134.0,304.639,0.98883
136.0,304.63,0.98876
138.0,304.622,0.98868
140.0,304.622,0.9886
142.0,304.625,0.98853
144.0,304.637,0.98847
146.0,304.627,0.9884
148.0,304.613,0.98833
150.0,304.616,0.98824
152.0,304.611,0.98816
154.0,304.608,0.98808
156.0,304.602,0.98799
158.0,304.607,0.9879
160.0,304.606,0.9878
162.0,304.593,0.9877
164.0,304.596,0.98761
166.0,304.583,0.98753
168.0,304.582,0.98745
170.0,304.591,0.98738
172.0,304.597,0.98732
174.0,304.587,0.98728
176.0,304.592,0.98725
178.0,304.576,0.9872
180.0,304.594,0.98715
182.0,304.585,0.98709
184.0,304.572,0.98703
186.0,304.559,0.98697
188.0,304.571,0.98689
190.0,304.564,0.9868
192.0,304.569,0.98671
194.0,304.565,0.98663
196.0,304.556,0.98657
198.0,304.563,0.98651
200.0,304.561,0.98644
202.0,304.565,0.98638
204.0,304.564,0.98631
206.0,304.551,0.98626
208.0,304.58,0.98623
210.0,304.553,0.9862
212.0,304.548,0.98617
214.0,304.539,0.98613
216.0,304.54,0.98608
218.0,304.556,0.98602
220.0,304.541,0.98595
222.0,304.543,0.98588
224.0,304.547,0.98582
226.0,304.534,0.98578
228.0,304.534,0.98574
230.0,304.546,0.9857
232.0,304.537,0.98565
234.0,304.545,0.9856
236.0,304.539,0.98554
238.0,304.547,0.98551
240.0,304.55,0.98548
242.0,304.549,0.98546
244.0,304.541,0.98544
246.0,304.528,0.98544
249.0,304.535,0.98543
251.0,304.531,0.9854
253.0,304.525,0.98536
255.0,304.517,0.9853
257.0,304.517,0.98525
259.0,304.525,0.9852
261.0,304.499,0.98518
263.0,304.515,0.98514
265.0,304.501,0.9851
267.0,304.5,0.98505
269.0,304.507,0.98497
271.0,304.52,0.98491
273.0,304.498,0.98484
275.0,304.495,0.98478
277.0,304.508,0.98472
279.0,304.502,0.98466
281.0,304.499,0.9846
283.0,304.512,0.98455
285.0,304.492,0.98452
287.0,304.52,0.98449
289.0,304.516,0.98447
291.0,304.507,0.98444
293.0,304.514,0.98438
295.0,304.508,0.98431
297.0,304.496,0.98422
299.0,304.486,0.98414
301.0,304.5,0.9841
303.0,304.492,0.98406
305.0,304.498,0.98403
307.0,304.488,0.98399
309.0,304.493,0.98394
311.0,304.487,0.98391
313.0,304.506,0.98388
315.0,304.496,0.98385
317.0,304.492,0.98381
319.0,304.484,0.98378
321.0,304.482,0.98377
323.0,304.502,0.98376
325.0,304.497,0.98376
327.0,304.474,0.98374
329.0,304.494,0.98371
331.0,304.469,0.98367
333.0,304.468,0.98362
335.0,304.475,0.98357
337.0,304.498,0.98352
339.0,304.486,0.98348
341.0,304.49,0.98345
343.0,304.489,0.98341
345.0,304.486,0.98336
347.0,304.486,0.98332
349.0,304.502,0.98328
351.0,304.494,0.98323
353.0,304.488,0.98319
355.0,304.491,0.98315
357.0,304.491,0.98312
359.0,304.492,0.98309
361.0,304.496,0.98305
363.0,304.482,0.98302
365.0,304.481,0.98299
367.0,304.479,0.98297
369.0,304.48,0.98296
371.0,304.487,0.98295
373.0,304.474,0.98295
375.0,304.475,0.98296
377.0,304.48,0.98297
379.0,304.469,0.98296
381.0,304.48,0.98296
383.0,304.484,0.98295
389.0,304.461,0.98295
391.0,304.47,0.98293
393.0,304.451,0.9829
395.0,304.479,0.98286
397.0,304.458,0.98282
399.0,304.458,0.98279
401.0,304.465,0.98276
403.0,304.473,0.98272
405.0,304.474,0.98269
407.0,304.451,0.98266
409.0,304.463,0.98262
411.0,304.456,0.98259
413.0,304.462,0.98255
415.0,304.447,0.98252
417.0,304.46,0.9825
419.0,304.455,0.98248
421.0,304.438,0.98249
423.0,304.454,0.98249
425.0,304.461,0.9825
427.0,304.468,0.98247
429.0,304.453,0.98241
431.0,304.452,0.98236
433.0,304.447,0.98231
435.0,304.444,0.98228
437.0,304.446,0.98228
439.0,304.45,0.98227
441.0,304.45,0.98226
443.0,304.46,0.98225
445.0,304.46,0.98225
447.0,304.461,0.98225
449.0,304.45,0.98224
451.0,304.454,0.98223
453.0,304.447,0.98221
455.0,304.439,0.98218
457.0,304.452,0.98212
459.0,304.451,0.98205
461.0,304.465,0.98197
463.0,304.44,0.98192
465.0,304.444,0.98189
467.0,304.45,0.98187
469.0,304.446,0.98188
471.0,304.428,0.98189
473.0,304.443,0.98191
475.0,304.46,0.98193
477.0,304.421,0.98193
479.0,304.452,0.98193
481.0,304.442,0.98191
483.0,304.45,0.98188
485.0,304.439,0.98184
487.0,304.448,0.98182
489.0,304.457,0.98182
491.0,304.448,0.9818
493.0,304.45,0.98178
495.0,304.445,0.98177
497.0,304.446,0.98176
499.0,304.451,0.98176
501.0,304.455,0.98176
504.0,304.452,0.98176
506.0,304.44,0.98176
508.0,304.465,0.98177
510.0,304.441,0.98179
512.0,304.445,0.98181
514.0,304.464,0.98181
516.0,304.457,0.98179
518.0,304.455,0.98175
520.0,304.443,0.98171
522.0,304.435,0.98167
524.0,304.433,0.98164
526.0,304.441,0.98161
528.0,304.45,0.98158
530.0,304.456,0.98157
532.0,304.448,0.98158
534.0,304.452,0.98159
536.0,304.436,0.98161
538.0,304.428,0.98162
540.0,304.434,0.98162
542.0,304.457,0.98159
544.0,304.447,0.98155
546.0,304.449,0.9815
548.0,304.444,0.98146
550.0,304.442,0.98142
553.0,304.431,0.98141
555.0,304.441,0.98141
557.0,304.455,0.98143
559.0,304.453,0.98144
562.0,304.442,0.98143
564.0,304.434,0.9814
566.0,304.44,0.98138
568.0,304.438,0.98137
570.0,304.44,0.98136
572.0,304.434,0.98134
574.0,304.43,0.98131
576.0,304.447,0.98129
578.0,304.431,0.98128
580.0,304.439,0.98129
582.0,304.447,0.9813
585.0,304.43,0.9813
587.0,304.438,0.98129
589.0,304.443,0.98128
591.0,304.437,0.98127
593.0,304.428,0.98126
596.0,304.442,0.98127
598.0,304.441,0.98128
600.0,304.434,0.9813
602.0,304.447,0.9813
604.0,304.451,0.98128
606.0,304.441,0.98127
608.0,304.451,0.98126
610.0,304.447,0.98126
613.0,304.436,0.98125
615.0,304.43,0.98123
617.0,304.429,0.9812
619.0,304.435,0.98117
621.0,304.452,0.98112
623.0,304.445,0.98109
625.0,304.427,0.98107
627.0,304.429,0.98104
629.0,304.431,0.981
631.0,304.443,0.98095
633.0,304.452,0.98091
635.0,304.433,0.98089
637.0,304.428,0.9809
639.0,304.428,0.98091
641.0,304.448,0.98093
643.0,304.432,0.98094
645.0,304.423,0.98095
647.0,304.438,0.98095
650.0,304.425,0.98095
652.0,304.444,0.98096
654.0,304.42,0.98096
656.0,304.432,0.98098
658.0,304.442,0.981
660.0,304.432,0.98102
662.0,304.438,0.98103
664.0,304.444,0.98104
666.0,304.446,0.98105
668.0,304.438,0.98104
670.0,304.436,0.98102
672.0,304.444,0.98099
674.0,304.427,0.98095
676.0,304.435,0.98092
678.0,304.427,0.9809
680.0,304.435,0.98091
682.0,304.431,0.98092
684.0,304.435,0.98093
686.0,304.427,0.98094
688.0,304.432,0.98095
690.0,304.428,0.98095
694.0,304.422,0.98095
724.0,304.433,0.98095
726.0,304.446,0.98093
728.0,304.44,0.9809
730.0,304.424,0.98088
732.0,304.424,0.98085
734.0,304.431,0.98082
736.0,304.431,0.98079
738.0,304.431,0.98077
740.0,304.435,0.98076
742.0,304.432,0.98076
746.0,304.449,0.98076
762.0,304.441,0.98075
764.0,304.433,0.98074
766.0,304.427,0.98073
768.0,304.434,0.98073
770.0,304.43,0.98074
772.0,304.443,0.98074
774.0,304.429,0.98075
776.0,304.437,0.98075
778.0,304.451,0.98076
780.0,304.427,0.98078
782.0,304.448,0.98079
784.0,304.43,0.98081
786.0,304.433,0.98082
788.0,304.442,0.98081
790.0,304.429,0.98078
792.0,304.451,0.98073
794.0,304.427,0.9807
796.0,304.446,0.98066
798.0,304.43,0.98063
800.0,304.438,0.98059
802.0,304.424,0.98057
804.0,304.447,0.98056
806.0,304.444,0.98056
810.0,304.449,0.98056
837.0,304.445,0.98054
839.0,304.431,0.98052
841.0,304.452,0.98049
843.0,304.44,0.98046
845.0,304.434,0.98043
847.0,304.433,0.9804
849.0,304.438,0.98038
851.0,304.443,0.98036
853.0,304.43,0.98036
855.0,304.44,0.98036
874.0,304.425,0.98035
876.0,304.438,0.98034
878.0,304.43,0.98032
880.0,304.435,0.98029
882.0,304.426,0.98027
884.0,304.429,0.98026
886.0,304.427,0.98025
888.0,304.436,0.98023
890.0,304.436,0.98021
892.0,304.432,0.98019
894.0,304.426,0.98018
898.0,304.424,0.98018
900.0,304.432,0.98019
902.0,304.418,0.9802
904.0,304.427,0.98022
906.0,304.432,0.98024
908.0,304.429,0.98024
910.0,304.432,0.98025
912.0,304.42,0.98024
914.0,304.43,0.98023
916.0,304.44,0.98021
918.0,304.434,0.98019
920.0,304.432,0.98018
922.0,304.427,0.98017
924.0,304.438,0.98016
926.0,304.442,0.98016
929.0,304.425,0.98016
932.0,304.431,0.98016
934.0,304.431,0.98015
936.0,304.423,0.98013
938.0,304.429,0.98012
941.0,304.432,0.98012
943.0,304.426,0.98013
945.0,304.436,0.98014
947.0,304.446,0.98015
949.0,304.432,0.98015
951.0,304.438,0.98015
955.0,304.414,0.98016
958.0,304.432,0.98015
960.0,304.411,0.98014
962.0,304.422,0.98013
964.0,304.43,0.98012
966.0,304.429,0.9801
968.0,304.438,0.98008
970.0,304.432,0.98007
972.0,304.416,0.98006
974.0,304.423,0.98007
976.0,304.42,0.98009
978.0,304.425,0.98011
981.0,304.434,0.98011
983.0,304.426,0.9801
985.0,304.428,0.98007
987.0,304.426,0.98007
989.0,304.42,0.98008
991.0,304.434,0.98009
993.0,304.429,0.98011
995.0,304.42,0.98013
997.0,304.431,0.98012
999.0,304.437,0.9801
1001.0,304.432,0.98008
1003.0,304.437,0.98006
1007.0,304.422,0.98006
1009.0,304.427,0.98009
1011.0,304.436,0.98011
1013.0,304.417,0.98013
1015.0,304.441,0.98014
1017.0,304.436,0.98012
1019.0,304.431,0.98011
1021.0,304.436,0.9801
1023.0,304.435,0.9801
1025.0,304.442,0.98011
1027.0,304.444,0.98012
1029.0,304.43,0.98014
1031.0,304.44,0.98015
1036.0,304.438,0.98014
1040.0,304.425,0.98015
1042.0,304.446,0.98015
1045.0,304.442,0.98015
1050.0,304.426,0.98016
1058.0,304.448,0.98015
1060.0,304.451,0.98013
1062.0,304.444,0.98011
1064.0,304.448,0.98008
1066.0,304.443,0.98007
1069.0,304.451,0.98006
1071.0,304.438,0.98006
1088.0,304.451,0.98005
1090.0,304.437,0.98004
1092.0,304.453,0.98002
1094.0,304.421,0.97999
1096.0,304.445,0.97994
1098.0,304.442,0.97991
1100.0,304.453,0.97988
1102.0,304.453,0.97986
1104.0,304.439,0.97986
1106.0,304.444,0.97986
1108.0,304.448,0.97986
1113.0,304.438,0.97985
1115.0,304.453,0.97985
1117.0,304.44,0.97984
1119.0,304.444,0.97983
1121.0,304.437,0.97981
1123.0,304.439,0.97979
1125.0,304.442,0.97978
1127.0,304.443,0.97977
1129.0,304.437,0.97976
1131.0,304.438,0.97976
1135.0,304.434,0.97976
1137.0,304.438,0.97976
1142.0,304.43,0.97976
1144.0,304.434,0.97976
1146.0,304.444,0.97978
1148.0,304.436,0.9798
1150.0,304.433,0.97981
1152.0,304.449,0.97983
1154.0,304.434,0.97984
1156.0,304.434,0.97985
1158.0,304.429,0.97985
1161.0,304.421,0.97985
1178.0,304.435,0.97985
1181.0,304.447,0.97985
1183.0,304.438,0.97984
1185.0,304.444,0.97982
1187.0,304.448,0.9798
1189.0,304.437,0.97978
1191.0,304.427,0.97977
1194.0,304.441,0.97977
1196.0,304.438,0.97977
1198.0,304.444,0.97971
1200.0,304.456,0.97941
1205.729,305.5,0.97766
1207.546,306.5,0.97734
1209.168,307.5,0.97739
1210.64,308.5,0.97791
1212.0,309.5,0.97895
1213.303,310.5,0.97986
1214.559,311.5,0.98059
1215.799,312.5,0.98138
1217.01,313.5,0.98195
1218.204,314.5,0.98226
1219.392,315.5,0.98234
1220.571,316.5,0.98221
1221.754,317.5,0.98217
1222.95,318.5,0.98208
1224.116,319.5,0.98194
1225.3,320.5,0.98174
1226.489,321.5,0.98148
1227.664,322.5,0.98115
1228.844,323.5,0.98081
1230.012,324.5,0.98048
1231.222,325.5,0.98011
1232.396,326.5,0.97977
1233.578,327.5,0.97945
1234.74,328.5,0.97914
1235.933,329.5,0.97887
1237.12,330.5,0.97861
1238.327,331.5,0.97835
1239.508,332.5,0.97812
1240.69,333.5,0.97792
1241.893,334.5,0.97771
1243.073,335.5,0.97752
1244.267,336.5,0.97736
1245.465,337.5,0.97719
1246.662,338.5,0.97701
1247.852,339.5,0.97682
1249.048,340.5,0.97663
1250.244,341.5,0.97642
1251.427,342.5,0.9762
1252.62,343.5,0.97597
1253.82,344.5,0.97573
1255.018,345.5,0.9755
1256.214,346.5,0.97527
1257.416,347.5,0.97505
1258.612,348.5,0.97482
1259.796,349.5,0.9746
1261.012,350.5,0.97436
1262.198,351.5,0.97412
1263.392,352.5,0.97388
1264.591,353.5,0.97363
1265.803,354.5,0.97338
1266.988,355.5,0.97314
1268.199,356.5,0.97291
1269.396,357.5,0.97268
1270.6,358.5,0.97244
1271.8,359.5,0.97222
1273.007,360.5,0.97201
1274.194,361.5,0.9718
1275.387,362.5,0.9716
1276.592,363.5,0.9714
1277.793,364.5,0.97121
1278.993,365.5,0.97103
1280.196,366.5,0.97086
1281.388,367.5,0.97068
1282.594,368.5,0.97051
1283.79,369.5,0.97034
1285.002,370.5,0.97017
1286.197,371.5,0.97
1287.389,372.5,0.96984
1288.58,373.5,0.96969
1289.787,374.5,0.96954
1290.988,375.5,0.96941
1292.193,376.5,0.96932
1293.386,377.5,0.96922
1294.592,378.5,0.96914
1295.783,379.5,0.96908
1296.976,380.5,0.96903
1298.168,381.5,0.96897
1299.373,382.5,0.96892
1300.571,383.5,0.96888
1301.773,384.5,0.96883
1302.963,385.5,0.96879
1304.147,386.5,0.96876
1305.352,387.5,0.96873
1306.545,388.5,0.96869
1307.752,389.5,0.96867
1308.939,390.5,0.96864
1310.132,391.5,0.9686
1311.325,392.5,0.96857
1312.519,393.5,0.96853
1313.708,394.5,0.9685
1314.915,395.5,0.96846
1316.093,396.5,0.96843
1317.289,397.5,0.9684
1318.484,398.5,0.96837
1319.684,399.5,0.96834
1320.87,400.5,0.96831
1322.06,401.5,0.96828
1323.255,402.5,0.96825
1324.441,403.5,0.96822
1325.643,404.5,0.96819
1326.826,405.5,0.96816
1328.017,406.5,0.96814
1329.208,407.5,0.96813
1330.39,408.5,0.96811
1331.579,409.5,0.96811
1332.768,410.5,0.96811
1333.949,411.5,0.9681
1335.138,412.5,0.96809
1336.334,413.5,0.96806
1337.518,414.5,0.96803
1338.706,415.5,0.96801
1339.884,416.5,0.96797
1341.073,417.5,0.96794
1342.249,418.5,0.9679
1343.444,419.5,0.96787
1344.626,420.5,0.96784
1345.809,421.5,0.96782
1346.993,422.5,0.96779
1348.178,423.5,0.96777
1349.362,424.5,0.96774
1350.538,425.5,0.96771
1351.727,426.5,0.96769
1352.904,427.5,0.96767
1354.089,428.5,0.96764
1355.274,429.5,0.96762
1356.45,430.5,0.96759
1357.629,431.5,0.96756
1358.811,432.5,0.96752
1359.994,433.5,0.96747
1361.172,434.5,0.96743
1362.344,435.5,0.96738
1363.52,436.5,0.96732
1364.696,437.5,0.96727
1365.881,438.5,0.9672
1367.064,439.5,0.96714
1368.233,440.5,0.96706
1369.414,441.5,0.96697
1370.592,442.5,0.96689
1371.77,443.5,0.96679
1372.928,444.5,0.96668
1374.112,445.5,0.96658
1375.287,446.5,0.96647
1376.46,447.5,0.96636
1377.617,448.5,0.96625
1378.807,449.5,0.96614
1379.977,450.5,0.96603
1381.16,451.5,0.9659
1382.327,452.5,0.96577
1383.501,453.5,0.96563
1384.664,454.5,0.96548
1385.831,455.5,0.96533
1386.998,456.5,0.96519
1388.174,457.5,0.96502
1389.343,458.5,0.96485
1390.515,459.5,0.96468
1391.682,460.5,0.96448
1392.848,461.5,0.96428
1394.024,462.5,0.96407
1395.19,463.5,0.96386
1396.36,464.5,0.96363
1397.525,465.5,0.96341
1398.696,466.5,0.96318
1399.858,467.5,0.96295
1401.019,468.5,0.96271
1402.199,469.5,0.96245
1403.359,470.5,0.96218
1404.526,471.5,0.96188
1405.695,472.5,0.96157
1406.856,473.5,0.96126
1408.023,474.5,0.9609
1409.179,475.5,0.96056
1410.35,476.5,0.96021
1411.523,477.5,0.95985
1412.684,478.5,0.95949
1413.847,479.5,0.95912
1415.006,480.5,0.95875
1416.177,481.5,0.95837
1417.335,482.5,0.95798
1418.495,483.5,0.95759
1419.657,484.5,0.95719
1420.82,485.5,0.95679
1421.985,486.5,0.95639
1423.14,487.5,0.95598
1424.313,488.5,0.95556
1425.474,489.5,0.95515
1426.631,490.5,0.95474
1427.791,491.5,0.95432
1428.949,492.5,0.95389
1430.108,493.5,0.95346
1431.278,494.5,0.95302
1432.439,495.5,0.95258
1433.598,496.5,0.95214
1434.758,497.5,0.95169
1435.923,498.5,0.95123
1437.077,499.5,0.95078
1438.242,500.5,0.95032
1439.396,501.5,0.94987
1440.559,502.5,0.9494
1441.727,503.5,0.94892
1442.887,504.5,0.94844
1444.048,505.5,0.94794
1445.215,506.5,0.94743
1446.376,507.5,0.94692
1447.542,508.5,0.94639
1448.708,509.5,0.94586
1449.864,510.5,0.94533
1451.015,511.5,0.94479
1452.181,512.5,0.94423
1453.335,513.5,0.94366
1454.503,514.5,0.94308
1455.667,515.5,0.94248
1456.825,516.5,0.94187
1457.993,517.5,0.94125
1459.15,518.5,0.94061
1460.308,519.5,0.93994
1461.474,520.5,0.93926
1462.636,521.5,0.93857
1463.8,522.5,0.93784
1464.959,523.5,0.9371
1466.129,524.5,0.93633
1467.286,525.5,0.93555
1468.434,526.5,0.93474
1469.597,527.5,0.93392
1470.767,528.5,0.93308
1471.925,529.5,0.93221
1473.089,530.5,0.93134
1474.242,531.5,0.93046
1475.41,532.5,0.92954
1476.573,533.5,0.9286
1477.742,534.5,0.92764
1478.884,535.5,0.92669
1480.069,536.5,0.92565
1481.226,537.5,0.92462
1482.384,538.5,0.92358
1483.552,539.5,0.92249
1484.713,540.5,0.92138
1485.876,541.5,0.92025
1487.034,542.5,0.91911
1488.205,543.5,0.91789
1489.368,544.5,0.91667
1490.531,545.5,0.91543
1491.701,546.5,0.91413
1492.869,547.5,0.9128
1494.026,548.5,0.91148
1495.181,549.5,0.91013
1496.348,550.5,0.9087
1497.518,551.5,0.90728
1498.683,552.5,0.90585
1499.844,553.5,0.90437
1501.009,554.5,0.90287
1502.183,555.5,0.90135
1503.346,556.5,0.89982
1504.506,557.5,0.89826
1505.671,558.5,0.8967
1506.843,559.5,0.89512
1508.007,560.5,0.89351
1509.174,561.5,0.89189
1510.351,562.5,0.89024
1511.509,563.5,0.8886
1512.671,564.5,0.88692
1513.835,565.5,0.88524
1515.012,566.5,0.88353
1516.18,567.5,0.88178
1517.346,568.5,0.88004
1518.511,569.5,0.87828
1519.682,570.5,0.87647
1520.853,571.5,0.87465
1522.022,572.5,0.87283
1523.195,573.5,0.87098
1524.367,574.5,0.8691
1525.533,575.5,0.86721
1526.701,576.5,0.86531
1527.871,577.5,0.86335
1529.041,578.5,0.86138
1530.212,579.5,0.85939
1531.38,580.5,0.85737
1532.551,581.5,0.8553
1533.725,582.5,0.85322
1534.901,583.5,0.85111
1536.07,584.5,0.84894
1537.244,585.5,0.84676
1538.413,586.5,0.84457
1539.58,587.5,0.84233
1540.749,588.5,0.84006
1541.921,589.5,0.83776
1543.103,590.5,0.83542
1544.276,591.5,0.83302
1545.448,592.5,0.8306
1546.618,593.5,0.82815
1547.801,594.5,0.82558
1548.971,595.5,0.82302
1550.141,596.5,0.82042
1551.326,597.5,0.81773
1552.496,598.5,0.81497
1553.673,599.5,0.81219
1554.854,600.5,0.80937
1556.025,601.5,0.80644
1557.208,602.5,0.80347
1558.39,603.5,0.80048
1559.566,604.5,0.79741
1560.741,605.5,0.79427
1561.912,606.5,0.79113
1563.106,607.5,0.78787
1564.279,608.5,0.78452
1565.463,609.5,0.78113
1566.644,610.5,0.77772
1567.819,611.5,0.77419
1569.004,612.5,0.77059
1570.182,613.5,0.76698
1571.36,614.5,0.76328
1572.543,615.5,0.75945
1573.722,616.5,0.75563
1574.906,617.5,0.75173
1576.085,618.5,0.74768
1577.274,619.5,0.74359
1578.457,620.5,0.73948
1579.645,621.5,0.73523
1580.824,622.5,0.73096
1582.007,623.5,0.72665
1583.194,624.5,0.72226
1584.378,625.5,0.71775
1585.567,626.5,0.71322
1586.75,627.5,0.70866
1587.93,628.5,0.70397
1589.125,629.5,0.6992
1590.31,630.5,0.69444
1591.504,631.5,0.68954
1592.695,632.5,0.68457
1593.89,633.5,0.67958
1595.083,634.5,0.67456
1596.252,635.5,0.66949
1597.447,636.5,0.66433
1598.635,637.5,0.65918
1599.836,638.5,0.65387
1601.018,639.5,0.64863
1602.21,640.5,0.64331
1603.41,641.5,0.6379
1604.597,642.5,0.63248
1605.79,643.5,0.627
1606.981,644.5,0.62151
1608.169,645.5,0.61588
1609.368,646.5,0.61022
1610.563,647.5,0.60453
1611.755,648.5,0.59876
1612.952,649.5,0.59291
1614.137,650.5,0.5871
1615.325,651.5,0.58119
1616.523,652.5,0.57513
1617.717,653.5,0.56908
1618.921,654.5,0.56293
1620.114,655.5,0.55667
1621.309,656.5,0.55039
1622.511,657.5,0.54402
1623.708,658.5,0.53752
1624.909,659.5,0.53093
1626.109,660.5,0.5243
1627.306,661.5,0.51759
1628.512,662.5,0.51065
1629.713,663.5,0.50373
1630.924,664.5,0.49668
1632.118,665.5,0.48945
1633.326,666.5,0.48214
1634.534,667.5,0.47474
1635.737,668.5,0.46717
1636.93,669.5,0.45958
1638.127,670.5,0.45191
1639.328,671.5,0.44409
1640.536,672.5,0.43603
1641.737,673.5,0.42801
1642.947,674.5,0.41987
1644.161,675.5,0.41146
1645.361,676.5,0.40319
1646.564,677.5,0.39487
1647.764,678.5,0.38645
1648.971,679.5,0.37798
1650.174,680.5,0.36955
1651.377,681.5,0.36113
1652.582,682.5,0.35275
1653.782,683.5,0.34449
1654.995,684.5,0.33621
1656.191,685.5,0.32836
1657.395,686.5,0.32053
1658.598,687.5,0.31286
1659.792,688.5,0.3057
1661.011,689.5,0.29859
1662.216,690.5,0.29182
1663.414,691.5,0.28554
1664.616,692.5,0.27981
1665.824,693.5,0.27419
1667.018,694.5,0.26892
1668.232,695.5,0.26468
1669.43,696.5,0.26045
1670.628,697.5,0.25649
1671.833,698.5,0.25336
1673.047,699.5,0.25038
1674.254,700.5,0.24761
1675.448,701.5,0.24533
1676.649,702.5,0.24348
1677.866,703.5,0.24161
1679.066,704.5,0.23993
1680.28,705.5,0.23879
1681.482,706.5,0.23757
1682.69,707.5,0.23641
1683.898,708.5,0.23553
1685.098,709.5,0.23467
1686.309,710.5,0.23381
1687.517,711.5,0.23306
1688.73,712.5,0.23237
1689.936,713.5,0.23167
1691.144,714.5,0.231
1692.349,715.5,0.23038
1693.554,716.5,0.22974
1694.767,717.5,0.22911
1695.985,718.5,0.22849
1697.189,719.5,0.22788
1698.394,720.5,0.22727
1699.615,721.5,0.22667
1700.824,722.5,0.22608
1702.03,723.5,0.22549
1703.241,724.5,0.2249
1704.455,725.5,0.22431
1705.665,726.5,0.22372
1706.878,727.5,0.22314
1708.091,728.5,0.22256
1709.303,729.5,0.22199
1710.511,730.5,0.22143
1711.712,731.5,0.22089
1712.932,732.5,0.22035
1714.14,733.5,0.21982
1715.354,734.5,0.21929
1716.564,735.5,0.21878
1717.776,736.5,0.21826
1718.993,737.5,0.21775
1720.211,738.5,0.21725
1721.42,739.5,0.21676
1722.633,740.5,0.21626
1723.845,741.5,0.21577
1725.062,742.5,0.21527
1726.276,743.5,0.21478
1727.484,744.5,0.21429
1728.693,745.5,0.21381
1729.915,746.5,0.21332
1731.133,747.5,0.21285
1732.34,748.5,0.21238
1733.558,749.5,0.21192
1734.765,750.5,0.21147
1735.976,751.5,0.21103
1737.198,752.5,0.21059
1738.415,753.5,0.21014
1739.625,754.5,0.20971
1740.841,755.5,0.20928
1742.051,756.5,0.20884
1743.268,757.5,0.20842
1744.481,758.5,0.208
1745.7,759.5,0.20759
1746.917,760.5,0.20718
1748.126,761.5,0.20679
1749.34,762.5,0.20639
1750.555,763.5,0.206
1751.764,764.5,0.20562
1752.99,765.5,0.20524
1754.201,766.5,0.20487
1755.414,767.5,0.2045
1756.637,768.5,0.20414
1757.847,769.5,0.20379
1759.061,770.5,0.20345
1760.284,771.5,0.20313
1761.499,772.5,0.2028
1762.713,773.5,0.20249
1763.931,774.5,0.20218
1765.147,775.5,0.20187
1766.356,776.5,0.20156
1767.574,777.5,0.20125
1768.794,778.5,0.20095
1770.0,779.5,0.20065
1771.22,780.5,0.20036
1772.439,781.5,0.20007
1773.651,782.5,0.19979
1774.873,783.5,0.1995
1776.091,784.5,0.19924
1777.296,785.5,0.19898
1778.518,786.5,0.19872
1779.738,787.5,0.19847
1780.947,788.5,0.19823
1782.177,789.5,0.19797
1783.382,790.5,0.19772
1784.598,791.5,0.19747
1785.819,792.5,0.19722
1787.034,793.5,0.19697
1788.244,794.5,0.19674
1789.457,795.5,0.1965
1790.677,796.5,0.19627
1791.884,797.5,0.19605
1793.104,798.5,0.19582
1794.319,799.5,0.1956
1795.539,800.5,0.19538
1796.755,801.5,0.19516
1797.96,802.5,0.19494
1799.18,803.5,0.19472
1800.389,804.5,0.1945
1801.609,805.5,0.19429
1802.827,806.5,0.19407
1804.045,807.5,0.19385
1805.265,808.5,0.19364
1806.473,809.5,0.19342
1807.686,810.5,0.19321
1808.899,811.5,0.193
1810.113,812.5,0.19279
1811.332,813.5,0.19259
1812.547,814.5,0.19239
1813.764,815.5,0.19219
1814.975,816.5,0.19199
1816.184,817.5,0.19179
1817.405,818.5,0.1916
1818.614,819.5,0.1914
1819.833,820.5,0.19122
1821.051,821.5,0.19103
1822.259,822.5,0.19085
1823.478,823.5,0.19067
1824.692,824.5,0.19049
1825.913,825.5,0.19031
1827.121,826.5,0.19013
1828.334,827.5,0.18996
1829.561,828.5,0.18979
1830.767,829.5,0.18962
1831.983,830.5,0.18945
1833.193,831.5,0.18929
1834.409,832.5,0.18913
1835.628,833.5,0.18898
1836.845,834.5,0.18882
1838.053,835.5,0.18867
1839.277,836.5,0.18851
1840.49,837.5,0.18836
1841.704,838.5,0.18822
1842.913,839.5,0.18807
1844.129,840.5,0.18792
1845.346,841.5,0.18777
1846.563,842.5,0.18761
1847.781,843.5,0.18744
1848.99,844.5,0.18727
1850.213,845.5,0.18709
1851.425,846.5,0.18691
1852.632,847.5,0.18673
1853.859,848.5,0.18655
1855.066,849.5,0.18638
1856.282,850.5,0.1862
1857.501,851.5,0.18603
1858.718,852.5,0.18586
1859.933,853.5,0.18569
1861.144,854.5,0.18552
1862.369,855.5,0.18534
1863.58,856.5,0.18516
1864.8,857.5,0.18498
1866.011,858.5,0.18481
1867.234,859.5,0.18464
1868.441,860.5,0.18448
1869.653,861.5,0.18433
1870.872,862.5,0.18417
1872.093,863.5,0.18404
1873.306,864.5,0.1839
1874.514,865.5,0.18377
1875.726,866.5,0.18363
1876.932,867.5,0.18349
1878.159,868.5,0.18333
1879.366,869.5,0.18317
1880.588,870.5,0.18299
1881.8,871.5,0.18282
1883.011,872.5,0.18265
1884.215,873.5,0.18249
1885.442,874.5,0.18233
1886.662,875.5,0.18219
1887.873,876.5,0.18206
1889.084,877.5,0.18193
1890.296,878.5,0.1818
1891.51,879.5,0.18167
1892.72,880.5,0.18154
1893.939,881.5,0.18141
1895.148,882.5,0.18128
1896.363,883.5,0.18114
1897.571,884.5,0.18101
1898.782,885.5,0.18087
1899.994,886.5,0.18074
1901.217,887.5,0.1806
1902.421,888.5,0.18047
1903.636,889.5,0.18033
1904.844,890.5,0.1802
1906.065,891.5,0.18007
1907.267,892.5,0.17994
1908.48,893.5,0.17982
1909.697,894.5,0.17972
1910.91,895.5,0.17961
1912.125,896.5,0.17952
1913.339,897.5,0.17942
1914.55,898.5,0.17931
1915.756,899.5,0.17919
1916.976,900.5,0.17907
1918.173,901.5,0.17894
1919.384,902.5,0.17881
1920.597,903.5,0.17868
1921.818,904.5,0.17855
1923.024,905.5,0.17843
1924.235,906.5,0.17832
1925.456,907.5,0.17822
1926.667,908.5,0.17811
1927.868,909.5,0.17802
1929.074,910.5,0.17792
1930.291,911.5,0.17781
1931.5,912.5,0.17769
1932.708,913.5,0.17757
1933.926,914.5,0.17745
1935.133,915.5,0.17733
1936.346,916.5,0.1772
1937.55,917.5,0.17707
1938.764,918.5,0.17695
1939.973,919.5,0.17683
1941.18,920.5,0.17671
1942.39,921.5,0.17659
1943.598,922.5,0.17647
1944.811,923.5,0.17634
1946.019,924.5,0.17623
1947.229,925.5,0.17611
1948.439,926.5,0.17601
1949.649,927.5,0.1759
1950.849,928.5,0.17581
1952.067,929.5,0.17572
1953.268,930.5,0.17563
1954.48,931.5,0.17555
1955.681,932.5,0.17546
1956.897,933.5,0.17537
1958.107,934.5,0.17528
1959.319,935.5,0.17518
1960.525,936.5,0.17508
1961.733,937.5,0.17499
1962.938,938.5,0.17489
1964.154,939.5,0.17477
1965.369,940.5,0.17466
1966.578,941.5,0.17455
1967.784,942.5,0.17443
1968.984,943.5,0.17431
1970.197,944.5,0.1742
1971.406,945.5,0.1741
1972.612,946.5,0.17401
1973.827,947.5,0.17392
1975.032,948.5,0.17384
1976.243,949.5,0.17377
1977.442,950.5,0.17369
1978.656,951.5,0.1736
1979.869,952.5,0.1735
1981.069,953.5,0.17341
1982.279,954.5,0.17332
1983.485,955.5,0.17323
1984.685,956.5,0.17315
1985.901,957.5,0.17307
1987.112,958.5,0.17301
1988.315,959.5,0.17295
1989.525,960.5,0.17289
1990.723,961.5,0.17283
1991.934,962.5,0.17276
1993.149,963.5,0.17268
1994.355,964.5,0.1726
1995.57,965.5,0.1725
1996.768,966.5,0.17241
1997.979,967.5,0.17231
1999.188,968.5,0.17221
2000.395,969.5,0.17212
2001.601,970.5,0.17202
2002.817,971.5,0.17193
2004.022,972.5,0.17184
2005.229,973.5,0.17176
2006.433,974.5,0.17169
2007.646,975.5,0.17162
2008.844,976.5,0.17157
2010.059,977.5,0.17151
2011.264,978.5,0.17145
2012.476,979.5,0.17138
2013.685,980.5,0.17131
2014.893,981.5,0.17123
2016.108,982.5,0.17115
2017.313,983.5,0.17106
2018.516,984.5,0.17097
2019.726,985.5,0.17089
2020.926,986.5,0.1708
2022.144,987.5,0.17072
2023.351,988.5,0.17065
2024.559,989.5,0.17059
2025.766,990.5,0.17053
2026.968,991.5,0.17048
2028.185,992.5,0.17042
2029.386,993.5,0.17035
2030.592,994.5,0.17029
2031.809,995.5,0.17022
2033.01,996.5,0.17015
2034.221,997.5,0.17009
2035.431,998.5,0.17004
2036.639,999.5,0.16999
2037.846,1000.5,0.16994
2039.049,1001.5,0.16988
2040.257,1002.5,0.16982
2041.461,1003.5,0.16976
2042.672,1004.5,0.1697
2043.878,1005.5,0.16963
2045.075,1006.5,0.16956
2046.286,1007.5,0.16949
2047.496,1008.5,0.16942
2048.7,1009.5,0.16934
2049.905,1010.5,0.16927
2051.111,1011.5,0.16921
2052.32,1012.5,0.16915
2053.519,1013.5,0.16909
2054.725,1014.5,0.16904
2055.935,1015.5,0.169
2057.142,1016.5,0.16896
2058.341,1017.5,0.16892
2059.547,1018.5,0.16887
2060.751,1019.5,0.16883
2061.957,1020.5,0.16878
2063.172,1021.5,0.16873
2064.371,1022.5,0.16868
2065.574,1023.5,0.16863
2066.78,1024.5,0.16859
2067.984,1025.5,0.16855
2069.193,1026.5,0.1685
2070.397,1027.5,0.16846
2071.602,1028.5,0.16841
2072.804,1029.5,0.16835
2074.019,1030.5,0.16829
2075.208,1031.5,0.16823
2076.415,1032.5,0.16816
2077.624,1033.5,0.1681
2078.826,1034.5,0.16804
2080.028,1035.5,0.16799
2081.232,1036.5,0.16793
2082.436,1037.5,0.16787
2083.634,1038.5,0.16781
2084.836,1039.5,0.16775
2086.043,1040.5,0.16769
2087.249,1041.5,0.16763
2088.453,1042.5,0.16756
2089.655,1043.5,0.1675
2090.861,1044.5,0.16745
2092.058,1045.5,0.16739
2093.26,1046.5,0.16733
2094.457,1047.5,0.16728
2095.66,1048.5,0.16722
2096.868,1049.5,0.16717
2098.065,1050.5,0.16711
2099.268,1051.5,0.16706
2100.466,1052.5,0.16702
2101.673,1053.5,0.16697
2102.861,1054.5,0.16693
2103.958,1055.5,0.16689
2105.885,1056.5,0.16683
2107.669,1057.5,0.16677
2109.483,1058.5,0.1667
2111.44,1059.5,0.1666
2113.602,1060.5,0.16647
2115.973,1061.5,0.16632
2118.675,1062.5,0.16617
2124.0,1064.178,0.166
2144.0,1067.979,0.16574
2164.0,1069.738,0.16544
2184.0,1070.655,0.16509
2204.0,1071.194,0.1649
2224.0,1071.543,0.1644
2244.0,1071.788,0.16413
2264.0,1071.971,0.16378
2284.0,1072.103,0.16347
2304.0,1072.214,0.16323
2324.0,1072.289,0.16307
2344.0,1072.355,0.16288
2364.0,1072.404,0.1626
2384.0,1072.437,0.1625
2404.0,1072.466,0.16224
2424.0,1072.493,0.16206