File: Wood/Calibration_Data/TUBS/TUBS_TGA_N2_20K_R2.csv
Time (s),Temperature (K),Mass (mg)
0.0,305.118,1.01
2.0,305.116,1.01
4.0,305.102,1.01
6.0,305.093,1.009
8.0,305.085,1.009
10.0,305.079,1.009
12.0,305.061,1.009
14.0,305.035,1.008
16.0,305.033,1.008
18.0,305.023,1.008
20.0,305.008,1.008
22.0,305.003,1.008
24.0,304.999,1.007
26.0,304.98,1.007
28.0,304.981,1.007
30.0,304.982,1.007
32.0,304.95,1.006
34.0,304.942,1.006
36.0,304.952,1.006
38.0,304.928,1.006
40.0,304.922,1.006
42.0,304.918,1.006
44.0,304.921,1.005
46.0,304.901,1.005
48.0,304.91,1.005
50.0,304.903,1.005
52.0,304.891,1.005
54.0,304.878,1.005
56.0,304.883,1.004
58.0,304.877,1.004
60.0,304.862,1.004
62.0,304.867,1.004
64.0,304.861,1.004
66.0,304.846,1.004
68.0,304.85,1.004
70.0,304.845,1.004
72.0,304.857,1.003
74.0,304.835,1.003
76.0,304.826,1.003
78.0,304.834,1.003
80.0,304.819,1.003
82.0,304.816,1.003
84.0,304.813,1.003
86.0,304.81,1.002
88.0,304.786,1.002
90.0,304.798,1.002
92.0,304.787,1.002
94.0,304.77,1.002
96.0,304.786,1.002
98.0,304.786,1.002
100.0,304.776,1.002
102.0,304.766,1.002
104.0,304.761,1.002
106.0,304.748,1.002
108.0,304.756,1.001
110.0,304.757,1.001
112.0,304.738,1.001
114.0,304.736,1.001
116.0,304.731,1.001
118.0,304.745,1.001
120.0,304.742,1.001
122.0,304.738,1.001
124.0,304.732,1.001
126.0,304.735,1.0
128.0,304.715,1.0
130.0,304.709,1.0
132.0,304.71,1.0
134.0,304.697,1.0
136.0,304.698,1.0
138.0,304.711,1.0
140.0,304.702,1.0
142.0,304.695,1.0
144.0,304.688,1.0
146.0,304.706,1.0
148.0,304.715,1.0
150.0,304.686,1.0
152.0,304.684,1.0
154.0,304.672,0.999
156.0,304.679,0.999
158.0,304.666,0.999
160.0,304.661,0.999
162.0,304.657,0.999
164.0,304.661,0.999
166.0,304.652,0.999
168.0,304.66,0.999
170.0,304.65,0.999
172.0,304.643,0.999
174.0,304.639,0.999
176.0,304.641,0.999
178.0,304.639,0.999
180.0,304.633,0.999
182.0,304.649,0.998
184.0,304.641,0.998
186.0,304.645,0.998
188.0,304.632,0.998
190.0,304.652,0.998
192.0,304.621,0.998
194.0,304.633,0.998
196.0,304.62,0.998
198.0,304.608,0.998
200.0,304.618,0.998
202.0,304.622,0.998
204.0,304.61,0.998
206.0,304.606,0.998
208.0,304.588,0.998
210.0,304.612,0.998
212.0,304.604,0.998
214.0,304.599,0.998
216.0,304.606,0.998
218.0,304.608,0.998
220.0,304.584,0.998
222.0,304.596,0.998
224.0,304.611,0.997
226.0,304.58,0.997
228.0,304.604,0.997
230.0,304.589,0.997
232.0,304.592,0.997
234.0,304.58,0.997
236.0,304.591,0.997
238.0,304.593,0.997
240.0,304.573,0.997
242.0,304.597,0.997
244.0,304.593,0.997
246.0,304.586,0.997
248.0,304.575,0.997
250.0,304.583,0.997
252.0,304.572,0.997
254.0,304.578,0.997
256.0,304.578,0.997
258.0,304.57,0.997
260.0,304.555,0.997
262.0,304.572,0.997
264.0,304.577,0.997
266.0,304.557,0.997
268.0,304.558,0.997
270.0,304.558,0.997
272.0,304.557,0.997
274.0,304.569,0.997
276.0,304.548,0.996
278.0,304.558,0.996
280.0,304.55,0.996
282.0,304.571,0.996
284.0,304.552,0.996
286.0,304.556,0.996
288.0,304.554,0.996
290.0,304.551,0.996
292.0,304.549,0.996
294.0,304.547,0.996
296.0,304.545,0.996
298.0,304.532,0.996
300.0,304.541,0.996
302.0,304.536,0.996
304.0,304.549,0.996
306.0,304.533,0.996
308.0,304.53,0.996
310.0,304.528,0.996
312.0,304.552,0.996
314.0,304.526,0.996
316.0,304.538,0.996
318.0,304.532,0.996
320.0,304.536,0.996
322.0,304.512,0.996
324.0,304.522,0.996
326.0,304.515,0.996
328.0,304.526,0.996
330.0,304.53,0.996
332.0,304.521,0.996
334.0,304.511,0.996
336.0,304.532,0.996
338.0,304.529,0.996
340.0,304.51,0.996
342.0,304.515,0.996
344.0,304.52,0.996
346.0,304.516,0.995
348.0,304.511,0.995
350.0,304.524,0.995
352.0,304.525,0.995
354.0,304.514,0.995
356.0,304.509,0.995
358.0,304.501,0.995
360.0,304.494,0.995
362.0,304.504,0.995
364.0,304.503,0.995
366.0,304.505,0.995
368.0,304.504,0.995
370.0,304.507,0.995
372.0,304.497,0.995
374.0,304.501,0.995
376.0,304.503,0.995
378.0,304.5,0.995
380.0,304.506,0.995
382.0,304.502,0.995
384.0,304.515,0.995
386.0,304.508,0.995
388.0,304.505,0.995
390.0,304.496,0.995
392.0,304.504,0.995
394.0,304.5,0.995
396.0,304.491,0.995
398.0,304.5,0.995
400.0,304.493,0.995
402.0,304.502,0.995
404.0,304.496,0.995
406.0,304.492,0.995
408.0,304.502,0.995
410.0,304.49,0.995
412.0,304.479,0.995
414.0,304.479,0.995
416.0,304.491,0.995
418.0,304.485,0.995
420.0,304.485,0.995
422.0,304.5,0.995
424.0,304.494,0.995
426.0,304.492,0.995
428.0,304.481,0.995
430.0,304.49,0.995
432.0,304.495,0.995
434.0,304.493,0.995
436.0,304.496,0.995
438.0,304.485,0.995
440.0,304.489,0.995
442.0,304.499,0.995
444.0,304.498,0.995
446.0,304.49,0.994
448.0,304.502,0.994
450.0,304.5,0.994
452.0,304.5,0.994
454.0,304.496,0.994
456.0,304.484,0.994
458.0,304.489,0.994
460.0,304.494,0.994
462.0,304.494,0.994
464.0,304.489,0.994
466.0,304.504,0.994
468.0,304.488,0.994
470.0,304.483,0.994
472.0,304.487,0.994
474.0,304.483,0.994
476.0,304.489,0.994
478.0,304.482,0.994
480.0,304.501,0.994
482.0,304.485,0.994
484.0,304.483,0.994
486.0,304.49,0.994
488.0,304.475,0.994
490.0,304.483,0.994
492.0,304.498,0.994
494.0,304.471,0.994
496.0,304.501,0.994
498.0,304.498,0.994
500.0,304.48,0.994
502.0,304.482,0.994
504.0,304.487,0.994
506.0,304.496,0.994
508.0,304.495,0.994
510.0,304.491,0.994
512.0,304.482,0.994
514.0,304.514,0.994
516.0,304.484,0.994
518.0,304.483,0.994
520.0,304.496,0.994
522.0,304.482,0.994
524.0,304.487,0.994
526.0,304.502,0.994
528.0,304.479,0.994
530.0,304.492,0.994
532.0,304.475,0.994
534.0,304.478,0.994
536.0,304.485,0.994
538.0,304.47,0.994
540.0,304.476,0.994
542.0,304.486,0.994
544.0,304.496,0.994
546.0,304.484,0.994
548.0,304.478,0.994
550.0,304.479,0.994
552.0,304.487,0.994
554.0,304.486,0.994
556.0,304.489,0.994
558.0,304.483,0.994
560.0,304.477,0.994
562.0,304.474,0.994
564.0,304.477,0.994
566.0,304.468,0.994
568.0,304.482,0.994
570.0,304.481,0.994
572.0,304.482,0.994
574.0,304.469,0.994
576.0,304.466,0.994
578.0,304.466,0.994
580.0,304.476,0.994
582.0,304.48,0.994
584.0,304.475,0.994
586.0,304.477,0.994
588.0,304.483,0.994
590.0,304.472,0.994
592.0,304.479,0.994
594.0,304.495,0.994
596.0,304.47,0.994
598.0,304.475,0.994
600.0,304.484,0.994
602.0,304.48,0.994
604.0,304.487,0.993
606.0,304.471,0.993
608.0,304.478,0.993
610.0,304.471,0.993
612.0,304.492,0.993
614.0,304.476,0.993
616.0,304.482,0.993
618.0,304.487,0.993
620.0,304.479,0.993
622.0,304.487,0.993
624.0,304.466,0.993
626.0,304.466,0.993
628.0,304.474,0.993
630.0,304.468,0.993
632.0,304.469,0.993
634.0,304.467,0.993
636.0,304.477,0.993
638.0,304.471,0.993
640.0,304.474,0.993
642.0,304.472,0.993
644.0,304.476,0.993
646.0,304.47,0.993
648.0,304.474,0.993
650.0,304.465,0.993
652.0,304.475,0.993
654.0,304.471,0.993
656.0,304.47,0.993
658.0,304.466,0.993
660.0,304.479,0.993
662.0,304.472,0.993
664.0,304.478,0.993
666.0,304.483,0.993
668.0,304.468,0.993
670.0,304.462,0.993
672.0,304.481,0.993
674.0,304.465,0.993
676.0,304.47,0.993
678.0,304.468,0.993
680.0,304.466,0.993
682.0,304.462,0.993
684.0,304.48,0.993
686.0,304.458,0.993
688.0,304.471,0.993
690.0,304.469,0.993
692.0,304.479,0.993
694.0,304.479,0.993
696.0,304.471,0.993
698.0,304.468,0.993
700.0,304.473,0.993
702.0,304.473,0.993
704.0,304.471,0.993
706.0,304.468,0.993
708.0,304.476,0.993
710.0,304.476,0.993
712.0,304.471,0.993
714.0,304.481,0.993
716.0,304.474,0.993
718.0,304.471,0.993
720.0,304.46,0.993
722.0,304.475,0.993
724.0,304.476,0.993
726.0,304.489,0.993
728.0,304.488,0.993
730.0,304.478,0.993
732.0,304.468,0.993
734.0,304.466,0.993
736.0,304.477,0.993
738.0,304.484,0.993
740.0,304.475,0.993
742.0,304.478,0.993
744.0,304.483,0.993
746.0,304.476,0.993
748.0,304.479,0.993
750.0,304.475,0.993
752.0,304.47,0.993
754.0,304.481,0.993
756.0,304.476,0.993
758.0,304.474,0.993
760.0,304.47,0.993
762.0,304.46,0.993
764.0,304.464,0.993
766.0,304.46,0.993
768.0,304.474,0.993
770.0,304.472,0.993
772.0,304.46,0.993
774.0,304.473,0.993
776.0,304.475,0.993
778.0,304.474,0.993
780.0,304.471,0.993
782.0,304.461,0.993
784.0,304.468,0.993
786.0,304.468,0.993
788.0,304.456,0.993
790.0,304.47,0.993
792.0,304.472,0.993
794.0,304.475,0.993
796.0,304.461,0.993
798.0,304.468,0.993
800.0,304.487,0.993
802.0,304.459,0.993
804.0,304.482,0.993
806.0,304.473,0.993
808.0,304.468,0.993
810.0,304.469,0.993
812.0,304.48,0.993
814.0,304.462,0.993
816.0,304.475,0.993
818.0,304.484,0.993
820.0,304.478,0.993
822.0,304.472,0.993
824.0,304.474,0.993
826.0,304.475,0.993
828.0,304.482,0.993
830.0,304.468,0.993
832.0,304.462,0.993
834.0,304.472,0.993
836.0,304.478,0.993
838.0,304.469,0.993
840.0,304.476,0.993
842.0,304.474,0.993
844.0,304.473,0.993
846.0,304.477,0.993
848.0,304.467,0.993
850.0,304.468,0.993
852.0,304.469,0.993
854.0,304.459,0.993
856.0,304.473,0.993
858.0,304.473,0.993
860.0,304.474,0.993
862.0,304.475,0.993
864.0,304.481,0.993
866.0,304.472,0.993
868.0,304.474,0.993
870.0,304.493,0.993
872.0,304.473,0.993
874.0,304.467,0.993
876.0,304.464,0.993
878.0,304.468,0.993
880.0,304.458,0.993
882.0,304.468,0.993
884.0,304.459,0.993
886.0,304.466,0.993
888.0,304.477,0.993
890.0,304.479,0.993
892.0,304.472,0.993
894.0,304.472,0.993
896.0,304.48,0.993
898.0,304.474,0.993
900.0,304.469,0.993
902.0,304.474,0.993
904.0,304.475,0.993
906.0,304.46,0.993
908.0,304.48,0.993
910.0,304.49,0.993
912.0,304.467,0.993
914.0,304.47,0.993
916.0,304.468,0.993
918.0,304.468,0.993
920.0,304.469,0.993
922.0,304.482,0.993
924.0,304.474,0.993
926.0,304.473,0.993
928.0,304.465,0.993
930.0,304.456,0.993
932.0,304.473,0.993
934.0,304.472,0.993
936.0,304.477,0.993
938.0,304.46,0.992
940.0,304.468,0.992
942.0,304.474,0.992
944.0,304.465,0.992
946.0,304.468,0.992
948.0,304.461,0.992
950.0,304.464,0.992
952.0,304.47,0.992
954.0,304.475,0.993
956.0,304.444,0.993
958.0,304.459,0.993
960.0,304.473,0.993
962.0,304.462,0.993
964.0,304.462,0.993
966.0,304.474,0.993
968.0,304.458,0.993
970.0,304.462,0.993
972.0,304.458,0.993
974.0,304.46,0.993
976.0,304.458,0.993
978.0,304.475,0.993
980.0,304.459,0.993
982.0,304.46,0.993
984.0,304.475,0.993
986.0,304.467,0.993
988.0,304.471,0.993
990.0,304.475,0.993
992.0,304.463,0.993
994.0,304.464,0.993
996.0,304.464,0.993
998.0,304.464,0.993
1000.0,304.456,0.993
1002.0,304.448,0.993
1004.0,304.476,0.993
1006.0,304.464,0.993
1008.0,304.481,0.992
1010.0,304.472,0.992
1012.0,304.46,0.992
1014.0,304.485,0.992
1016.0,304.466,0.992
1018.0,304.461,0.992
1020.0,304.47,0.992
1022.0,304.46,0.992
1024.0,304.474,0.992
1026.0,304.486,0.992
1028.0,304.477,0.992
1030.0,304.469,0.992
1032.0,304.451,0.992
1034.0,304.47,0.992
1036.0,304.465,0.992
1038.0,304.46,0.992
1040.0,304.476,0.992
1042.0,304.472,0.992
1044.0,304.473,0.992
1046.0,304.46,0.992
1048.0,304.468,0.992
1050.0,304.466,0.992
1052.0,304.465,0.992
1054.0,304.465,0.992
1056.0,304.47,0.992
1058.0,304.46,0.992
1060.0,304.472,0.992
1062.0,304.459,0.992
1064.0,304.469,0.992
1066.0,304.462,0.992
1068.0,304.476,0.992
1070.0,304.472,0.992
1072.0,304.462,0.992
1074.0,304.461,0.992
1076.0,304.468,0.992
1078.0,304.47,0.992
1080.0,304.487,0.992
1082.0,304.475,0.992
1084.0,304.469,0.992
1086.0,304.468,0.992
1088.0,304.477,0.992
1090.0,304.463,0.992
1092.0,304.466,0.992
1094.0,304.468,0.992
1096.0,304.475,0.992
1098.0,304.465,0.992
1100.0,304.451,0.992
1102.0,304.47,0.992
1104.0,304.477,0.992
1106.0,304.464,0.992
1108.0,304.478,0.992
1110.0,304.48,0.992
1112.0,304.482,0.992
1114.0,304.473,0.992
1116.0,304.47,0.992
1118.0,304.456,0.992
1120.0,304.452,0.992
1122.0,304.477,0.992
1124.0,304.472,0.992
1126.0,304.47,0.992
1128.0,304.467,0.992
1130.0,304.472,0.992
1132.0,304.481,0.992
1134.0,304.468,0.992
1136.0,304.464,0.992
1138.0,304.476,0.992
1140.0,304.478,0.992
1142.0,304.467,0.992
1144.0,304.476,0.992
1146.0,304.463,0.992
1148.0,304.474,0.992
1150.0,304.471,0.992
1152.0,304.464,0.993
1154.0,304.491,0.993
1156.0,304.468,0.993
1158.0,304.467,0.993
1160.0,304.463,0.993
1162.0,304.479,0.993
1164.0,304.456,0.993
1166.0,304.456,0.993
1168.0,304.457,0.993
1170.0,304.462,0.993
1172.0,304.459,0.993
1174.0,304.463,0.992
1176.0,304.46,0.992
1178.0,304.461,0.992
1180.0,304.463,0.992
1182.0,304.466,0.992
1184.0,304.478,0.992
1186.0,304.45,0.992
1188.0,304.471,0.992
1190.0,304.471,0.992
1192.0,304.474,0.992
1194.0,304.481,0.992
1196.0,304.479,0.992
1198.0,304.484,0.992
1200.0,304.502,0.992
1202.0,304.571,0.991
1204.0,305.219,0.991
1206.0,305.983,0.99
1208.0,306.632,0.99
1210.0,307.583,0.99
1212.0,308.663,0.992
1214.0,309.844,0.993
1216.0,311.09,0.994
1218.0,312.356,0.995
1220.0,313.627,0.995
1222.0,314.945,0.995
1224.0,316.258,0.995
1226.0,317.577,0.994
1228.0,318.912,0.994
1230.0,320.23,0.993
1232.0,321.548,0.993
1234.0,322.866,0.993
1236.0,324.194,0.992
1238.0,325.521,0.992
1240.0,326.846,0.992
1242.0,328.174,0.991
1244.0,329.502,0.991
1246.0,330.826,0.991
1248.0,332.161,0.991
1250.0,333.48,0.99
1252.0,334.81,0.99
1254.0,336.119,0.99
1256.0,337.445,0.99
1258.0,338.786,0.989
1260.0,340.107,0.989
1262.0,341.424,0.989
1264.0,342.742,0.988
1266.0,344.077,0.988
1268.0,345.402,0.987
1270.0,346.72,0.987
1272.0,348.032,0.987
1274.0,349.372,0.986
1276.0,350.699,0.986
1278.0,352.01,0.986
1280.0,353.32,0.985
1282.0,354.657,0.985
1284.0,355.982,0.984
1286.0,357.301,0.984
1288.0,358.639,0.984
1290.0,359.958,0.984
1292.0,361.272,0.983
1294.0,362.616,0.983
1296.0,363.929,0.983
1298.0,365.26,0.983
1300.0,366.591,0.982
1302.0,367.922,0.982
1304.0,369.234,0.982
1306.0,370.572,0.982
1308.0,371.907,0.982
1310.0,373.218,0.982
1312.0,374.553,0.982
1314.0,375.88,0.982
1316.0,377.212,0.981
1318.0,378.54,0.981
1320.0,379.876,0.981
1322.0,381.209,0.981
1324.0,382.539,0.981
1326.0,383.867,0.981
1328.0,385.202,0.981
1330.0,386.546,0.981
1332.0,387.87,0.981
1334.0,389.209,0.981
1336.0,390.555,0.981
1338.0,391.879,0.981
1340.0,393.214,0.981
1342.0,394.565,0.981
1344.0,395.894,0.98
1346.0,397.241,0.98
1348.0,398.571,0.98
1350.0,399.918,0.98
1352.0,401.257,0.98
1354.0,402.587,0.98
1356.0,403.933,0.98
1358.0,405.282,0.98
1360.0,406.626,0.98
1362.0,407.975,0.98
1364.0,409.308,0.98
1366.0,410.651,0.98
1368.0,412.006,0.98
1370.0,413.34,0.98
1372.0,414.688,0.98
1374.0,416.046,0.98
1376.0,417.39,0.98
1378.0,418.734,0.98
1380.0,420.091,0.98
1382.0,421.438,0.98
1384.0,422.8,0.98
1386.0,424.146,0.98
1388.0,425.493,0.98
1390.0,426.85,0.98
1392.0,428.195,0.98
1394.0,429.551,0.98
1396.0,430.904,0.979
1398.0,432.256,0.979
1400.0,433.603,0.979
1402.0,434.965,0.979
1404.0,436.322,0.979
1406.0,437.673,0.979
1408.0,439.028,0.979
1410.0,440.388,0.979
1412.0,441.746,0.979
1414.0,443.11,0.979
1416.0,444.466,0.979
1418.0,445.821,0.978
1420.0,447.179,0.978
1422.0,448.552,0.978
1424.0,449.908,0.978
1426.0,451.271,0.978
1428.0,452.633,0.978
1430.0,453.995,0.977
1432.0,455.352,0.977
1434.0,456.726,0.977
1436.0,458.104,0.977
1438.0,459.464,0.977
1440.0,460.823,0.976
1442.0,462.194,0.976
1444.0,463.557,0.976
1446.0,464.929,0.975
1448.0,466.288,0.975
1450.0,467.658,0.974
1452.0,469.034,0.974
1454.0,470.403,0.974
1456.0,471.776,0.973
1458.0,473.141,0.973
1460.0,474.515,0.972
1462.0,475.878,0.972
1464.0,477.238,0.971
1466.0,478.614,0.971
1468.0,479.978,0.97
1470.0,481.355,0.97
1472.0,482.714,0.969
1474.0,484.095,0.969
1476.0,485.468,0.968
1478.0,486.83,0.968
1480.0,488.202,0.967
1482.0,489.583,0.966
1484.0,490.947,0.966
1486.0,492.309,0.965
1488.0,493.679,0.965
1490.0,495.057,0.964
1492.0,496.429,0.963
1494.0,497.787,0.963
1496.0,499.155,0.962
1498.0,500.519,0.961
1500.0,501.895,0.96
1502.0,503.278,0.96
1504.0,504.639,0.959
1506.0,506.003,0.958
1508.0,507.384,0.957
1510.0,508.748,0.956
1512.0,510.128,0.956
1514.0,511.48,0.955
1516.0,512.862,0.954
1518.0,514.23,0.953
1520.0,515.603,0.952
1522.0,516.972,0.951
1524.0,518.344,0.95
1526.0,519.706,0.949
1528.0,521.071,0.948
1530.0,522.443,0.947
1532.0,523.813,0.945
1534.0,525.177,0.944
1536.0,526.556,0.943
1538.0,527.903,0.941
1540.0,529.275,0.94
1542.0,530.642,0.939
1544.0,532.017,0.937
1546.0,533.37,0.936
1548.0,534.74,0.934
1550.0,536.104,0.932
1552.0,537.468,0.931
1554.0,538.833,0.929
1556.0,540.197,0.927
1558.0,541.564,0.925
1560.0,542.933,0.923
1562.0,544.301,0.921
1564.0,545.655,0.919
1566.0,547.022,0.917
1568.0,548.385,0.915
1570.0,549.755,0.913
1572.0,551.112,0.911
1574.0,552.476,0.908
1576.0,553.844,0.906
1578.0,555.193,0.904
1580.0,556.567,0.901
1582.0,557.925,0.899
1584.0,559.29,0.896
1586.0,560.648,0.894
1588.0,561.997,0.891
1590.0,563.357,0.889
1592.0,564.722,0.886
1594.0,566.079,0.884
1596.0,567.446,0.881
1598.0,568.81,0.878
1600.0,570.159,0.875
1602.0,571.515,0.872
1604.0,572.884,0.87
1606.0,574.245,0.867
1608.0,575.592,0.864
1610.0,576.956,0.861
1612.0,578.307,0.858
1614.0,579.666,0.854
1616.0,581.025,0.851
1618.0,582.387,0.848
1620.0,583.723,0.845
1622.0,585.087,0.841
1624.0,586.441,0.838
1626.0,587.79,0.834
1628.0,589.134,0.831
1630.0,590.497,0.827
1632.0,591.847,0.823
1634.0,593.191,0.819
1636.0,594.542,0.815
1638.0,595.894,0.811
1640.0,597.239,0.807
1642.0,598.586,0.803
1644.0,599.945,0.798
1646.0,601.284,0.793
1648.0,602.631,0.789
1650.0,603.984,0.784
1652.0,605.335,0.779
1654.0,606.681,0.774
1656.0,608.023,0.769
1658.0,609.371,0.763
1660.0,610.714,0.758
1662.0,612.065,0.752
1664.0,613.411,0.746
1666.0,614.751,0.741
1668.0,616.086,0.734
1670.0,617.431,0.728
1672.0,618.773,0.722
1674.0,620.114,0.716
1676.0,621.455,0.709
1678.0,622.799,0.702
1680.0,624.128,0.695
1682.0,625.471,0.689
1684.0,626.812,0.681
1686.0,628.153,0.674
1688.0,629.492,0.667
1690.0,630.828,0.66
1692.0,632.153,0.652
1694.0,633.507,0.645
1696.0,634.837,0.637
1698.0,636.175,0.629
1700.0,637.51,0.621
1702.0,638.838,0.613
1704.0,640.167,0.605
1706.0,641.514,0.597
1708.0,642.844,0.588
1710.0,644.178,0.58
1712.0,645.509,0.571
1714.0,646.838,0.563
1716.0,648.173,0.554
1718.0,649.51,0.545
1720.0,650.838,0.536
1722.0,652.166,0.526
1724.0,653.489,0.517
1726.0,654.813,0.507
1728.0,656.146,0.498
1730.0,657.471,0.488
1732.0,658.8,0.477
1734.0,660.132,0.467
1736.0,661.455,0.456
1738.0,662.771,0.446
1740.0,664.097,0.435
1742.0,665.414,0.423
1744.0,666.74,0.412
1746.0,668.065,0.4
1748.0,669.389,0.389
1750.0,670.71,0.377
1752.0,672.021,0.364
1754.0,673.355,0.352
1756.0,674.674,0.34
1758.0,676.005,0.328
1760.0,677.318,0.315
1762.0,678.638,0.303
1764.0,679.961,0.292
1766.0,681.284,0.28
1768.0,682.61,0.269
1770.0,683.941,0.259
1772.0,685.258,0.249
1774.0,686.584,0.24
1776.0,687.912,0.233
1778.0,689.229,0.225
1780.0,690.561,0.219
1782.0,691.88,0.214
1784.0,693.216,0.209
1786.0,694.544,0.205
1788.0,695.857,0.202
1790.0,697.18,0.199
1792.0,698.505,0.197
1794.0,699.832,0.195
1796.0,701.147,0.194
1798.0,702.472,0.193
1800.0,703.792,0.191
1802.0,705.113,0.19
1804.0,706.429,0.189
1806.0,707.756,0.188
1808.0,709.075,0.187
1810.0,710.399,0.186
1812.0,711.714,0.185
1814.0,713.046,0.184
1816.0,714.364,0.184
1818.0,715.683,0.183
1820.0,717.006,0.182
1822.0,718.325,0.181
1824.0,719.637,0.18
1826.0,720.962,0.179
1828.0,722.284,0.179
1830.0,723.599,0.178
1832.0,724.922,0.177
1834.0,726.239,0.176
1836.0,727.562,0.175
1838.0,728.875,0.175
1840.0,730.191,0.174
1842.0,731.502,0.173
1844.0,732.825,0.172
1846.0,734.146,0.172
1848.0,735.466,0.171
1850.0,736.781,0.17
1852.0,738.102,0.169
1854.0,739.415,0.169
1856.0,740.73,0.168
1858.0,742.049,0.167
1860.0,743.366,0.167
1862.0,744.687,0.166
1864.0,746.004,0.165
1866.0,747.321,0.165
1868.0,748.641,0.164
1870.0,749.95,0.163
1872.0,751.277,0.162
1874.0,752.585,0.162
1876.0,753.903,0.161
1878.0,755.213,0.161
1880.0,756.546,0.16
1882.0,757.851,0.159
1884.0,759.164,0.159
1886.0,760.475,0.158
1888.0,761.805,0.158
1890.0,763.111,0.157
1892.0,764.432,0.157
1894.0,765.749,0.156
1896.0,767.07,0.156
1898.0,768.389,0.155
1900.0,769.702,0.155
1902.0,771.018,0.154
1904.0,772.331,0.154
1906.0,773.66,0.154
1908.0,774.979,0.153
1910.0,776.285,0.153
1912.0,777.607,0.152
1914.0,778.918,0.152
1916.0,780.24,0.152
1918.0,781.554,0.151
1920.0,782.879,0.151
1922.0,784.193,0.151
1924.0,785.507,0.15
1926.0,786.825,0.15
1928.0,788.135,0.149
1930.0,789.465,0.149
1932.0,790.77,0.149
1934.0,792.088,0.148
1936.0,793.414,0.148
1938.0,794.733,0.147
1940.0,796.042,0.147
1942.0,797.363,0.147
1944.0,798.681,0.147
1946.0,800.008,0.146
1948.0,801.322,0.146
1950.0,802.644,0.146
1952.0,803.954,0.145
1954.0,805.275,0.145
1956.0,806.595,0.145
1958.0,807.912,0.144
1960.0,809.234,0.144
1962.0,810.548,0.144
1964.0,811.862,0.143
1966.0,813.189,0.143
1968.0,814.509,0.143
1970.0,815.818,0.143
1972.0,817.146,0.142
1974.0,818.459,0.142
1976.0,819.782,0.142
1978.0,821.093,0.141
1980.0,822.416,0.141
1982.0,823.729,0.141
1984.0,825.058,0.141
1986.0,826.363,0.14
1988.0,827.688,0.14
1990.0,829.015,0.14
1992.0,830.331,0.14
1994.0,831.645,0.139
1996.0,832.973,0.139
1998.0,834.29,0.139
2000.0,835.611,0.139
2002.0,836.921,0.138
2004.0,838.252,0.138
2006.0,839.562,0.138
2008.0,840.883,0.138
2010.0,842.202,0.138
2012.0,843.523,0.137
2014.0,844.846,0.137
2016.0,846.165,0.137
2018.0,847.483,0.137
2020.0,848.8,0.136
2022.0,850.12,0.136
2024.0,851.448,0.136
2026.0,852.762,0.136
2028.0,854.079,0.136
2030.0,855.41,0.135
2032.0,856.721,0.135
2034.0,858.039,0.135
2036.0,859.367,0.135
2038.0,860.681,0.135
2040.0,862.004,0.134
2042.0,863.328,0.134
2044.0,864.647,0.134
2046.0,865.963,0.134
2048.0,867.287,0.133
2050.0,868.599,0.133
2052.0,869.931,0.133
2054.0,871.247,0.133
2056.0,872.569,0.133
2058.0,873.893,0.132
2060.0,875.222,0.132
2062.0,876.545,0.132
2064.0,877.862,0.132
2066.0,879.186,0.132
2068.0,880.511,0.132
2070.0,881.82,0.131
2072.0,883.154,0.131
2074.0,884.47,0.131
2076.0,885.79,0.131
2078.0,887.111,0.13
2080.0,888.44,0.13
2082.0,889.768,0.13
2084.0,891.09,0.13
2086.0,892.407,0.13
2088.0,893.723,0.129
2090.0,895.057,0.129
2092.0,896.376,0.129
2094.0,897.698,0.129
2096.0,899.019,0.129
2098.0,900.342,0.129
2100.0,901.663,0.128
2102.0,902.991,0.128
2104.0,904.319,0.128
2106.0,905.648,0.128
2108.0,906.965,0.128
2110.0,908.292,0.128
2112.0,909.609,0.128
2114.0,910.941,0.127
2116.0,912.258,0.127
2118.0,913.581,0.127
2120.0,914.908,0.127
2122.0,916.232,0.126
2124.0,917.556,0.126
2126.0,918.886,0.126
2128.0,920.211,0.126
2130.0,921.534,0.126
2132.0,922.856,0.126
2134.0,924.182,0.126
2136.0,925.507,0.125
2138.0,926.831,0.125
2140.0,928.16,0.125
2142.0,929.489,0.125
2144.0,930.818,0.125
2146.0,932.133,0.125
2148.0,933.468,0.125
2150.0,934.789,0.124
2152.0,936.114,0.124
2154.0,937.442,0.124
2156.0,938.765,0.124
2158.0,940.085,0.124
2160.0,941.421,0.124
2162.0,942.738,0.124
2164.0,944.065,0.123
2166.0,945.397,0.123
2168.0,946.719,0.123
2170.0,948.04,0.123
2172.0,949.366,0.123
2174.0,950.691,0.123
2176.0,952.014,0.123
2178.0,953.342,0.123
2180.0,954.675,0.122
2182.0,955.996,0.122
2184.0,957.318,0.122
2186.0,958.643,0.122
2188.0,959.96,0.122
2190.0,961.29,0.122
2192.0,962.622,0.122
2194.0,963.949,0.122
2196.0,965.269,0.121
2198.0,966.603,0.121
2200.0,967.928,0.121
2202.0,969.252,0.121
2204.0,970.586,0.121
2206.0,971.908,0.121
2208.0,973.231,0.121
2210.0,974.562,0.121
2212.0,975.889,0.121
2214.0,977.204,0.121
2216.0,978.545,0.121
2218.0,979.855,0.12
2220.0,981.191,0.12
2222.0,982.52,0.12
2224.0,983.844,0.12
2226.0,985.173,0.12
2228.0,986.494,0.12
2230.0,987.829,0.12
2232.0,989.147,0.12
2234.0,990.476,0.12
2236.0,991.806,0.12
2238.0,993.129,0.119
2240.0,994.461,0.119
2242.0,995.787,0.119
2244.0,997.112,0.119
2246.0,998.449,0.119
2248.0,999.762,0.119
2250.0,1001.09,0.119
2252.0,1002.41,0.119
2254.0,1003.746,0.119
2256.0,1005.073,0.119
2258.0,1006.403,0.119
2260.0,1007.737,0.118
2262.0,1009.058,0.118
2264.0,1010.391,0.118
2266.0,1011.721,0.118
2268.0,1013.046,0.118
2270.0,1014.372,0.118
2272.0,1015.702,0.118
2274.0,1017.019,0.118
2276.0,1018.351,0.118
2278.0,1019.686,0.118
2280.0,1021.013,0.117
2282.0,1022.344,0.117
2284.0,1023.676,0.117
2286.0,1024.997,0.117
2288.0,1026.333,0.117
2290.0,1027.664,0.117
2292.0,1028.991,0.117
2294.0,1030.324,0.117
2296.0,1031.658,0.117
2298.0,1032.995,0.117
2300.0,1034.32,0.117
2302.0,1035.655,0.116
2304.0,1036.986,0.116
2306.0,1038.321,0.116
2308.0,1039.645,0.116
2310.0,1040.973,0.116
2312.0,1042.307,0.116
2314.0,1043.645,0.116
2316.0,1044.971,0.116
2318.0,1046.308,0.116
2320.0,1047.632,0.116
2322.0,1048.968,0.116
2324.0,1050.295,0.116
2326.0,1051.615,0.116
2328.0,1052.954,0.115
2330.0,1054.289,0.115
2332.0,1055.622,0.115
2334.0,1056.956,0.115
2336.0,1057.945,0.115
2338.0,1058.726,0.115
2340.0,1059.642,0.115
2342.0,1060.51,0.115
2344.0,1061.295,0.114
2346.0,1062.04,0.114
2348.0,1062.709,0.114
2350.0,1063.335,0.114
2352.0,1063.906,0.114
2354.0,1064.445,0.114
2356.0,1064.929,0.114
2358.0,1065.387,0.114
2360.0,1065.812,0.114
2362.0,1066.193,0.114
2364.0,1066.557,0.114
2366.0,1066.887,0.114
2368.0,1067.21,0.114
2370.0,1067.493,0.114
2372.0,1067.755,0.114
2374.0,1068.008,0.114
2376.0,1068.238,0.114
2378.0,1068.445,0.114
2380.0,1068.653,0.113
2382.0,1068.832,0.113
2384.0,1069.011,0.113
2386.0,1069.17,0.113
2388.0,1069.326,0.113
2390.0,1069.465,0.113
2392.0,1069.597,0.113
2394.0,1069.719,0.113
2396.0,1069.827,0.113
2398.0,1069.937,0.113
2400.0,1070.043,0.113
2402.0,1070.134,0.113
2404.0,1070.224,0.113
2406.0,1070.304,0.113
2408.0,1070.385,0.113
2410.0,1070.462,0.113
2412.0,1070.536,0.113
2414.0,1070.602,0.113
2416.0,1070.665,0.113
2418.0,1070.716,0.113
2420.0,1070.772,0.113
2422.0,1070.83,0.113
2424.0,1070.869,0.113
2426.0,1070.926,0.113
2428.0,1070.97,0.113
2430.0,1071.008,0.113
2432.0,1071.051,0.113
2434.0,1071.086,0.113
2436.0,1071.13,0.113
2438.0,1071.165,0.113
2440.0,1071.2,0.112
2442.0,1071.234,0.112
2444.0,1071.262,0.112
2446.0,1071.292,0.112
2448.0,1071.326,0.112
2450.0,1071.341,0.112
2452.0,1071.372,0.112
2454.0,1071.392,0.112
2456.0,1071.421,0.112
2458.0,1071.441,0.112
2460.0,1071.467,0.112
2462.0,1071.487,0.112
2464.0,1071.512,0.112
2466.0,1071.535,0.112
2468.0,1071.552,0.112
2470.0,1071.565,0.112
2472.0,1071.584,0.112
2474.0,1071.603,0.112
2476.0,1071.615,0.112
2478.0,1071.637,0.112
2480.0,1071.653,0.112
2482.0,1071.667,0.112
2484.0,1071.68,0.112
2486.0,1071.698,0.112
2488.0,1071.714,0.112
2490.0,1071.729,0.112
2492.0,1071.735,0.112
2494.0,1071.759,0.112
2496.0,1071.765,0.112
2498.0,1071.783,0.112
2500.0,1071.788,0.112
2502.0,1071.802,0.112
2504.0,1071.817,0.112
2506.0,1071.815,0.111
2508.0,1071.832,0.111
2510.0,1071.846,0.111
2512.0,1071.856,0.111
2514.0,1071.863,0.111
2516.0,1071.861,0.111
2518.0,1071.88,0.111
2520.0,1071.892,0.111
2522.0,1071.91,0.111
2524.0,1071.907,0.111
2526.0,1071.914,0.111
2528.0,1071.924,0.111
2530.0,1071.919,0.111
2532.0,1071.938,0.111
2534.0,1071.942,0.111
2536.0,1071.951,0.111
2538.0,1071.957,0.111
2540.0,1071.965,0.111
2542.0,1071.975,0.111
2544.0,1071.98,0.111
2546.0,1071.993,0.111
2548.0,1071.999,0.111
2550.0,1072.005,0.111
2552.0,1072.01,0.111
2554.0,1072.016,0.111
2556.0,1072.026,0.111
2558.0,1072.025,0.111
2560.0,1072.039,0.111
2562.0,1072.033,0.111
2564.0,1072.044,0.111
2566.0,1072.052,0.111
2568.0,1072.052,0.111
2570.0,1072.055,0.111
2572.0,1072.072,0.111
2574.0,1072.067,0.111
2576.0,1072.082,0.111
2578.0,1072.084,0.111
2580.0,1072.082,0.111
2582.0,1072.083,0.11
2584.0,1072.097,0.11
2586.0,1072.095,0.11
2588.0,1072.105,0.11
2590.0,1072.108,0.11
2592.0,1072.113,0.11
2594.0,1072.114,0.11
2596.0,1072.117,0.11
2598.0,1072.122,0.11
2600.0,1072.129,0.11
2602.0,1072.13,0.11
2604.0,1072.133,0.11
2606.0,1072.137,0.11
2608.0,1072.134,0.11
2610.0,1072.137,0.11
2612.0,1072.147,0.11
2614.0,1072.141,0.11
2616.0,1072.154,0.11
2618.0,1072.156,0.11
2620.0,1072.152,0.11
2622.0,1072.155,0.11
2624.0,1072.168,0.11
2626.0,1072.172,0.11
2628.0,1072.166,0.11
2630.0,1072.17,0.11
2632.0,1072.182,0.11
2634.0,1072.169,0.11
2636.0,1072.18,0.11
2638.0,1072.184,0.11
2640.0,1072.186,0.11
2642.0,1072.183,0.11
2644.0,1072.196,0.11
2646.0,1072.183,0.11
2648.0,1072.185,0.11
2650.0,1072.2,0.11
2652.0,1072.187,0.11
2654.0,1072.203,0.11
2655.0,1072.208,0.11