File: Wood/Calibration_Data/TUBS/TUBS_Wood_TGA_N2_50K_R9.csv
Time (s),Temperature (K),Mass (mg)
0.0,304.972,2.01966
2.0,304.963,2.0193
4.0,304.96,2.01884
6.0,304.94,2.01837
8.0,304.931,2.01789
10.0,304.926,2.01741
12.0,304.917,2.01691
14.0,304.902,2.0164
16.0,304.896,2.01586
18.0,304.888,2.01534
20.0,304.878,2.01484
22.0,304.883,2.01434
24.0,304.849,2.01386
26.0,304.861,2.01339
28.0,304.85,2.01293
30.0,304.845,2.0125
32.0,304.825,2.0121
34.0,304.831,2.01171
36.0,304.835,2.01133
38.0,304.823,2.01094
40.0,304.812,2.01055
42.0,304.801,2.01016
44.0,304.793,2.00976
46.0,304.801,2.00937
48.0,304.791,2.00898
50.0,304.789,2.0086
52.0,304.788,2.00821
54.0,304.768,2.00784
56.0,304.767,2.00746
58.0,304.768,2.00709
60.0,304.768,2.00671
62.0,304.777,2.00634
64.0,304.747,2.00598
66.0,304.727,2.00563
68.0,304.722,2.0053
70.0,304.73,2.00496
72.0,304.731,2.00463
74.0,304.725,2.0043
76.0,304.703,2.00398
78.0,304.703,2.00365
80.0,304.716,2.00331
82.0,304.716,2.00298
84.0,304.723,2.00264
86.0,304.704,2.00232
88.0,304.698,2.002
90.0,304.713,2.00169
92.0,304.698,2.00139
94.0,304.696,2.0011
96.0,304.687,2.00081
98.0,304.685,2.00055
100.0,304.683,2.00031
102.0,304.663,2.00007
104.0,304.667,1.99983
106.0,304.676,1.99959
108.0,304.665,1.99934
110.0,304.668,1.99909
112.0,304.673,1.99884
114.0,304.672,1.9986
116.0,304.652,1.99835
118.0,304.665,1.9981
120.0,304.639,1.99784
122.0,304.64,1.99758
124.0,304.625,1.99732
126.0,304.635,1.99707
128.0,304.624,1.99683
130.0,304.635,1.99659
132.0,304.624,1.99636
134.0,304.626,1.99613
136.0,304.611,1.99591
138.0,304.621,1.9957
140.0,304.615,1.99549
142.0,304.601,1.99528
144.0,304.613,1.99508
146.0,304.602,1.99488
148.0,304.601,1.99467
150.0,304.59,1.99446
152.0,304.601,1.99424
154.0,304.602,1.99403
156.0,304.597,1.99381
158.0,304.597,1.99359
160.0,304.572,1.99337
162.0,304.585,1.99315
164.0,304.584,1.99294
166.0,304.569,1.99274
168.0,304.578,1.99258
170.0,304.58,1.99243
172.0,304.574,1.9923
174.0,304.594,1.99216
176.0,304.579,1.99201
178.0,304.565,1.99186
180.0,304.58,1.99168
182.0,304.57,1.9915
184.0,304.571,1.99131
186.0,304.548,1.99111
188.0,304.56,1.99092
190.0,304.553,1.99073
192.0,304.539,1.99055
194.0,304.56,1.99038
196.0,304.545,1.9902
198.0,304.553,1.99003
200.0,304.548,1.98987
202.0,304.54,1.98971
204.0,304.539,1.98956
206.0,304.552,1.9894
208.0,304.548,1.98924
210.0,304.542,1.98908
212.0,304.541,1.98892
214.0,304.544,1.98875
216.0,304.546,1.98859
218.0,304.538,1.98842
220.0,304.519,1.98827
222.0,304.528,1.98812
224.0,304.52,1.988
226.0,304.528,1.98787
228.0,304.517,1.98773
230.0,304.511,1.9876
232.0,304.507,1.98746
234.0,304.521,1.98732
236.0,304.508,1.98716
238.0,304.525,1.987
240.0,304.526,1.98685
242.0,304.5,1.98671
244.0,304.521,1.98659
246.0,304.515,1.98647
248.0,304.5,1.98636
250.0,304.503,1.98626
252.0,304.504,1.98616
254.0,304.512,1.98605
256.0,304.492,1.98593
258.0,304.485,1.98581
260.0,304.489,1.98569
262.0,304.491,1.98557
264.0,304.49,1.98544
266.0,304.472,1.9853
268.0,304.485,1.98517
270.0,304.485,1.98503
272.0,304.485,1.9849
274.0,304.478,1.98477
276.0,304.48,1.98465
278.0,304.46,1.98454
280.0,304.488,1.98442
282.0,304.481,1.9843
284.0,304.476,1.98419
286.0,304.486,1.98407
288.0,304.478,1.98394
290.0,304.478,1.98381
292.0,304.485,1.98367
294.0,304.46,1.98354
296.0,304.479,1.98343
298.0,304.472,1.98333
300.0,304.453,1.98322
302.0,304.459,1.9831
304.0,304.467,1.98297
306.0,304.48,1.98285
308.0,304.486,1.98274
310.0,304.478,1.98265
312.0,304.474,1.98257
314.0,304.463,1.9825
316.0,304.475,1.98242
318.0,304.474,1.98234
320.0,304.474,1.98224
322.0,304.467,1.98215
324.0,304.47,1.98207
326.0,304.462,1.98199
328.0,304.458,1.98191
330.0,304.455,1.98183
332.0,304.45,1.98174
334.0,304.451,1.98165
336.0,304.463,1.98156
338.0,304.462,1.98148
340.0,304.453,1.98139
342.0,304.456,1.98129
344.0,304.463,1.98119
346.0,304.452,1.98109
348.0,304.461,1.98101
350.0,304.449,1.98092
352.0,304.451,1.98084
354.0,304.451,1.98077
356.0,304.453,1.9807
358.0,304.458,1.98062
360.0,304.455,1.9805
362.0,304.448,1.98039
364.0,304.458,1.98028
366.0,304.447,1.98019
368.0,304.453,1.98011
370.0,304.443,1.98005
372.0,304.438,1.98
374.0,304.458,1.97995
376.0,304.448,1.97991
378.0,304.444,1.97986
380.0,304.437,1.9798
382.0,304.446,1.97973
384.0,304.456,1.97966
386.0,304.452,1.97958
388.0,304.444,1.97948
390.0,304.442,1.97939
392.0,304.442,1.97929
394.0,304.456,1.97921
396.0,304.43,1.97916
398.0,304.432,1.97912
400.0,304.448,1.97908
402.0,304.461,1.97902
404.0,304.442,1.97893
406.0,304.448,1.97885
408.0,304.454,1.97876
410.0,304.449,1.97868
412.0,304.455,1.9786
414.0,304.453,1.97851
416.0,304.456,1.97842
418.0,304.43,1.97834
420.0,304.453,1.97827
422.0,304.455,1.97821
424.0,304.457,1.97816
426.0,304.436,1.9781
428.0,304.437,1.97805
430.0,304.428,1.97798
432.0,304.446,1.97791
434.0,304.42,1.97783
436.0,304.439,1.97776
438.0,304.427,1.97769
440.0,304.448,1.97763
442.0,304.445,1.97757
444.0,304.438,1.97753
446.0,304.443,1.97748
448.0,304.439,1.97743
450.0,304.434,1.97736
452.0,304.442,1.97727
454.0,304.44,1.97718
456.0,304.446,1.9771
458.0,304.432,1.97703
460.0,304.432,1.97697
462.0,304.431,1.9769
464.0,304.438,1.97685
466.0,304.435,1.97681
468.0,304.448,1.97678
470.0,304.444,1.97674
472.0,304.423,1.97669
474.0,304.429,1.97665
476.0,304.419,1.9766
478.0,304.426,1.97654
480.0,304.418,1.97648
482.0,304.433,1.9764
484.0,304.437,1.97632
486.0,304.43,1.97625
488.0,304.436,1.9762
490.0,304.433,1.97615
492.0,304.436,1.97612
494.0,304.416,1.97609
496.0,304.419,1.97606
498.0,304.43,1.97602
500.0,304.446,1.97596
502.0,304.444,1.9759
504.0,304.433,1.97583
506.0,304.417,1.97576
508.0,304.424,1.97571
510.0,304.421,1.97568
512.0,304.425,1.97565
514.0,304.432,1.97561
516.0,304.423,1.97555
518.0,304.436,1.9755
520.0,304.423,1.97544
522.0,304.434,1.97539
524.0,304.417,1.97534
526.0,304.434,1.97529
528.0,304.425,1.97524
530.0,304.441,1.9752
532.0,304.439,1.97517
534.0,304.426,1.97514
536.0,304.427,1.97512
538.0,304.413,1.97509
540.0,304.428,1.97505
542.0,304.424,1.97501
544.0,304.42,1.97497
546.0,304.412,1.97494
548.0,304.415,1.97492
550.0,304.406,1.9749
552.0,304.429,1.97487
554.0,304.425,1.97483
556.0,304.426,1.97478
558.0,304.436,1.97473
560.0,304.406,1.97468
562.0,304.428,1.97463
564.0,304.416,1.97457
566.0,304.42,1.97451
568.0,304.429,1.97446
570.0,304.406,1.97442
573.0,304.429,1.97439
575.0,304.424,1.97436
577.0,304.411,1.97431
579.0,304.423,1.97425
581.0,304.434,1.97418
583.0,304.449,1.97411
585.0,304.443,1.97404
587.0,304.429,1.97398
589.0,304.422,1.97394
591.0,304.429,1.97391
598.0,304.442,1.97389
600.0,304.427,1.97387
602.0,304.429,1.97384
604.0,304.438,1.97381
606.0,304.422,1.97377
608.0,304.432,1.97373
610.0,304.438,1.97369
612.0,304.444,1.97364
614.0,304.436,1.97362
616.0,304.43,1.97359
618.0,304.436,1.97356
620.0,304.438,1.97353
622.0,304.44,1.9735
624.0,304.432,1.97346
626.0,304.425,1.97341
628.0,304.436,1.97335
630.0,304.418,1.97328
632.0,304.424,1.97321
634.0,304.436,1.97316
636.0,304.429,1.97312
638.0,304.424,1.9731
642.0,304.433,1.97308
649.0,304.42,1.97308
651.0,304.426,1.97306
653.0,304.428,1.97303
655.0,304.437,1.973
657.0,304.432,1.97297
659.0,304.44,1.97294
662.0,304.443,1.9729
664.0,304.425,1.97285
666.0,304.456,1.97279
668.0,304.441,1.97272
670.0,304.447,1.97267
672.0,304.443,1.97262
674.0,304.437,1.97258
676.0,304.45,1.97255
678.0,304.437,1.97253
681.0,304.446,1.97251
684.0,304.444,1.97249
686.0,304.444,1.97247
688.0,304.426,1.97244
690.0,304.442,1.97242
693.0,304.443,1.9724
696.0,304.439,1.97237
698.0,304.43,1.97234
700.0,304.434,1.97229
702.0,304.431,1.97225
704.0,304.437,1.97222
707.0,304.435,1.9722
709.0,304.43,1.97218
711.0,304.457,1.97216
713.0,304.453,1.97213
715.0,304.442,1.97211
718.0,304.43,1.97208
720.0,304.449,1.97205
722.0,304.436,1.97201
724.0,304.436,1.97197
726.0,304.44,1.97193
729.0,304.44,1.97191
735.0,304.442,1.97189
738.0,304.435,1.97186
740.0,304.432,1.97181
742.0,304.451,1.97177
744.0,304.448,1.97173
746.0,304.451,1.9717
748.0,304.445,1.97167
750.0,304.448,1.97164
752.0,304.441,1.97159
754.0,304.435,1.97155
756.0,304.433,1.97152
759.0,304.432,1.9715
768.0,304.433,1.9715
770.0,304.425,1.97147
772.0,304.421,1.97144
774.0,304.43,1.97142
779.0,304.441,1.9714
784.0,304.433,1.97137
786.0,304.431,1.97134
788.0,304.444,1.97131
790.0,304.425,1.97127
792.0,304.441,1.97125
794.0,304.438,1.97122
796.0,304.445,1.97118
798.0,304.441,1.97115
800.0,304.447,1.97112
802.0,304.428,1.97108
804.0,304.437,1.97105
806.0,304.427,1.97102
810.0,304.436,1.971
816.0,304.45,1.97098
818.0,304.446,1.97096
820.0,304.442,1.97093
822.0,304.441,1.97089
824.0,304.439,1.97084
826.0,304.422,1.97079
828.0,304.445,1.97075
830.0,304.437,1.97072
833.0,304.43,1.9707
838.0,304.434,1.97068
840.0,304.445,1.97063
842.0,304.443,1.97059
844.0,304.442,1.97055
846.0,304.434,1.97052
849.0,304.45,1.97049
851.0,304.426,1.97046
853.0,304.449,1.97043
855.0,304.433,1.97041
867.0,304.45,1.97039
877.0,304.441,1.97037
879.0,304.448,1.97035
881.0,304.444,1.97032
883.0,304.451,1.9703
886.0,304.448,1.97028
888.0,304.434,1.97024
890.0,304.443,1.97019
892.0,304.453,1.97012
894.0,304.433,1.97007
896.0,304.439,1.97004
899.0,304.448,1.97002
901.0,304.444,1.97004
904.0,304.444,1.97006
906.0,304.434,1.97008
912.0,304.441,1.97007
914.0,304.443,1.97004
916.0,304.44,1.96999
918.0,304.448,1.96996
920.0,304.453,1.96993
922.0,304.421,1.96991
924.0,304.44,1.96988
926.0,304.442,1.96985
928.0,304.439,1.96983
930.0,304.447,1.9698
932.0,304.438,1.96978
934.0,304.44,1.96976
936.0,304.436,1.96974
940.0,304.432,1.96974
942.0,304.432,1.96976
945.0,304.448,1.96978
948.0,304.426,1.96978
951.0,304.439,1.96976
953.0,304.423,1.96973
955.0,304.435,1.96971
958.0,304.435,1.96968
960.0,304.438,1.96964
962.0,304.433,1.9696
964.0,304.428,1.96955
966.0,304.428,1.96949
968.0,304.449,1.96945
970.0,304.441,1.96942
973.0,304.431,1.9694
975.0,304.437,1.96937
977.0,304.431,1.96934
979.0,304.451,1.96932
982.0,304.444,1.9693
989.0,304.445,1.96932
992.0,304.444,1.96934
994.0,304.451,1.96936
997.0,304.445,1.96938
1000.0,304.431,1.96938
1002.0,304.442,1.96936
1004.0,304.432,1.96933
1006.0,304.436,1.96931
1008.0,304.433,1.96928
1010.0,304.45,1.96925
1012.0,304.432,1.96922
1014.0,304.456,1.9692
1016.0,304.439,1.96918
1018.0,304.446,1.96916
1021.0,304.443,1.96914
1023.0,304.448,1.96912
1027.0,304.44,1.9691
1033.0,304.442,1.96913
1036.0,304.456,1.96915
1039.0,304.434,1.96915
1041.0,304.437,1.96913
1044.0,304.447,1.96911
1055.0,304.429,1.96909
1058.0,304.43,1.96909
1063.0,304.432,1.96907
1065.0,304.446,1.96904
1067.0,304.433,1.96902
1070.0,304.44,1.969
1080.0,304.443,1.96898
1082.0,304.433,1.96895
1084.0,304.437,1.9689
1086.0,304.442,1.96886
1088.0,304.419,1.96883
1090.0,304.441,1.96881
1099.0,304.431,1.96879
1102.0,304.435,1.96879
1119.0,304.429,1.96877
1121.0,304.432,1.96875
1123.0,304.431,1.96873
1126.0,304.415,1.96871
1129.0,304.437,1.96869
1131.0,304.434,1.96866
1133.0,304.426,1.96863
1135.0,304.427,1.96861
1137.0,304.439,1.96859
1139.0,304.43,1.96856
1141.0,304.441,1.96853
1147.0,304.424,1.96853
1149.0,304.437,1.96855
1152.0,304.441,1.96857
1155.0,304.435,1.96859
1158.0,304.43,1.96862
1160.0,304.439,1.96864
1165.0,304.447,1.96861
1172.0,304.438,1.96859
1174.0,304.437,1.96857
1176.0,304.42,1.96854
1178.0,304.429,1.96852
1180.0,304.443,1.9685
1183.0,304.424,1.96848
1185.0,304.43,1.96845
1187.0,304.425,1.96841
1189.0,304.431,1.96836
1191.0,304.451,1.96833
1194.0,304.429,1.96831
1197.0,304.44,1.96828
1199.0,304.446,1.96817
1204.08,305.0,1.96657
1206.33,306.0,1.96592
1207.94,307.0,1.96565
1209.598,308.0,1.96578
1211.079,309.0,1.96637
1212.445,310.0,1.96746
1213.742,311.0,1.96826
1215.031,312.0,1.96891
1216.269,313.0,1.96966
1217.505,314.0,1.97008
1218.698,315.0,1.97035
1219.905,316.0,1.97027
1221.098,317.0,1.97026
1222.282,318.0,1.97022
1223.476,319.0,1.97012
1224.669,320.0,1.96998
1225.857,321.0,1.96976
1227.04,322.0,1.96948
1228.229,323.0,1.96909
1229.424,324.0,1.96874
1230.608,325.0,1.96838
1231.798,326.0,1.96799
1232.985,327.0,1.96763
1234.172,328.0,1.96728
1235.369,329.0,1.96693
1236.556,330.0,1.96662
1237.74,331.0,1.9663
1238.923,332.0,1.96598
1240.121,333.0,1.96569
1241.318,334.0,1.96539
1242.514,335.0,1.96508
1243.719,336.0,1.96476
1244.91,337.0,1.96445
1246.098,338.0,1.96413
1247.285,339.0,1.9638
1248.475,340.0,1.96345
1249.677,341.0,1.96309
1250.874,342.0,1.96272
1252.074,343.0,1.96233
1253.287,344.0,1.96193
1254.482,345.0,1.96153
1255.681,346.0,1.96111
1256.878,347.0,1.96068
1258.095,348.0,1.96023
1259.282,349.0,1.95979
1260.48,350.0,1.95931
1261.67,351.0,1.95884
1262.876,352.0,1.95835
1264.071,353.0,1.95784
1265.274,354.0,1.95733
1266.477,355.0,1.95682
1267.675,356.0,1.95631
1268.877,357.0,1.9558
1270.094,358.0,1.95529
1271.297,359.0,1.95479
1272.493,360.0,1.9543
1273.681,361.0,1.95381
1274.88,362.0,1.95333
1276.075,363.0,1.95286
1277.276,364.0,1.95239
1278.485,365.0,1.95194
1279.69,366.0,1.9515
1280.886,367.0,1.95107
1282.087,368.0,1.95064
1283.286,369.0,1.95022
1284.476,370.0,1.94981
1285.676,371.0,1.9494
1286.878,372.0,1.949
1288.068,373.0,1.94863
1289.286,374.0,1.94827
1290.482,375.0,1.94794
1291.665,376.0,1.94764
1292.873,377.0,1.94737
1294.051,378.0,1.94711
1295.271,379.0,1.94685
1296.459,380.0,1.94665
1297.652,381.0,1.94643
1298.851,382.0,1.94622
1300.051,383.0,1.94602
1301.255,384.0,1.94584
1302.439,385.0,1.94567
1303.63,386.0,1.94552
1304.825,387.0,1.94539
1306.017,388.0,1.94526
1307.216,389.0,1.94514
1308.41,390.0,1.94506
1309.61,391.0,1.94497
1310.807,392.0,1.94488
1312.001,393.0,1.94481
1313.206,394.0,1.94474
1314.396,395.0,1.94467
1315.591,396.0,1.9446
1316.788,397.0,1.94455
1317.975,398.0,1.94449
1319.164,399.0,1.94445
1320.356,400.0,1.94441
1321.554,401.0,1.94437
1322.744,402.0,1.94434
1323.934,403.0,1.94432
1325.126,404.0,1.9443
1326.313,405.0,1.94427
1327.5,406.0,1.94425
1328.703,407.0,1.94422
1329.869,408.0,1.94418
1331.076,409.0,1.94415
1332.26,410.0,1.94411
1333.449,411.0,1.94408
1334.632,412.0,1.94404
1335.808,413.0,1.94401
1337.007,414.0,1.94397
1338.196,415.0,1.94393
1339.37,416.0,1.9439
1340.557,417.0,1.94386
1341.742,418.0,1.94382
1342.922,419.0,1.94378
1344.113,420.0,1.94374
1345.3,421.0,1.94369
1346.498,422.0,1.94364
1347.679,423.0,1.94359
1348.863,424.0,1.94354
1350.037,425.0,1.94349
1351.226,426.0,1.94343
1352.409,427.0,1.94338
1353.582,428.0,1.94333
1354.773,429.0,1.94327
1355.952,430.0,1.94321
1357.125,431.0,1.94314
1358.315,432.0,1.94308
1359.491,433.0,1.94301
1360.673,434.0,1.94292
1361.852,435.0,1.94284
1363.025,436.0,1.94276
1364.207,437.0,1.94268
1365.396,438.0,1.94258
1366.577,439.0,1.94248
1367.75,440.0,1.94237
1368.928,441.0,1.94225
1370.108,442.0,1.94212
1371.29,443.0,1.94198
1372.467,444.0,1.94183
1373.646,445.0,1.94169
1374.811,446.0,1.94154
1375.993,447.0,1.9414
1377.167,448.0,1.94125
1378.348,449.0,1.94109
1379.514,450.0,1.94093
1380.685,451.0,1.94076
1381.862,452.0,1.94057
1383.033,453.0,1.94038
1384.21,454.0,1.94017
1385.376,455.0,1.93996
1386.55,456.0,1.93974
1387.728,457.0,1.9395
1388.89,458.0,1.93926
1390.069,459.0,1.93902
1391.242,460.0,1.93876
1392.405,461.0,1.9385
1393.58,462.0,1.93822
1394.74,463.0,1.93792
1395.91,464.0,1.93761
1397.085,465.0,1.93728
1398.245,466.0,1.93694
1399.417,467.0,1.93657
1400.586,468.0,1.93618
1401.748,469.0,1.93578
1402.922,470.0,1.93537
1404.082,471.0,1.93491
1405.264,472.0,1.93443
1406.423,473.0,1.93395
1407.588,474.0,1.93342
1408.756,475.0,1.93286
1409.922,476.0,1.9323
1411.1,477.0,1.93171
1412.26,478.0,1.93107
1413.427,479.0,1.93044
1414.583,480.0,1.9298
1415.75,481.0,1.92913
1416.917,482.0,1.92843
1418.079,483.0,1.92773
1419.24,484.0,1.927
1420.405,485.0,1.92624
1421.57,486.0,1.92547
1422.741,487.0,1.92468
1423.906,488.0,1.92385
1425.079,489.0,1.923
1426.237,490.0,1.92215
1427.409,491.0,1.92126
1428.564,492.0,1.92034
1429.735,493.0,1.91941
1430.892,494.0,1.91849
1432.052,495.0,1.91752
1433.221,496.0,1.91655
1434.382,497.0,1.91558
1435.541,498.0,1.91459
1436.713,499.0,1.91359
1437.872,500.0,1.9126
1439.035,501.0,1.91161
1440.195,502.0,1.91061
1441.355,503.0,1.90961
1442.524,504.0,1.9086
1443.687,505.0,1.90758
1444.851,506.0,1.90654
1446.006,507.0,1.90549
1447.159,508.0,1.90445
1448.321,509.0,1.90335
1449.485,510.0,1.90226
1450.654,511.0,1.90116
1451.823,512.0,1.90002
1452.97,513.0,1.8989
1454.134,514.0,1.89776
1455.294,515.0,1.89661
1456.468,516.0,1.89542
1457.635,517.0,1.89423
1458.792,518.0,1.89303
1459.953,519.0,1.89179
1461.121,520.0,1.89053
1462.286,521.0,1.88925
1463.447,522.0,1.88793
1464.602,523.0,1.88658
1465.766,524.0,1.88519
1466.926,525.0,1.88378
1468.096,526.0,1.88227
1469.273,527.0,1.88076
1470.425,528.0,1.87925
1471.584,529.0,1.87769
1472.747,530.0,1.87609
1473.905,531.0,1.87447
1475.069,532.0,1.87282
1476.235,533.0,1.87107
1477.394,534.0,1.86932
1478.566,535.0,1.86751
1479.738,536.0,1.8656
1480.902,537.0,1.86367
1482.062,538.0,1.86173
1483.224,539.0,1.85972
1484.391,540.0,1.85759
1485.552,541.0,1.85547
1486.716,542.0,1.85331
1487.876,543.0,1.85102
1489.042,544.0,1.84871
1490.21,545.0,1.84634
1491.379,546.0,1.84391
1492.55,547.0,1.84137
1493.719,548.0,1.83883
1494.883,549.0,1.83627
1496.041,550.0,1.83357
1497.209,551.0,1.83085
1498.371,552.0,1.82811
1499.549,553.0,1.82524
1500.71,554.0,1.82235
1501.875,555.0,1.81943
1503.046,556.0,1.81648
1504.207,557.0,1.81342
1505.378,558.0,1.81034
1506.546,559.0,1.80724
1507.712,560.0,1.80406
1508.887,561.0,1.80082
1510.051,562.0,1.79759
1511.225,563.0,1.79426
1512.377,564.0,1.79089
1513.545,565.0,1.78747
1514.715,566.0,1.78401
1515.887,567.0,1.78043
1517.055,568.0,1.77685
1518.227,569.0,1.77322
1519.397,570.0,1.76953
1520.566,571.0,1.76574
1521.737,572.0,1.76194
1522.911,573.0,1.75808
1524.084,574.0,1.75409
1525.248,575.0,1.75012
1526.417,576.0,1.7461
1527.599,577.0,1.74194
1528.771,578.0,1.73775
1529.939,579.0,1.73356
1531.103,580.0,1.72932
1532.274,581.0,1.72493
1533.443,582.0,1.72054
1534.625,583.0,1.71608
1535.796,584.0,1.71153
1536.971,585.0,1.70694
1538.153,586.0,1.70229
1539.314,587.0,1.69764
1540.485,588.0,1.69284
1541.664,589.0,1.688
1542.839,590.0,1.68313
1544.007,591.0,1.6781
1545.185,592.0,1.673
1546.354,593.0,1.66789
1547.538,594.0,1.66256
1548.715,595.0,1.65716
1549.893,596.0,1.65172
1551.069,597.0,1.64623
1552.236,598.0,1.64055
1553.425,599.0,1.63478
1554.598,600.0,1.62902
1555.776,601.0,1.62303
1556.959,602.0,1.61696
1558.134,603.0,1.61086
1559.32,604.0,1.60456
1560.493,605.0,1.59814
1561.676,606.0,1.59164
1562.856,607.0,1.58507
1564.039,608.0,1.57819
1565.217,609.0,1.57132
1566.395,610.0,1.56436
1567.571,611.0,1.55721
1568.762,612.0,1.54982
1569.946,613.0,1.54242
1571.123,614.0,1.53495
1572.294,615.0,1.52722
1573.486,616.0,1.51934
1574.676,617.0,1.51138
1575.859,618.0,1.50318
1577.038,619.0,1.49494
1578.216,620.0,1.48662
1579.404,621.0,1.47806
1580.59,622.0,1.46929
1581.783,623.0,1.46043
1582.97,624.0,1.45153
1584.157,625.0,1.44229
1585.336,626.0,1.43312
1586.524,627.0,1.4238
1587.715,628.0,1.41424
1588.901,629.0,1.40462
1590.089,630.0,1.39492
1591.28,631.0,1.38505
1592.459,632.0,1.37506
1593.648,633.0,1.36497
1594.84,634.0,1.35478
1596.029,635.0,1.34433
1597.222,636.0,1.33384
1598.415,637.0,1.32328
1599.606,638.0,1.31255
1600.8,639.0,1.30169
1601.981,640.0,1.29091
1603.187,641.0,1.2798
1604.385,642.0,1.26854
1605.576,643.0,1.25733
1606.762,644.0,1.2461
1607.974,645.0,1.23437
1609.166,646.0,1.22279
1610.355,647.0,1.21118
1611.548,648.0,1.19933
1612.743,649.0,1.18733
1613.94,650.0,1.17527
1615.14,651.0,1.16305
1616.333,652.0,1.15063
1617.543,653.0,1.138
1618.742,654.0,1.1254
1619.928,655.0,1.1126
1621.129,656.0,1.09958
1622.326,657.0,1.0865
1623.532,658.0,1.07305
1624.74,659.0,1.05936
1625.942,660.0,1.04564
1627.144,661.0,1.03173
1628.343,662.0,1.0174
1629.548,663.0,1.00297
1630.752,664.0,0.98841
1631.969,665.0,0.97318
1633.174,666.0,0.95803
1634.367,667.0,0.94288
1635.575,668.0,0.92714
1636.773,669.0,0.91127
1637.983,670.0,0.89517
1639.196,671.0,0.8788
1640.405,672.0,0.86203
1641.615,673.0,0.84526
1642.821,674.0,0.82844
1644.028,675.0,0.81119
1645.236,676.0,0.79397
1646.442,677.0,0.77676
1647.635,678.0,0.75961
1648.837,679.0,0.74233
1650.051,680.0,0.72499
1651.24,681.0,0.70812
1652.442,682.0,0.69129
1653.648,683.0,0.67461
1654.849,684.0,0.65822
1656.041,685.0,0.64274
1657.252,686.0,0.62728
1658.457,687.0,0.61229
1659.643,688.0,0.59854
1660.842,689.0,0.58531
1662.042,690.0,0.57248
1663.242,691.0,0.56051
1664.44,692.0,0.55014
1665.641,693.0,0.53989
1666.847,694.0,0.53016
1668.032,695.0,0.52269
1669.231,696.0,0.51518
1670.439,697.0,0.50812
1671.632,698.0,0.50248
1672.844,699.0,0.49746
1674.039,700.0,0.49264
1675.243,701.0,0.48844
1676.448,702.0,0.48534
1677.66,703.0,0.48208
1678.864,704.0,0.47905
1680.071,705.0,0.47692
1681.276,706.0,0.47467
1682.475,707.0,0.47253
1683.677,708.0,0.47072
1684.88,709.0,0.46903
1686.09,710.0,0.46732
1687.299,711.0,0.46573
1688.504,712.0,0.46429
1689.711,713.0,0.46283
1690.917,714.0,0.4614
1692.118,715.0,0.46009
1693.337,716.0,0.45874
1694.543,717.0,0.45741
1695.75,718.0,0.45613
1696.962,719.0,0.45486
1698.164,720.0,0.4536
1699.378,721.0,0.45234
1700.581,722.0,0.45112
1701.791,723.0,0.44988
1702.996,724.0,0.44865
1704.215,725.0,0.44744
1705.426,726.0,0.44623
1706.633,727.0,0.44504
1707.841,728.0,0.44388
1709.061,729.0,0.4427
1710.262,730.0,0.44156
1711.472,731.0,0.44042
1712.687,732.0,0.43929
1713.905,733.0,0.43815
1715.104,734.0,0.43704
1716.313,735.0,0.43595
1717.529,736.0,0.43484
1718.739,737.0,0.43376
1719.956,738.0,0.43269
1721.164,739.0,0.43163
1722.369,740.0,0.43059
1723.587,741.0,0.42956
1724.794,742.0,0.42854
1726.011,743.0,0.42752
1727.224,744.0,0.42651
1728.44,745.0,0.4255
1729.65,746.0,0.42451
1730.869,747.0,0.42351
1732.081,748.0,0.42253
1733.289,749.0,0.42156
1734.508,750.0,0.4206
1735.719,751.0,0.41966
1736.928,752.0,0.41874
1738.142,753.0,0.41783
1739.354,754.0,0.41693
1740.568,755.0,0.41606
1741.785,756.0,0.41518
1742.99,757.0,0.41431
1744.212,758.0,0.41347
1745.419,759.0,0.41264
1746.64,760.0,0.41181
1747.853,761.0,0.41102
1749.07,762.0,0.41023
1750.282,763.0,0.40945
1751.497,764.0,0.40868
1752.711,765.0,0.40793
1753.928,766.0,0.40717
1755.144,767.0,0.40642
1756.361,768.0,0.40568
1757.573,769.0,0.40495
1758.791,770.0,0.40423
1760.007,771.0,0.40353
1761.225,772.0,0.40285
1762.434,773.0,0.40217
1763.652,774.0,0.40152
1764.866,775.0,0.40089
1766.078,776.0,0.40026
1767.289,777.0,0.39964
1768.508,778.0,0.39903
1769.723,779.0,0.39842
1770.936,780.0,0.39782
1772.152,781.0,0.39723
1773.369,782.0,0.39663
1774.581,783.0,0.39605
1775.794,784.0,0.39548
1777.005,785.0,0.39492
1778.231,786.0,0.39436
1779.444,787.0,0.39383
1780.658,788.0,0.39331
1781.868,789.0,0.39279
1783.093,790.0,0.39227
1784.301,791.0,0.39176
1785.519,792.0,0.39125
1786.737,793.0,0.39074
1787.945,794.0,0.39024
1789.165,795.0,0.38974
1790.382,796.0,0.38925
1791.595,797.0,0.38877
1792.81,798.0,0.3883
1794.011,799.0,0.38783
1795.239,800.0,0.38736
1796.446,801.0,0.38691
1797.658,802.0,0.38645
1798.877,803.0,0.386
1800.08,804.0,0.38556
1801.301,805.0,0.38511
1802.513,806.0,0.38467
1803.725,807.0,0.38424
1804.942,808.0,0.38379
1806.158,809.0,0.38334
1807.379,810.0,0.38289
1808.585,811.0,0.38244
1809.805,812.0,0.38199
1811.023,813.0,0.38155
1812.232,814.0,0.38113
1813.449,815.0,0.38071
1814.659,816.0,0.38029
1815.872,817.0,0.37988
1817.082,818.0,0.37948
1818.292,819.0,0.37907
1819.513,820.0,0.37866
1820.722,821.0,0.37825
1821.938,822.0,0.37785
1823.146,823.0,0.37746
1824.369,824.0,0.37707
1825.583,825.0,0.37668
1826.796,826.0,0.3763
1828.006,827.0,0.37593
1829.227,828.0,0.37555
1830.441,829.0,0.37519
1831.652,830.0,0.37482
1832.869,831.0,0.37447
1834.091,832.0,0.37411
1835.294,833.0,0.37377
1836.511,834.0,0.37343
1837.728,835.0,0.3731
1838.938,836.0,0.37276
1840.153,837.0,0.37242
1841.371,838.0,0.37208
1842.579,839.0,0.37173
1843.796,840.0,0.37138
1845.008,841.0,0.37103
1846.22,842.0,0.37069
1847.431,843.0,0.37035
1848.642,844.0,0.37002
1849.858,845.0,0.36969
1851.072,846.0,0.36936
1852.292,847.0,0.36903
1853.51,848.0,0.3687
1854.723,849.0,0.36836
1855.936,850.0,0.36803
1857.152,851.0,0.36769
1858.363,852.0,0.36736
1859.576,853.0,0.36703
1860.794,854.0,0.3667
1862.005,855.0,0.36637
1863.212,856.0,0.36605
1864.423,857.0,0.36573
1865.643,858.0,0.36541
1866.857,859.0,0.36509
1868.06,860.0,0.36478
1869.277,861.0,0.36446
1870.487,862.0,0.36415
1871.703,863.0,0.36383
1872.922,864.0,0.36352
1874.128,865.0,0.3632
1875.348,866.0,0.36289
1876.564,867.0,0.36257
1877.771,868.0,0.36226
1878.982,869.0,0.36194
1880.189,870.0,0.36163
1881.407,871.0,0.36131
1882.618,872.0,0.36099
1883.836,873.0,0.36066
1885.046,874.0,0.36035
1886.261,875.0,0.36004
1887.47,876.0,0.35974
1888.68,877.0,0.35945
1889.891,878.0,0.35916
1891.095,879.0,0.35888
1892.315,880.0,0.35861
1893.524,881.0,0.35834
1894.741,882.0,0.35806
1895.945,883.0,0.35779
1897.159,884.0,0.35751
1898.368,885.0,0.35723
1899.572,886.0,0.35694
1900.785,887.0,0.35666
1902.007,888.0,0.35637
1903.21,889.0,0.3561
1904.423,890.0,0.35582
1905.63,891.0,0.35553
1906.834,892.0,0.35525
1908.058,893.0,0.35495
1909.268,894.0,0.35467
1910.471,895.0,0.35439
1911.684,896.0,0.35412
1912.886,897.0,0.35385
1914.099,898.0,0.35358
1915.317,899.0,0.35332
1916.526,900.0,0.35307
1917.734,901.0,0.35281
1918.941,902.0,0.35255
1920.145,903.0,0.3523
1921.358,904.0,0.35204
1922.57,905.0,0.35179
1923.779,906.0,0.35153
1924.982,907.0,0.35128
1926.195,908.0,0.35103
1927.405,909.0,0.35078
1928.615,910.0,0.35054
1929.82,911.0,0.3503
1931.033,912.0,0.35005
1932.241,913.0,0.34981
1933.449,914.0,0.34957
1934.656,915.0,0.34933
1935.863,916.0,0.34909
1937.062,917.0,0.34885
1938.274,918.0,0.3486
1939.475,919.0,0.34836
1940.68,920.0,0.34812
1941.902,921.0,0.34788
1943.095,922.0,0.34764
1944.306,923.0,0.3474
1945.509,924.0,0.34715
1946.719,925.0,0.34691
1947.936,926.0,0.34667
1949.14,927.0,0.34643
1950.347,928.0,0.3462
1951.554,929.0,0.34598
1952.757,930.0,0.34578
1953.967,931.0,0.34558
1955.17,932.0,0.34539
1956.373,933.0,0.3452
1957.58,934.0,0.34501
1958.792,935.0,0.34481
1959.999,936.0,0.34461
1961.198,937.0,0.34442
1962.409,938.0,0.34423
1963.607,939.0,0.34404
1964.813,940.0,0.34385
1966.025,941.0,0.34365
1967.236,942.0,0.34346
1968.438,943.0,0.34326
1969.638,944.0,0.34305
1970.853,945.0,0.34285
1972.045,946.0,0.34265
1973.261,947.0,0.34244
1974.467,948.0,0.34224
1975.663,949.0,0.34203
1976.875,950.0,0.34182
1978.085,951.0,0.34161
1979.292,952.0,0.3414
1980.489,953.0,0.34119
1981.696,954.0,0.341
1982.905,955.0,0.3408
1984.116,956.0,0.34064
1985.318,957.0,0.34046
1986.522,958.0,0.34029
1987.723,959.0,0.34012
1988.922,960.0,0.33996
1990.127,961.0,0.3398
1991.336,962.0,0.33964
1992.539,963.0,0.33949
1993.754,964.0,0.33934
1994.955,965.0,0.33919
1996.171,966.0,0.33904
1997.377,967.0,0.33888
1998.584,968.0,0.33872
1999.797,969.0,0.33855
2000.995,970.0,0.33839
2002.198,971.0,0.33823
2003.411,972.0,0.33807
2004.621,973.0,0.33792
2005.825,974.0,0.33778
2007.023,975.0,0.33764
2008.232,976.0,0.33752
2009.439,977.0,0.33738
2010.635,978.0,0.33725
2011.843,979.0,0.33712
2013.052,980.0,0.33698
2014.261,981.0,0.33684
2015.463,982.0,0.3367
2016.667,983.0,0.33657
2017.868,984.0,0.33643
2019.079,985.0,0.33628
2020.29,986.0,0.33614
2021.495,987.0,0.33601
2022.693,988.0,0.33587
2023.895,989.0,0.33574
2025.11,990.0,0.33561
2026.309,991.0,0.33548
2027.519,992.0,0.33535
2028.728,993.0,0.33522
2029.935,994.0,0.33509
2031.145,995.0,0.33495
2032.346,996.0,0.33482
2033.542,997.0,0.33469
2034.75,998.0,0.33456
2035.953,999.0,0.33444
2037.161,1000.0,0.33432
2038.367,1001.0,0.33419
2039.567,1002.0,0.33407
2040.766,1003.0,0.33394
2041.968,1004.0,0.33382
2043.185,1005.0,0.33369
2044.387,1006.0,0.33357
2045.592,1007.0,0.33344
2046.793,1008.0,0.33331
2047.99,1009.0,0.33319
2049.194,1010.0,0.33306
2050.402,1011.0,0.33294
2051.609,1012.0,0.33282
2052.812,1013.0,0.33271
2054.016,1014.0,0.33259
2055.217,1015.0,0.33247
2056.417,1016.0,0.33236
2057.619,1017.0,0.33225
2058.832,1018.0,0.33214
2060.025,1019.0,0.33202
2061.232,1020.0,0.33191
2062.437,1021.0,0.33179
2063.639,1022.0,0.33167
2064.853,1023.0,0.33155
2066.051,1024.0,0.33144
2067.243,1025.0,0.33133
2068.453,1026.0,0.33122
2069.656,1027.0,0.33111
2070.865,1028.0,0.331
2072.069,1029.0,0.3309
2073.267,1030.0,0.33079
2074.471,1031.0,0.33068
2075.663,1032.0,0.33057
2076.874,1033.0,0.33046
2078.072,1034.0,0.33035
2079.272,1035.0,0.33024
2080.468,1036.0,0.33012
2081.666,1037.0,0.33001
2082.883,1038.0,0.32988
2084.068,1039.0,0.32975
2085.275,1040.0,0.32962
2086.481,1041.0,0.32949
2087.688,1042.0,0.32936
2088.883,1043.0,0.32923
2090.088,1044.0,0.32909
2091.292,1045.0,0.32896
2092.494,1046.0,0.32883
2093.7,1047.0,0.32871
2094.9,1048.0,0.32859
2096.094,1049.0,0.32848
2097.289,1050.0,0.32838
2098.49,1051.0,0.32827
2099.686,1052.0,0.32818
2100.888,1053.0,0.32808
2102.081,1054.0,0.32799
2103.244,1055.0,0.32789
2104.628,1056.0,0.32778
2106.687,1057.0,0.32762
2108.496,1058.0,0.32749
2110.4,1059.0,0.32734
2112.459,1060.0,0.32715
2114.757,1061.0,0.32692
2117.313,1062.0,0.32663
2120.159,1063.0,0.32636
2134.0,1066.435,0.32572
2154.0,1069.001,0.3247
2174.0,1070.245,0.32394
2194.0,1070.93,0.32338
2214.0,1071.344,0.32269
2234.0,1071.625,0.32202
2254.0,1071.832,0.3213
2274.0,1071.99,0.32079
2294.0,1072.102,0.32038
2314.0,1072.181,0.31983
2334.0,1072.254,0.31943
2354.0,1072.291,0.3189
2374.0,1072.342,0.31836
2394.0,1072.37,0.318
2414.0,1072.386,0.31763
2424.0,1072.404,0.3175