File: Wood/Calibration_Data/TUBS/TUBS_Wood_TGA_N2_30K_R1.csv
Time (s),Temperature (K),Mass (mg)
0.0,304.961,1.05
10.0,304.94,1.048
24.0,304.85,1.046
39.0,304.803,1.044
60.0,304.734,1.042
81.0,304.684,1.04
114.0,304.625,1.038
153.0,304.579,1.036
211.0,304.508,1.034
286.0,304.471,1.032
443.0,304.413,1.03
775.0,304.405,1.028
822.0,304.391,1.028
868.0,304.399,1.028
896.0,304.411,1.028
915.0,304.411,1.028
1206.344,305.5,1.026
1209.443,306.5,1.026
1211.987,307.5,1.028
1214.328,308.5,1.029
1216.546,309.5,1.03
1218.732,310.5,1.031
1220.885,311.5,1.03
1223.024,312.5,1.03
1225.118,313.5,1.03
1227.232,314.5,1.029
1229.309,315.5,1.029
1231.408,316.5,1.028
1233.461,317.5,1.028
1235.515,318.5,1.027
1237.597,319.5,1.027
1239.66,320.5,1.027
1241.706,321.5,1.027
1243.78,322.5,1.027
1245.843,323.5,1.026
1247.901,324.5,1.026
1249.937,325.5,1.026
1251.976,326.5,1.026
1254.038,327.5,1.026
1256.078,328.5,1.026
1258.122,329.5,1.025
1260.143,330.5,1.025
1262.211,331.5,1.025
1264.245,332.5,1.025
1266.284,333.5,1.025
1268.304,334.5,1.024
1270.331,335.5,1.024
1272.373,336.5,1.024
1274.402,337.5,1.023
1276.425,338.5,1.023
1278.444,339.5,1.023
1280.467,340.5,1.023
1282.499,341.5,1.022
1284.521,342.5,1.022
1286.551,343.5,1.022
1288.585,344.5,1.021
1290.585,345.5,1.021
1292.643,346.5,1.021
1294.649,347.5,1.021
1296.664,348.5,1.02
1298.68,349.5,1.02
1300.694,350.5,1.02
1302.709,351.5,1.02
1304.734,352.5,1.019
1306.777,353.5,1.019
1308.769,354.5,1.019
1310.778,355.5,1.019
1312.795,356.5,1.019
1314.796,357.5,1.018
1316.828,358.5,1.018
1318.809,359.5,1.018
1320.831,360.5,1.018
1322.851,361.5,1.017
1324.865,362.5,1.017
1326.849,363.5,1.017
1328.875,364.5,1.017
1330.887,365.5,1.017
1332.876,366.5,1.017
1334.867,367.5,1.016
1336.894,368.5,1.016
1338.883,369.5,1.016
1340.886,370.5,1.016
1342.876,371.5,1.016
1344.869,372.5,1.016
1346.879,373.5,1.016
1348.891,374.5,1.016
1350.867,375.5,1.016
1352.855,376.5,1.016
1354.868,377.5,1.016
1356.861,378.5,1.016
1358.859,379.5,1.016
1360.825,380.5,1.015
1362.813,381.5,1.015
1364.819,382.5,1.015
1366.807,383.5,1.015
1368.794,384.5,1.015
1370.795,385.5,1.015
1372.762,386.5,1.015
1374.762,387.5,1.015
1376.737,388.5,1.015
1378.732,389.5,1.015
1380.709,390.5,1.015
1382.707,391.5,1.015
1384.673,392.5,1.015
1386.655,393.5,1.015
1388.633,394.5,1.015
1390.624,395.5,1.015
1392.605,396.5,1.015
1394.576,397.5,1.015
1396.557,398.5,1.015
1398.54,399.5,1.015
1400.504,400.5,1.015
1402.484,401.5,1.015
1404.471,402.5,1.015
1406.451,403.5,1.015
1408.424,404.5,1.015
1410.39,405.5,1.015
1412.361,406.5,1.015
1414.332,407.5,1.015
1416.323,408.5,1.015
1418.28,409.5,1.015
1420.263,410.5,1.015
1422.213,411.5,1.015
1424.199,412.5,1.015
1426.161,413.5,1.015
1428.134,414.5,1.015
1430.091,415.5,1.015
1432.032,416.5,1.015
1434.018,417.5,1.015
1435.986,418.5,1.015
1437.955,419.5,1.015
1439.927,420.5,1.014
1441.88,421.5,1.014
1443.837,422.5,1.014
1445.8,423.5,1.014
1447.769,424.5,1.014
1449.751,425.5,1.014
1451.708,426.5,1.014
1453.679,427.5,1.014
1455.615,428.5,1.014
1457.582,429.5,1.014
1459.543,430.5,1.014
1461.507,431.5,1.014
1463.463,432.5,1.014
1465.419,433.5,1.014
1467.389,434.5,1.014
1469.353,435.5,1.014
1471.288,436.5,1.014
1473.243,437.5,1.013
1475.225,438.5,1.013
1477.144,439.5,1.013
1479.109,440.5,1.013
1481.065,441.5,1.013
1483.033,442.5,1.013
1484.992,443.5,1.013
1486.926,444.5,1.013
1488.892,445.5,1.013
1490.823,446.5,1.013
1492.805,447.5,1.012
1494.748,448.5,1.012
1496.706,449.5,1.012
1498.653,450.5,1.012
1500.602,451.5,1.012
1502.558,452.5,1.011
1504.505,453.5,1.011
1506.426,454.5,1.011
1508.39,455.5,1.011
1510.358,456.5,1.011
1512.277,457.5,1.011
1514.245,458.5,1.011
1516.193,459.5,1.01
1518.143,460.5,1.01
1520.088,461.5,1.01
1522.037,462.5,1.01
1523.982,463.5,1.009
1525.927,464.5,1.009
1527.887,465.5,1.009
1529.82,466.5,1.008
1531.768,467.5,1.008
1533.719,468.5,1.008
1535.669,469.5,1.007
1537.6,470.5,1.007
1539.538,471.5,1.007
1541.492,472.5,1.007
1543.45,473.5,1.006
1545.364,474.5,1.006
1547.329,475.5,1.005
1549.265,476.5,1.005
1551.221,477.5,1.005
1553.145,478.5,1.004
1555.096,479.5,1.004
1557.051,480.5,1.004
1558.992,481.5,1.004
1560.93,482.5,1.003
1562.89,483.5,1.003
1564.822,484.5,1.003
1566.766,485.5,1.002
1568.722,486.5,1.002
1570.647,487.5,1.002
1572.597,488.5,1.001
1574.559,489.5,1.001
1576.49,490.5,1.001
1578.437,491.5,1.001
1580.361,492.5,1.0
1582.31,493.5,1.0
1584.246,494.5,0.999
1586.217,495.5,0.999
1588.178,496.5,0.999
1590.1,497.5,0.999
1592.056,498.5,0.998
1594.0,499.5,0.998
1595.936,500.5,0.998
1597.894,501.5,0.997
1599.829,502.5,0.997
1601.8,503.5,0.996
1603.737,504.5,0.996
1605.683,505.5,0.995
1607.639,506.5,0.995
1609.588,507.5,0.994
1611.53,508.5,0.994
1613.494,509.5,0.994
1615.441,510.5,0.994
1617.384,511.5,0.993
1619.332,512.5,0.993
1621.274,513.5,0.992
1623.234,514.5,0.992
1625.19,515.5,0.991
1627.128,516.5,0.991
1629.097,517.5,0.99
1631.039,518.5,0.989
1633.006,519.5,0.989
1634.939,520.5,0.988
1636.902,521.5,0.987
1638.852,522.5,0.987
1640.789,523.5,0.986
1642.741,524.5,0.985
1644.692,525.5,0.985
1646.647,526.5,0.984
1648.627,527.5,0.983
1650.573,528.5,0.983
1652.538,529.5,0.982
1654.478,530.5,0.981
1656.448,531.5,0.98
1658.39,532.5,0.98
1660.35,533.5,0.979
1662.309,534.5,0.978
1664.278,535.5,0.977
1666.23,536.5,0.976
1668.181,537.5,0.975
1670.155,538.5,0.974
1672.109,539.5,0.973
1674.042,540.5,0.972
1676.016,541.5,0.971
1677.988,542.5,0.969
1679.947,543.5,0.968
1681.901,544.5,0.967
1683.853,545.5,0.966
1685.824,546.5,0.965
1687.784,547.5,0.963
1689.73,548.5,0.962
1691.717,549.5,0.961
1693.663,550.5,0.959
1695.64,551.5,0.958
1697.593,552.5,0.956
1699.557,553.5,0.955
1701.525,554.5,0.953
1703.506,555.5,0.952
1705.456,556.5,0.951
1707.432,557.5,0.949
1709.384,558.5,0.948
1711.355,559.5,0.946
1713.316,560.5,0.945
1715.295,561.5,0.943
1717.251,562.5,0.941
1719.208,563.5,0.94
1721.178,564.5,0.938
1723.154,565.5,0.936
1725.122,566.5,0.934
1727.09,567.5,0.932
1729.065,568.5,0.93
1731.039,569.5,0.928
1733.004,570.5,0.926
1734.963,571.5,0.924
1736.949,572.5,0.922
1738.9,573.5,0.92
1740.887,574.5,0.918
1742.856,575.5,0.916
1744.82,576.5,0.914
1746.792,577.5,0.911
1748.781,578.5,0.909
1750.739,579.5,0.907
1752.709,580.5,0.904
1754.695,581.5,0.902
1756.661,582.5,0.899
1758.637,583.5,0.897
1760.611,584.5,0.894
1762.596,585.5,0.892
1764.573,586.5,0.889
1766.544,587.5,0.886
1768.518,588.5,0.883
1770.51,589.5,0.88
1772.458,590.5,0.878
1774.473,591.5,0.875
1776.435,592.5,0.871
1778.421,593.5,0.868
1780.391,594.5,0.865
1782.36,595.5,0.862
1784.34,596.5,0.858
1786.337,597.5,0.855
1788.308,598.5,0.851
1790.286,599.5,0.847
1792.256,600.5,0.844
1794.263,601.5,0.84
1796.239,602.5,0.837
1798.22,603.5,0.833
1800.214,604.5,0.829
1802.175,605.5,0.824
1804.169,606.5,0.82
1806.178,607.5,0.815
1808.132,608.5,0.811
1810.122,609.5,0.807
1812.107,610.5,0.802
1814.1,611.5,0.797
1816.08,612.5,0.793
1818.077,613.5,0.788
1820.066,614.5,0.783
1822.042,615.5,0.778
1824.038,616.5,0.773
1826.034,617.5,0.767
1828.038,618.5,0.762
1830.026,619.5,0.757
1832.0,620.5,0.752
1833.988,621.5,0.746
1836.0,622.5,0.741
1837.984,623.5,0.735
1839.976,624.5,0.73
1841.966,625.5,0.724
1843.97,626.5,0.718
1845.957,627.5,0.713
1847.948,628.5,0.707
1849.943,629.5,0.701
1851.944,630.5,0.695
1853.925,631.5,0.689
1855.933,632.5,0.683
1857.944,633.5,0.677
1859.923,634.5,0.671
1861.942,635.5,0.664
1863.917,636.5,0.658
1865.927,637.5,0.652
1867.944,638.5,0.645
1869.914,639.5,0.639
1871.928,640.5,0.632
1873.922,641.5,0.626
1875.928,642.5,0.619
1877.957,643.5,0.613
1879.944,644.5,0.606
1881.941,645.5,0.599
1883.948,646.5,0.592
1885.948,647.5,0.585
1887.955,648.5,0.578
1889.956,649.5,0.571
1891.972,650.5,0.563
1893.976,651.5,0.556
1895.961,652.5,0.548
1897.992,653.5,0.541
1899.986,654.5,0.533
1902.0,655.5,0.525
1904.012,656.5,0.517
1906.026,657.5,0.509
1908.044,658.5,0.5
1910.05,659.5,0.492
1912.049,660.5,0.483
1914.069,661.5,0.475
1916.085,662.5,0.466
1918.101,663.5,0.456
1920.123,664.5,0.447
1922.099,665.5,0.439
1924.117,666.5,0.429
1926.129,667.5,0.419
1928.145,668.5,0.41
1930.175,669.5,0.4
1932.191,670.5,0.391
1934.205,671.5,0.382
1936.22,672.5,0.373
1938.226,673.5,0.364
1940.216,674.5,0.356
1942.241,675.5,0.348
1944.243,676.5,0.34
1946.256,677.5,0.332
1948.266,678.5,0.325
1950.286,679.5,0.318
1952.292,680.5,0.311
1954.29,681.5,0.305
1956.315,682.5,0.3
1958.313,683.5,0.295
1960.314,684.5,0.291
1962.318,685.5,0.287
1964.332,686.5,0.284
1966.345,687.5,0.281
1968.352,688.5,0.279
1970.373,689.5,0.277
1972.366,690.5,0.275
1974.381,691.5,0.273
1976.397,692.5,0.272
1978.41,693.5,0.271
1980.429,694.5,0.27
1982.437,695.5,0.269
1984.45,696.5,0.268
1986.457,697.5,0.267
1988.473,698.5,0.266
1990.485,699.5,0.266
1992.509,700.5,0.264
1994.514,701.5,0.264
1996.542,702.5,0.263
1998.559,703.5,0.262
2000.566,704.5,0.262
2002.594,705.5,0.261
2004.592,706.5,0.261
2006.623,707.5,0.26
2008.629,708.5,0.259
2010.635,709.5,0.259
2012.651,710.5,0.258
2014.679,711.5,0.258
2016.698,712.5,0.257
2018.731,713.5,0.256
2020.743,714.5,0.256
2022.764,715.5,0.255
2024.779,716.5,0.255
2026.794,717.5,0.254
2028.809,718.5,0.254
2030.846,719.5,0.253
2032.856,720.5,0.252
2034.883,721.5,0.252
2036.898,722.5,0.251
2038.904,723.5,0.251
2040.949,724.5,0.25
2042.957,725.5,0.25
2044.982,726.5,0.249
2047.012,727.5,0.249
2049.02,728.5,0.248
2051.052,729.5,0.248
2053.076,730.5,0.247
2055.103,731.5,0.247
2057.112,732.5,0.246
2059.121,733.5,0.245
2061.16,734.5,0.245
2063.187,735.5,0.244
2065.189,736.5,0.244
2067.223,737.5,0.243
2069.237,738.5,0.243
2071.261,739.5,0.242
2073.29,740.5,0.242
2075.298,741.5,0.242
2077.314,742.5,0.241
2079.325,743.5,0.241
2081.366,744.5,0.24
2083.384,745.5,0.24
2085.409,746.5,0.239
2087.43,747.5,0.239
2089.455,748.5,0.238
2091.477,749.5,0.238
2093.507,750.5,0.237
2095.538,751.5,0.237
2097.556,752.5,0.237
2099.568,753.5,0.236
2101.606,754.5,0.236
2103.615,755.5,0.236
2105.632,756.5,0.235
2107.651,757.5,0.235
2109.694,758.5,0.235
2111.708,759.5,0.234
2113.705,760.5,0.234
2115.742,761.5,0.234
2117.761,762.5,0.233
2119.78,763.5,0.233
2121.813,764.5,0.233
2123.822,765.5,0.232
2125.867,766.5,0.232
2127.876,767.5,0.231
2129.887,768.5,0.231
2131.91,769.5,0.231
2133.921,770.5,0.231
2135.946,771.5,0.23
2137.98,772.5,0.23
2140.016,773.5,0.23
2142.036,774.5,0.229
2144.044,775.5,0.229
2146.084,776.5,0.229
2148.095,777.5,0.228
2150.115,778.5,0.228
2152.118,779.5,0.228
2154.132,780.5,0.227
2156.154,781.5,0.227
2158.173,782.5,0.227
2160.214,783.5,0.227
2162.218,784.5,0.227
2164.226,785.5,0.226
2166.263,786.5,0.226
2168.278,787.5,0.226
2170.303,788.5,0.226
2172.334,789.5,0.225
2174.345,790.5,0.225
2176.371,791.5,0.225
2178.388,792.5,0.224
2180.407,793.5,0.224
2182.42,794.5,0.224
2184.441,795.5,0.224
2186.448,796.5,0.224
2188.474,797.5,0.223
2190.492,798.5,0.223
2192.512,799.5,0.223
2194.527,800.5,0.223
2196.54,801.5,0.223
2198.562,802.5,0.223
2200.573,803.5,0.222
2202.583,804.5,0.222
2204.602,805.5,0.222
2206.636,806.5,0.221
2208.643,807.5,0.221
2210.661,808.5,0.221
2212.691,809.5,0.221
2214.715,810.5,0.221
2216.705,811.5,0.22
2218.742,812.5,0.22
2220.749,813.5,0.22
2222.758,814.5,0.22
2224.778,815.5,0.22
2226.806,816.5,0.219
2228.812,817.5,0.219
2230.835,818.5,0.219
2232.851,819.5,0.219
2234.866,820.5,0.219
2236.877,821.5,0.219
2238.895,822.5,0.218
2240.912,823.5,0.218
2242.939,824.5,0.218
2244.969,825.5,0.218
2246.974,826.5,0.218
2248.982,827.5,0.217
2251.0,828.5,0.217
2253.03,829.5,0.217
2255.049,830.5,0.217
2257.067,831.5,0.216
2259.067,832.5,0.216
2261.084,833.5,0.216
2263.114,834.5,0.216
2265.109,835.5,0.216
2267.15,836.5,0.216
2269.153,837.5,0.216
2271.183,838.5,0.215
2273.183,839.5,0.215
2275.2,840.5,0.215
2277.217,841.5,0.215
2279.232,842.5,0.215
2281.247,843.5,0.215
2283.261,844.5,0.214
2285.279,845.5,0.214
2287.298,846.5,0.214
2289.347,847.5,0.214
2291.383,848.5,0.214
2293.386,849.5,0.214
2295.402,850.5,0.214
2297.427,851.5,0.213
2299.44,852.5,0.213
2301.446,853.5,0.213
2303.457,854.5,0.213
2305.497,855.5,0.212
2307.517,856.5,0.212
2309.515,857.5,0.212
2311.534,858.5,0.212
2313.559,859.5,0.211
2315.583,860.5,0.211
2317.584,861.5,0.211
2319.602,862.5,0.211
2321.626,863.5,0.211
2323.62,864.5,0.211
2325.648,865.5,0.211
2327.644,866.5,0.211
2329.674,867.5,0.211
2331.694,868.5,0.21
2333.706,869.5,0.21
2335.713,870.5,0.21
2337.741,871.5,0.21
2339.761,872.5,0.21
2341.764,873.5,0.21
2343.781,874.5,0.21
2345.787,875.5,0.209
2347.813,876.5,0.209
2349.829,877.5,0.209
2351.853,878.5,0.209
2353.849,879.5,0.209
2355.872,880.5,0.209
2357.875,881.5,0.208
2359.885,882.5,0.208
2361.909,883.5,0.208
2363.914,884.5,0.208
2365.943,885.5,0.208
2367.946,886.5,0.208
2369.954,887.5,0.208
2371.958,888.5,0.207
2373.986,889.5,0.207
2375.996,890.5,0.207
2377.992,891.5,0.207
2380.006,892.5,0.207
2382.022,893.5,0.207
2384.018,894.5,0.206
2386.05,895.5,0.206
2388.052,896.5,0.206
2390.064,897.5,0.206
2392.06,898.5,0.206
2394.082,899.5,0.206
2396.099,900.5,0.206
2398.11,901.5,0.206
2400.119,902.5,0.206
2402.106,903.5,0.205
2404.122,904.5,0.205
2406.124,905.5,0.205
2408.149,906.5,0.205
2410.159,907.5,0.205
2412.15,908.5,0.204
2414.165,909.5,0.204
2416.171,910.5,0.204
2418.178,911.5,0.204
2420.198,912.5,0.204
2422.206,913.5,0.204
2424.216,914.5,0.204
2426.213,915.5,0.204
2428.231,916.5,0.204
2430.227,917.5,0.204
2432.247,918.5,0.204
2434.251,919.5,0.203
2436.263,920.5,0.203
2438.288,921.5,0.203
2440.277,922.5,0.203
2442.28,923.5,0.203
2444.284,924.5,0.203
2446.293,925.5,0.203
2448.311,926.5,0.203
2450.323,927.5,0.202
2452.337,928.5,0.202
2454.331,929.5,0.202
2456.354,930.5,0.202
2458.356,931.5,0.202
2460.367,932.5,0.202
2462.365,933.5,0.202
2464.384,934.5,0.202
2466.393,935.5,0.202
2468.403,936.5,0.201
2470.402,937.5,0.201
2472.411,938.5,0.201
2474.423,939.5,0.201
2476.442,940.5,0.201
2478.446,941.5,0.201
2480.458,942.5,0.201
2482.464,943.5,0.201
2484.478,944.5,0.201
2486.481,945.5,0.201
2488.482,946.5,0.201
2490.5,947.5,0.2
2492.503,948.5,0.2
2494.514,949.5,0.2
2496.521,950.5,0.2
2498.526,951.5,0.2
2500.543,952.5,0.2
2502.558,953.5,0.2
2504.557,954.5,0.2
2506.555,955.5,0.199
2508.588,956.5,0.199
2510.58,957.5,0.199
2512.584,958.5,0.199
2514.598,959.5,0.199
2516.594,960.5,0.199
2518.612,961.5,0.199
2520.607,962.5,0.199
2522.604,963.5,0.199
2524.611,964.5,0.199
2526.628,965.5,0.199
2528.646,966.5,0.198
2530.656,967.5,0.198
2532.659,968.5,0.198
2534.668,969.5,0.198
2536.671,970.5,0.198
2538.673,971.5,0.198
2540.671,972.5,0.198
2542.675,973.5,0.198
2544.685,974.5,0.198
2546.696,975.5,0.198
2548.714,976.5,0.198
2550.705,977.5,0.197
2552.724,978.5,0.197
2554.737,979.5,0.197
2556.743,980.5,0.197
2558.74,981.5,0.197
2560.748,982.5,0.197
2562.759,983.5,0.197
2564.756,984.5,0.197
2566.762,985.5,0.197
2568.776,986.5,0.197
2570.784,987.5,0.197
2572.763,988.5,0.197
2574.767,989.5,0.197
2576.78,990.5,0.197
2578.793,991.5,0.196
2580.784,992.5,0.196
2582.792,993.5,0.196
2584.803,994.5,0.196
2586.816,995.5,0.196
2588.817,996.5,0.196
2590.814,997.5,0.196
2592.821,998.5,0.196
2594.825,999.5,0.196
2596.831,1000.5,0.196
2598.84,1001.5,0.195
2600.843,1002.5,0.195
2602.83,1003.5,0.195
2604.824,1004.5,0.195
2606.841,1005.5,0.195
2608.847,1006.5,0.195
2610.851,1007.5,0.195
2612.867,1008.5,0.195
2614.863,1009.5,0.195
2616.871,1010.5,0.195
2618.87,1011.5,0.195
2620.89,1012.5,0.195
2622.89,1013.5,0.195
2624.902,1014.5,0.195
2626.882,1015.5,0.194
2628.897,1016.5,0.194
2630.899,1017.5,0.194
2632.889,1018.5,0.194
2634.906,1019.5,0.194
2636.907,1020.5,0.194
2638.896,1021.5,0.194
2640.899,1022.5,0.194
2642.914,1023.5,0.194
2644.911,1024.5,0.194
2646.923,1025.5,0.193
2648.92,1026.5,0.193
2650.929,1027.5,0.193
2652.936,1028.5,0.193
2654.93,1029.5,0.193
2656.936,1030.5,0.193
2658.94,1031.5,0.193
2660.939,1032.5,0.193
2662.943,1033.5,0.193
2664.937,1034.5,0.193
2666.938,1035.5,0.193
2668.946,1036.5,0.193
2670.95,1037.5,0.193
2672.962,1038.5,0.193
2674.96,1039.5,0.193
2676.964,1040.5,0.192
2678.963,1041.5,0.192
2680.978,1042.5,0.192
2683.002,1043.5,0.192
2684.986,1044.5,0.192
2686.994,1045.5,0.192
2688.972,1046.5,0.192
2690.978,1047.5,0.192
2692.972,1048.5,0.192
2694.986,1049.5,0.192
2696.994,1050.5,0.192
2698.996,1051.5,0.192
2701.016,1052.5,0.192
2703.01,1053.5,0.192
2705.02,1054.5,0.192
2707.014,1055.5,0.191
2709.016,1056.5,0.191
2711.03,1057.5,0.191
2713.02,1058.5,0.191
2715.047,1059.5,0.191
2717.035,1060.5,0.191
2719.053,1061.5,0.191
2722.248,1062.5,0.191
2725.303,1063.5,0.191
2728.591,1064.5,0.191
2732.336,1065.5,0.191
2740.0,1067.104,0.19
2760.0,1069.637,0.19
2780.0,1070.846,0.189
2800.0,1071.466,0.189
2820.0,1071.818,0.189
2840.0,1072.027,0.189
2860.0,1072.17,0.188
2880.0,1072.281,0.188
2900.0,1072.364,0.188
2920.0,1072.427,0.188
2940.0,1072.479,0.187
2960.0,1072.513,0.187
2980.0,1072.557,0.187
3000.0,1072.578,0.187
3020.0,1072.596,0.186
3040.0,1072.632,0.186