File: Wood/Calibration_Data/TUBS/TUBS_TGA_N2_10K_R2.csv
Time (s),Temperature (K),Mass (mg)
0.0,305.085,1.02
2.0,305.068,1.02
4.0,305.064,1.02
6.0,305.049,1.019
8.0,305.045,1.019
10.0,305.025,1.019
12.0,305.032,1.019
14.0,305.004,1.018
16.0,305.0,1.018
18.0,304.987,1.018
20.0,304.977,1.018
22.0,304.971,1.018
24.0,304.965,1.017
26.0,304.963,1.017
28.0,304.951,1.017
30.0,304.942,1.017
32.0,304.933,1.016
34.0,304.919,1.016
36.0,304.925,1.016
38.0,304.896,1.016
40.0,304.908,1.016
42.0,304.902,1.015
44.0,304.883,1.015
46.0,304.872,1.015
48.0,304.878,1.015
50.0,304.854,1.015
52.0,304.854,1.015
54.0,304.848,1.015
56.0,304.848,1.014
58.0,304.842,1.014
60.0,304.845,1.014
62.0,304.843,1.014
64.0,304.827,1.014
66.0,304.823,1.014
68.0,304.828,1.014
70.0,304.81,1.013
72.0,304.804,1.013
74.0,304.79,1.013
76.0,304.788,1.013
78.0,304.778,1.013
80.0,304.778,1.013
82.0,304.775,1.013
84.0,304.764,1.013
86.0,304.784,1.013
88.0,304.77,1.012
90.0,304.774,1.012
92.0,304.748,1.012
94.0,304.746,1.012
96.0,304.75,1.012
98.0,304.74,1.012
100.0,304.741,1.012
102.0,304.74,1.012
104.0,304.726,1.012
106.0,304.743,1.012
108.0,304.748,1.011
110.0,304.74,1.011
112.0,304.735,1.011
114.0,304.718,1.011
116.0,304.732,1.011
118.0,304.72,1.011
120.0,304.714,1.011
122.0,304.704,1.011
124.0,304.704,1.011
126.0,304.684,1.011
128.0,304.697,1.01
130.0,304.702,1.01
132.0,304.69,1.01
134.0,304.688,1.01
136.0,304.681,1.01
138.0,304.678,1.01
140.0,304.685,1.01
142.0,304.675,1.01
144.0,304.669,1.01
146.0,304.664,1.01
148.0,304.641,1.01
150.0,304.649,1.01
152.0,304.663,1.01
154.0,304.665,1.01
156.0,304.662,1.01
158.0,304.66,1.009
160.0,304.639,1.009
162.0,304.643,1.009
164.0,304.647,1.009
166.0,304.645,1.009
168.0,304.644,1.009
170.0,304.639,1.009
172.0,304.645,1.009
174.0,304.627,1.009
176.0,304.629,1.009
178.0,304.631,1.009
180.0,304.631,1.009
182.0,304.613,1.009
184.0,304.611,1.009
186.0,304.609,1.009
188.0,304.612,1.008
190.0,304.591,1.008
192.0,304.622,1.008
194.0,304.616,1.008
196.0,304.602,1.008
198.0,304.598,1.008
200.0,304.607,1.008
202.0,304.59,1.008
204.0,304.597,1.008
206.0,304.587,1.008
208.0,304.586,1.008
210.0,304.606,1.008
212.0,304.598,1.008
214.0,304.582,1.008
216.0,304.587,1.008
218.0,304.587,1.008
220.0,304.57,1.008
222.0,304.576,1.008
224.0,304.58,1.008
226.0,304.587,1.008
228.0,304.581,1.008
230.0,304.578,1.008
232.0,304.584,1.008
234.0,304.57,1.008
236.0,304.567,1.008
238.0,304.574,1.008
240.0,304.576,1.008
242.0,304.577,1.007
244.0,304.571,1.007
246.0,304.555,1.007
248.0,304.582,1.007
250.0,304.55,1.007
252.0,304.57,1.007
254.0,304.549,1.007
256.0,304.548,1.007
258.0,304.536,1.007
260.0,304.537,1.007
262.0,304.542,1.007
264.0,304.541,1.007
266.0,304.555,1.007
268.0,304.554,1.007
270.0,304.549,1.007
272.0,304.548,1.007
274.0,304.551,1.007
276.0,304.527,1.007
278.0,304.541,1.007
280.0,304.526,1.007
282.0,304.533,1.007
284.0,304.529,1.007
286.0,304.532,1.007
288.0,304.538,1.006
290.0,304.538,1.006
292.0,304.525,1.006
294.0,304.535,1.006
296.0,304.523,1.006
298.0,304.528,1.006
300.0,304.524,1.006
302.0,304.535,1.006
304.0,304.522,1.006
306.0,304.523,1.006
308.0,304.511,1.006
310.0,304.525,1.006
312.0,304.513,1.006
314.0,304.511,1.006
316.0,304.523,1.006
318.0,304.505,1.006
320.0,304.522,1.006
322.0,304.508,1.006
324.0,304.49,1.006
326.0,304.518,1.006
328.0,304.488,1.006
330.0,304.506,1.006
332.0,304.507,1.006
334.0,304.501,1.006
336.0,304.507,1.006
338.0,304.498,1.006
340.0,304.495,1.006
342.0,304.501,1.006
344.0,304.493,1.006
346.0,304.499,1.006
348.0,304.493,1.006
350.0,304.484,1.005
352.0,304.488,1.005
354.0,304.486,1.005
356.0,304.49,1.005
358.0,304.49,1.005
360.0,304.497,1.005
362.0,304.487,1.005
364.0,304.48,1.005
366.0,304.494,1.005
368.0,304.488,1.005
370.0,304.478,1.005
372.0,304.49,1.005
374.0,304.5,1.005
376.0,304.494,1.005
378.0,304.487,1.005
380.0,304.492,1.005
382.0,304.483,1.005
384.0,304.482,1.005
386.0,304.5,1.005
388.0,304.494,1.005
390.0,304.489,1.005
392.0,304.485,1.005
394.0,304.495,1.005
396.0,304.482,1.005
398.0,304.477,1.005
400.0,304.484,1.005
402.0,304.488,1.005
404.0,304.476,1.005
406.0,304.48,1.005
408.0,304.469,1.005
410.0,304.49,1.005
412.0,304.469,1.005
414.0,304.479,1.005
416.0,304.465,1.005
418.0,304.476,1.005
420.0,304.478,1.005
422.0,304.472,1.005
424.0,304.474,1.005
426.0,304.468,1.005
428.0,304.473,1.005
430.0,304.478,1.005
432.0,304.485,1.005
434.0,304.472,1.005
436.0,304.472,1.005
438.0,304.473,1.005
440.0,304.476,1.005
442.0,304.464,1.005
444.0,304.471,1.005
446.0,304.471,1.005
448.0,304.479,1.005
450.0,304.477,1.005
452.0,304.48,1.005
454.0,304.46,1.005
456.0,304.48,1.005
458.0,304.46,1.005
460.0,304.482,1.005
462.0,304.465,1.005
464.0,304.465,1.005
466.0,304.483,1.005
468.0,304.484,1.005
470.0,304.478,1.005
472.0,304.46,1.005
474.0,304.463,1.005
476.0,304.471,1.005
478.0,304.453,1.005
480.0,304.468,1.005
482.0,304.461,1.005
484.0,304.461,1.005
486.0,304.463,1.005
488.0,304.462,1.005
490.0,304.46,1.005
492.0,304.461,1.005
494.0,304.456,1.005
496.0,304.471,1.005
498.0,304.457,1.004
500.0,304.458,1.004
502.0,304.458,1.004
504.0,304.471,1.004
506.0,304.455,1.004
508.0,304.453,1.004
510.0,304.466,1.004
512.0,304.467,1.004
514.0,304.44,1.004
516.0,304.461,1.004
518.0,304.463,1.004
520.0,304.451,1.004
522.0,304.468,1.004
524.0,304.464,1.004
526.0,304.465,1.004
528.0,304.472,1.004
530.0,304.462,1.004
532.0,304.457,1.004
534.0,304.462,1.004
536.0,304.454,1.004
538.0,304.448,1.004
540.0,304.458,1.004
542.0,304.46,1.004
544.0,304.45,1.004
546.0,304.439,1.004
548.0,304.435,1.004
550.0,304.446,1.004
552.0,304.448,1.004
554.0,304.448,1.004
556.0,304.445,1.004
558.0,304.456,1.004
560.0,304.458,1.004
562.0,304.448,1.004
564.0,304.452,1.004
566.0,304.442,1.004
568.0,304.46,1.004
570.0,304.462,1.004
572.0,304.467,1.004
574.0,304.479,1.004
576.0,304.467,1.004
578.0,304.462,1.004
580.0,304.465,1.004
582.0,304.459,1.004
584.0,304.47,1.004
586.0,304.449,1.004
588.0,304.449,1.004
590.0,304.465,1.004
592.0,304.458,1.004
594.0,304.462,1.004
596.0,304.451,1.004
598.0,304.464,1.004
600.0,304.461,1.004
602.0,304.446,1.004
604.0,304.458,1.004
606.0,304.459,1.004
608.0,304.454,1.004
610.0,304.451,1.004
612.0,304.461,1.004
614.0,304.465,1.004
616.0,304.451,1.004
618.0,304.458,1.004
620.0,304.47,1.004
622.0,304.476,1.004
624.0,304.455,1.004
626.0,304.451,1.004
628.0,304.469,1.004
630.0,304.464,1.004
632.0,304.465,1.004
634.0,304.462,1.004
636.0,304.468,1.004
638.0,304.472,1.004
640.0,304.451,1.004
642.0,304.473,1.004
644.0,304.478,1.004
646.0,304.46,1.004
648.0,304.473,1.004
650.0,304.468,1.004
652.0,304.483,1.004
654.0,304.448,1.004
656.0,304.458,1.004
658.0,304.465,1.004
660.0,304.457,1.004
662.0,304.463,1.004
664.0,304.444,1.004
666.0,304.457,1.004
668.0,304.465,1.004
670.0,304.457,1.004
672.0,304.45,1.004
674.0,304.456,1.004
676.0,304.442,1.004
678.0,304.459,1.004
680.0,304.461,1.004
682.0,304.438,1.004
684.0,304.473,1.004
686.0,304.461,1.004
688.0,304.46,1.004
690.0,304.459,1.004
692.0,304.465,1.003
694.0,304.469,1.003
696.0,304.458,1.003
698.0,304.462,1.003
700.0,304.455,1.003
702.0,304.456,1.003
704.0,304.462,1.003
706.0,304.453,1.003
708.0,304.467,1.003
710.0,304.471,1.004
712.0,304.479,1.004
714.0,304.458,1.004
716.0,304.459,1.004
718.0,304.457,1.004
720.0,304.452,1.004
722.0,304.461,1.004
724.0,304.45,1.004
726.0,304.457,1.004
728.0,304.451,1.003
730.0,304.459,1.003
732.0,304.452,1.003
734.0,304.463,1.003
736.0,304.447,1.003
738.0,304.463,1.003
740.0,304.451,1.003
742.0,304.456,1.003
744.0,304.464,1.003
746.0,304.462,1.003
748.0,304.456,1.003
750.0,304.451,1.003
752.0,304.449,1.003
754.0,304.468,1.003
756.0,304.453,1.003
758.0,304.454,1.003
760.0,304.461,1.003
762.0,304.451,1.003
764.0,304.454,1.003
766.0,304.449,1.003
768.0,304.451,1.003
770.0,304.447,1.003
772.0,304.459,1.003
774.0,304.452,1.003
776.0,304.465,1.003
778.0,304.457,1.003
780.0,304.457,1.003
782.0,304.455,1.003
784.0,304.451,1.003
786.0,304.447,1.003
788.0,304.46,1.003
790.0,304.454,1.003
792.0,304.463,1.003
794.0,304.449,1.003
796.0,304.442,1.003
798.0,304.449,1.003
800.0,304.455,1.003
802.0,304.435,1.003
804.0,304.442,1.003
806.0,304.45,1.003
808.0,304.435,1.003
810.0,304.446,1.003
812.0,304.433,1.003
814.0,304.447,1.003
816.0,304.453,1.003
818.0,304.448,1.003
820.0,304.445,1.003
822.0,304.446,1.003
824.0,304.446,1.003
826.0,304.435,1.003
828.0,304.453,1.003
830.0,304.445,1.003
832.0,304.438,1.003
834.0,304.443,1.003
836.0,304.453,1.003
838.0,304.444,1.003
840.0,304.426,1.004
842.0,304.454,1.003
844.0,304.443,1.003
846.0,304.452,1.003
848.0,304.458,1.003
850.0,304.44,1.003
852.0,304.456,1.003
854.0,304.458,1.003
856.0,304.45,1.003
858.0,304.449,1.003
860.0,304.452,1.003
862.0,304.441,1.003
864.0,304.462,1.003
866.0,304.454,1.003
868.0,304.458,1.003
870.0,304.439,1.003
872.0,304.447,1.003
874.0,304.444,1.003
876.0,304.446,1.003
878.0,304.454,1.003
880.0,304.442,1.003
882.0,304.447,1.003
884.0,304.45,1.003
886.0,304.439,1.003
888.0,304.44,1.003
890.0,304.433,1.003
892.0,304.452,1.003
894.0,304.442,1.003
896.0,304.422,1.003
898.0,304.441,1.003
900.0,304.455,1.003
902.0,304.449,1.003
904.0,304.46,1.003
906.0,304.463,1.003
908.0,304.446,1.003
910.0,304.452,1.003
912.0,304.45,1.003
914.0,304.448,1.003
916.0,304.449,1.003
918.0,304.453,1.003
920.0,304.452,1.003
922.0,304.441,1.003
924.0,304.44,1.003
926.0,304.454,1.003
928.0,304.441,1.003
930.0,304.453,1.003
932.0,304.444,1.003
934.0,304.46,1.003
936.0,304.455,1.003
938.0,304.442,1.003
940.0,304.444,1.003
942.0,304.452,1.003
944.0,304.448,1.003
946.0,304.454,1.003
948.0,304.45,1.003
950.0,304.458,1.003
952.0,304.454,1.003
954.0,304.454,1.003
956.0,304.451,1.003
958.0,304.439,1.003
960.0,304.466,1.003
962.0,304.457,1.003
964.0,304.439,1.003
966.0,304.436,1.003
968.0,304.443,1.003
970.0,304.457,1.003
972.0,304.455,1.003
974.0,304.462,1.003
976.0,304.457,1.003
978.0,304.469,1.003
980.0,304.454,1.003
982.0,304.458,1.003
984.0,304.452,1.003
986.0,304.441,1.003
988.0,304.449,1.003
990.0,304.449,1.003
992.0,304.452,1.003
994.0,304.439,1.003
996.0,304.448,1.003
998.0,304.436,1.003
1000.0,304.453,1.003
1002.0,304.453,1.003
1004.0,304.439,1.003
1006.0,304.44,1.003
1008.0,304.443,1.003
1010.0,304.444,1.003
1012.0,304.442,1.003
1014.0,304.438,1.003
1016.0,304.447,1.003
1018.0,304.451,1.003
1020.0,304.452,1.003
1022.0,304.443,1.003
1024.0,304.454,1.003
1026.0,304.454,1.003
1028.0,304.447,1.003
1030.0,304.453,1.003
1032.0,304.446,1.003
1034.0,304.446,1.003
1036.0,304.46,1.003
1038.0,304.451,1.003
1040.0,304.452,1.003
1042.0,304.443,1.003
1044.0,304.44,1.003
1046.0,304.447,1.003
1048.0,304.456,1.003
1050.0,304.464,1.003
1052.0,304.453,1.003
1054.0,304.448,1.003
1056.0,304.455,1.003
1058.0,304.452,1.003
1060.0,304.443,1.003
1062.0,304.452,1.003
1064.0,304.446,1.003
1066.0,304.46,1.003
1068.0,304.454,1.003
1070.0,304.454,1.003
1072.0,304.444,1.003
1074.0,304.458,1.003
1076.0,304.449,1.003
1078.0,304.458,1.003
1080.0,304.467,1.003
1082.0,304.452,1.003
1084.0,304.453,1.003
1086.0,304.465,1.003
1088.0,304.458,1.003
1090.0,304.452,1.003
1092.0,304.45,1.003
1094.0,304.448,1.003
1096.0,304.451,1.003
1098.0,304.45,1.003
1100.0,304.444,1.003
1102.0,304.446,1.003
1104.0,304.431,1.003
1106.0,304.452,1.003
1108.0,304.453,1.003
1110.0,304.451,1.003
1112.0,304.452,1.003
1114.0,304.444,1.003
1116.0,304.454,1.003
1118.0,304.464,1.003
1120.0,304.464,1.003
1122.0,304.456,1.003
1124.0,304.464,1.003
1126.0,304.456,1.003
1128.0,304.467,1.003
1130.0,304.457,1.003
1132.0,304.456,1.003
1134.0,304.472,1.003
1136.0,304.463,1.003
1138.0,304.461,1.003
1140.0,304.448,1.003
1142.0,304.451,1.003
1144.0,304.45,1.003
1146.0,304.431,1.003
1148.0,304.454,1.003
1150.0,304.456,1.003
1152.0,304.448,1.003
1154.0,304.452,1.003
1156.0,304.462,1.003
1158.0,304.455,1.003
1160.0,304.448,1.003
1162.0,304.437,1.003
1164.0,304.455,1.003
1166.0,304.456,1.003
1168.0,304.458,1.003
1170.0,304.453,1.003
1172.0,304.457,1.003
1174.0,304.448,1.003
1176.0,304.464,1.003
1178.0,304.467,1.003
1180.0,304.462,1.003
1182.0,304.461,1.003
1184.0,304.484,1.003
1186.0,304.466,1.003
1188.0,304.457,1.003
1190.0,304.452,1.003
1192.0,304.456,1.003
1194.0,304.449,1.003
1196.0,304.45,1.003
1198.0,304.461,1.003
1200.0,304.459,1.002
1202.0,304.538,1.002
1204.0,305.137,1.001
1206.0,305.918,1.001
1208.0,306.596,1.0
1210.0,307.555,1.001
1212.0,308.662,1.002
1214.0,309.846,1.004
1216.0,311.071,1.005
1218.0,312.313,1.006
1220.0,313.602,1.006
1222.0,314.897,1.006
1224.0,316.198,1.006
1226.0,317.507,1.005
1228.0,318.808,1.005
1230.0,320.1,1.004
1232.0,321.422,1.004
1234.0,322.762,1.004
1236.0,324.076,1.004
1238.0,325.411,1.003
1240.0,326.718,1.003
1242.0,328.037,1.003
1244.0,329.364,1.003
1246.0,330.676,1.002
1248.0,331.978,1.002
1250.0,333.304,1.002
1252.0,334.631,1.002
1254.0,335.942,1.001
1256.0,337.273,1.001
1258.0,338.593,1.001
1260.0,339.904,1.0
1262.0,341.225,1.0
1264.0,342.556,1.0
1266.0,343.875,0.999
1268.0,345.189,0.999
1270.0,346.512,0.999
1272.0,347.826,0.998
1274.0,349.148,0.998
1276.0,350.481,0.998
1278.0,351.8,0.997
1280.0,353.123,0.997
1282.0,354.435,0.997
1284.0,355.757,0.996
1286.0,357.073,0.996
1288.0,358.409,0.996
1290.0,359.735,0.995
1292.0,361.041,0.995
1294.0,362.366,0.995
1296.0,363.702,0.995
1298.0,365.011,0.994
1300.0,366.358,0.994
1302.0,367.684,0.994
1304.0,369.018,0.994
1306.0,370.332,0.994
1308.0,371.667,0.994
1310.0,372.989,0.993
1312.0,374.317,0.993
1314.0,375.635,0.993
1316.0,376.96,0.993
1318.0,378.282,0.993
1320.0,379.624,0.993
1322.0,380.955,0.993
1324.0,382.282,0.993
1326.0,383.626,0.993
1328.0,384.95,0.993
1330.0,386.28,0.993
1332.0,387.62,0.993
1334.0,388.946,0.993
1336.0,390.285,0.993
1338.0,391.613,0.993
1340.0,392.948,0.993
1342.0,394.293,0.993
1344.0,395.627,0.993
1346.0,396.972,0.992
1348.0,398.3,0.992
1350.0,399.643,0.992
1352.0,400.989,0.992
1354.0,402.322,0.992
1356.0,403.66,0.992
1358.0,405.004,0.992
1360.0,406.357,0.992
1362.0,407.692,0.993
1364.0,409.036,0.993
1366.0,410.377,0.993
1368.0,411.726,0.993
1370.0,413.074,0.992
1372.0,414.408,0.992
1374.0,415.761,0.992
1376.0,417.103,0.992
1378.0,418.467,0.992
1380.0,419.799,0.992
1382.0,421.166,0.992
1384.0,422.513,0.992
1386.0,423.858,0.992
1388.0,425.226,0.992
1390.0,426.57,0.992
1392.0,427.92,0.992
1394.0,429.27,0.992
1396.0,430.611,0.992
1398.0,431.972,0.991
1400.0,433.346,0.991
1402.0,434.69,0.991
1404.0,436.056,0.991
1406.0,437.409,0.991
1408.0,438.757,0.991
1410.0,440.113,0.991
1412.0,441.477,0.991
1414.0,442.84,0.991
1416.0,444.205,0.991
1418.0,445.56,0.99
1420.0,446.921,0.99
1422.0,448.283,0.99
1424.0,449.641,0.99
1426.0,451.002,0.99
1428.0,452.362,0.99
1430.0,453.717,0.99
1432.0,455.086,0.99
1434.0,456.459,0.989
1436.0,457.818,0.989
1438.0,459.178,0.989
1440.0,460.555,0.989
1442.0,461.916,0.988
1444.0,463.278,0.988
1446.0,464.66,0.988
1448.0,466.03,0.987
1450.0,467.393,0.987
1452.0,468.769,0.987
1454.0,470.128,0.986
1456.0,471.503,0.986
1458.0,472.867,0.985
1460.0,474.24,0.985
1462.0,475.609,0.985
1464.0,476.972,0.984
1466.0,478.336,0.984
1468.0,479.715,0.983
1470.0,481.076,0.983
1472.0,482.449,0.982
1474.0,483.828,0.982
1476.0,485.189,0.981
1478.0,486.579,0.981
1480.0,487.93,0.98
1482.0,489.308,0.98
1484.0,490.683,0.979
1486.0,492.051,0.979
1488.0,493.411,0.978
1490.0,494.787,0.977
1492.0,496.165,0.977
1494.0,497.525,0.976
1496.0,498.912,0.975
1498.0,500.275,0.975
1500.0,501.643,0.974
1502.0,503.011,0.973
1504.0,504.38,0.973
1506.0,505.755,0.972
1508.0,507.128,0.971
1510.0,508.494,0.97
1512.0,509.869,0.969
1514.0,511.248,0.969
1516.0,512.614,0.968
1518.0,513.968,0.967
1520.0,515.354,0.966
1522.0,516.721,0.965
1524.0,518.078,0.964
1526.0,519.441,0.963
1528.0,520.823,0.962
1530.0,522.195,0.961
1532.0,523.559,0.96
1534.0,524.941,0.958
1536.0,526.29,0.957
1538.0,527.676,0.956
1540.0,529.033,0.954
1542.0,530.405,0.953
1544.0,531.772,0.952
1546.0,533.141,0.95
1548.0,534.501,0.949
1550.0,535.871,0.947
1552.0,537.229,0.945
1554.0,538.604,0.944
1556.0,539.973,0.942
1558.0,541.338,0.94
1560.0,542.693,0.938
1562.0,544.067,0.937
1564.0,545.438,0.935
1566.0,546.793,0.933
1568.0,548.167,0.931
1570.0,549.517,0.928
1572.0,550.88,0.926
1574.0,552.257,0.924
1576.0,553.605,0.922
1578.0,554.966,0.92
1580.0,556.329,0.917
1582.0,557.699,0.915
1584.0,559.062,0.913
1586.0,560.41,0.91
1588.0,561.778,0.908
1590.0,563.141,0.905
1592.0,564.497,0.903
1594.0,565.863,0.9
1596.0,567.221,0.898
1598.0,568.579,0.895
1600.0,569.938,0.892
1602.0,571.283,0.89
1604.0,572.653,0.887
1606.0,574.005,0.884
1608.0,575.371,0.881
1610.0,576.733,0.878
1612.0,578.087,0.875
1614.0,579.449,0.872
1616.0,580.787,0.869
1618.0,582.15,0.866
1620.0,583.502,0.863
1622.0,584.851,0.86
1624.0,586.212,0.856
1626.0,587.568,0.853
1628.0,588.917,0.849
1630.0,590.27,0.846
1632.0,591.624,0.842
1634.0,592.969,0.838
1636.0,594.318,0.835
1638.0,595.679,0.831
1640.0,597.018,0.826
1642.0,598.368,0.822
1644.0,599.719,0.818
1646.0,601.075,0.813
1648.0,602.411,0.809
1650.0,603.765,0.804
1652.0,605.112,0.799
1654.0,606.455,0.795
1656.0,607.803,0.79
1658.0,609.141,0.784
1660.0,610.493,0.779
1662.0,611.835,0.774
1664.0,613.185,0.768
1666.0,614.525,0.762
1668.0,615.867,0.757
1670.0,617.209,0.751
1672.0,618.553,0.745
1674.0,619.885,0.738
1676.0,621.228,0.732
1678.0,622.577,0.725
1680.0,623.913,0.719
1682.0,625.253,0.712
1684.0,626.593,0.705
1686.0,627.933,0.698
1688.0,629.273,0.691
1690.0,630.605,0.684
1692.0,631.939,0.677
1694.0,633.273,0.669
1696.0,634.606,0.662
1698.0,635.949,0.654
1700.0,637.279,0.646
1702.0,638.618,0.639
1704.0,639.937,0.631
1706.0,641.284,0.623
1708.0,642.621,0.615
1710.0,643.949,0.606
1712.0,645.275,0.598
1714.0,646.614,0.59
1716.0,647.934,0.581
1718.0,649.264,0.572
1720.0,650.608,0.563
1722.0,651.929,0.554
1724.0,653.263,0.545
1726.0,654.583,0.536
1728.0,655.912,0.527
1730.0,657.237,0.517
1732.0,658.566,0.507
1734.0,659.885,0.497
1736.0,661.197,0.487
1738.0,662.531,0.476
1740.0,663.847,0.466
1742.0,665.171,0.455
1744.0,666.496,0.444
1746.0,667.816,0.432
1748.0,669.136,0.421
1750.0,670.46,0.409
1752.0,671.772,0.397
1754.0,673.108,0.385
1756.0,674.431,0.373
1758.0,675.755,0.361
1760.0,677.073,0.349
1762.0,678.396,0.338
1764.0,679.706,0.326
1766.0,681.046,0.315
1768.0,682.362,0.304
1770.0,683.68,0.294
1772.0,684.997,0.284
1774.0,686.327,0.275
1776.0,687.658,0.267
1778.0,688.967,0.259
1780.0,690.295,0.253
1782.0,691.616,0.247
1784.0,692.949,0.242
1786.0,694.277,0.238
1788.0,695.595,0.234
1790.0,696.915,0.232
1792.0,698.241,0.229
1794.0,699.565,0.227
1796.0,700.893,0.226
1798.0,702.219,0.224
1800.0,703.531,0.223
1802.0,704.852,0.222
1804.0,706.173,0.221
1806.0,707.497,0.22
1808.0,708.82,0.219
1810.0,710.146,0.218
1812.0,711.468,0.217
1814.0,712.786,0.216
1816.0,714.1,0.216
1818.0,715.416,0.215
1820.0,716.74,0.214
1822.0,718.056,0.213
1824.0,719.388,0.212
1826.0,720.691,0.212
1828.0,722.01,0.211
1830.0,723.328,0.21
1832.0,724.651,0.209
1834.0,725.968,0.208
1836.0,727.286,0.208
1838.0,728.606,0.207
1840.0,729.924,0.206
1842.0,731.249,0.205
1844.0,732.561,0.204
1846.0,733.875,0.204
1848.0,735.198,0.203
1850.0,736.526,0.202
1852.0,737.832,0.202
1854.0,739.155,0.201
1856.0,740.472,0.2
1858.0,741.794,0.2
1860.0,743.105,0.199
1862.0,744.417,0.198
1864.0,745.729,0.198
1866.0,747.044,0.197
1868.0,748.381,0.197
1870.0,749.687,0.196
1872.0,751.006,0.195
1874.0,752.326,0.195
1876.0,753.651,0.194
1878.0,754.952,0.193
1880.0,756.276,0.193
1882.0,757.6,0.192
1884.0,758.908,0.192
1886.0,760.233,0.191
1888.0,761.549,0.19
1890.0,762.863,0.19
1892.0,764.184,0.189
1894.0,765.498,0.189
1896.0,766.813,0.189
1898.0,768.135,0.188
1900.0,769.446,0.188
1902.0,770.753,0.187
1904.0,772.076,0.187
1906.0,773.39,0.187
1908.0,774.712,0.186
1910.0,776.041,0.186
1912.0,777.343,0.185
1914.0,778.666,0.185
1916.0,779.982,0.185
1918.0,781.306,0.184
1920.0,782.616,0.184
1922.0,783.936,0.184
1924.0,785.255,0.183
1926.0,786.572,0.183
1928.0,787.891,0.182
1930.0,789.211,0.182
1932.0,790.523,0.182
1934.0,791.848,0.181
1936.0,793.158,0.181
1938.0,794.481,0.18
1940.0,795.789,0.18
1942.0,797.109,0.18
1944.0,798.427,0.18
1946.0,799.746,0.179
1948.0,801.071,0.179
1950.0,802.38,0.179
1952.0,803.701,0.178
1954.0,805.02,0.178
1956.0,806.338,0.178
1958.0,807.658,0.177
1960.0,808.979,0.177
1962.0,810.289,0.177
1964.0,811.602,0.176
1966.0,812.927,0.176
1968.0,814.246,0.176
1970.0,815.557,0.176
1972.0,816.889,0.175
1974.0,818.197,0.175
1976.0,819.521,0.175
1978.0,820.84,0.175
1980.0,822.165,0.175
1982.0,823.484,0.174
1984.0,824.796,0.174
1986.0,826.117,0.174
1988.0,827.435,0.173
1990.0,828.759,0.173
1992.0,830.092,0.173
1994.0,831.392,0.173
1996.0,832.718,0.172
1998.0,834.04,0.172
2000.0,835.369,0.172
2002.0,836.672,0.171
2004.0,838.007,0.171
2006.0,839.329,0.171
2008.0,840.644,0.171
2010.0,841.966,0.171
2012.0,843.285,0.17
2014.0,844.604,0.17
2016.0,845.92,0.17
2018.0,847.238,0.17
2020.0,848.56,0.169
2022.0,849.882,0.169
2024.0,851.207,0.169
2026.0,852.526,0.169
2028.0,853.84,0.169
2030.0,855.171,0.168
2032.0,856.484,0.168
2034.0,857.807,0.168
2036.0,859.12,0.168
2038.0,860.451,0.168
2040.0,861.779,0.167
2042.0,863.088,0.167
2044.0,864.414,0.167
2046.0,865.741,0.167
2048.0,867.058,0.167
2050.0,868.38,0.166
2052.0,869.702,0.166
2054.0,871.028,0.166
2056.0,872.352,0.166
2058.0,873.669,0.166
2060.0,874.991,0.165
2062.0,876.312,0.165
2064.0,877.636,0.165
2066.0,878.958,0.165
2068.0,880.286,0.165
2070.0,881.607,0.164
2072.0,882.931,0.164
2074.0,884.252,0.164
2076.0,885.564,0.164
2078.0,886.901,0.164
2080.0,888.214,0.163
2082.0,889.541,0.163
2084.0,890.867,0.163
2086.0,892.191,0.163
2088.0,893.514,0.163
2090.0,894.832,0.163
2092.0,896.165,0.162
2094.0,897.486,0.162
2096.0,898.814,0.162
2098.0,900.137,0.162
2100.0,901.458,0.162
2102.0,902.783,0.162
2104.0,904.113,0.161
2106.0,905.437,0.161
2108.0,906.762,0.161
2110.0,908.088,0.161
2112.0,909.41,0.161
2114.0,910.734,0.161
2116.0,912.07,0.16
2118.0,913.39,0.16
2120.0,914.714,0.16
2122.0,916.039,0.16
2124.0,917.372,0.16
2126.0,918.692,0.159
2128.0,920.011,0.159
2130.0,921.346,0.159
2132.0,922.674,0.159
2134.0,923.99,0.159
2136.0,925.325,0.159
2138.0,926.647,0.159
2140.0,927.975,0.159
2142.0,929.303,0.158
2144.0,930.627,0.158
2146.0,931.963,0.158
2148.0,933.29,0.158
2150.0,934.615,0.158
2152.0,935.944,0.158
2154.0,937.261,0.158
2156.0,938.601,0.157
2158.0,939.925,0.157
2160.0,941.246,0.157
2162.0,942.584,0.157
2164.0,943.905,0.157
2166.0,945.232,0.157
2168.0,946.558,0.157
2170.0,947.888,0.156
2172.0,949.203,0.156
2174.0,950.528,0.156
2176.0,951.864,0.156
2178.0,953.187,0.156
2180.0,954.519,0.156
2182.0,955.844,0.156
2184.0,957.171,0.156
2186.0,958.504,0.155
2188.0,959.827,0.155
2190.0,961.157,0.155
2192.0,962.48,0.155
2194.0,963.807,0.155
2196.0,965.135,0.155
2198.0,966.469,0.155
2200.0,967.782,0.155
2202.0,969.12,0.155
2204.0,970.439,0.154
2206.0,971.766,0.154
2208.0,973.097,0.154
2210.0,974.418,0.154
2212.0,975.754,0.154
2214.0,977.081,0.154
2216.0,978.401,0.154
2218.0,979.72,0.154
2220.0,981.059,0.154
2222.0,982.39,0.154
2224.0,983.709,0.154
2226.0,985.043,0.154
2228.0,986.37,0.153
2230.0,987.697,0.153
2232.0,989.022,0.153
2234.0,990.355,0.153
2236.0,991.682,0.153
2238.0,993.009,0.153
2240.0,994.336,0.153
2242.0,995.675,0.153
2244.0,997.003,0.153
2246.0,998.324,0.152
2248.0,999.655,0.152
2250.0,1000.98,0.152
2252.0,1002.315,0.152
2254.0,1003.643,0.152
2256.0,1004.98,0.152
2258.0,1006.306,0.152
2260.0,1007.629,0.152
2262.0,1008.949,0.152
2264.0,1010.285,0.152
2266.0,1011.621,0.152
2268.0,1012.948,0.151
2270.0,1014.274,0.151
2272.0,1015.607,0.151
2274.0,1016.942,0.151
2276.0,1018.268,0.151
2278.0,1019.589,0.151
2280.0,1020.917,0.151
2282.0,1022.248,0.151
2284.0,1023.588,0.151
2286.0,1024.918,0.151
2288.0,1026.241,0.151
2290.0,1027.579,0.151
2292.0,1028.904,0.151
2294.0,1030.237,0.15
2296.0,1031.567,0.15
2298.0,1032.902,0.15
2300.0,1034.22,0.15
2302.0,1035.558,0.15
2304.0,1036.892,0.15
2306.0,1038.222,0.15
2308.0,1039.557,0.15
2310.0,1040.897,0.15
2312.0,1042.228,0.15
2314.0,1043.558,0.149
2316.0,1044.889,0.149
2318.0,1046.218,0.149
2320.0,1047.549,0.149
2322.0,1048.882,0.149
2324.0,1050.209,0.149
2326.0,1051.54,0.149
2328.0,1052.863,0.149
2330.0,1054.201,0.149
2332.0,1055.532,0.149
2334.0,1056.86,0.148
2336.0,1057.898,0.148
2338.0,1058.649,0.148
2340.0,1059.571,0.148
2342.0,1060.423,0.148
2344.0,1061.208,0.148
2346.0,1061.934,0.148
2348.0,1062.611,0.148
2350.0,1063.228,0.148
2352.0,1063.798,0.148
2354.0,1064.326,0.148
2356.0,1064.812,0.148
2358.0,1065.262,0.148
2360.0,1065.679,0.148
2362.0,1066.07,0.148
2364.0,1066.426,0.148
2366.0,1066.761,0.147
2368.0,1067.065,0.147
2370.0,1067.359,0.147
2372.0,1067.62,0.147
2374.0,1067.868,0.147
2376.0,1068.092,0.147
2378.0,1068.304,0.147
2380.0,1068.508,0.147
2382.0,1068.68,0.147
2384.0,1068.858,0.147
2386.0,1069.025,0.147
2388.0,1069.173,0.147
2390.0,1069.321,0.147
2392.0,1069.445,0.147
2394.0,1069.565,0.147
2396.0,1069.671,0.147
2398.0,1069.792,0.147
2400.0,1069.883,0.147
2402.0,1069.982,0.147
2404.0,1070.073,0.147
2406.0,1070.153,0.146
2408.0,1070.23,0.146
2410.0,1070.309,0.146
2412.0,1070.371,0.146
2414.0,1070.444,0.146
2416.0,1070.505,0.146
2418.0,1070.56,0.146
2420.0,1070.614,0.146
2422.0,1070.673,0.146
2424.0,1070.721,0.146
2426.0,1070.765,0.146
2428.0,1070.814,0.146
2430.0,1070.85,0.146
2432.0,1070.896,0.146
2434.0,1070.932,0.146
2436.0,1070.973,0.146
2438.0,1071.012,0.146
2440.0,1071.042,0.146
2442.0,1071.074,0.146
2444.0,1071.104,0.146
2446.0,1071.132,0.146
2448.0,1071.159,0.146
2450.0,1071.176,0.146
2452.0,1071.216,0.146
2454.0,1071.245,0.146
2456.0,1071.272,0.146
2458.0,1071.289,0.146
2460.0,1071.326,0.146
2462.0,1071.346,0.146
2464.0,1071.363,0.146
2466.0,1071.377,0.146
2468.0,1071.397,0.146
2470.0,1071.414,0.146
2472.0,1071.433,0.146
2474.0,1071.45,0.146
2476.0,1071.465,0.146
2478.0,1071.482,0.145
2480.0,1071.502,0.145
2482.0,1071.516,0.145
2484.0,1071.541,0.145
2486.0,1071.556,0.145
2488.0,1071.568,0.145
2490.0,1071.58,0.145
2492.0,1071.586,0.145
2494.0,1071.609,0.145
2496.0,1071.614,0.145
2498.0,1071.638,0.145
2500.0,1071.647,0.145
2502.0,1071.649,0.145
2504.0,1071.66,0.145
2506.0,1071.67,0.145
2508.0,1071.679,0.145
2510.0,1071.699,0.145
2512.0,1071.703,0.145
2514.0,1071.722,0.145
2516.0,1071.729,0.145
2518.0,1071.73,0.145
2520.0,1071.752,0.145
2522.0,1071.754,0.145
2524.0,1071.76,0.144
2526.0,1071.775,0.144
2528.0,1071.779,0.144
2530.0,1071.789,0.144
2532.0,1071.794,0.144
2534.0,1071.808,0.144
2536.0,1071.814,0.144
2538.0,1071.822,0.144
2540.0,1071.827,0.144
2542.0,1071.838,0.144
2544.0,1071.836,0.144
2546.0,1071.848,0.144
2548.0,1071.86,0.144
2550.0,1071.867,0.144
2552.0,1071.87,0.144
2554.0,1071.885,0.144
2556.0,1071.882,0.144
2558.0,1071.885,0.144
2560.0,1071.892,0.144
2562.0,1071.905,0.144
2564.0,1071.913,0.144
2566.0,1071.914,0.144
2568.0,1071.924,0.144
2570.0,1071.931,0.144
2572.0,1071.934,0.144
2574.0,1071.935,0.144
2576.0,1071.944,0.144
2578.0,1071.946,0.144
2580.0,1071.959,0.144
2582.0,1071.96,0.144
2584.0,1071.964,0.144
2586.0,1071.967,0.144
2588.0,1071.967,0.144
2590.0,1071.978,0.144
2592.0,1071.979,0.144
2594.0,1071.988,0.144
2596.0,1071.989,0.144
2598.0,1071.997,0.144
2600.0,1071.997,0.144
2602.0,1072.004,0.144
2604.0,1072.001,0.144
2606.0,1072.005,0.144
2608.0,1072.011,0.144
2610.0,1072.01,0.144
2612.0,1072.017,0.144
2614.0,1072.02,0.144
2616.0,1072.024,0.144
2618.0,1072.034,0.144
2620.0,1072.028,0.144
2622.0,1072.039,0.144
2624.0,1072.041,0.144
2626.0,1072.045,0.144
2628.0,1072.063,0.144
2630.0,1072.055,0.143
2632.0,1072.052,0.143
2634.0,1072.057,0.143
2636.0,1072.055,0.143
2638.0,1072.054,0.143
2640.0,1072.067,0.143
2642.0,1072.063,0.143
2644.0,1072.07,0.143
2646.0,1072.074,0.143
2648.0,1072.067,0.143
2650.0,1072.074,0.143
2652.0,1072.087,0.143
2654.0,1072.088,0.143
2655.0,1072.085,0.143