File: Wood/Calibration_Data/TUBS/TUBS_TGA_N2_5K_R3.csv
Time (s),Temperature (K),Mass (mg)
0.0,304.917,0.95
11.0,304.862,0.948
26.0,304.797,0.946
45.0,304.741,0.944
71.0,304.662,0.942
101.0,304.603,0.94
141.0,304.546,0.938
203.0,304.489,0.936
291.0,304.416,0.934
480.0,304.374,0.932
676.0,304.353,0.932
692.0,304.368,0.932
983.0,304.354,0.93
1025.0,304.362,0.93
1219.442,305.0,0.931
1236.123,306.0,0.931
1251.066,307.0,0.931
1264.895,308.0,0.93
1278.011,309.0,0.93
1290.771,310.0,0.93
1303.185,311.0,0.93
1315.577,312.0,0.93
1327.588,313.0,0.93
1339.753,314.0,0.929
1352.111,315.0,0.929
1363.788,316.0,0.931
1375.716,317.0,0.931
1387.737,318.0,0.931
1399.876,319.0,0.931
1411.967,320.0,0.93
1423.5,321.0,0.93
1435.853,322.0,0.93
1447.873,323.0,0.93
1459.795,324.0,0.929
1471.841,325.0,0.929
1484.0,326.0,0.929
1495.826,327.0,0.928
1507.849,328.0,0.928
1519.859,329.0,0.927
1531.822,330.0,0.928
1543.761,331.0,0.927
1555.923,332.0,0.927
1567.903,333.0,0.927
1579.877,334.0,0.926
1591.967,335.0,0.927
1603.953,336.0,0.926
1615.9,337.0,0.926
1628.032,338.0,0.926
1639.908,339.0,0.925
1651.899,340.0,0.925
1663.816,341.0,0.925
1675.899,342.0,0.925
1687.824,343.0,0.925
1699.871,344.0,0.925
1711.976,345.0,0.924
1724.024,346.0,0.924
1735.989,347.0,0.924
1748.022,348.0,0.924
1759.893,349.0,0.924
1771.87,350.0,0.924
1783.812,351.0,0.924
1795.987,352.0,0.924
1807.908,353.0,0.923
1820.048,354.0,0.924
1831.884,355.0,0.924
1843.989,356.0,0.924
1856.0,357.0,0.924
1867.835,358.0,0.924
1879.816,359.0,0.924
1891.805,360.0,0.924
1903.63,361.0,0.924
1915.781,362.0,0.924
1927.634,363.0,0.924
1939.659,364.0,0.923
1951.575,365.0,0.923
1963.756,366.0,0.923
1975.608,367.0,0.923
1987.628,368.0,0.923
1999.533,369.0,0.923
2011.611,370.0,0.923
2023.542,371.0,0.923
2035.608,372.0,0.923
2047.606,373.0,0.923
2059.477,374.0,0.923
2071.313,375.0,0.923
2083.309,376.0,0.923
2095.231,377.0,0.923
2107.186,378.0,0.923
2119.145,379.0,0.923
2131.258,380.0,0.923
2143.0,381.0,0.923
2155.082,382.0,0.923
2166.895,383.0,0.923
2178.988,384.0,0.923
2190.906,385.0,0.923
2202.877,386.0,0.923
2214.813,387.0,0.923
2226.711,388.0,0.923
2238.535,389.0,0.923
2250.561,390.0,0.923
2262.437,391.0,0.923
2274.354,392.0,0.923
2286.119,393.0,0.923
2298.237,394.0,0.923
2310.105,395.0,0.923
2321.949,396.0,0.923
2333.935,397.0,0.923
2345.807,398.0,0.923
2357.69,399.0,0.923
2369.667,400.0,0.923
2381.52,401.0,0.923
2393.649,402.0,0.923
2405.341,403.0,0.923
2417.375,404.0,0.923
2429.229,405.0,0.923
2441.118,406.0,0.923
2453.014,407.0,0.923
2465.038,408.0,0.922
2476.962,409.0,0.923
2488.803,410.0,0.922
2500.763,411.0,0.922
2512.696,412.0,0.922
2524.61,413.0,0.922
2536.493,414.0,0.922
2548.382,415.0,0.922
2560.266,416.0,0.922
2572.179,417.0,0.922
2583.942,418.0,0.922
2595.798,419.0,0.922
2607.88,420.0,0.921
2619.739,421.0,0.921
2631.613,422.0,0.921
2643.459,423.0,0.921
2655.406,424.0,0.921
2667.381,425.0,0.921
2679.346,426.0,0.921
2691.26,427.0,0.92
2703.226,428.0,0.92
2714.951,429.0,0.92
2726.893,430.0,0.92
2738.678,431.0,0.92
2750.622,432.0,0.919
2762.506,433.0,0.919
2774.419,434.0,0.919
2786.231,435.0,0.919
2798.154,436.0,0.919
2810.049,437.0,0.919
2821.969,438.0,0.919
2833.967,439.0,0.918
2845.765,440.0,0.918
2857.635,441.0,0.918
2869.641,442.0,0.918
2881.375,443.0,0.918
2893.388,444.0,0.918
2905.236,445.0,0.917
2917.247,446.0,0.917
2928.955,447.0,0.917
2940.908,448.0,0.917
2952.818,449.0,0.917
2964.552,450.0,0.916
2976.463,451.0,0.916
2988.28,452.0,0.916
3000.086,453.0,0.916
3012.0,454.0,0.916
3023.936,455.0,0.916
3035.732,456.0,0.916
3047.733,457.0,0.916
3059.585,458.0,0.915
3071.513,459.0,0.915
3083.372,460.0,0.915
3095.281,461.0,0.915
3107.108,462.0,0.915
3118.989,463.0,0.915
3130.949,464.0,0.915
3142.729,465.0,0.914
3154.634,466.0,0.914
3166.5,467.0,0.914
3178.515,468.0,0.914
3190.2,469.0,0.913
3202.196,470.0,0.913
3214.038,471.0,0.913
3225.974,472.0,0.913
3237.877,473.0,0.912
3249.732,474.0,0.912
3261.535,475.0,0.912
3273.467,476.0,0.912
3285.342,477.0,0.911
3297.231,478.0,0.911
3309.221,479.0,0.911
3321.013,480.0,0.91
3332.953,481.0,0.91
3344.822,482.0,0.91
3356.764,483.0,0.909
3368.671,484.0,0.909
3380.506,485.0,0.909
3392.316,486.0,0.908
3404.29,487.0,0.908
3416.193,488.0,0.907
3427.988,489.0,0.907
3439.966,490.0,0.906
3451.854,491.0,0.906
3463.727,492.0,0.905
3475.639,493.0,0.905
3487.579,494.0,0.904
3499.417,495.0,0.904
3511.284,496.0,0.903
3523.278,497.0,0.903
3535.245,498.0,0.902
3547.111,499.0,0.902
3559.057,500.0,0.901
3570.888,501.0,0.9
3582.702,502.0,0.9
3594.656,503.0,0.899
3606.635,504.0,0.898
3618.495,505.0,0.897
3630.448,506.0,0.897
3642.355,507.0,0.896
3654.055,508.0,0.895
3666.146,509.0,0.894
3677.874,510.0,0.893
3689.89,511.0,0.892
3701.882,512.0,0.891
3713.724,513.0,0.89
3725.629,514.0,0.89
3737.662,515.0,0.888
3749.487,516.0,0.887
3761.405,517.0,0.886
3773.308,518.0,0.885
3785.213,519.0,0.884
3797.197,520.0,0.883
3808.97,521.0,0.881
3820.854,522.0,0.88
3832.952,523.0,0.879
3844.841,524.0,0.878
3856.821,525.0,0.876
3868.627,526.0,0.875
3880.581,527.0,0.873
3892.646,528.0,0.872
3904.41,529.0,0.871
3916.202,530.0,0.869
3928.162,531.0,0.867
3940.232,532.0,0.866
3952.259,533.0,0.864
3964.022,534.0,0.863
3975.967,535.0,0.861
3988.067,536.0,0.859
3999.783,537.0,0.858
4011.784,538.0,0.856
4023.654,539.0,0.854
4035.542,540.0,0.852
4047.397,541.0,0.85
4059.406,542.0,0.848
4071.357,543.0,0.846
4083.274,544.0,0.844
4095.216,545.0,0.842
4107.198,546.0,0.84
4119.052,547.0,0.838
4131.032,548.0,0.836
4142.97,549.0,0.833
4154.808,550.0,0.831
4166.706,551.0,0.829
4178.593,552.0,0.826
4190.619,553.0,0.824
4202.5,554.0,0.821
4214.481,555.0,0.819
4226.549,556.0,0.816
4238.474,557.0,0.814
4250.389,558.0,0.811
4262.333,559.0,0.808
4274.238,560.0,0.805
4286.159,561.0,0.802
4298.049,562.0,0.799
4310.087,563.0,0.796
4322.114,564.0,0.793
4333.854,565.0,0.789
4345.779,566.0,0.786
4357.84,567.0,0.783
4369.776,568.0,0.78
4381.732,569.0,0.776
4393.663,570.0,0.772
4405.571,571.0,0.769
4417.6,572.0,0.765
4429.566,573.0,0.761
4441.506,574.0,0.757
4453.506,575.0,0.753
4465.333,576.0,0.749
4477.345,577.0,0.745
4489.33,578.0,0.741
4501.244,579.0,0.737
4513.12,580.0,0.732
4525.225,581.0,0.728
4537.045,582.0,0.723
4549.075,583.0,0.718
4561.095,584.0,0.714
4572.986,585.0,0.709
4584.929,586.0,0.704
4596.859,587.0,0.699
4608.807,588.0,0.694
4620.741,589.0,0.689
4632.658,590.0,0.684
4644.714,591.0,0.678
4656.56,592.0,0.673
4668.693,593.0,0.668
4680.688,594.0,0.662
4692.542,595.0,0.657
4704.595,596.0,0.651
4716.375,597.0,0.646
4728.407,598.0,0.64
4740.412,599.0,0.634
4752.429,600.0,0.628
4764.4,601.0,0.623
4776.326,602.0,0.617
4788.195,603.0,0.61
4800.16,604.0,0.604
4812.169,605.0,0.598
4824.151,606.0,0.592
4836.098,607.0,0.586
4848.051,608.0,0.579
4860.023,609.0,0.573
4871.966,610.0,0.566
4884.048,611.0,0.56
4895.987,612.0,0.553
4908.0,613.0,0.546
4919.905,614.0,0.539
4931.869,615.0,0.532
4943.92,616.0,0.525
4956.011,617.0,0.518
4967.884,618.0,0.511
4979.906,619.0,0.503
4991.904,620.0,0.495
5003.9,621.0,0.488
5015.936,622.0,0.48
5027.839,623.0,0.472
5039.726,624.0,0.464
5051.734,625.0,0.455
5063.804,626.0,0.447
5075.677,627.0,0.438
5087.582,628.0,0.43
5099.609,629.0,0.421
5111.706,630.0,0.412
5123.64,631.0,0.403
5135.688,632.0,0.394
5147.67,633.0,0.385
5159.718,634.0,0.376
5171.65,635.0,0.367
5183.559,636.0,0.358
5195.519,637.0,0.349
5207.561,638.0,0.34
5219.544,639.0,0.332
5231.527,640.0,0.324
5243.5,641.0,0.316
5255.654,642.0,0.309
5267.506,643.0,0.302
5279.514,644.0,0.295
5291.473,645.0,0.29
5303.5,646.0,0.284
5315.53,647.0,0.279
5327.364,648.0,0.276
5339.373,649.0,0.272
5351.329,650.0,0.269
5363.422,651.0,0.266
5375.438,652.0,0.264
5387.368,653.0,0.263
5399.385,654.0,0.261
5411.24,655.0,0.26
5423.353,656.0,0.259
5435.376,657.0,0.258
5447.422,658.0,0.258
5459.369,659.0,0.257
5471.529,660.0,0.256
5483.442,661.0,0.255
5495.469,662.0,0.254
5507.474,663.0,0.254
5519.478,664.0,0.253
5531.549,665.0,0.252
5543.5,666.0,0.252
5555.617,667.0,0.251
5567.633,668.0,0.25
5579.617,669.0,0.25
5591.679,670.0,0.249
5603.747,671.0,0.249
5615.683,672.0,0.248
5627.778,673.0,0.247
5639.753,674.0,0.247
5651.773,675.0,0.246
5663.857,676.0,0.245
5675.932,677.0,0.245
5687.977,678.0,0.244
5700.012,679.0,0.244
5712.05,680.0,0.243
5724.103,681.0,0.243
5736.078,682.0,0.242
5748.068,683.0,0.241
5760.222,684.0,0.241
5772.179,685.0,0.24
5784.276,686.0,0.239
5796.31,687.0,0.239
5808.383,688.0,0.238
5820.398,689.0,0.238
5832.418,690.0,0.237
5844.37,691.0,0.236
5856.448,692.0,0.236
5868.5,693.0,0.235
5880.588,694.0,0.235
5892.697,695.0,0.234
5904.724,696.0,0.233
5916.685,697.0,0.233
5928.711,698.0,0.232
5940.732,699.0,0.232
5952.903,700.0,0.231
5964.825,701.0,0.231
5976.862,702.0,0.23
5988.889,703.0,0.23
6000.952,704.0,0.229
6013.111,705.0,0.229
6025.15,706.0,0.228
6037.262,707.0,0.228
6049.345,708.0,0.227
6061.467,709.0,0.227
6073.519,710.0,0.226
6085.56,711.0,0.226
6097.57,712.0,0.225
6109.682,713.0,0.225
6121.663,714.0,0.224
6133.683,715.0,0.224
6145.77,716.0,0.223
6157.878,717.0,0.223
6169.932,718.0,0.222
6181.877,719.0,0.222
6193.964,720.0,0.222
6206.073,721.0,0.221
6218.136,722.0,0.221
6230.211,723.0,0.22
6242.319,724.0,0.22
6254.286,725.0,0.22
6266.374,726.0,0.219
6278.57,727.0,0.219
6290.638,728.0,0.219
6302.712,729.0,0.218
6314.75,730.0,0.218
6326.753,731.0,0.218
6338.912,732.0,0.217
6350.915,733.0,0.217
6363.012,734.0,0.217
6375.112,735.0,0.217
6387.207,736.0,0.216
6399.178,737.0,0.216
6411.282,738.0,0.215
6423.397,739.0,0.215
6435.421,740.0,0.215
6447.553,741.0,0.215
6459.687,742.0,0.214
6471.719,743.0,0.214
6483.697,744.0,0.214
6495.872,745.0,0.213
6507.92,746.0,0.213
6520.023,747.0,0.213
6531.909,748.0,0.213
6544.187,749.0,0.212
6556.146,750.0,0.212
6568.154,751.0,0.212
6580.216,752.0,0.212
6592.301,753.0,0.212
6604.434,754.0,0.211
6616.494,755.0,0.211
6628.609,756.0,0.211
6640.722,757.0,0.21
6652.705,758.0,0.21
6664.837,759.0,0.21
6676.899,760.0,0.21
6688.862,761.0,0.21
6700.948,762.0,0.209
6712.953,763.0,0.209
6725.107,764.0,0.209
6737.143,765.0,0.209
6749.123,766.0,0.209
6761.229,767.0,0.208
6773.244,768.0,0.208
6785.312,769.0,0.208
6797.313,770.0,0.208
6809.454,771.0,0.208
6821.579,772.0,0.207
6833.61,773.0,0.207
6845.74,774.0,0.207
6857.734,775.0,0.206
6869.826,776.0,0.206
6881.953,777.0,0.206
6893.867,778.0,0.206
6905.814,779.0,0.206
6917.89,780.0,0.206
6930.0,781.0,0.205
6942.109,782.0,0.205
6954.06,783.0,0.205
6966.131,784.0,0.205
6978.191,785.0,0.204
6990.225,786.0,0.205
7002.233,787.0,0.204
7014.313,788.0,0.204
7026.429,789.0,0.204
7038.338,790.0,0.204
7050.471,791.0,0.204
7062.565,792.0,0.203
7074.435,793.0,0.203
7086.544,794.0,0.203
7098.533,795.0,0.203
7110.588,796.0,0.203
7122.643,797.0,0.203
7134.639,798.0,0.202
7146.646,799.0,0.202
7158.75,800.0,0.202
7170.756,801.0,0.202
7182.904,802.0,0.202
7194.861,803.0,0.201
7207.089,804.0,0.201
7219.022,805.0,0.201
7231.132,806.0,0.201
7243.215,807.0,0.201
7255.276,808.0,0.201
7267.3,809.0,0.201
7279.333,810.0,0.2
7291.412,811.0,0.2
7303.44,812.0,0.2
7315.444,813.0,0.2
7327.519,814.0,0.2
7339.505,815.0,0.199
7351.581,816.0,0.199
7363.566,817.0,0.199
7375.653,818.0,0.199
7387.638,819.0,0.199
7399.741,820.0,0.199
7411.789,821.0,0.199
7423.761,822.0,0.199
7435.862,823.0,0.199
7447.975,824.0,0.198
7460.021,825.0,0.198
7472.024,826.0,0.198
7484.066,827.0,0.198
7496.218,828.0,0.198
7508.128,829.0,0.197
7520.155,830.0,0.197
7532.221,831.0,0.197
7544.267,832.0,0.197
7556.227,833.0,0.197
7568.291,834.0,0.197
7580.333,835.0,0.197
7592.438,836.0,0.196
7604.51,837.0,0.196
7616.565,838.0,0.196
7628.62,839.0,0.196
7640.675,840.0,0.195
7652.806,841.0,0.195
7664.792,842.0,0.195
7676.767,843.0,0.195
7688.87,844.0,0.195
7700.963,845.0,0.195
7712.931,846.0,0.194
7724.951,847.0,0.194
7737.059,848.0,0.194
7748.893,849.0,0.194
7760.841,850.0,0.194
7772.864,851.0,0.194
7784.9,852.0,0.194
7796.92,853.0,0.194
7809.07,854.0,0.193
7821.094,855.0,0.193
7833.053,856.0,0.193
7845.071,857.0,0.193
7857.143,858.0,0.193
7869.209,859.0,0.192
7881.265,860.0,0.192
7893.289,861.0,0.192
7905.407,862.0,0.192
7917.39,863.0,0.192
7929.488,864.0,0.192
7941.438,865.0,0.192
7953.481,866.0,0.192
7965.547,867.0,0.191
7977.622,868.0,0.191
7989.617,869.0,0.191
8001.633,870.0,0.191
8013.624,871.0,0.191
8025.847,872.0,0.191
8037.791,873.0,0.191
8049.857,874.0,0.191
8061.862,875.0,0.19
8073.949,876.0,0.19
8085.92,877.0,0.19
8097.988,878.0,0.19
8110.073,879.0,0.19
8122.023,880.0,0.189
8134.146,881.0,0.189
8146.13,882.0,0.189
8158.228,883.0,0.189
8170.321,884.0,0.189
8182.309,885.0,0.189
8194.426,886.0,0.189
8206.464,887.0,0.189
8218.522,888.0,0.189
8230.632,889.0,0.188
8242.654,890.0,0.188
8254.744,891.0,0.188
8266.838,892.0,0.188
8278.922,893.0,0.188
8291.068,894.0,0.188
8303.107,895.0,0.188
8315.18,896.0,0.188
8327.085,897.0,0.188
8339.209,898.0,0.187
8351.362,899.0,0.187
8363.333,900.0,0.187
8375.441,901.0,0.187
8387.494,902.0,0.187
8399.569,903.0,0.187
8411.633,904.0,0.187
8423.663,905.0,0.187
8435.734,906.0,0.187
8447.811,907.0,0.186
8459.864,908.0,0.186
8471.898,909.0,0.186
8484.095,910.0,0.186
8496.062,911.0,0.186
8508.128,912.0,0.186
8520.2,913.0,0.186
8532.299,914.0,0.186
8544.301,915.0,0.185
8556.358,916.0,0.186
8568.412,917.0,0.185
8580.466,918.0,0.185
8592.447,919.0,0.185
8604.416,920.0,0.185
8616.632,921.0,0.185
8628.632,922.0,0.185
8640.699,923.0,0.185
8652.729,924.0,0.185
8664.918,925.0,0.185
8676.944,926.0,0.184
8688.911,927.0,0.184
8701.072,928.0,0.184
8713.011,929.0,0.184
8725.0,930.0,0.184
8737.169,931.0,0.184
8749.27,932.0,0.184
8761.261,933.0,0.184
8773.262,934.0,0.184
8785.349,935.0,0.184
8797.307,936.0,0.184
8809.407,937.0,0.184
8821.446,938.0,0.183
8833.653,939.0,0.183
8845.674,940.0,0.183
8857.663,941.0,0.183
8869.711,942.0,0.183
8881.829,943.0,0.183
8893.962,944.0,0.183
8905.89,945.0,0.183
8917.988,946.0,0.183
8930.149,947.0,0.183
8942.167,948.0,0.183
8954.2,949.0,0.183
8966.278,950.0,0.183
8978.41,951.0,0.183
8990.393,952.0,0.182
9002.41,953.0,0.182
9014.383,954.0,0.182
9026.325,955.0,0.182
9038.481,956.0,0.182
9050.542,957.0,0.182
9062.639,958.0,0.182
9074.705,959.0,0.182
9086.729,960.0,0.182
9098.833,961.0,0.182
9110.798,962.0,0.182
9122.859,963.0,0.182
9134.969,964.0,0.182
9147.032,965.0,0.182
9159.103,966.0,0.181
9171.167,967.0,0.181
9183.198,968.0,0.181
9195.293,969.0,0.181
9207.291,970.0,0.181
9219.325,971.0,0.181
9231.411,972.0,0.181
9243.391,973.0,0.181
9255.425,974.0,0.181
9267.405,975.0,0.181
9279.458,976.0,0.181
9291.64,977.0,0.181
9303.689,978.0,0.18
9315.837,979.0,0.18
9328.054,980.0,0.18
9340.062,981.0,0.18
9352.096,982.0,0.18
9364.145,983.0,0.18
9376.293,984.0,0.18
9388.337,985.0,0.18
9400.447,986.0,0.18
9412.429,987.0,0.18
9424.427,988.0,0.18
9436.451,989.0,0.18
9448.483,990.0,0.18
9460.56,991.0,0.18
9472.542,992.0,0.18
9484.627,993.0,0.179
9496.636,994.0,0.179
9508.688,995.0,0.179
9520.844,996.0,0.179
9532.869,997.0,0.179
9544.914,998.0,0.179
9556.882,999.0,0.179
9569.0,1000.0,0.179
9580.928,1001.0,0.178
9592.957,1002.0,0.178
9604.956,1003.0,0.178
9617.037,1004.0,0.178
9629.026,1005.0,0.178
9641.198,1006.0,0.178
9653.202,1007.0,0.178
9665.225,1008.0,0.178
9677.311,1009.0,0.178
9689.228,1010.0,0.178
9701.386,1011.0,0.178
9713.355,1012.0,0.178
9725.225,1013.0,0.178
9737.235,1014.0,0.178
9749.421,1015.0,0.178
9761.345,1016.0,0.177
9773.333,1017.0,0.177
9785.369,1018.0,0.177
9797.429,1019.0,0.177
9809.524,1020.0,0.177
9821.511,1021.0,0.177
9833.592,1022.0,0.177
9845.605,1023.0,0.177
9857.605,1024.0,0.177
9869.53,1025.0,0.177
9881.605,1026.0,0.176
9893.671,1027.0,0.176
9905.703,1028.0,0.176
9917.674,1029.0,0.176
9929.741,1030.0,0.177
9941.713,1031.0,0.176
9953.729,1032.0,0.176
9965.698,1033.0,0.176
9977.759,1034.0,0.176
9989.792,1035.0,0.176
10001.782,1036.0,0.176
10013.878,1037.0,0.176
10025.988,1038.0,0.176
10037.988,1039.0,0.176
10049.988,1040.0,0.176
10062.0,1041.0,0.176
10074.012,1042.0,0.175
10086.024,1043.0,0.175
10098.012,1044.0,0.175
10109.9,1045.0,0.175
10122.106,1046.0,0.175
10133.964,1047.0,0.175
10145.926,1048.0,0.175
10158.048,1049.0,0.175
10170.036,1050.0,0.175
10181.86,1051.0,0.175
10193.955,1052.0,0.175
10206.037,1053.0,0.175
10218.105,1054.0,0.174
10230.135,1055.0,0.175
10242.183,1056.0,0.174
10254.13,1057.0,0.174
10266.064,1058.0,0.174
10278.118,1059.0,0.174
10290.075,1060.0,0.174
10302.171,1061.0,0.174
10314.053,1062.0,0.174
10326.107,1063.0,0.174
10338.136,1064.0,0.174
10350.023,1065.0,0.174
10362.088,1066.0,0.174
10374.096,1067.0,0.173
10386.027,1068.0,0.174
10398.161,1069.0,0.173
10410.174,1070.0,0.173
10423.517,1071.0,0.173
10450.0,1072.052,0.173
10470.0,1072.384,0.173
10490.0,1072.543,0.173
10510.0,1072.628,0.173
10530.0,1072.679,0.173
10550.0,1072.706,0.172
10570.0,1072.728,0.172
10590.0,1072.742,0.172
10610.0,1072.763,0.172
10630.0,1072.774,0.172
10650.0,1072.774,0.172
10670.0,1072.784,0.172
10690.0,1072.786,0.172
10710.0,1072.788,0.172
10730.0,1072.797,0.172
10740.0,1072.794,0.172