File: Wood/Calibration_Data/TUBS/TUBS_TGA_N2_40K_R1.csv
Time (s),Temperature (K),Mass (mg)
0.0,305.095,0.92
2.0,305.072,0.92
4.0,305.076,0.92
6.0,305.074,0.919
8.0,305.059,0.919
10.0,305.034,0.919
12.0,305.022,0.919
14.0,305.03,0.918
16.0,305.023,0.918
18.0,305.001,0.918
20.0,304.988,0.918
22.0,304.976,0.918
24.0,304.979,0.918
26.0,304.962,0.917
28.0,304.956,0.917
30.0,304.95,0.917
32.0,304.948,0.917
34.0,304.949,0.917
36.0,304.934,0.916
38.0,304.93,0.916
40.0,304.909,0.916
42.0,304.898,0.916
44.0,304.897,0.916
46.0,304.878,0.916
48.0,304.887,0.915
50.0,304.882,0.915
52.0,304.872,0.915
54.0,304.865,0.915
56.0,304.853,0.915
58.0,304.854,0.915
60.0,304.849,0.915
62.0,304.825,0.915
64.0,304.843,0.914
66.0,304.821,0.914
68.0,304.838,0.914
70.0,304.816,0.914
72.0,304.827,0.914
74.0,304.808,0.914
76.0,304.816,0.914
78.0,304.802,0.914
80.0,304.783,0.914
82.0,304.798,0.913
84.0,304.796,0.913
86.0,304.795,0.913
88.0,304.781,0.913
90.0,304.779,0.913
92.0,304.769,0.913
94.0,304.767,0.913
96.0,304.765,0.913
98.0,304.757,0.913
100.0,304.748,0.913
102.0,304.737,0.913
104.0,304.747,0.913
106.0,304.741,0.912
108.0,304.737,0.912
110.0,304.722,0.912
112.0,304.713,0.912
114.0,304.714,0.912
116.0,304.727,0.912
118.0,304.723,0.912
120.0,304.71,0.912
122.0,304.705,0.912
124.0,304.692,0.912
126.0,304.691,0.912
128.0,304.686,0.911
130.0,304.686,0.911
132.0,304.681,0.911
134.0,304.692,0.911
136.0,304.671,0.911
138.0,304.687,0.911
140.0,304.673,0.911
142.0,304.662,0.911
144.0,304.675,0.911
146.0,304.655,0.911
148.0,304.656,0.911
150.0,304.643,0.911
152.0,304.64,0.911
154.0,304.621,0.911
156.0,304.635,0.911
158.0,304.643,0.911
160.0,304.634,0.911
162.0,304.645,0.911
164.0,304.642,0.911
166.0,304.615,0.91
168.0,304.624,0.91
170.0,304.62,0.91
172.0,304.626,0.91
174.0,304.62,0.91
176.0,304.619,0.91
178.0,304.613,0.91
180.0,304.616,0.91
182.0,304.615,0.91
184.0,304.619,0.91
186.0,304.621,0.91
188.0,304.608,0.91
190.0,304.624,0.91
192.0,304.589,0.91
194.0,304.601,0.91
196.0,304.6,0.91
198.0,304.595,0.91
200.0,304.595,0.91
202.0,304.599,0.91
204.0,304.579,0.91
206.0,304.593,0.91
208.0,304.574,0.909
210.0,304.583,0.909
212.0,304.579,0.909
214.0,304.571,0.909
216.0,304.571,0.909
218.0,304.562,0.909
220.0,304.534,0.909
222.0,304.568,0.909
224.0,304.557,0.909
226.0,304.572,0.909
228.0,304.555,0.909
230.0,304.551,0.909
232.0,304.537,0.909
234.0,304.553,0.909
236.0,304.549,0.909
238.0,304.544,0.909
240.0,304.538,0.909
242.0,304.552,0.909
244.0,304.546,0.909
246.0,304.54,0.909
248.0,304.554,0.909
250.0,304.535,0.909
252.0,304.53,0.909
254.0,304.544,0.909
256.0,304.536,0.909
258.0,304.532,0.909
260.0,304.542,0.909
262.0,304.53,0.909
264.0,304.535,0.909
266.0,304.528,0.909
268.0,304.528,0.909
270.0,304.535,0.909
272.0,304.515,0.909
274.0,304.527,0.909
276.0,304.52,0.908
278.0,304.517,0.908
280.0,304.524,0.908
282.0,304.512,0.908
284.0,304.523,0.908
286.0,304.52,0.908
288.0,304.527,0.908
290.0,304.531,0.908
292.0,304.519,0.908
294.0,304.511,0.908
296.0,304.499,0.908
298.0,304.502,0.908
300.0,304.513,0.908
302.0,304.512,0.908
304.0,304.526,0.908
306.0,304.521,0.908
308.0,304.514,0.908
310.0,304.509,0.908
312.0,304.511,0.908
314.0,304.512,0.908
316.0,304.516,0.908
318.0,304.507,0.908
320.0,304.497,0.908
322.0,304.505,0.908
324.0,304.499,0.908
326.0,304.488,0.908
328.0,304.503,0.908
330.0,304.492,0.908
332.0,304.487,0.908
334.0,304.492,0.908
336.0,304.495,0.908
338.0,304.506,0.908
340.0,304.492,0.908
342.0,304.489,0.908
344.0,304.487,0.908
346.0,304.486,0.908
348.0,304.5,0.908
350.0,304.493,0.908
352.0,304.474,0.908
354.0,304.49,0.907
356.0,304.482,0.907
358.0,304.491,0.907
360.0,304.48,0.907
362.0,304.492,0.907
364.0,304.483,0.907
366.0,304.492,0.907
368.0,304.503,0.907
370.0,304.484,0.907
372.0,304.486,0.907
374.0,304.485,0.907
376.0,304.49,0.907
378.0,304.49,0.907
380.0,304.479,0.907
382.0,304.485,0.907
384.0,304.486,0.907
386.0,304.474,0.907
388.0,304.476,0.907
390.0,304.491,0.907
392.0,304.467,0.907
394.0,304.493,0.907
396.0,304.474,0.907
398.0,304.475,0.907
400.0,304.473,0.907
402.0,304.48,0.907
404.0,304.475,0.907
406.0,304.471,0.907
408.0,304.476,0.907
410.0,304.477,0.907
412.0,304.471,0.907
414.0,304.465,0.907
416.0,304.48,0.907
418.0,304.478,0.907
420.0,304.482,0.907
422.0,304.48,0.907
424.0,304.476,0.907
426.0,304.462,0.907
428.0,304.47,0.907
430.0,304.472,0.907
432.0,304.472,0.907
434.0,304.468,0.907
436.0,304.468,0.907
438.0,304.466,0.907
440.0,304.476,0.907
442.0,304.477,0.907
444.0,304.467,0.907
446.0,304.483,0.907
448.0,304.465,0.907
450.0,304.464,0.907
452.0,304.447,0.907
454.0,304.472,0.907
456.0,304.46,0.907
458.0,304.453,0.907
460.0,304.472,0.907
462.0,304.472,0.907
464.0,304.459,0.907
466.0,304.463,0.907
468.0,304.467,0.907
470.0,304.465,0.907
472.0,304.462,0.907
474.0,304.464,0.907
476.0,304.446,0.907
478.0,304.459,0.907
480.0,304.461,0.907
482.0,304.44,0.907
484.0,304.473,0.907
486.0,304.46,0.907
488.0,304.468,0.907
490.0,304.465,0.907
492.0,304.454,0.907
494.0,304.449,0.907
496.0,304.446,0.907
498.0,304.463,0.907
500.0,304.463,0.907
502.0,304.472,0.907
504.0,304.468,0.907
506.0,304.48,0.907
508.0,304.462,0.907
510.0,304.456,0.907
512.0,304.454,0.907
514.0,304.449,0.907
516.0,304.463,0.907
518.0,304.478,0.907
520.0,304.464,0.907
522.0,304.462,0.907
524.0,304.452,0.907
526.0,304.442,0.907
528.0,304.451,0.907
530.0,304.448,0.907
532.0,304.444,0.907
534.0,304.446,0.907
536.0,304.428,0.906
538.0,304.45,0.906
540.0,304.458,0.906
542.0,304.45,0.906
544.0,304.455,0.906
546.0,304.447,0.906
548.0,304.446,0.906
550.0,304.451,0.906
552.0,304.45,0.906
554.0,304.455,0.906
556.0,304.451,0.906
558.0,304.447,0.906
560.0,304.451,0.906
562.0,304.46,0.906
564.0,304.451,0.906
566.0,304.452,0.906
568.0,304.458,0.906
570.0,304.469,0.906
572.0,304.457,0.906
574.0,304.457,0.906
576.0,304.441,0.906
578.0,304.451,0.906
580.0,304.46,0.906
582.0,304.454,0.906
584.0,304.444,0.906
586.0,304.451,0.906
588.0,304.454,0.906
590.0,304.457,0.906
592.0,304.444,0.906
594.0,304.452,0.906
596.0,304.449,0.906
598.0,304.46,0.906
600.0,304.464,0.906
602.0,304.46,0.906
604.0,304.434,0.906
606.0,304.438,0.906
608.0,304.452,0.906
610.0,304.445,0.906
612.0,304.455,0.906
614.0,304.44,0.906
616.0,304.455,0.906
618.0,304.452,0.906
620.0,304.433,0.906
622.0,304.43,0.906
624.0,304.446,0.906
626.0,304.421,0.906
628.0,304.448,0.906
630.0,304.421,0.906
632.0,304.436,0.906
634.0,304.45,0.906
636.0,304.434,0.906
638.0,304.446,0.906
640.0,304.454,0.906
642.0,304.433,0.906
644.0,304.445,0.906
646.0,304.434,0.906
648.0,304.433,0.906
650.0,304.438,0.906
652.0,304.436,0.906
654.0,304.451,0.906
656.0,304.45,0.906
658.0,304.457,0.906
660.0,304.444,0.906
662.0,304.451,0.906
664.0,304.448,0.906
666.0,304.453,0.906
668.0,304.438,0.906
670.0,304.448,0.906
672.0,304.438,0.906
674.0,304.44,0.906
676.0,304.45,0.906
678.0,304.441,0.906
680.0,304.451,0.906
682.0,304.442,0.906
684.0,304.428,0.906
686.0,304.436,0.906
688.0,304.441,0.906
690.0,304.436,0.906
692.0,304.448,0.906
694.0,304.444,0.906
696.0,304.446,0.906
698.0,304.452,0.906
700.0,304.437,0.906
702.0,304.432,0.906
704.0,304.452,0.906
706.0,304.451,0.906
708.0,304.435,0.906
710.0,304.452,0.906
712.0,304.439,0.906
714.0,304.442,0.906
716.0,304.428,0.906
718.0,304.443,0.906
720.0,304.431,0.906
722.0,304.443,0.906
724.0,304.444,0.906
726.0,304.447,0.906
728.0,304.441,0.906
730.0,304.422,0.906
732.0,304.435,0.906
734.0,304.439,0.906
736.0,304.434,0.906
738.0,304.434,0.906
740.0,304.438,0.906
742.0,304.445,0.906
744.0,304.446,0.906
746.0,304.444,0.906
748.0,304.433,0.906
750.0,304.431,0.906
752.0,304.451,0.906
754.0,304.447,0.906
756.0,304.445,0.906
758.0,304.441,0.906
760.0,304.449,0.906
762.0,304.444,0.906
764.0,304.441,0.906
766.0,304.45,0.906
768.0,304.441,0.906
770.0,304.429,0.906
772.0,304.442,0.906
774.0,304.443,0.906
776.0,304.439,0.906
778.0,304.438,0.906
780.0,304.442,0.906
782.0,304.455,0.906
784.0,304.422,0.906
786.0,304.45,0.906
788.0,304.436,0.906
790.0,304.449,0.906
792.0,304.441,0.906
794.0,304.456,0.906
796.0,304.448,0.906
798.0,304.45,0.906
800.0,304.442,0.906
802.0,304.478,0.906
804.0,304.447,0.906
806.0,304.441,0.906
808.0,304.435,0.906
810.0,304.443,0.906
812.0,304.442,0.906
814.0,304.451,0.906
816.0,304.446,0.906
818.0,304.449,0.906
820.0,304.415,0.906
822.0,304.437,0.906
824.0,304.445,0.906
826.0,304.436,0.906
828.0,304.43,0.906
830.0,304.445,0.906
832.0,304.449,0.906
834.0,304.444,0.906
836.0,304.449,0.906
838.0,304.448,0.906
840.0,304.457,0.906
842.0,304.46,0.906
844.0,304.438,0.906
846.0,304.434,0.906
848.0,304.455,0.906
850.0,304.441,0.906
852.0,304.445,0.906
854.0,304.456,0.906
856.0,304.442,0.906
858.0,304.445,0.906
860.0,304.454,0.906
862.0,304.424,0.906
864.0,304.457,0.906
866.0,304.446,0.906
868.0,304.445,0.906
870.0,304.441,0.906
872.0,304.448,0.906
874.0,304.447,0.906
876.0,304.452,0.906
878.0,304.449,0.906
880.0,304.451,0.906
882.0,304.437,0.906
884.0,304.445,0.906
886.0,304.439,0.906
888.0,304.458,0.906
890.0,304.459,0.906
892.0,304.452,0.906
894.0,304.45,0.906
896.0,304.452,0.906
898.0,304.454,0.906
900.0,304.431,0.906
902.0,304.449,0.906
904.0,304.454,0.906
906.0,304.454,0.906
908.0,304.457,0.906
910.0,304.452,0.906
912.0,304.45,0.906
914.0,304.463,0.906
916.0,304.448,0.905
918.0,304.454,0.905
920.0,304.452,0.905
922.0,304.459,0.905
924.0,304.459,0.905
926.0,304.441,0.905
928.0,304.458,0.905
930.0,304.444,0.905
932.0,304.447,0.905
934.0,304.443,0.905
936.0,304.451,0.905
938.0,304.446,0.905
940.0,304.436,0.905
942.0,304.462,0.905
944.0,304.45,0.905
946.0,304.451,0.905
948.0,304.447,0.905
950.0,304.447,0.905
952.0,304.439,0.905
954.0,304.436,0.905
956.0,304.431,0.905
958.0,304.452,0.905
960.0,304.434,0.905
962.0,304.455,0.905
964.0,304.458,0.905
966.0,304.467,0.905
968.0,304.456,0.905
970.0,304.453,0.905
972.0,304.458,0.905
974.0,304.47,0.905
976.0,304.448,0.905
978.0,304.449,0.905
980.0,304.438,0.905
982.0,304.45,0.905
984.0,304.461,0.905
986.0,304.451,0.905
988.0,304.449,0.905
990.0,304.456,0.905
992.0,304.459,0.905
994.0,304.461,0.905
996.0,304.465,0.905
998.0,304.462,0.905
1000.0,304.461,0.905
1002.0,304.46,0.905
1004.0,304.447,0.905
1006.0,304.454,0.905
1008.0,304.46,0.905
1010.0,304.446,0.905
1012.0,304.462,0.905
1014.0,304.457,0.905
1016.0,304.455,0.905
1018.0,304.465,0.905
1020.0,304.45,0.905
1022.0,304.45,0.905
1024.0,304.454,0.905
1026.0,304.44,0.905
1028.0,304.433,0.905
1030.0,304.459,0.905
1032.0,304.443,0.905
1034.0,304.449,0.905
1036.0,304.45,0.905
1038.0,304.439,0.905
1040.0,304.452,0.905
1042.0,304.447,0.905
1044.0,304.446,0.905
1046.0,304.451,0.905
1048.0,304.456,0.905
1050.0,304.453,0.905
1052.0,304.474,0.905
1054.0,304.46,0.905
1056.0,304.459,0.905
1058.0,304.451,0.905
1060.0,304.462,0.905
1062.0,304.467,0.905
1064.0,304.451,0.905
1066.0,304.459,0.905
1068.0,304.46,0.905
1070.0,304.452,0.905
1072.0,304.45,0.905
1074.0,304.46,0.905
1076.0,304.458,0.905
1078.0,304.453,0.905
1080.0,304.446,0.905
1082.0,304.458,0.905
1084.0,304.441,0.905
1086.0,304.467,0.905
1088.0,304.455,0.905
1090.0,304.454,0.905
1092.0,304.433,0.905
1094.0,304.443,0.905
1096.0,304.448,0.905
1098.0,304.462,0.905
1100.0,304.443,0.905
1102.0,304.444,0.905
1104.0,304.44,0.905
1106.0,304.438,0.905
1108.0,304.437,0.905
1110.0,304.443,0.905
1112.0,304.461,0.905
1114.0,304.45,0.905
1116.0,304.45,0.905
1118.0,304.444,0.905
1120.0,304.455,0.905
1122.0,304.44,0.905
1124.0,304.454,0.905
1126.0,304.452,0.905
1128.0,304.443,0.905
1130.0,304.438,0.905
1132.0,304.449,0.905
1134.0,304.449,0.905
1136.0,304.449,0.905
1138.0,304.451,0.905
1140.0,304.44,0.905
1142.0,304.442,0.905
1144.0,304.458,0.905
1146.0,304.457,0.905
1148.0,304.453,0.905
1150.0,304.457,0.905
1152.0,304.459,0.905
1154.0,304.456,0.905
1156.0,304.45,0.905
1158.0,304.461,0.905
1160.0,304.45,0.906
1162.0,304.45,0.906
1164.0,304.447,0.906
1166.0,304.446,0.906
1168.0,304.432,0.906
1170.0,304.436,0.906
1172.0,304.45,0.906
1174.0,304.461,0.906
1176.0,304.455,0.906
1178.0,304.448,0.906
1180.0,304.432,0.906
1182.0,304.448,0.906
1184.0,304.445,0.906
1186.0,304.453,0.906
1188.0,304.456,0.906
1190.0,304.436,0.906
1192.0,304.443,0.905
1194.0,304.448,0.905
1196.0,304.45,0.905
1198.0,304.451,0.905
1200.0,304.466,0.905
1202.0,304.535,0.905
1204.0,305.091,0.904
1206.0,305.872,0.903
1208.0,306.553,0.903
1210.0,307.508,0.904
1212.0,308.591,0.905
1214.0,309.773,0.906
1216.0,310.992,0.907
1218.0,312.256,0.908
1220.0,313.536,0.908
1222.0,314.839,0.908
1224.0,316.126,0.908
1226.0,317.43,0.907
1228.0,318.743,0.907
1230.0,320.06,0.906
1232.0,321.364,0.906
1234.0,322.692,0.906
1236.0,324.006,0.905
1238.0,325.311,0.905
1240.0,326.646,0.905
1242.0,327.948,0.905
1244.0,329.272,0.904
1246.0,330.59,0.904
1248.0,331.908,0.904
1250.0,333.23,0.904
1252.0,334.541,0.903
1254.0,335.86,0.903
1256.0,337.187,0.903
1258.0,338.5,0.903
1260.0,339.826,0.902
1262.0,341.123,0.902
1264.0,342.444,0.902
1266.0,343.758,0.901
1268.0,345.079,0.901
1270.0,346.399,0.901
1272.0,347.726,0.9
1274.0,349.032,0.9
1276.0,350.359,0.9
1278.0,351.678,0.899
1280.0,352.997,0.899
1282.0,354.325,0.899
1284.0,355.633,0.899
1286.0,356.954,0.898
1288.0,358.293,0.898
1290.0,359.601,0.898
1292.0,360.908,0.897
1294.0,362.234,0.897
1296.0,363.557,0.897
1298.0,364.885,0.897
1300.0,366.209,0.897
1302.0,367.529,0.896
1304.0,368.85,0.896
1306.0,370.171,0.896
1308.0,371.487,0.896
1310.0,372.815,0.896
1312.0,374.147,0.896
1314.0,375.478,0.896
1316.0,376.793,0.896
1318.0,378.137,0.896
1320.0,379.465,0.895
1322.0,380.798,0.895
1324.0,382.122,0.895
1326.0,383.446,0.895
1328.0,384.783,0.895
1330.0,386.102,0.895
1332.0,387.431,0.895
1334.0,388.771,0.895
1336.0,390.107,0.895
1338.0,391.442,0.895
1340.0,392.768,0.895
1342.0,394.108,0.895
1344.0,395.451,0.895
1346.0,396.778,0.895
1348.0,398.124,0.895
1350.0,399.456,0.895
1352.0,400.799,0.895
1354.0,402.14,0.895
1356.0,403.472,0.895
1358.0,404.825,0.895
1360.0,406.165,0.895
1362.0,407.505,0.895
1364.0,408.843,0.895
1366.0,410.179,0.895
1368.0,411.542,0.895
1370.0,412.88,0.895
1372.0,414.226,0.895
1374.0,415.56,0.895
1376.0,416.915,0.895
1378.0,418.268,0.895
1380.0,419.616,0.895
1382.0,420.967,0.895
1384.0,422.313,0.894
1386.0,423.662,0.894
1388.0,425.013,0.894
1390.0,426.367,0.894
1392.0,427.711,0.894
1394.0,429.066,0.894
1396.0,430.415,0.894
1398.0,431.764,0.894
1400.0,433.124,0.894
1402.0,434.484,0.894
1404.0,435.843,0.894
1406.0,437.198,0.894
1408.0,438.546,0.894
1410.0,439.902,0.894
1412.0,441.264,0.894
1414.0,442.621,0.893
1416.0,443.969,0.893
1418.0,445.33,0.893
1420.0,446.696,0.893
1422.0,448.061,0.893
1424.0,449.412,0.893
1426.0,450.787,0.893
1428.0,452.145,0.892
1430.0,453.509,0.892
1432.0,454.879,0.892
1434.0,456.226,0.892
1436.0,457.612,0.892
1438.0,458.961,0.891
1440.0,460.326,0.891
1442.0,461.695,0.891
1444.0,463.061,0.891
1446.0,464.433,0.89
1448.0,465.801,0.89
1450.0,467.169,0.89
1452.0,468.526,0.889
1454.0,469.898,0.889
1456.0,471.27,0.888
1458.0,472.638,0.888
1460.0,474.01,0.888
1462.0,475.369,0.887
1464.0,476.741,0.887
1466.0,478.108,0.886
1468.0,479.477,0.886
1470.0,480.847,0.885
1472.0,482.215,0.885
1474.0,483.571,0.884
1476.0,484.948,0.884
1478.0,486.33,0.883
1480.0,487.703,0.883
1482.0,489.076,0.882
1484.0,490.442,0.882
1486.0,491.813,0.881
1488.0,493.185,0.881
1490.0,494.551,0.88
1492.0,495.914,0.879
1494.0,497.3,0.879
1496.0,498.673,0.878
1498.0,500.034,0.878
1500.0,501.415,0.877
1502.0,502.783,0.876
1504.0,504.145,0.876
1506.0,505.524,0.875
1508.0,506.891,0.874
1510.0,508.261,0.873
1512.0,509.63,0.873
1514.0,510.994,0.872
1516.0,512.378,0.871
1518.0,513.74,0.87
1520.0,515.111,0.869
1522.0,516.483,0.868
1524.0,517.846,0.868
1526.0,519.215,0.867
1528.0,520.588,0.866
1530.0,521.954,0.865
1532.0,523.322,0.863
1534.0,524.69,0.862
1536.0,526.064,0.861
1538.0,527.434,0.86
1540.0,528.787,0.859
1542.0,530.163,0.857
1544.0,531.529,0.856
1546.0,532.892,0.855
1548.0,534.257,0.853
1550.0,535.632,0.852
1552.0,537.002,0.85
1554.0,538.366,0.849
1556.0,539.736,0.847
1558.0,541.102,0.845
1560.0,542.461,0.844
1562.0,543.825,0.842
1564.0,545.196,0.84
1566.0,546.558,0.838
1568.0,547.91,0.836
1570.0,549.284,0.834
1572.0,550.651,0.832
1574.0,552.016,0.83
1576.0,553.371,0.828
1578.0,554.751,0.826
1580.0,556.112,0.824
1582.0,557.46,0.822
1584.0,558.834,0.819
1586.0,560.183,0.817
1588.0,561.535,0.815
1590.0,562.897,0.813
1592.0,564.26,0.81
1594.0,565.615,0.808
1596.0,566.98,0.806
1598.0,568.334,0.803
1600.0,569.7,0.801
1602.0,571.044,0.798
1604.0,572.415,0.796
1606.0,573.77,0.793
1608.0,575.127,0.79
1610.0,576.49,0.788
1612.0,577.842,0.785
1614.0,579.205,0.782
1616.0,580.543,0.779
1618.0,581.908,0.777
1620.0,583.261,0.774
1622.0,584.607,0.771
1624.0,585.97,0.767
1626.0,587.318,0.764
1628.0,588.675,0.761
1630.0,590.026,0.758
1632.0,591.371,0.754
1634.0,592.726,0.751
1636.0,594.082,0.747
1638.0,595.427,0.743
1640.0,596.782,0.74
1642.0,598.127,0.736
1644.0,599.477,0.732
1646.0,600.818,0.728
1648.0,602.178,0.723
1650.0,603.522,0.719
1652.0,604.869,0.715
1654.0,606.208,0.71
1656.0,607.565,0.706
1658.0,608.907,0.701
1660.0,610.249,0.696
1662.0,611.602,0.691
1664.0,612.944,0.686
1666.0,614.289,0.68
1668.0,615.633,0.675
1670.0,616.977,0.669
1672.0,618.314,0.664
1674.0,619.665,0.658
1676.0,621.003,0.652
1678.0,622.337,0.646
1680.0,623.678,0.64
1682.0,625.02,0.634
1684.0,626.371,0.628
1686.0,627.711,0.621
1688.0,629.046,0.615
1690.0,630.377,0.608
1692.0,631.727,0.601
1694.0,633.056,0.594
1696.0,634.398,0.587
1698.0,635.736,0.58
1700.0,637.074,0.573
1702.0,638.404,0.566
1704.0,639.74,0.559
1706.0,641.068,0.551
1708.0,642.401,0.544
1710.0,643.727,0.536
1712.0,645.063,0.529
1714.0,646.401,0.521
1716.0,647.73,0.513
1718.0,649.06,0.505
1720.0,650.39,0.497
1722.0,651.727,0.489
1724.0,653.055,0.48
1726.0,654.395,0.472
1728.0,655.719,0.463
1730.0,657.041,0.454
1732.0,658.368,0.445
1734.0,659.689,0.436
1736.0,661.023,0.426
1738.0,662.335,0.417
1740.0,663.663,0.407
1742.0,664.989,0.397
1744.0,666.306,0.387
1746.0,667.638,0.376
1748.0,668.959,0.366
1750.0,670.277,0.355
1752.0,671.598,0.344
1754.0,672.912,0.333
1756.0,674.237,0.322
1758.0,675.573,0.311
1760.0,676.887,0.3
1762.0,678.202,0.289
1764.0,679.529,0.278
1766.0,680.853,0.268
1768.0,682.174,0.258
1770.0,683.491,0.248
1772.0,684.833,0.239
1774.0,686.132,0.231
1776.0,687.477,0.223
1778.0,688.797,0.216
1780.0,690.128,0.21
1782.0,691.437,0.204
1784.0,692.774,0.2
1786.0,694.089,0.196
1788.0,695.418,0.193
1790.0,696.739,0.19
1792.0,698.065,0.188
1794.0,699.379,0.186
1796.0,700.705,0.184
1798.0,702.027,0.183
1800.0,703.353,0.182
1802.0,704.669,0.181
1804.0,705.995,0.18
1806.0,707.305,0.179
1808.0,708.629,0.178
1810.0,709.946,0.177
1812.0,711.266,0.176
1814.0,712.592,0.176
1816.0,713.899,0.175
1818.0,715.23,0.174
1820.0,716.545,0.173
1822.0,717.874,0.173
1824.0,719.198,0.172
1826.0,720.507,0.171
1828.0,721.824,0.17
1830.0,723.14,0.17
1832.0,724.461,0.169
1834.0,725.776,0.168
1836.0,727.091,0.167
1838.0,728.414,0.167
1840.0,729.726,0.166
1842.0,731.039,0.165
1844.0,732.353,0.165
1846.0,733.679,0.164
1848.0,734.998,0.163
1850.0,736.305,0.163
1852.0,737.631,0.162
1854.0,738.941,0.161
1856.0,740.267,0.161
1858.0,741.582,0.16
1860.0,742.905,0.159
1862.0,744.218,0.159
1864.0,745.529,0.158
1866.0,746.854,0.158
1868.0,748.171,0.157
1870.0,749.488,0.156
1872.0,750.8,0.156
1874.0,752.116,0.155
1876.0,753.435,0.155
1878.0,754.753,0.154
1880.0,756.068,0.154
1882.0,757.381,0.153
1884.0,758.693,0.153
1886.0,760.011,0.152
1888.0,761.325,0.152
1890.0,762.654,0.151
1892.0,763.957,0.151
1894.0,765.281,0.15
1896.0,766.596,0.15
1898.0,767.915,0.149
1900.0,769.227,0.149
1902.0,770.542,0.148
1904.0,771.857,0.148
1906.0,773.176,0.148
1908.0,774.501,0.147
1910.0,775.805,0.147
1912.0,777.127,0.147
1914.0,778.443,0.146
1916.0,779.761,0.146
1918.0,781.074,0.146
1920.0,782.402,0.145
1922.0,783.718,0.145
1924.0,785.047,0.145
1926.0,786.354,0.144
1928.0,787.672,0.144
1930.0,788.983,0.143
1932.0,790.305,0.143
1934.0,791.622,0.143
1936.0,792.941,0.142
1938.0,794.259,0.142
1940.0,795.579,0.142
1942.0,796.896,0.141
1944.0,798.212,0.141
1946.0,799.531,0.141
1948.0,800.851,0.141
1950.0,802.172,0.14
1952.0,803.479,0.14
1954.0,804.801,0.14
1956.0,806.123,0.139
1958.0,807.439,0.139
1960.0,808.75,0.139
1962.0,810.067,0.139
1964.0,811.39,0.138
1966.0,812.702,0.138
1968.0,814.027,0.138
1970.0,815.346,0.137
1972.0,816.662,0.137
1974.0,817.988,0.137
1976.0,819.3,0.137
1978.0,820.625,0.136
1980.0,821.93,0.136
1982.0,823.256,0.136
1984.0,824.579,0.136
1986.0,825.895,0.136
1988.0,827.214,0.135
1990.0,828.54,0.135
1992.0,829.842,0.135
1994.0,831.166,0.135
1996.0,832.492,0.134
1998.0,833.801,0.134
2000.0,835.126,0.134
2002.0,836.445,0.134
2004.0,837.765,0.134
2006.0,839.087,0.133
2008.0,840.411,0.133
2010.0,841.717,0.133
2012.0,843.035,0.133
2014.0,844.358,0.132
2016.0,845.687,0.132
2018.0,847.001,0.132
2020.0,848.327,0.132
2022.0,849.628,0.131
2024.0,850.942,0.131
2026.0,852.261,0.131
2028.0,853.569,0.131
2030.0,854.901,0.131
2032.0,856.221,0.13
2034.0,857.547,0.13
2036.0,858.862,0.13
2038.0,860.183,0.13
2040.0,861.504,0.13
2042.0,862.839,0.129
2044.0,864.156,0.129
2046.0,865.474,0.129
2048.0,866.793,0.129
2050.0,868.113,0.128
2052.0,869.434,0.128
2054.0,870.754,0.128
2056.0,872.088,0.128
2058.0,873.4,0.128
2060.0,874.726,0.127
2062.0,876.043,0.127
2064.0,877.37,0.127
2066.0,878.699,0.127
2068.0,880.017,0.127
2070.0,881.337,0.127
2072.0,882.66,0.126
2074.0,883.996,0.126
2076.0,885.313,0.126
2078.0,886.637,0.126
2080.0,887.957,0.126
2082.0,889.284,0.125
2084.0,890.606,0.125
2086.0,891.918,0.125
2088.0,893.254,0.125
2090.0,894.574,0.125
2092.0,895.906,0.125
2094.0,897.214,0.124
2096.0,898.547,0.124
2098.0,899.867,0.124
2100.0,901.195,0.124
2102.0,902.517,0.124
2104.0,903.85,0.123
2106.0,905.173,0.123
2108.0,906.505,0.123
2110.0,907.823,0.123
2112.0,909.147,0.123
2114.0,910.478,0.123
2116.0,911.804,0.123
2118.0,913.127,0.122
2120.0,914.462,0.122
2122.0,915.776,0.122
2124.0,917.112,0.122
2126.0,918.428,0.122
2128.0,919.756,0.122
2130.0,921.078,0.122
2132.0,922.413,0.121
2134.0,923.734,0.121
2136.0,925.071,0.121
2138.0,926.401,0.121
2140.0,927.724,0.121
2142.0,929.056,0.121
2144.0,930.384,0.121
2146.0,931.713,0.12
2148.0,933.037,0.12
2150.0,934.363,0.12
2152.0,935.698,0.12
2154.0,937.03,0.12
2156.0,938.346,0.12
2158.0,939.683,0.12
2160.0,941.006,0.12
2162.0,942.341,0.119
2164.0,943.67,0.119
2166.0,944.996,0.119
2168.0,946.326,0.119
2170.0,947.657,0.119
2172.0,948.991,0.119
2174.0,950.313,0.119
2176.0,951.648,0.119
2178.0,952.984,0.118
2180.0,954.303,0.118
2182.0,955.642,0.118
2184.0,956.959,0.118
2186.0,958.291,0.118
2188.0,959.619,0.118
2190.0,960.95,0.118
2192.0,962.273,0.118
2194.0,963.607,0.117
2196.0,964.936,0.117
2198.0,966.274,0.117
2200.0,967.597,0.117
2202.0,968.924,0.117
2204.0,970.268,0.117
2206.0,971.58,0.117
2208.0,972.917,0.117
2210.0,974.244,0.117
2212.0,975.576,0.117
2214.0,976.91,0.117
2216.0,978.239,0.116
2218.0,979.568,0.116
2220.0,980.908,0.116
2222.0,982.229,0.116
2224.0,983.569,0.116
2226.0,984.895,0.116
2228.0,986.236,0.116
2230.0,987.569,0.116
2232.0,988.891,0.115
2234.0,990.223,0.115
2236.0,991.552,0.115
2238.0,992.894,0.115
2240.0,994.216,0.115
2242.0,995.561,0.115
2244.0,996.882,0.115
2246.0,998.223,0.115
2248.0,999.548,0.114
2250.0,1000.889,0.114
2252.0,1002.227,0.114
2254.0,1003.552,0.114
2256.0,1004.879,0.114
2258.0,1006.213,0.114
2260.0,1007.557,0.114
2262.0,1008.888,0.114
2264.0,1010.215,0.114
2266.0,1011.546,0.114
2268.0,1012.876,0.113
2270.0,1014.22,0.113
2272.0,1015.549,0.113
2274.0,1016.89,0.113
2276.0,1018.225,0.113
2278.0,1019.556,0.113
2280.0,1020.892,0.113
2282.0,1022.224,0.113
2284.0,1023.559,0.113
2286.0,1024.898,0.112
2288.0,1026.234,0.112
2290.0,1027.557,0.112
2292.0,1028.885,0.112
2294.0,1030.236,0.112
2296.0,1031.57,0.112
2298.0,1032.915,0.112
2300.0,1034.241,0.112
2302.0,1035.57,0.112
2304.0,1036.897,0.111
2306.0,1038.242,0.111
2308.0,1039.579,0.111
2310.0,1040.913,0.111
2312.0,1042.246,0.111
2314.0,1043.581,0.111
2316.0,1044.911,0.111
2318.0,1046.236,0.111
2320.0,1047.572,0.111
2322.0,1048.914,0.11
2324.0,1050.259,0.11
2326.0,1051.581,0.11
2328.0,1052.913,0.11
2330.0,1054.241,0.11
2332.0,1055.583,0.11
2334.0,1056.913,0.11
2336.0,1057.966,0.11
2338.0,1058.73,0.109
2340.0,1059.643,0.109
2342.0,1060.499,0.109
2344.0,1061.291,0.109
2346.0,1062.025,0.109
2348.0,1062.71,0.109
2350.0,1063.324,0.108
2352.0,1063.893,0.108
2354.0,1064.424,0.108
2356.0,1064.924,0.108
2358.0,1065.366,0.108
2360.0,1065.784,0.108
2362.0,1066.179,0.108
2364.0,1066.546,0.108
2366.0,1066.876,0.108
2368.0,1067.184,0.108
2370.0,1067.478,0.108
2372.0,1067.744,0.108
2374.0,1067.993,0.108
2376.0,1068.227,0.107
2378.0,1068.438,0.107
2380.0,1068.639,0.107
2382.0,1068.82,0.107
2384.0,1068.997,0.107
2386.0,1069.157,0.107
2388.0,1069.308,0.107
2390.0,1069.452,0.107
2392.0,1069.572,0.107
2394.0,1069.707,0.107
2396.0,1069.821,0.107
2398.0,1069.932,0.107
2400.0,1070.024,0.107
2402.0,1070.127,0.107
2404.0,1070.211,0.107
2406.0,1070.297,0.107
2408.0,1070.38,0.107
2410.0,1070.445,0.106
2412.0,1070.519,0.106
2414.0,1070.594,0.106
2416.0,1070.648,0.106
2418.0,1070.705,0.106
2420.0,1070.761,0.106
2422.0,1070.822,0.106
2424.0,1070.869,0.106
2426.0,1070.914,0.106
2428.0,1070.964,0.106
2430.0,1071.003,0.106
2432.0,1071.041,0.106
2434.0,1071.081,0.106
2436.0,1071.117,0.106
2438.0,1071.15,0.106
2440.0,1071.183,0.106
2442.0,1071.219,0.106
2444.0,1071.251,0.106
2446.0,1071.277,0.106
2448.0,1071.314,0.105
2450.0,1071.329,0.105
2452.0,1071.357,0.105
2454.0,1071.385,0.105
2456.0,1071.413,0.105
2458.0,1071.439,0.105
2460.0,1071.454,0.105
2462.0,1071.482,0.105
2464.0,1071.498,0.105
2466.0,1071.519,0.105
2468.0,1071.539,0.105
2470.0,1071.564,0.105
2472.0,1071.58,0.105
2474.0,1071.598,0.105
2476.0,1071.618,0.105
2478.0,1071.636,0.105
2480.0,1071.644,0.105
2482.0,1071.665,0.105
2484.0,1071.676,0.105
2486.0,1071.693,0.105
2488.0,1071.709,0.105
2490.0,1071.729,0.105
2492.0,1071.736,0.105
2494.0,1071.756,0.105
2496.0,1071.765,0.105
2498.0,1071.781,0.104
2500.0,1071.79,0.104
2502.0,1071.798,0.104
2504.0,1071.812,0.104
2506.0,1071.821,0.104
2508.0,1071.829,0.104
2510.0,1071.849,0.104
2512.0,1071.855,0.104
2514.0,1071.86,0.104
2516.0,1071.877,0.104
2518.0,1071.886,0.104
2520.0,1071.907,0.104
2522.0,1071.909,0.104
2524.0,1071.92,0.104
2526.0,1071.922,0.104
2528.0,1071.929,0.104
2530.0,1071.937,0.104
2532.0,1071.948,0.104
2534.0,1071.956,0.104
2536.0,1071.965,0.104
2538.0,1071.976,0.104
2540.0,1071.981,0.104
2542.0,1071.993,0.104
2544.0,1071.991,0.104
2546.0,1071.994,0.104
2548.0,1072.008,0.104
2550.0,1072.014,0.104
2552.0,1072.024,0.104
2554.0,1072.03,0.104
2556.0,1072.038,0.104
2558.0,1072.044,0.104
2560.0,1072.052,0.104
2562.0,1072.055,0.104
2564.0,1072.056,0.103
2566.0,1072.065,0.103
2568.0,1072.062,0.103
2570.0,1072.068,0.103
2572.0,1072.083,0.103
2574.0,1072.087,0.103
2576.0,1072.086,0.103
2578.0,1072.096,0.103
2580.0,1072.098,0.103
2582.0,1072.108,0.103
2584.0,1072.116,0.103
2586.0,1072.121,0.103
2588.0,1072.117,0.103
2590.0,1072.12,0.103
2592.0,1072.125,0.103
2594.0,1072.135,0.103
2596.0,1072.139,0.103
2598.0,1072.141,0.103
2600.0,1072.153,0.103
2602.0,1072.15,0.103
2604.0,1072.153,0.103
2606.0,1072.158,0.103
2608.0,1072.166,0.103
2610.0,1072.176,0.103
2612.0,1072.167,0.103
2614.0,1072.167,0.103
2616.0,1072.175,0.103
2618.0,1072.183,0.103
2620.0,1072.181,0.103
2622.0,1072.187,0.103
2624.0,1072.189,0.103
2626.0,1072.187,0.103
2628.0,1072.193,0.103
2630.0,1072.196,0.103
2632.0,1072.202,0.103
2634.0,1072.21,0.103
2636.0,1072.208,0.103
2638.0,1072.21,0.103
2640.0,1072.218,0.103
2642.0,1072.218,0.103
2644.0,1072.225,0.103
2646.0,1072.224,0.103
2648.0,1072.228,0.103
2650.0,1072.228,0.103
2652.0,1072.225,0.103
2654.0,1072.232,0.103
2655.0,1072.233,0.103