File: Wood/Calibration_Data/TUBS/TUBS_Wood_TGA_N2_40K_R2.csv
Time (s),Temperature (K),Mass (mg)
0.0,304.968,0.98
12.0,304.9,0.978
29.0,304.848,0.976
51.0,304.779,0.974
81.0,304.691,0.972
114.0,304.645,0.97
165.0,304.565,0.968
249.0,304.493,0.966
257.0,304.493,0.966
390.0,304.406,0.964
544.0,304.385,0.964
882.0,304.392,0.962
964.0,304.397,0.962
1204.814,305.5,0.96
1207.879,306.5,0.96
1210.15,307.5,0.96
1212.067,308.5,0.962
1213.784,309.5,0.963
1215.478,310.5,0.963
1217.108,311.5,0.964
1218.704,312.5,0.965
1220.268,313.5,0.965
1221.846,314.5,0.965
1223.396,315.5,0.965
1224.9,316.5,0.965
1226.445,317.5,0.965
1227.968,318.5,0.964
1229.504,319.5,0.964
1231.028,320.5,0.963
1232.557,321.5,0.963
1234.078,322.5,0.963
1235.594,323.5,0.963
1237.113,324.5,0.962
1238.62,325.5,0.962
1240.123,326.5,0.962
1241.652,327.5,0.962
1243.16,328.5,0.962
1244.671,329.5,0.961
1246.19,330.5,0.961
1247.708,331.5,0.961
1249.214,332.5,0.961
1250.74,333.5,0.961
1252.263,334.5,0.96
1253.766,335.5,0.96
1255.276,336.5,0.96
1256.798,337.5,0.96
1258.296,338.5,0.96
1259.831,339.5,0.959
1261.342,340.5,0.959
1262.858,341.5,0.959
1264.367,342.5,0.958
1265.853,343.5,0.958
1267.394,344.5,0.958
1268.897,345.5,0.958
1270.407,346.5,0.958
1271.913,347.5,0.957
1273.427,348.5,0.957
1274.944,349.5,0.957
1276.462,350.5,0.957
1277.971,351.5,0.956
1279.48,352.5,0.956
1280.998,353.5,0.956
1282.508,354.5,0.956
1284.015,355.5,0.956
1285.532,356.5,0.955
1287.051,357.5,0.955
1288.565,358.5,0.955
1290.061,359.5,0.955
1291.569,360.5,0.955
1293.075,361.5,0.955
1294.605,362.5,0.954
1296.091,363.5,0.954
1297.607,364.5,0.954
1299.126,365.5,0.954
1300.61,366.5,0.954
1302.133,367.5,0.954
1303.63,368.5,0.953
1305.143,369.5,0.953
1306.653,370.5,0.953
1308.159,371.5,0.953
1309.656,372.5,0.953
1311.168,373.5,0.953
1312.668,374.5,0.953
1314.172,375.5,0.953
1315.684,376.5,0.953
1317.18,377.5,0.953
1318.685,378.5,0.953
1320.174,379.5,0.953
1321.694,380.5,0.953
1323.193,381.5,0.953
1324.696,382.5,0.953
1326.193,383.5,0.953
1327.698,384.5,0.953
1329.182,385.5,0.953
1330.683,386.5,0.953
1332.178,387.5,0.952
1333.67,388.5,0.952
1335.178,389.5,0.952
1336.682,390.5,0.952
1338.176,391.5,0.952
1339.668,392.5,0.952
1341.149,393.5,0.952
1342.648,394.5,0.952
1344.139,395.5,0.952
1345.64,396.5,0.952
1347.127,397.5,0.952
1348.619,398.5,0.952
1350.122,399.5,0.952
1351.597,400.5,0.952
1353.089,401.5,0.952
1354.583,402.5,0.952
1356.073,403.5,0.952
1357.566,404.5,0.952
1359.057,405.5,0.952
1360.542,406.5,0.952
1362.027,407.5,0.952
1363.503,408.5,0.952
1364.991,409.5,0.952
1366.468,410.5,0.952
1367.974,411.5,0.952
1369.442,412.5,0.952
1370.912,413.5,0.952
1372.4,414.5,0.952
1373.882,415.5,0.952
1375.372,416.5,0.952
1376.853,417.5,0.952
1378.335,418.5,0.952
1379.824,419.5,0.952
1381.295,420.5,0.952
1382.782,421.5,0.952
1384.259,422.5,0.952
1385.729,423.5,0.952
1387.207,424.5,0.952
1388.673,425.5,0.952
1390.155,426.5,0.952
1391.641,427.5,0.952
1393.11,428.5,0.952
1394.59,429.5,0.952
1396.067,430.5,0.952
1397.55,431.5,0.952
1399.018,432.5,0.952
1400.493,433.5,0.952
1401.975,434.5,0.952
1403.447,435.5,0.952
1404.913,436.5,0.951
1406.386,437.5,0.951
1407.856,438.5,0.951
1409.339,439.5,0.951
1410.806,440.5,0.951
1412.286,441.5,0.951
1413.753,442.5,0.951
1415.204,443.5,0.951
1416.678,444.5,0.951
1418.139,445.5,0.951
1419.608,446.5,0.95
1421.094,447.5,0.95
1422.545,448.5,0.95
1424.012,449.5,0.95
1425.484,450.5,0.95
1426.944,451.5,0.95
1428.416,452.5,0.95
1429.888,453.5,0.95
1431.345,454.5,0.95
1432.823,455.5,0.95
1434.282,456.5,0.949
1435.748,457.5,0.949
1437.203,458.5,0.949
1438.668,459.5,0.949
1440.123,460.5,0.949
1441.595,461.5,0.949
1443.061,462.5,0.948
1444.509,463.5,0.948
1445.969,464.5,0.948
1447.426,465.5,0.948
1448.892,466.5,0.948
1450.355,467.5,0.947
1451.813,468.5,0.947
1453.266,469.5,0.947
1454.745,470.5,0.947
1456.186,471.5,0.946
1457.652,472.5,0.946
1459.101,473.5,0.946
1460.582,474.5,0.946
1462.031,475.5,0.945
1463.493,476.5,0.945
1464.955,477.5,0.945
1466.406,478.5,0.945
1467.857,479.5,0.944
1469.315,480.5,0.944
1470.796,481.5,0.944
1472.239,482.5,0.943
1473.691,483.5,0.943
1475.147,484.5,0.943
1476.608,485.5,0.942
1478.075,486.5,0.942
1479.52,487.5,0.942
1480.985,488.5,0.942
1482.432,489.5,0.942
1483.89,490.5,0.941
1485.347,491.5,0.941
1486.823,492.5,0.941
1488.269,493.5,0.94
1489.716,494.5,0.94
1491.165,495.5,0.94
1492.619,496.5,0.939
1494.091,497.5,0.939
1495.531,498.5,0.939
1496.994,499.5,0.939
1498.447,500.5,0.938
1499.898,501.5,0.938
1501.366,502.5,0.938
1502.82,503.5,0.937
1504.287,504.5,0.937
1505.746,505.5,0.937
1507.189,506.5,0.937
1508.639,507.5,0.936
1510.094,508.5,0.936
1511.559,509.5,0.935
1513.029,510.5,0.935
1514.475,511.5,0.935
1515.947,512.5,0.934
1517.399,513.5,0.934
1518.854,514.5,0.933
1520.308,515.5,0.933
1521.765,516.5,0.933
1523.231,517.5,0.932
1524.679,518.5,0.932
1526.131,519.5,0.931
1527.597,520.5,0.931
1529.046,521.5,0.93
1530.515,522.5,0.929
1531.98,523.5,0.929
1533.444,524.5,0.929
1534.896,525.5,0.928
1536.357,526.5,0.928
1537.816,527.5,0.927
1539.28,528.5,0.926
1540.734,529.5,0.926
1542.181,530.5,0.925
1543.664,531.5,0.924
1545.115,532.5,0.924
1546.58,533.5,0.923
1548.029,534.5,0.922
1549.495,535.5,0.922
1550.965,536.5,0.921
1552.419,537.5,0.92
1553.87,538.5,0.919
1555.344,539.5,0.918
1556.821,540.5,0.917
1558.264,541.5,0.917
1559.725,542.5,0.915
1561.194,543.5,0.915
1562.66,544.5,0.913
1564.14,545.5,0.913
1565.591,546.5,0.911
1567.05,547.5,0.911
1568.52,548.5,0.909
1569.988,549.5,0.908
1571.448,550.5,0.908
1572.919,551.5,0.906
1574.375,552.5,0.905
1575.847,553.5,0.904
1577.306,554.5,0.903
1578.774,555.5,0.901
1580.241,556.5,0.9
1581.704,557.5,0.898
1583.174,558.5,0.898
1584.633,559.5,0.896
1586.095,560.5,0.895
1587.559,561.5,0.893
1589.022,562.5,0.892
1590.496,563.5,0.891
1591.959,564.5,0.889
1593.426,565.5,0.888
1594.892,566.5,0.886
1596.368,567.5,0.885
1597.845,568.5,0.883
1599.314,569.5,0.882
1600.782,570.5,0.88
1602.253,571.5,0.878
1603.724,572.5,0.876
1605.195,573.5,0.875
1606.662,574.5,0.873
1608.143,575.5,0.872
1609.611,576.5,0.87
1611.091,577.5,0.868
1612.557,578.5,0.866
1614.017,579.5,0.864
1615.499,580.5,0.863
1616.965,581.5,0.86
1618.443,582.5,0.859
1619.926,583.5,0.856
1621.396,584.5,0.855
1622.872,585.5,0.852
1624.354,586.5,0.85
1625.829,587.5,0.848
1627.303,588.5,0.845
1628.777,589.5,0.843
1630.253,590.5,0.841
1631.727,591.5,0.839
1633.224,592.5,0.836
1634.698,593.5,0.834
1636.158,594.5,0.831
1637.654,595.5,0.828
1639.124,596.5,0.826
1640.6,597.5,0.823
1642.087,598.5,0.82
1643.557,599.5,0.817
1645.035,600.5,0.814
1646.525,601.5,0.811
1648.016,602.5,0.808
1649.491,603.5,0.805
1650.991,604.5,0.802
1652.448,605.5,0.798
1653.931,606.5,0.795
1655.433,607.5,0.792
1656.912,608.5,0.788
1658.387,609.5,0.785
1659.88,610.5,0.781
1661.363,611.5,0.777
1662.842,612.5,0.773
1664.335,613.5,0.77
1665.821,614.5,0.766
1667.298,615.5,0.762
1668.789,616.5,0.758
1670.269,617.5,0.753
1671.762,618.5,0.749
1673.249,619.5,0.745
1674.734,620.5,0.741
1676.219,621.5,0.736
1677.706,622.5,0.732
1679.206,623.5,0.727
1680.696,624.5,0.723
1682.182,625.5,0.718
1683.676,626.5,0.713
1685.168,627.5,0.708
1686.659,628.5,0.704
1688.157,629.5,0.699
1689.647,630.5,0.694
1691.13,631.5,0.689
1692.628,632.5,0.683
1694.118,633.5,0.679
1695.62,634.5,0.674
1697.12,635.5,0.669
1698.61,636.5,0.663
1700.104,637.5,0.658
1701.595,638.5,0.653
1703.09,639.5,0.647
1704.585,640.5,0.642
1706.085,641.5,0.636
1707.574,642.5,0.631
1709.061,643.5,0.625
1710.574,644.5,0.619
1712.071,645.5,0.614
1713.579,646.5,0.608
1715.087,647.5,0.602
1716.568,648.5,0.596
1718.062,649.5,0.59
1719.576,650.5,0.584
1721.07,651.5,0.578
1722.582,652.5,0.572
1724.085,653.5,0.566
1725.596,654.5,0.56
1727.085,655.5,0.553
1728.593,656.5,0.547
1730.103,657.5,0.54
1731.608,658.5,0.533
1733.111,659.5,0.526
1734.614,660.5,0.52
1736.114,661.5,0.512
1737.613,662.5,0.506
1739.122,663.5,0.498
1740.639,664.5,0.491
1742.149,665.5,0.483
1743.657,666.5,0.476
1745.172,667.5,0.468
1746.675,668.5,0.461
1748.184,669.5,0.453
1749.686,670.5,0.445
1751.204,671.5,0.437
1752.716,672.5,0.429
1754.229,673.5,0.421
1755.735,674.5,0.413
1757.241,675.5,0.405
1758.759,676.5,0.396
1760.263,677.5,0.389
1761.776,678.5,0.381
1763.289,679.5,0.373
1764.799,680.5,0.366
1766.305,681.5,0.358
1767.808,682.5,0.351
1769.32,683.5,0.344
1770.83,684.5,0.338
1772.337,685.5,0.332
1773.848,686.5,0.326
1775.36,687.5,0.32
1776.869,688.5,0.315
1778.381,689.5,0.311
1779.882,690.5,0.306
1781.389,691.5,0.303
1782.905,692.5,0.299
1784.397,693.5,0.297
1785.905,694.5,0.294
1787.427,695.5,0.292
1788.934,696.5,0.29
1790.444,697.5,0.289
1791.943,698.5,0.287
1793.457,699.5,0.286
1794.982,700.5,0.285
1796.486,701.5,0.284
1798.003,702.5,0.283
1799.496,703.5,0.282
1801.011,704.5,0.281
1802.535,705.5,0.28
1804.045,706.5,0.28
1805.548,707.5,0.279
1807.063,708.5,0.279
1808.574,709.5,0.278
1810.096,710.5,0.278
1811.608,711.5,0.277
1813.127,712.5,0.277
1814.633,713.5,0.276
1816.148,714.5,0.275
1817.658,715.5,0.275
1819.173,716.5,0.274
1820.692,717.5,0.274
1822.207,718.5,0.273
1823.712,719.5,0.273
1825.24,720.5,0.272
1826.753,721.5,0.272
1828.26,722.5,0.271
1829.768,723.5,0.271
1831.291,724.5,0.27
1832.807,725.5,0.27
1834.321,726.5,0.269
1835.841,727.5,0.268
1837.345,728.5,0.268
1838.874,729.5,0.268
1840.382,730.5,0.267
1841.906,731.5,0.267
1843.425,732.5,0.266
1844.945,733.5,0.266
1846.458,734.5,0.265
1847.968,735.5,0.265
1849.492,736.5,0.265
1850.984,737.5,0.264
1852.517,738.5,0.263
1854.024,739.5,0.263
1855.549,740.5,0.263
1857.062,741.5,0.262
1858.584,742.5,0.262
1860.093,743.5,0.262
1861.625,744.5,0.261
1863.146,745.5,0.261
1864.651,746.5,0.26
1866.163,747.5,0.26
1867.682,748.5,0.259
1869.204,749.5,0.259
1870.719,750.5,0.259
1872.239,751.5,0.258
1873.753,752.5,0.258
1875.268,753.5,0.257
1876.784,754.5,0.257
1878.297,755.5,0.257
1879.81,756.5,0.256
1881.334,757.5,0.256
1882.864,758.5,0.256
1884.374,759.5,0.255
1885.882,760.5,0.255
1887.402,761.5,0.255
1888.922,762.5,0.254
1890.439,763.5,0.254
1891.96,764.5,0.254
1893.47,765.5,0.253
1894.986,766.5,0.253
1896.505,767.5,0.253
1898.023,768.5,0.252
1899.537,769.5,0.252
1901.043,770.5,0.252
1902.573,771.5,0.251
1904.077,772.5,0.251
1905.593,773.5,0.251
1907.117,774.5,0.251
1908.633,775.5,0.25
1910.152,776.5,0.25
1911.656,777.5,0.25
1913.181,778.5,0.25
1914.693,779.5,0.249
1916.211,780.5,0.249
1917.722,781.5,0.249
1919.243,782.5,0.249
1920.763,783.5,0.248
1922.278,784.5,0.248
1923.795,785.5,0.248
1925.31,786.5,0.247
1926.825,787.5,0.247
1928.349,788.5,0.247
1929.869,789.5,0.247
1931.372,790.5,0.247
1932.897,791.5,0.246
1934.402,792.5,0.246
1935.915,793.5,0.246
1937.44,794.5,0.246
1938.954,795.5,0.246
1940.467,796.5,0.245
1941.986,797.5,0.245
1943.504,798.5,0.245
1945.008,799.5,0.245
1946.536,800.5,0.245
1948.055,801.5,0.244
1949.561,802.5,0.244
1951.083,803.5,0.244
1952.602,804.5,0.244
1954.118,805.5,0.244
1955.632,806.5,0.243
1957.139,807.5,0.243
1958.633,808.5,0.243
1960.156,809.5,0.243
1961.665,810.5,0.243
1963.187,811.5,0.243
1964.71,812.5,0.242
1966.216,813.5,0.242
1967.735,814.5,0.242
1969.256,815.5,0.242
1970.78,816.5,0.242
1972.286,817.5,0.241
1973.804,818.5,0.241
1975.321,819.5,0.241
1976.826,820.5,0.241
1978.351,821.5,0.241
1979.868,822.5,0.24
1981.387,823.5,0.24
1982.895,824.5,0.24
1984.414,825.5,0.24
1985.916,826.5,0.24
1987.439,827.5,0.24
1988.949,828.5,0.239
1990.46,829.5,0.239
1991.982,830.5,0.239
1993.496,831.5,0.239
1995.015,832.5,0.239
1996.529,833.5,0.239
1998.039,834.5,0.239
1999.557,835.5,0.238
2001.075,836.5,0.238
2002.593,837.5,0.238
2004.12,838.5,0.238
2005.659,839.5,0.238
2007.171,840.5,0.238
2008.686,841.5,0.238
2010.195,842.5,0.238
2011.72,843.5,0.237
2013.223,844.5,0.237
2014.75,845.5,0.237
2016.252,846.5,0.237
2017.775,847.5,0.237
2019.294,848.5,0.237
2020.797,849.5,0.236
2022.312,850.5,0.236
2023.833,851.5,0.236
2025.342,852.5,0.236
2026.857,853.5,0.236
2028.384,854.5,0.236
2029.894,855.5,0.236
2031.409,856.5,0.236
2032.916,857.5,0.235
2034.444,858.5,0.235
2035.945,859.5,0.235
2037.462,860.5,0.235
2038.973,861.5,0.235
2040.484,862.5,0.235
2041.998,863.5,0.234
2043.511,864.5,0.234
2045.006,865.5,0.234
2046.538,866.5,0.234
2048.051,867.5,0.234
2049.555,868.5,0.234
2051.067,869.5,0.234
2052.579,870.5,0.234
2054.092,871.5,0.233
2055.605,872.5,0.233
2057.118,873.5,0.233
2058.622,874.5,0.233
2060.138,875.5,0.233
2061.647,876.5,0.233
2063.158,877.5,0.233
2064.671,878.5,0.233
2066.175,879.5,0.232
2067.684,880.5,0.232
2069.201,881.5,0.232
2070.73,882.5,0.232
2072.241,883.5,0.232
2073.736,884.5,0.231
2075.241,885.5,0.231
2076.755,886.5,0.231
2078.261,887.5,0.231
2079.773,888.5,0.231
2081.283,889.5,0.231
2082.785,890.5,0.231
2084.295,891.5,0.231
2085.806,892.5,0.231
2087.323,893.5,0.23
2088.83,894.5,0.23
2090.342,895.5,0.23
2091.858,896.5,0.23
2093.363,897.5,0.23
2094.868,898.5,0.23
2096.379,899.5,0.23
2097.889,900.5,0.23
2099.392,901.5,0.23
2100.89,902.5,0.23
2102.411,903.5,0.23
2103.912,904.5,0.229
2105.413,905.5,0.229
2106.929,906.5,0.229
2108.442,907.5,0.229
2109.943,908.5,0.229
2111.458,909.5,0.229
2112.964,910.5,0.229
2114.464,911.5,0.229
2115.97,912.5,0.229
2117.481,913.5,0.229
2118.983,914.5,0.228
2120.492,915.5,0.228
2122.003,916.5,0.228
2123.515,917.5,0.228
2125.033,918.5,0.228
2126.533,919.5,0.228
2128.032,920.5,0.228
2129.542,921.5,0.228
2131.045,922.5,0.228
2132.556,923.5,0.228
2134.074,924.5,0.227
2135.572,925.5,0.227
2137.08,926.5,0.227
2138.602,927.5,0.227
2140.106,928.5,0.227
2141.605,929.5,0.227
2143.103,930.5,0.227
2144.617,931.5,0.227
2146.124,932.5,0.227
2147.632,933.5,0.227
2149.139,934.5,0.226
2150.65,935.5,0.226
2152.157,936.5,0.226
2153.665,937.5,0.226
2155.173,938.5,0.226
2156.678,939.5,0.226
2158.192,940.5,0.226
2159.688,941.5,0.226
2161.201,942.5,0.226
2162.694,943.5,0.225
2164.204,944.5,0.225
2165.709,945.5,0.225
2167.217,946.5,0.225
2168.73,947.5,0.225
2170.23,948.5,0.225
2171.75,949.5,0.225
2173.252,950.5,0.225
2174.749,951.5,0.225
2176.261,952.5,0.225
2177.762,953.5,0.225
2179.264,954.5,0.225
2180.78,955.5,0.224
2182.284,956.5,0.224
2183.786,957.5,0.224
2185.284,958.5,0.224
2186.792,959.5,0.224
2188.292,960.5,0.224
2189.796,961.5,0.224
2191.306,962.5,0.224
2192.813,963.5,0.224
2194.322,964.5,0.224
2195.826,965.5,0.224
2197.332,966.5,0.224
2198.834,967.5,0.224
2200.346,968.5,0.224
2201.855,969.5,0.224
2203.363,970.5,0.224
2204.86,971.5,0.224
2206.354,972.5,0.223
2207.864,973.5,0.223
2209.37,974.5,0.223
2210.868,975.5,0.223
2212.378,976.5,0.223
2213.88,977.5,0.223
2215.386,978.5,0.223
2216.888,979.5,0.223
2218.387,980.5,0.223
2219.886,981.5,0.223
2221.386,982.5,0.223
2222.894,983.5,0.223
2224.392,984.5,0.223
2225.9,985.5,0.223
2227.401,986.5,0.223
2228.9,987.5,0.223
2230.405,988.5,0.223
2231.909,989.5,0.222
2233.409,990.5,0.222
2234.901,991.5,0.222
2236.409,992.5,0.222
2237.899,993.5,0.222
2239.407,994.5,0.222
2240.898,995.5,0.222
2242.41,996.5,0.222
2243.909,997.5,0.222
2245.413,998.5,0.222
2246.921,999.5,0.222
2248.424,1000.5,0.222
2249.924,1001.5,0.222
2251.417,1002.5,0.222
2252.914,1003.5,0.222
2254.421,1004.5,0.222
2255.915,1005.5,0.222
2257.416,1006.5,0.221
2258.912,1007.5,0.221
2260.415,1008.5,0.221
2261.909,1009.5,0.221
2263.413,1010.5,0.221
2264.913,1011.5,0.221
2266.409,1012.5,0.221
2267.905,1013.5,0.221
2269.403,1014.5,0.221
2270.897,1015.5,0.221
2272.41,1016.5,0.221
2273.913,1017.5,0.221
2275.401,1018.5,0.221
2276.9,1019.5,0.221
2278.398,1020.5,0.221
2279.904,1021.5,0.221
2281.403,1022.5,0.221
2282.898,1023.5,0.221
2284.407,1024.5,0.221
2285.902,1025.5,0.22
2287.396,1026.5,0.22
2288.889,1027.5,0.22
2290.396,1028.5,0.22
2291.891,1029.5,0.22
2293.391,1030.5,0.22
2294.904,1031.5,0.22
2296.398,1032.5,0.22
2297.877,1033.5,0.22
2299.381,1034.5,0.22
2300.883,1035.5,0.22
2302.379,1036.5,0.22
2303.876,1037.5,0.22
2305.381,1038.5,0.22
2306.879,1039.5,0.22
2308.373,1040.5,0.22
2309.866,1041.5,0.22
2311.365,1042.5,0.22
2312.859,1043.5,0.22
2314.364,1044.5,0.22
2315.863,1045.5,0.219
2317.365,1046.5,0.219
2318.858,1047.5,0.219
2320.351,1048.5,0.219
2321.855,1049.5,0.219
2323.358,1050.5,0.219
2324.85,1051.5,0.219
2326.368,1052.5,0.219
2327.863,1053.5,0.219
2329.364,1054.5,0.219
2330.865,1055.5,0.219
2332.366,1056.5,0.219
2333.859,1057.5,0.219
2335.691,1058.5,0.218
2338.47,1059.5,0.218
2340.705,1060.5,0.218
2343.162,1061.5,0.218
2345.87,1062.5,0.218
2348.923,1063.5,0.218
2355.0,1065.157,0.218
2375.0,1068.534,0.218
2395.0,1070.15,0.217
2415.0,1070.979,0.217
2435.0,1071.454,0.217
2455.0,1071.754,0.217
2475.0,1071.937,0.216
2495.0,1072.096,0.216
2515.0,1072.2,0.216
2535.0,1072.287,0.216
2555.0,1072.348,0.216
2575.0,1072.403,0.215
2595.0,1072.449,0.215
2615.0,1072.479,0.215
2635.0,1072.497,0.215
2655.0,1072.517,0.215