File: Wood/Calibration_Data/TUBS/TUBS_Wood_TGA_N2_50K_R5.csv
Time (s),Temperature (K),Mass (mg)
0.0,304.936,4.009
6.0,304.893,4.007
11.0,304.861,4.005
16.0,304.847,4.003
21.0,304.835,4.001
26.0,304.794,3.999
31.0,304.796,3.997
37.0,304.769,3.995
42.0,304.763,3.993
48.0,304.737,3.991
54.0,304.729,3.989
60.0,304.714,3.987
66.0,304.693,3.985
73.0,304.674,3.983
79.0,304.66,3.981
86.0,304.665,3.979
93.0,304.64,3.977
100.0,304.637,3.975
107.0,304.623,3.973
115.0,304.587,3.971
123.0,304.576,3.969
131.0,304.572,3.967
140.0,304.572,3.965
149.0,304.554,3.963
158.0,304.544,3.961
167.0,304.531,3.959
178.0,304.525,3.957
188.0,304.508,3.955
198.0,304.513,3.953
209.0,304.485,3.951
221.0,304.483,3.949
232.0,304.473,3.947
244.0,304.475,3.945
258.0,304.458,3.943
270.0,304.468,3.941
285.0,304.472,3.939
299.0,304.43,3.937
313.0,304.415,3.935
329.0,304.434,3.933
346.0,304.428,3.931
363.0,304.42,3.929
384.0,304.42,3.927
404.0,304.398,3.925
424.0,304.409,3.923
446.0,304.416,3.921
469.0,304.411,3.919
494.0,304.409,3.917
522.0,304.413,3.915
551.0,304.441,3.913
584.0,304.401,3.911
617.0,304.414,3.909
654.0,304.395,3.907
695.0,304.399,3.905
738.0,304.394,3.903
789.0,304.412,3.901
840.0,304.417,3.899
895.0,304.418,3.897
956.0,304.424,3.895
1022.0,304.42,3.893
1118.0,304.415,3.891
1200.0,304.438,3.889
1204.985,305.5,3.888
1206.769,306.5,3.887
1208.385,307.5,3.887
1210.102,308.5,3.887
1211.597,309.5,3.888
1212.957,310.5,3.889
1214.286,311.5,3.889
1215.569,312.5,3.89
1216.797,313.5,3.89
1218.048,314.5,3.891
1219.285,315.5,3.891
1220.464,316.5,3.891
1221.668,317.5,3.891
1222.872,318.5,3.891
1224.053,319.5,3.89
1225.263,320.5,3.89
1226.473,321.5,3.89
1227.667,322.5,3.889
1228.866,323.5,3.889
1230.07,324.5,3.889
1231.26,325.5,3.888
1232.445,326.5,3.888
1233.638,327.5,3.887
1234.829,328.5,3.887
1236.033,329.5,3.886
1237.218,330.5,3.886
1238.411,331.5,3.885
1239.603,332.5,3.885
1240.796,333.5,3.884
1242.002,334.5,3.884
1243.217,335.5,3.883
1244.399,336.5,3.883
1245.591,337.5,3.882
1246.784,338.5,3.882
1247.986,339.5,3.881
1249.177,340.5,3.881
1250.383,341.5,3.88
1251.581,342.5,3.879
1252.785,343.5,3.878
1253.983,344.5,3.878
1255.181,345.5,3.877
1256.382,346.5,3.876
1257.566,347.5,3.875
1258.77,348.5,3.874
1259.969,349.5,3.873
1261.172,350.5,3.872
1262.374,351.5,3.872
1263.589,352.5,3.87
1264.793,353.5,3.869
1265.998,354.5,3.868
1267.2,355.5,3.867
1268.393,356.5,3.866
1269.596,357.5,3.865
1270.794,358.5,3.864
1272.012,359.5,3.863
1273.207,360.5,3.862
1274.417,361.5,3.861
1275.617,362.5,3.859
1276.805,363.5,3.858
1278.017,364.5,3.857
1279.212,365.5,3.856
1280.421,366.5,3.855
1281.624,367.5,3.853
1282.814,368.5,3.852
1284.017,369.5,3.851
1285.221,370.5,3.851
1286.418,371.5,3.85
1287.607,372.5,3.848
1288.807,373.5,3.847
1290.011,374.5,3.846
1291.205,375.5,3.846
1292.405,376.5,3.845
1293.589,377.5,3.843
1294.779,378.5,3.843
1295.984,379.5,3.842
1297.193,380.5,3.842
1298.376,381.5,3.841
1299.565,382.5,3.84
1300.763,383.5,3.839
1301.956,384.5,3.839
1303.152,385.5,3.838
1304.352,386.5,3.838
1305.534,387.5,3.837
1306.72,388.5,3.837
1307.912,389.5,3.836
1309.099,390.5,3.836
1310.295,391.5,3.836
1311.483,392.5,3.835
1312.677,393.5,3.835
1313.857,394.5,3.835
1315.047,395.5,3.834
1316.245,396.5,3.834
1317.432,397.5,3.834
1318.624,398.5,3.834
1319.825,399.5,3.834
1321.01,400.5,3.833
1322.201,401.5,3.833
1323.39,402.5,3.833
1324.577,403.5,3.833
1325.758,404.5,3.833
1326.941,405.5,3.833
1328.14,406.5,3.833
1329.33,407.5,3.833
1330.514,408.5,3.833
1331.708,409.5,3.832
1332.889,410.5,3.832
1334.078,411.5,3.832
1335.259,412.5,3.832
1336.443,413.5,3.832
1337.635,414.5,3.832
1338.828,415.5,3.832
1339.994,416.5,3.832
1341.184,417.5,3.832
1342.366,418.5,3.832
1343.562,419.5,3.832
1344.741,420.5,3.832
1345.923,421.5,3.832
1347.105,422.5,3.832
1348.289,423.5,3.831
1349.481,424.5,3.831
1350.658,425.5,3.831
1351.843,426.5,3.831
1353.025,427.5,3.831
1354.204,428.5,3.831
1355.388,429.5,3.831
1356.562,430.5,3.831
1357.743,431.5,3.831
1358.924,432.5,3.831
1360.106,433.5,3.83
1361.286,434.5,3.83
1362.458,435.5,3.83
1363.642,436.5,3.83
1364.822,437.5,3.83
1365.993,438.5,3.83
1367.166,439.5,3.83
1368.349,440.5,3.829
1369.528,441.5,3.829
1370.7,442.5,3.829
1371.884,443.5,3.829
1373.056,444.5,3.829
1374.23,445.5,3.828
1375.397,446.5,3.828
1376.578,447.5,3.828
1377.768,448.5,3.828
1378.936,449.5,3.827
1380.111,450.5,3.827
1381.287,451.5,3.827
1382.452,452.5,3.827
1383.628,453.5,3.826
1384.797,454.5,3.826
1385.977,455.5,3.826
1387.135,456.5,3.826
1388.307,457.5,3.825
1389.476,458.5,3.825
1390.647,459.5,3.824
1391.827,460.5,3.824
1392.983,461.5,3.824
1394.16,462.5,3.823
1395.333,463.5,3.823
1396.494,464.5,3.822
1397.654,465.5,3.822
1398.83,466.5,3.821
1400.002,467.5,3.821
1401.172,468.5,3.82
1402.34,469.5,3.82
1403.506,470.5,3.819
1404.673,471.5,3.818
1405.841,472.5,3.817
1407.022,473.5,3.817
1408.175,474.5,3.816
1409.337,475.5,3.816
1410.503,476.5,3.814
1411.673,477.5,3.813
1412.839,478.5,3.813
1414.008,479.5,3.812
1415.174,480.5,3.811
1416.348,481.5,3.81
1417.501,482.5,3.808
1418.67,483.5,3.807
1419.84,484.5,3.806
1421.019,485.5,3.805
1422.176,486.5,3.804
1423.338,487.5,3.803
1424.506,488.5,3.801
1425.674,489.5,3.8
1426.845,490.5,3.799
1427.994,491.5,3.797
1429.166,492.5,3.796
1430.331,493.5,3.794
1431.489,494.5,3.793
1432.653,495.5,3.791
1433.826,496.5,3.789
1434.98,497.5,3.787
1436.153,498.5,3.785
1437.318,499.5,3.783
1438.477,500.5,3.782
1439.638,501.5,3.78
1440.809,502.5,3.777
1441.967,503.5,3.775
1443.13,504.5,3.774
1444.292,505.5,3.771
1445.457,506.5,3.769
1446.629,507.5,3.767
1447.785,508.5,3.764
1448.952,509.5,3.762
1450.109,510.5,3.76
1451.281,511.5,3.757
1452.451,512.5,3.755
1453.605,513.5,3.753
1454.763,514.5,3.75
1455.933,515.5,3.748
1457.092,516.5,3.746
1458.258,517.5,3.743
1459.426,518.5,3.741
1460.596,519.5,3.739
1461.753,520.5,3.736
1462.924,521.5,3.733
1464.071,522.5,3.731
1465.239,523.5,3.729
1466.401,524.5,3.726
1467.564,525.5,3.723
1468.729,526.5,3.72
1469.898,527.5,3.717
1471.064,528.5,3.715
1472.224,529.5,3.712
1473.392,530.5,3.709
1474.55,531.5,3.705
1475.712,532.5,3.703
1476.876,533.5,3.699
1478.039,534.5,3.696
1479.201,535.5,3.692
1480.369,536.5,3.689
1481.537,537.5,3.685
1482.701,538.5,3.682
1483.863,539.5,3.678
1485.016,540.5,3.675
1486.186,541.5,3.67
1487.36,542.5,3.667
1488.53,543.5,3.662
1489.697,544.5,3.658
1490.855,545.5,3.654
1492.02,546.5,3.65
1493.184,547.5,3.645
1494.356,548.5,3.641
1495.522,549.5,3.636
1496.694,550.5,3.631
1497.856,551.5,3.627
1499.021,552.5,3.621
1500.188,553.5,3.616
1501.357,554.5,3.611
1502.522,555.5,3.606
1503.691,556.5,3.601
1504.863,557.5,3.595
1506.021,558.5,3.589
1507.196,559.5,3.584
1508.372,560.5,3.578
1509.547,561.5,3.572
1510.709,562.5,3.565
1511.874,563.5,3.56
1513.034,564.5,3.554
1514.204,565.5,3.547
1515.383,566.5,3.541
1516.559,567.5,3.534
1517.724,568.5,3.527
1518.899,569.5,3.52
1520.059,570.5,3.513
1521.226,571.5,3.506
1522.401,572.5,3.498
1523.579,573.5,3.491
1524.744,574.5,3.483
1525.915,575.5,3.476
1527.085,576.5,3.467
1528.264,577.5,3.459
1529.438,578.5,3.451
1530.607,579.5,3.443
1531.776,580.5,3.434
1532.962,581.5,3.425
1534.124,582.5,3.416
1535.306,583.5,3.408
1536.483,584.5,3.398
1537.658,585.5,3.389
1538.823,586.5,3.379
1539.999,587.5,3.369
1541.166,588.5,3.36
1542.348,589.5,3.35
1543.528,590.5,3.339
1544.711,591.5,3.329
1545.885,592.5,3.318
1547.061,593.5,3.307
1548.232,594.5,3.297
1549.413,595.5,3.285
1550.588,596.5,3.274
1551.77,597.5,3.262
1552.948,598.5,3.251
1554.123,599.5,3.239
1555.299,600.5,3.227
1556.485,601.5,3.214
1557.66,602.5,3.202
1558.84,603.5,3.189
1560.018,604.5,3.176
1561.192,605.5,3.163
1562.375,606.5,3.149
1563.56,607.5,3.135
1564.739,608.5,3.121
1565.924,609.5,3.107
1567.098,610.5,3.093
1568.278,611.5,3.078
1569.463,612.5,3.063
1570.65,613.5,3.048
1571.843,614.5,3.032
1573.025,615.5,3.016
1574.202,616.5,3.0
1575.387,617.5,2.984
1576.574,618.5,2.967
1577.757,619.5,2.95
1578.941,620.5,2.933
1580.135,621.5,2.915
1581.315,622.5,2.897
1582.495,623.5,2.88
1583.692,624.5,2.861
1584.882,625.5,2.843
1586.07,626.5,2.824
1587.261,627.5,2.805
1588.45,628.5,2.785
1589.636,629.5,2.766
1590.829,630.5,2.746
1592.019,631.5,2.726
1593.208,632.5,2.705
1594.406,633.5,2.684
1595.607,634.5,2.663
1596.785,635.5,2.643
1597.969,636.5,2.622
1599.164,637.5,2.6
1600.366,638.5,2.577
1601.56,639.5,2.556
1602.75,640.5,2.534
1603.935,641.5,2.511
1605.134,642.5,2.488
1606.332,643.5,2.466
1607.529,644.5,2.442
1608.731,645.5,2.419
1609.925,646.5,2.396
1611.124,647.5,2.372
1612.324,648.5,2.348
1613.527,649.5,2.323
1614.723,650.5,2.299
1615.924,651.5,2.274
1617.13,652.5,2.248
1618.328,653.5,2.222
1619.531,654.5,2.196
1620.731,655.5,2.17
1621.934,656.5,2.143
1623.143,657.5,2.117
1624.351,658.5,2.088
1625.561,659.5,2.06
1626.772,660.5,2.032
1627.979,661.5,2.003
1629.176,662.5,1.974
1630.383,663.5,1.944
1631.588,664.5,1.914
1632.794,665.5,1.882
1634.012,666.5,1.851
1635.227,667.5,1.819
1636.433,668.5,1.786
1637.639,669.5,1.754
1638.845,670.5,1.72
1640.061,671.5,1.686
1641.265,672.5,1.652
1642.476,673.5,1.618
1643.686,674.5,1.583
1644.891,675.5,1.547
1646.091,676.5,1.512
1647.308,677.5,1.477
1648.514,678.5,1.442
1649.713,679.5,1.407
1650.91,680.5,1.373
1652.104,681.5,1.339
1653.314,682.5,1.306
1654.507,683.5,1.273
1655.7,684.5,1.242
1656.892,685.5,1.211
1658.09,686.5,1.181
1659.28,687.5,1.153
1660.471,688.5,1.127
1661.653,689.5,1.102
1662.84,690.5,1.078
1664.04,691.5,1.057
1665.227,692.5,1.038
1666.422,693.5,1.02
1667.616,694.5,1.004
1668.798,695.5,0.99
1669.995,696.5,0.977
1671.196,697.5,0.965
1672.384,698.5,0.956
1673.588,699.5,0.948
1674.783,700.5,0.94
1675.98,701.5,0.934
1677.186,702.5,0.928
1678.388,703.5,0.922
1679.59,704.5,0.917
1680.788,705.5,0.913
1681.99,706.5,0.908
1683.193,707.5,0.904
1684.401,708.5,0.901
1685.603,709.5,0.897
1686.809,710.5,0.894
1688.007,711.5,0.891
1689.218,712.5,0.887
1690.425,713.5,0.884
1691.627,714.5,0.881
1692.83,715.5,0.878
1694.035,716.5,0.875
1695.247,717.5,0.873
1696.446,718.5,0.87
1697.648,719.5,0.867
1698.869,720.5,0.864
1700.074,721.5,0.862
1701.283,722.5,0.859
1702.493,723.5,0.856
1703.698,724.5,0.854
1704.903,725.5,0.851
1706.117,726.5,0.849
1707.326,727.5,0.846
1708.539,728.5,0.844
1709.747,729.5,0.842
1710.945,730.5,0.839
1712.17,731.5,0.837
1713.375,732.5,0.834
1714.587,733.5,0.832
1715.799,734.5,0.829
1717.01,735.5,0.827
1718.217,736.5,0.825
1719.428,737.5,0.822
1720.637,738.5,0.82
1721.841,739.5,0.817
1723.066,740.5,0.816
1724.276,741.5,0.813
1725.495,742.5,0.811
1726.706,743.5,0.809
1727.913,744.5,0.807
1729.122,745.5,0.805
1730.337,746.5,0.802
1731.545,747.5,0.8
1732.771,748.5,0.798
1733.987,749.5,0.796
1735.196,750.5,0.795
1736.409,751.5,0.792
1737.616,752.5,0.79
1738.834,753.5,0.788
1740.046,754.5,0.787
1741.273,755.5,0.785
1742.486,756.5,0.783
1743.703,757.5,0.781
1744.906,758.5,0.779
1746.132,759.5,0.778
1747.345,760.5,0.776
1748.555,761.5,0.774
1749.782,762.5,0.772
1750.982,763.5,0.771
1752.208,764.5,0.77
1753.43,765.5,0.768
1754.637,766.5,0.766
1755.849,767.5,0.764
1757.06,768.5,0.763
1758.28,769.5,0.762
1759.5,770.5,0.76
1760.721,771.5,0.759
1761.936,772.5,0.757
1763.15,773.5,0.756
1764.357,774.5,0.755
1765.573,775.5,0.753
1766.785,776.5,0.752
1768.014,777.5,0.751
1769.221,778.5,0.749
1770.439,779.5,0.748
1771.656,780.5,0.746
1772.871,781.5,0.745
1774.092,782.5,0.744
1775.313,783.5,0.743
1776.525,784.5,0.741
1777.737,785.5,0.74
1778.958,786.5,0.739
1780.175,787.5,0.738
1781.398,788.5,0.737
1782.61,789.5,0.736
1783.825,790.5,0.735
1785.03,791.5,0.734
1786.249,792.5,0.733
1787.469,793.5,0.732
1788.69,794.5,0.73
1789.908,795.5,0.729
1791.116,796.5,0.729
1792.336,797.5,0.728
1793.552,798.5,0.726
1794.758,799.5,0.725
1795.98,800.5,0.724
1797.187,801.5,0.724
1798.406,802.5,0.723
1799.624,803.5,0.721
1800.835,804.5,0.72
1802.059,805.5,0.72
1803.273,806.5,0.719
1804.49,807.5,0.718
1805.704,808.5,0.717
1806.915,809.5,0.716
1808.131,810.5,0.715
1809.345,811.5,0.714
1810.549,812.5,0.713
1811.768,813.5,0.712
1812.978,814.5,0.711
1814.195,815.5,0.711
1815.418,816.5,0.71
1816.625,817.5,0.708
1817.845,818.5,0.708
1819.056,819.5,0.707
1820.273,820.5,0.706
1821.485,821.5,0.705
1822.698,822.5,0.704
1823.912,823.5,0.703
1825.132,824.5,0.703
1826.339,825.5,0.702
1827.552,826.5,0.701
1828.772,827.5,0.7
1829.976,828.5,0.699
1831.195,829.5,0.699
1832.402,830.5,0.698
1833.614,831.5,0.697
1834.83,832.5,0.696
1836.058,833.5,0.696
1837.272,834.5,0.695
1838.484,835.5,0.694
1839.695,836.5,0.693
1840.91,837.5,0.692
1842.126,838.5,0.692
1843.34,839.5,0.691
1844.56,840.5,0.69
1845.774,841.5,0.689
1846.985,842.5,0.689
1848.206,843.5,0.688
1849.417,844.5,0.687
1850.63,845.5,0.686
1851.84,846.5,0.686
1853.061,847.5,0.685
1854.277,848.5,0.684
1855.493,849.5,0.684
1856.7,850.5,0.683
1857.918,851.5,0.682
1859.128,852.5,0.681
1860.341,853.5,0.681
1861.559,854.5,0.68
1862.764,855.5,0.679
1863.984,856.5,0.679
1865.188,857.5,0.678
1866.408,858.5,0.678
1867.624,859.5,0.676
1868.839,860.5,0.676
1870.051,861.5,0.675
1871.258,862.5,0.675
1872.469,863.5,0.674
1873.682,864.5,0.673
1874.898,865.5,0.673
1876.108,866.5,0.672
1877.323,867.5,0.671
1878.54,868.5,0.67
1879.754,869.5,0.67
1880.961,870.5,0.669
1882.172,871.5,0.669
1883.377,872.5,0.668
1884.598,873.5,0.667
1885.807,874.5,0.667
1887.013,875.5,0.666
1888.229,876.5,0.666
1889.435,877.5,0.665
1890.646,878.5,0.664
1891.852,879.5,0.663
1893.068,880.5,0.663
1894.286,881.5,0.662
1895.492,882.5,0.662
1896.694,883.5,0.661
1897.913,884.5,0.66
1899.12,885.5,0.66
1900.333,886.5,0.659
1901.545,887.5,0.658
1902.751,888.5,0.658
1903.96,889.5,0.657
1905.175,890.5,0.657
1906.381,891.5,0.656
1907.588,892.5,0.655
1908.799,893.5,0.655
1910.006,894.5,0.655
1911.213,895.5,0.654
1912.435,896.5,0.654
1913.642,897.5,0.653
1914.844,898.5,0.652
1916.063,899.5,0.652
1917.269,900.5,0.651
1918.48,901.5,0.651
1919.683,902.5,0.65
1920.902,903.5,0.649
1922.108,904.5,0.649
1923.309,905.5,0.648
1924.515,906.5,0.648
1925.725,907.5,0.647
1926.931,908.5,0.647
1928.138,909.5,0.646
1929.348,910.5,0.646
1930.553,911.5,0.645
1931.755,912.5,0.645
1932.965,913.5,0.644
1934.173,914.5,0.644
1935.381,915.5,0.643
1936.594,916.5,0.642
1937.799,917.5,0.642
1938.996,918.5,0.642
1940.203,919.5,0.641
1941.41,920.5,0.641
1942.623,921.5,0.64
1943.825,922.5,0.64
1945.029,923.5,0.639
1946.239,924.5,0.639
1947.448,925.5,0.638
1948.661,926.5,0.638
1949.865,927.5,0.637
1951.062,928.5,0.637
1952.273,929.5,0.636
1953.477,930.5,0.636
1954.678,931.5,0.635
1955.883,932.5,0.635
1957.096,933.5,0.634
1958.295,934.5,0.634
1959.496,935.5,0.634
1960.701,936.5,0.633
1961.906,937.5,0.633
1963.117,938.5,0.632
1964.321,939.5,0.632
1965.529,940.5,0.631
1966.733,941.5,0.631
1967.936,942.5,0.631
1969.13,943.5,0.63
1970.338,944.5,0.63
1971.544,945.5,0.629
1972.746,946.5,0.629
1973.948,947.5,0.629
1975.144,948.5,0.628
1976.354,949.5,0.628
1977.558,950.5,0.627
1978.759,951.5,0.627
1979.965,952.5,0.627
1981.161,953.5,0.626
1982.373,954.5,0.626
1983.579,955.5,0.625
1984.779,956.5,0.625
1985.971,957.5,0.625
1987.175,958.5,0.624
1988.379,959.5,0.624
1989.584,960.5,0.624
1990.791,961.5,0.623
1991.998,962.5,0.623
1993.197,963.5,0.623
1994.394,964.5,0.623
1995.602,965.5,0.622
1996.811,966.5,0.622
1998.008,967.5,0.621
1999.203,968.5,0.621
2000.404,969.5,0.621
2001.608,970.5,0.62
2002.81,971.5,0.62
2004.016,972.5,0.62
2005.226,973.5,0.62
2006.425,974.5,0.619
2007.628,975.5,0.619
2008.832,976.5,0.619
2010.023,977.5,0.618
2011.235,978.5,0.618
2012.435,979.5,0.618
2013.639,980.5,0.617
2014.835,981.5,0.617
2016.04,982.5,0.617
2017.246,983.5,0.617
2018.448,984.5,0.616
2019.651,985.5,0.616
2020.854,986.5,0.616
2022.053,987.5,0.616
2023.263,988.5,0.615
2024.464,989.5,0.615
2025.663,990.5,0.615
2026.867,991.5,0.614
2028.063,992.5,0.614
2029.27,993.5,0.614
2030.472,994.5,0.614
2031.678,995.5,0.613
2032.871,996.5,0.613
2034.079,997.5,0.613
2035.275,998.5,0.613
2036.481,999.5,0.612
2037.677,1000.5,0.612
2038.877,1001.5,0.612
2040.084,1002.5,0.611
2041.286,1003.5,0.611
2042.487,1004.5,0.611
2043.686,1005.5,0.611
2044.887,1006.5,0.61
2046.087,1007.5,0.61
2047.288,1008.5,0.61
2048.484,1009.5,0.61
2049.689,1010.5,0.609
2050.894,1011.5,0.609
2052.089,1012.5,0.609
2053.29,1013.5,0.609
2054.5,1014.5,0.608
2055.701,1015.5,0.608
2056.902,1016.5,0.608
2058.099,1017.5,0.608
2059.301,1018.5,0.607
2060.501,1019.5,0.607
2061.699,1020.5,0.607
2062.898,1021.5,0.607
2064.104,1022.5,0.606
2065.302,1023.5,0.606
2066.495,1024.5,0.606
2067.694,1025.5,0.606
2068.895,1026.5,0.605
2070.098,1027.5,0.605
2071.296,1028.5,0.605
2072.491,1029.5,0.605
2073.696,1030.5,0.604
2074.895,1031.5,0.604
2076.099,1032.5,0.604
2077.303,1033.5,0.604
2078.501,1034.5,0.603
2079.704,1035.5,0.603
2080.901,1036.5,0.603
2082.092,1037.5,0.603
2083.296,1038.5,0.603
2084.493,1039.5,0.603
2085.694,1040.5,0.602
2086.899,1041.5,0.602
2088.084,1042.5,0.602
2089.289,1043.5,0.602
2090.493,1044.5,0.601
2091.691,1045.5,0.601
2092.878,1046.5,0.601
2094.082,1047.5,0.6
2095.275,1048.5,0.6
2096.477,1049.5,0.6
2097.678,1050.5,0.6
2098.876,1051.5,0.599
2100.059,1052.5,0.599
2101.268,1053.5,0.599
2102.47,1054.5,0.599
2103.597,1055.5,0.599
2105.504,1056.5,0.598
2107.491,1057.5,0.598
2109.366,1058.5,0.598
2111.38,1059.5,0.597
2113.61,1060.5,0.597
2116.07,1061.5,0.596
2118.831,1062.5,0.596
2124.0,1064.08,0.595
2144.0,1067.838,0.593
2164.0,1069.569,0.591
2184.0,1070.466,0.59
2204.0,1070.981,0.589
2224.0,1071.29,0.587
2244.0,1071.525,0.586
2264.0,1071.68,0.585
2284.0,1071.795,0.584
2304.0,1071.894,0.583
2324.0,1071.961,0.583
2344.0,1072.007,0.582
2364.0,1072.048,0.581
2384.0,1072.078,0.58
2404.0,1072.093,0.579
2424.0,1072.104,0.579