File: Wood/Calibration_Data/TUBS/TUBS_Wood_TGA_N2_40K_R1.csv
Time (s),Temperature (K),Mass (mg)
0.0,304.978,0.96
10.0,304.931,0.958
26.0,304.847,0.956
45.0,304.805,0.954
66.0,304.732,0.952
93.0,304.702,0.95
132.0,304.628,0.948
179.0,304.571,0.946
254.0,304.515,0.944
362.0,304.48,0.942
486.0,304.439,0.942
614.0,304.415,0.94
703.0,304.404,0.94
725.0,304.381,0.94
1013.0,304.392,0.94
1103.0,304.41,0.94
1154.0,304.416,0.94
1195.0,304.427,0.94
1203.788,305.0,0.938
1206.248,306.0,0.937
1208.865,307.0,0.937
1210.812,308.0,0.938
1212.617,309.0,0.939
1214.297,310.0,0.94
1215.946,311.0,0.941
1217.506,312.0,0.941
1219.063,313.0,0.942
1220.631,314.0,0.942
1222.169,315.0,0.942
1223.699,316.0,0.942
1225.232,317.0,0.941
1226.755,318.0,0.941
1228.273,319.0,0.941
1229.782,320.0,0.94
1231.312,321.0,0.94
1232.838,322.0,0.94
1234.34,323.0,0.939
1235.868,324.0,0.939
1237.365,325.0,0.939
1238.883,326.0,0.939
1240.405,327.0,0.938
1241.921,328.0,0.938
1243.422,329.0,0.938
1244.941,330.0,0.938
1246.478,331.0,0.938
1247.973,332.0,0.937
1249.498,333.0,0.937
1250.991,334.0,0.937
1252.516,335.0,0.937
1254.003,336.0,0.937
1255.535,337.0,0.936
1257.07,338.0,0.936
1258.569,339.0,0.936
1260.096,340.0,0.936
1261.603,341.0,0.935
1263.091,342.0,0.935
1264.615,343.0,0.935
1266.139,344.0,0.934
1267.641,345.0,0.934
1269.14,346.0,0.934
1270.673,347.0,0.934
1272.171,348.0,0.934
1273.698,349.0,0.933
1275.205,350.0,0.933
1276.699,351.0,0.933
1278.205,352.0,0.933
1279.748,353.0,0.932
1281.249,354.0,0.932
1282.77,355.0,0.932
1284.267,356.0,0.932
1285.783,357.0,0.931
1287.295,358.0,0.931
1288.801,359.0,0.931
1290.311,360.0,0.931
1291.797,361.0,0.931
1293.316,362.0,0.93
1294.829,363.0,0.93
1296.358,364.0,0.93
1297.848,365.0,0.93
1299.354,366.0,0.93
1300.871,367.0,0.93
1302.384,368.0,0.93
1303.874,369.0,0.929
1305.373,370.0,0.929
1306.873,371.0,0.929
1308.387,372.0,0.929
1309.9,373.0,0.929
1311.407,374.0,0.929
1312.911,375.0,0.929
1314.408,376.0,0.929
1315.925,377.0,0.929
1317.408,378.0,0.929
1318.917,379.0,0.929
1320.416,380.0,0.928
1321.919,381.0,0.928
1323.422,382.0,0.928
1324.924,383.0,0.928
1326.424,384.0,0.928
1327.932,385.0,0.928
1329.419,386.0,0.928
1330.932,387.0,0.928
1332.411,388.0,0.928
1333.926,389.0,0.928
1335.417,390.0,0.928
1336.921,391.0,0.928
1338.407,392.0,0.928
1339.909,393.0,0.928
1341.402,394.0,0.928
1342.894,395.0,0.928
1344.383,396.0,0.928
1345.887,397.0,0.928
1347.373,398.0,0.928
1348.868,399.0,0.928
1350.351,400.0,0.928
1351.85,401.0,0.928
1353.332,402.0,0.928
1354.824,403.0,0.928
1356.322,404.0,0.928
1357.813,405.0,0.928
1359.29,406.0,0.928
1360.781,407.0,0.928
1362.274,408.0,0.928
1363.752,409.0,0.928
1365.237,410.0,0.928
1366.715,411.0,0.928
1368.196,412.0,0.928
1369.688,413.0,0.928
1371.188,414.0,0.928
1372.66,415.0,0.927
1374.135,416.0,0.927
1375.63,417.0,0.927
1377.109,418.0,0.927
1378.583,419.0,0.927
1380.077,420.0,0.927
1381.549,421.0,0.927
1383.029,422.0,0.927
1384.496,423.0,0.927
1385.981,424.0,0.927
1387.466,425.0,0.927
1388.951,426.0,0.927
1390.431,427.0,0.927
1391.9,428.0,0.927
1393.381,429.0,0.927
1394.869,430.0,0.927
1396.347,431.0,0.927
1397.826,432.0,0.927
1399.293,433.0,0.927
1400.765,434.0,0.927
1402.233,435.0,0.927
1403.715,436.0,0.927
1405.194,437.0,0.927
1406.665,438.0,0.927
1408.13,439.0,0.927
1409.609,440.0,0.926
1411.092,441.0,0.926
1412.543,442.0,0.926
1414.025,443.0,0.926
1415.491,444.0,0.926
1416.969,445.0,0.926
1418.441,446.0,0.926
1419.895,447.0,0.926
1421.37,448.0,0.926
1422.831,449.0,0.926
1424.307,450.0,0.926
1425.764,451.0,0.925
1427.237,452.0,0.925
1428.704,453.0,0.925
1430.184,454.0,0.925
1431.634,455.0,0.925
1433.112,456.0,0.925
1434.562,457.0,0.925
1436.026,458.0,0.925
1437.496,459.0,0.924
1438.966,460.0,0.924
1440.409,461.0,0.924
1441.883,462.0,0.924
1443.355,463.0,0.924
1444.819,464.0,0.923
1446.279,465.0,0.923
1447.751,466.0,0.923
1449.201,467.0,0.923
1450.67,468.0,0.922
1452.125,469.0,0.922
1453.587,470.0,0.922
1455.035,471.0,0.922
1456.512,472.0,0.921
1457.977,473.0,0.921
1459.429,474.0,0.921
1460.888,475.0,0.921
1462.344,476.0,0.92
1463.813,477.0,0.92
1465.269,478.0,0.92
1466.725,479.0,0.919
1468.176,480.0,0.919
1469.641,481.0,0.919
1471.102,482.0,0.919
1472.564,483.0,0.918
1474.023,484.0,0.918
1475.479,485.0,0.918
1476.925,486.0,0.918
1478.401,487.0,0.917
1479.855,488.0,0.917
1481.305,489.0,0.917
1482.771,490.0,0.916
1484.231,491.0,0.916
1485.681,492.0,0.916
1487.137,493.0,0.915
1488.608,494.0,0.915
1490.056,495.0,0.915
1491.518,496.0,0.914
1492.979,497.0,0.914
1494.422,498.0,0.914
1495.886,499.0,0.914
1497.347,500.0,0.913
1498.811,501.0,0.913
1500.262,502.0,0.913
1501.711,503.0,0.912
1503.172,504.0,0.912
1504.626,505.0,0.912
1506.093,506.0,0.912
1507.547,507.0,0.911
1508.994,508.0,0.911
1510.46,509.0,0.911
1511.918,510.0,0.91
1513.381,511.0,0.91
1514.842,512.0,0.909
1516.308,513.0,0.909
1517.767,514.0,0.908
1519.218,515.0,0.908
1520.686,516.0,0.907
1522.14,517.0,0.907
1523.609,518.0,0.906
1525.062,519.0,0.906
1526.514,520.0,0.905
1527.972,521.0,0.905
1529.426,522.0,0.904
1530.891,523.0,0.904
1532.348,524.0,0.903
1533.805,525.0,0.902
1535.276,526.0,0.902
1536.738,527.0,0.901
1538.206,528.0,0.901
1539.66,529.0,0.9
1541.124,530.0,0.899
1542.584,531.0,0.898
1544.061,532.0,0.898
1545.507,533.0,0.897
1546.981,534.0,0.896
1548.437,535.0,0.896
1549.896,536.0,0.895
1551.363,537.0,0.894
1552.828,538.0,0.893
1554.292,539.0,0.892
1555.749,540.0,0.891
1557.217,541.0,0.89
1558.682,542.0,0.889
1560.154,543.0,0.888
1561.607,544.0,0.887
1563.067,545.0,0.886
1564.532,546.0,0.885
1566.013,547.0,0.884
1567.465,548.0,0.883
1568.934,549.0,0.882
1570.402,550.0,0.881
1571.872,551.0,0.879
1573.336,552.0,0.878
1574.8,553.0,0.877
1576.268,554.0,0.876
1577.749,555.0,0.874
1579.207,556.0,0.873
1580.666,557.0,0.871
1582.142,558.0,0.87
1583.614,559.0,0.868
1585.077,560.0,0.867
1586.543,561.0,0.865
1588.015,562.0,0.864
1589.481,563.0,0.863
1590.953,564.0,0.861
1592.425,565.0,0.86
1593.884,566.0,0.858
1595.363,567.0,0.857
1596.84,568.0,0.855
1598.3,569.0,0.854
1599.769,570.0,0.851
1601.245,571.0,0.85
1602.721,572.0,0.848
1604.183,573.0,0.847
1605.657,574.0,0.845
1607.132,575.0,0.843
1608.614,576.0,0.841
1610.089,577.0,0.839
1611.549,578.0,0.837
1613.021,579.0,0.835
1614.504,580.0,0.833
1615.984,581.0,0.831
1617.464,582.0,0.829
1618.941,583.0,0.827
1620.414,584.0,0.825
1621.891,585.0,0.822
1623.361,586.0,0.82
1624.828,587.0,0.818
1626.307,588.0,0.815
1627.778,589.0,0.813
1629.273,590.0,0.81
1630.751,591.0,0.808
1632.232,592.0,0.806
1633.709,593.0,0.803
1635.187,594.0,0.801
1636.668,595.0,0.798
1638.146,596.0,0.795
1639.62,597.0,0.792
1641.094,598.0,0.789
1642.579,599.0,0.786
1644.063,600.0,0.783
1645.557,601.0,0.78
1647.036,602.0,0.777
1648.516,603.0,0.774
1649.999,604.0,0.77
1651.478,605.0,0.767
1652.963,606.0,0.763
1654.454,607.0,0.76
1655.934,608.0,0.756
1657.418,609.0,0.753
1658.904,610.0,0.749
1660.379,611.0,0.745
1661.887,612.0,0.741
1663.358,613.0,0.737
1664.869,614.0,0.732
1666.338,615.0,0.729
1667.824,616.0,0.725
1669.308,617.0,0.72
1670.797,618.0,0.716
1672.28,619.0,0.711
1673.773,620.0,0.707
1675.265,621.0,0.702
1676.755,622.0,0.698
1678.254,623.0,0.693
1679.737,624.0,0.688
1681.231,625.0,0.683
1682.717,626.0,0.678
1684.208,627.0,0.673
1685.687,628.0,0.668
1687.192,629.0,0.663
1688.679,630.0,0.658
1690.185,631.0,0.653
1691.67,632.0,0.648
1693.162,633.0,0.642
1694.661,634.0,0.637
1696.147,635.0,0.632
1697.655,636.0,0.626
1699.145,637.0,0.621
1700.63,638.0,0.615
1702.138,639.0,0.609
1703.626,640.0,0.604
1705.122,641.0,0.599
1706.626,642.0,0.592
1708.127,643.0,0.586
1709.621,644.0,0.581
1711.127,645.0,0.575
1712.615,646.0,0.57
1714.117,647.0,0.563
1715.613,648.0,0.557
1717.114,649.0,0.551
1718.616,650.0,0.545
1720.12,651.0,0.538
1721.623,652.0,0.532
1723.131,653.0,0.525
1724.636,654.0,0.519
1726.132,655.0,0.512
1727.64,656.0,0.506
1729.154,657.0,0.499
1730.666,658.0,0.492
1732.161,659.0,0.485
1733.675,660.0,0.478
1735.179,661.0,0.471
1736.686,662.0,0.464
1738.207,663.0,0.456
1739.705,664.0,0.448
1741.211,665.0,0.441
1742.726,666.0,0.433
1744.237,667.0,0.425
1745.747,668.0,0.417
1747.256,669.0,0.409
1748.765,670.0,0.401
1750.267,671.0,0.393
1751.779,672.0,0.384
1753.305,673.0,0.376
1754.797,674.0,0.368
1756.312,675.0,0.359
1757.82,676.0,0.351
1759.34,677.0,0.343
1760.839,678.0,0.335
1762.35,679.0,0.327
1763.875,680.0,0.319
1765.388,681.0,0.311
1766.889,682.0,0.304
1768.393,683.0,0.297
1769.894,684.0,0.29
1771.396,685.0,0.284
1772.907,686.0,0.278
1774.422,687.0,0.272
1775.93,688.0,0.267
1777.427,689.0,0.263
1778.951,690.0,0.258
1780.452,691.0,0.254
1781.956,692.0,0.251
1783.463,693.0,0.248
1784.958,694.0,0.245
1786.474,695.0,0.243
1787.995,696.0,0.241
1789.507,697.0,0.239
1791.018,698.0,0.237
1792.518,699.0,0.236
1794.027,700.0,0.235
1795.537,701.0,0.234
1797.062,702.0,0.233
1798.575,703.0,0.232
1800.076,704.0,0.232
1801.591,705.0,0.231
1803.111,706.0,0.23
1804.619,707.0,0.229
1806.134,708.0,0.229
1807.648,709.0,0.228
1809.156,710.0,0.227
1810.674,711.0,0.227
1812.181,712.0,0.226
1813.699,713.0,0.226
1815.218,714.0,0.225
1816.722,715.0,0.224
1818.235,716.0,0.224
1819.733,717.0,0.223
1821.264,718.0,0.223
1822.766,719.0,0.222
1824.291,720.0,0.222
1825.828,721.0,0.221
1827.329,722.0,0.221
1828.845,723.0,0.22
1830.366,724.0,0.22
1831.87,725.0,0.219
1833.384,726.0,0.219
1834.904,727.0,0.218
1836.417,728.0,0.217
1837.924,729.0,0.217
1839.459,730.0,0.216
1840.961,731.0,0.216
1842.479,732.0,0.215
1844.0,733.0,0.215
1845.515,734.0,0.214
1847.027,735.0,0.214
1848.548,736.0,0.213
1850.059,737.0,0.213
1851.575,738.0,0.213
1853.086,739.0,0.212
1854.613,740.0,0.212
1856.123,741.0,0.211
1857.652,742.0,0.211
1859.154,743.0,0.211
1860.684,744.0,0.21
1862.198,745.0,0.21
1863.722,746.0,0.209
1865.248,747.0,0.209
1866.752,748.0,0.208
1868.267,749.0,0.208
1869.793,750.0,0.207
1871.306,751.0,0.207
1872.822,752.0,0.206
1874.341,753.0,0.206
1875.862,754.0,0.205
1877.39,755.0,0.205
1878.897,756.0,0.205
1880.414,757.0,0.205
1881.921,758.0,0.204
1883.447,759.0,0.204
1884.969,760.0,0.203
1886.473,761.0,0.203
1887.989,762.0,0.203
1889.509,763.0,0.202
1891.037,764.0,0.202
1892.559,765.0,0.202
1894.072,766.0,0.202
1895.587,767.0,0.201
1897.105,768.0,0.201
1898.625,769.0,0.201
1900.13,770.0,0.2
1901.655,771.0,0.2
1903.171,772.0,0.2
1904.692,773.0,0.199
1906.204,774.0,0.199
1907.723,775.0,0.199
1909.235,776.0,0.198
1910.748,777.0,0.198
1912.268,778.0,0.198
1913.783,779.0,0.198
1915.306,780.0,0.197
1916.823,781.0,0.197
1918.335,782.0,0.197
1919.852,783.0,0.196
1921.376,784.0,0.196
1922.888,785.0,0.196
1924.406,786.0,0.196
1925.922,787.0,0.195
1927.431,788.0,0.195
1928.953,789.0,0.195
1930.475,790.0,0.195
1931.98,791.0,0.194
1933.508,792.0,0.194
1935.03,793.0,0.194
1936.527,794.0,0.194
1938.059,795.0,0.194
1939.575,796.0,0.193
1941.084,797.0,0.193
1942.603,798.0,0.193
1944.12,799.0,0.193
1945.641,800.0,0.192
1947.154,801.0,0.192
1948.666,802.0,0.192
1950.178,803.0,0.192
1951.702,804.0,0.192
1953.219,805.0,0.191
1954.741,806.0,0.191
1956.248,807.0,0.191
1957.767,808.0,0.191
1959.286,809.0,0.191
1960.805,810.0,0.19
1962.32,811.0,0.19
1963.831,812.0,0.19
1965.354,813.0,0.19
1966.877,814.0,0.19
1968.373,815.0,0.189
1969.89,816.0,0.189
1971.413,817.0,0.189
1972.918,818.0,0.189
1974.439,819.0,0.189
1975.953,820.0,0.188
1977.48,821.0,0.188
1978.989,822.0,0.188
1980.5,823.0,0.188
1982.033,824.0,0.188
1983.548,825.0,0.187
1985.063,826.0,0.187
1986.574,827.0,0.187
1988.091,828.0,0.187
1989.608,829.0,0.187
1991.111,830.0,0.187
1992.631,831.0,0.186
1994.146,832.0,0.186
1995.658,833.0,0.186
1997.178,834.0,0.186
1998.687,835.0,0.186
2000.202,836.0,0.186
2001.721,837.0,0.186
2003.236,838.0,0.185
2004.75,839.0,0.185
2006.256,840.0,0.185
2007.773,841.0,0.185
2009.294,842.0,0.185
2010.806,843.0,0.185
2012.323,844.0,0.184
2013.83,845.0,0.184
2015.346,846.0,0.184
2016.868,847.0,0.184
2018.376,848.0,0.184
2019.895,849.0,0.183
2021.403,850.0,0.183
2022.935,851.0,0.183
2024.447,852.0,0.183
2025.948,853.0,0.183
2027.458,854.0,0.183
2029.0,855.0,0.183
2030.514,856.0,0.183
2032.033,857.0,0.182
2033.549,858.0,0.182
2035.06,859.0,0.182
2036.568,860.0,0.182
2038.075,861.0,0.182
2039.598,862.0,0.182
2041.11,863.0,0.181
2042.629,864.0,0.181
2044.13,865.0,0.181
2045.646,866.0,0.181
2047.163,867.0,0.181
2048.682,868.0,0.18
2050.195,869.0,0.18
2051.701,870.0,0.18
2053.207,871.0,0.18
2054.719,872.0,0.18
2056.235,873.0,0.18
2057.734,874.0,0.18
2059.255,875.0,0.18
2060.772,876.0,0.179
2062.284,877.0,0.179
2063.8,878.0,0.179
2065.321,879.0,0.179
2066.819,880.0,0.179
2068.336,881.0,0.179
2069.84,882.0,0.179
2071.346,883.0,0.178
2072.859,884.0,0.178
2074.38,885.0,0.178
2075.892,886.0,0.178
2077.394,887.0,0.178
2078.907,888.0,0.177
2080.425,889.0,0.177
2081.928,890.0,0.177
2083.424,891.0,0.177
2084.941,892.0,0.177
2086.447,893.0,0.177
2087.955,894.0,0.177
2089.459,895.0,0.177
2090.977,896.0,0.177
2092.484,897.0,0.176
2093.987,898.0,0.176
2095.499,899.0,0.176
2097.005,900.0,0.176
2098.511,901.0,0.176
2100.029,902.0,0.176
2101.533,903.0,0.176
2103.041,904.0,0.176
2104.542,905.0,0.176
2106.054,906.0,0.175
2107.559,907.0,0.175
2109.065,908.0,0.175
2110.571,909.0,0.175
2112.075,910.0,0.175
2113.585,911.0,0.175
2115.086,912.0,0.175
2116.595,913.0,0.175
2118.107,914.0,0.175
2119.608,915.0,0.174
2121.122,916.0,0.174
2122.626,917.0,0.174
2124.123,918.0,0.174
2125.639,919.0,0.174
2127.148,920.0,0.174
2128.653,921.0,0.174
2130.157,922.0,0.174
2131.663,923.0,0.173
2133.177,924.0,0.173
2134.679,925.0,0.173
2136.185,926.0,0.173
2137.687,927.0,0.173
2139.193,928.0,0.173
2140.694,929.0,0.173
2142.205,930.0,0.173
2143.711,931.0,0.173
2145.21,932.0,0.172
2146.717,933.0,0.172
2148.23,934.0,0.172
2149.733,935.0,0.172
2151.234,936.0,0.172
2152.749,937.0,0.172
2154.245,938.0,0.172
2155.757,939.0,0.172
2157.252,940.0,0.172
2158.757,941.0,0.172
2160.267,942.0,0.171
2161.772,943.0,0.171
2163.268,944.0,0.171
2164.772,945.0,0.171
2166.285,946.0,0.171
2167.788,947.0,0.171
2169.287,948.0,0.171
2170.789,949.0,0.17
2172.293,950.0,0.17
2173.803,951.0,0.17
2175.297,952.0,0.17
2176.799,953.0,0.17
2178.308,954.0,0.17
2179.808,955.0,0.17
2181.313,956.0,0.17
2182.83,957.0,0.17
2184.332,958.0,0.17
2185.836,959.0,0.17
2187.339,960.0,0.17
2188.845,961.0,0.17
2190.336,962.0,0.17
2191.838,963.0,0.169
2193.337,964.0,0.169
2194.842,965.0,0.169
2196.329,966.0,0.169
2197.847,967.0,0.169
2199.352,968.0,0.169
2200.846,969.0,0.169
2202.35,970.0,0.169
2203.857,971.0,0.169
2205.361,972.0,0.169
2206.853,973.0,0.168
2208.355,974.0,0.168
2209.862,975.0,0.168
2211.361,976.0,0.168
2212.863,977.0,0.168
2214.355,978.0,0.168
2215.847,979.0,0.168
2217.36,980.0,0.168
2218.866,981.0,0.168
2220.362,982.0,0.168
2221.872,983.0,0.168
2223.359,984.0,0.168
2224.871,985.0,0.167
2226.361,986.0,0.167
2227.858,987.0,0.167
2229.366,988.0,0.167
2230.871,989.0,0.167
2232.375,990.0,0.167
2233.867,991.0,0.167
2235.376,992.0,0.167
2236.882,993.0,0.167
2238.381,994.0,0.167
2239.872,995.0,0.167
2241.371,996.0,0.166
2242.868,997.0,0.166
2244.381,998.0,0.166
2245.88,999.0,0.166
2247.376,1000.0,0.166
2248.886,1001.0,0.166
2250.389,1002.0,0.166
2251.887,1003.0,0.166
2253.392,1004.0,0.166
2254.887,1005.0,0.166
2256.387,1006.0,0.166
2257.89,1007.0,0.166
2259.38,1008.0,0.165
2260.893,1009.0,0.165
2262.379,1010.0,0.165
2263.87,1011.0,0.165
2265.376,1012.0,0.165
2266.871,1013.0,0.165
2268.363,1014.0,0.165
2269.871,1015.0,0.165
2271.369,1016.0,0.165
2272.868,1017.0,0.165
2274.365,1018.0,0.165
2275.857,1019.0,0.164
2277.362,1020.0,0.164
2278.853,1021.0,0.164
2280.359,1022.0,0.164
2281.853,1023.0,0.164
2283.352,1024.0,0.164
2284.845,1025.0,0.164
2286.332,1026.0,0.164
2287.835,1027.0,0.164
2289.334,1028.0,0.164
2290.841,1029.0,0.164
2292.335,1030.0,0.164
2293.819,1031.0,0.164
2295.334,1032.0,0.164
2296.834,1033.0,0.163
2298.326,1034.0,0.163
2299.833,1035.0,0.163
2301.324,1036.0,0.163
2302.83,1037.0,0.163
2304.326,1038.0,0.163
2305.822,1039.0,0.163
2307.324,1040.0,0.163
2308.826,1041.0,0.163
2310.316,1042.0,0.163
2311.812,1043.0,0.163
2313.309,1044.0,0.163
2314.808,1045.0,0.163
2316.304,1046.0,0.163
2317.793,1047.0,0.163
2319.291,1048.0,0.163
2320.805,1049.0,0.162
2322.3,1050.0,0.162
2323.803,1051.0,0.162
2325.288,1052.0,0.162
2326.807,1053.0,0.162
2328.304,1054.0,0.162
2329.796,1055.0,0.162
2331.291,1056.0,0.162
2332.798,1057.0,0.162
2334.263,1058.0,0.162
2336.807,1059.0,0.162
2339.227,1060.0,0.162
2341.559,1061.0,0.161
2344.134,1062.0,0.161
2347.018,1063.0,0.161
2350.237,1064.0,0.161
2353.937,1065.0,0.161
2365.0,1067.242,0.161
2385.0,1069.562,0.16
2405.0,1070.715,0.16
2425.0,1071.355,0.159
2445.0,1071.728,0.159
2465.0,1071.971,0.159
2485.0,1072.135,0.158
2505.0,1072.257,0.158
2525.0,1072.363,0.158
2545.0,1072.433,0.158
2565.0,1072.506,0.158
2585.0,1072.557,0.157
2605.0,1072.588,0.157
2625.0,1072.635,0.157
2645.0,1072.664,0.157
2655.0,1072.671,0.157