File: Wood/Calibration_Data/TUBS/TUBS_TGA_N2_50K_R3.csv
Time (s),Temperature (K),Mass (mg)
0.0,305.033,1.03
2.0,305.014,1.03
4.0,305.008,1.03
6.0,304.996,1.029
8.0,304.987,1.029
10.0,304.969,1.029
12.0,304.976,1.029
14.0,304.964,1.028
16.0,304.944,1.028
18.0,304.943,1.028
20.0,304.921,1.028
22.0,304.911,1.028
24.0,304.919,1.027
26.0,304.915,1.027
28.0,304.915,1.027
30.0,304.893,1.027
32.0,304.885,1.027
34.0,304.887,1.027
36.0,304.853,1.026
38.0,304.849,1.026
40.0,304.866,1.026
42.0,304.844,1.026
44.0,304.824,1.026
46.0,304.84,1.026
48.0,304.829,1.026
50.0,304.818,1.025
52.0,304.819,1.025
54.0,304.818,1.025
56.0,304.806,1.025
58.0,304.806,1.025
60.0,304.794,1.025
62.0,304.8,1.024
64.0,304.79,1.024
66.0,304.788,1.024
68.0,304.782,1.024
70.0,304.776,1.024
72.0,304.769,1.024
74.0,304.763,1.024
76.0,304.761,1.024
78.0,304.754,1.023
80.0,304.76,1.023
82.0,304.744,1.023
84.0,304.744,1.023
86.0,304.748,1.023
88.0,304.735,1.023
90.0,304.747,1.023
92.0,304.724,1.022
94.0,304.724,1.022
96.0,304.709,1.022
98.0,304.711,1.022
100.0,304.709,1.022
102.0,304.7,1.022
104.0,304.698,1.022
106.0,304.693,1.022
108.0,304.704,1.022
110.0,304.681,1.022
112.0,304.691,1.022
114.0,304.688,1.022
116.0,304.673,1.022
118.0,304.683,1.021
120.0,304.668,1.021
122.0,304.664,1.021
124.0,304.665,1.021
126.0,304.666,1.021
128.0,304.662,1.021
130.0,304.657,1.021
132.0,304.66,1.021
134.0,304.647,1.021
136.0,304.668,1.021
138.0,304.648,1.021
140.0,304.649,1.02
142.0,304.642,1.02
144.0,304.644,1.02
146.0,304.643,1.02
148.0,304.639,1.02
150.0,304.63,1.02
152.0,304.644,1.02
154.0,304.621,1.02
156.0,304.626,1.02
158.0,304.613,1.02
160.0,304.613,1.02
162.0,304.623,1.02
164.0,304.607,1.02
166.0,304.624,1.02
168.0,304.598,1.02
170.0,304.598,1.02
172.0,304.601,1.02
174.0,304.582,1.019
176.0,304.58,1.019
178.0,304.595,1.019
180.0,304.6,1.019
182.0,304.598,1.019
184.0,304.57,1.019
186.0,304.583,1.019
188.0,304.587,1.019
190.0,304.575,1.019
192.0,304.577,1.019
194.0,304.575,1.019
196.0,304.573,1.019
198.0,304.571,1.019
200.0,304.566,1.019
202.0,304.571,1.019
204.0,304.563,1.019
206.0,304.558,1.019
208.0,304.569,1.019
210.0,304.565,1.019
212.0,304.56,1.019
214.0,304.547,1.018
216.0,304.551,1.018
218.0,304.563,1.018
220.0,304.553,1.018
222.0,304.54,1.018
224.0,304.558,1.018
226.0,304.557,1.018
228.0,304.554,1.018
230.0,304.547,1.018
232.0,304.542,1.018
234.0,304.548,1.018
236.0,304.536,1.018
238.0,304.536,1.018
240.0,304.541,1.018
242.0,304.536,1.018
244.0,304.543,1.018
246.0,304.515,1.018
248.0,304.51,1.018
250.0,304.518,1.018
252.0,304.522,1.018
254.0,304.519,1.018
256.0,304.519,1.018
258.0,304.511,1.018
260.0,304.514,1.018
262.0,304.523,1.018
264.0,304.517,1.018
266.0,304.526,1.018
268.0,304.52,1.018
270.0,304.51,1.017
272.0,304.505,1.017
274.0,304.508,1.017
276.0,304.508,1.017
278.0,304.516,1.017
280.0,304.513,1.017
282.0,304.508,1.017
284.0,304.51,1.017
286.0,304.488,1.017
288.0,304.497,1.017
290.0,304.497,1.017
292.0,304.492,1.017
294.0,304.473,1.017
296.0,304.489,1.017
298.0,304.5,1.017
300.0,304.497,1.017
302.0,304.51,1.017
304.0,304.493,1.017
306.0,304.509,1.017
308.0,304.488,1.017
310.0,304.489,1.017
312.0,304.507,1.017
314.0,304.49,1.016
316.0,304.504,1.016
318.0,304.487,1.016
320.0,304.486,1.016
322.0,304.497,1.016
324.0,304.492,1.016
326.0,304.486,1.016
328.0,304.486,1.016
330.0,304.49,1.016
332.0,304.493,1.016
334.0,304.486,1.016
336.0,304.491,1.016
338.0,304.504,1.016
340.0,304.475,1.016
342.0,304.477,1.016
344.0,304.475,1.016
346.0,304.486,1.016
348.0,304.473,1.016
350.0,304.473,1.016
352.0,304.484,1.016
354.0,304.477,1.016
356.0,304.478,1.016
358.0,304.489,1.016
360.0,304.49,1.016
362.0,304.491,1.016
364.0,304.481,1.016
366.0,304.471,1.016
368.0,304.486,1.016
370.0,304.472,1.016
372.0,304.467,1.016
374.0,304.467,1.016
376.0,304.473,1.016
378.0,304.48,1.016
380.0,304.471,1.016
382.0,304.472,1.016
384.0,304.47,1.016
386.0,304.48,1.016
388.0,304.465,1.016
390.0,304.464,1.016
392.0,304.472,1.016
394.0,304.458,1.016
396.0,304.477,1.016
398.0,304.455,1.016
400.0,304.46,1.016
402.0,304.457,1.016
404.0,304.456,1.016
406.0,304.462,1.016
408.0,304.469,1.016
410.0,304.47,1.016
412.0,304.463,1.016
414.0,304.455,1.016
416.0,304.461,1.015
418.0,304.474,1.015
420.0,304.473,1.015
422.0,304.469,1.015
424.0,304.462,1.015
426.0,304.457,1.015
428.0,304.46,1.015
430.0,304.473,1.015
432.0,304.461,1.015
434.0,304.455,1.015
436.0,304.454,1.015
438.0,304.472,1.015
440.0,304.456,1.015
442.0,304.45,1.015
444.0,304.452,1.015
446.0,304.46,1.015
448.0,304.47,1.015
450.0,304.477,1.015
452.0,304.468,1.015
454.0,304.473,1.015
456.0,304.462,1.015
458.0,304.456,1.015
460.0,304.461,1.015
462.0,304.453,1.015
464.0,304.444,1.015
466.0,304.473,1.015
468.0,304.447,1.015
470.0,304.449,1.015
472.0,304.44,1.015
474.0,304.466,1.015
476.0,304.449,1.015
478.0,304.454,1.015
480.0,304.444,1.015
482.0,304.467,1.015
484.0,304.452,1.015
486.0,304.441,1.015
488.0,304.452,1.015
490.0,304.434,1.015
492.0,304.448,1.015
494.0,304.462,1.015
496.0,304.444,1.015
498.0,304.438,1.015
500.0,304.461,1.015
502.0,304.466,1.015
504.0,304.444,1.015
506.0,304.445,1.015
508.0,304.459,1.015
510.0,304.441,1.015
512.0,304.444,1.015
514.0,304.44,1.015
516.0,304.448,1.015
518.0,304.424,1.015
520.0,304.449,1.015
522.0,304.452,1.015
524.0,304.443,1.015
526.0,304.432,1.015
528.0,304.439,1.015
530.0,304.444,1.015
532.0,304.441,1.015
534.0,304.441,1.015
536.0,304.441,1.015
538.0,304.444,1.015
540.0,304.447,1.015
542.0,304.437,1.015
544.0,304.437,1.015
546.0,304.439,1.015
548.0,304.431,1.015
550.0,304.444,1.015
552.0,304.437,1.014
554.0,304.441,1.014
556.0,304.443,1.014
558.0,304.438,1.014
560.0,304.439,1.014
562.0,304.445,1.014
564.0,304.442,1.014
566.0,304.445,1.014
568.0,304.443,1.014
570.0,304.456,1.014
572.0,304.442,1.014
574.0,304.441,1.014
576.0,304.436,1.014
578.0,304.444,1.014
580.0,304.433,1.014
582.0,304.439,1.014
584.0,304.45,1.014
586.0,304.434,1.014
588.0,304.438,1.014
590.0,304.432,1.014
592.0,304.448,1.014
594.0,304.45,1.014
596.0,304.453,1.014
598.0,304.435,1.014
600.0,304.44,1.014
602.0,304.437,1.014
604.0,304.444,1.014
606.0,304.442,1.014
608.0,304.42,1.014
610.0,304.439,1.014
612.0,304.437,1.014
614.0,304.429,1.014
616.0,304.432,1.014
618.0,304.447,1.014
620.0,304.442,1.014
622.0,304.431,1.014
624.0,304.451,1.014
626.0,304.444,1.014
628.0,304.442,1.014
630.0,304.426,1.014
632.0,304.427,1.014
634.0,304.435,1.014
636.0,304.444,1.014
638.0,304.453,1.014
640.0,304.44,1.014
642.0,304.442,1.014
644.0,304.45,1.014
646.0,304.436,1.014
648.0,304.442,1.014
650.0,304.437,1.014
652.0,304.427,1.014
654.0,304.43,1.014
656.0,304.436,1.014
658.0,304.447,1.014
660.0,304.444,1.014
662.0,304.426,1.014
664.0,304.43,1.014
666.0,304.429,1.014
668.0,304.42,1.014
670.0,304.441,1.014
672.0,304.434,1.014
674.0,304.434,1.014
676.0,304.43,1.014
678.0,304.424,1.014
680.0,304.43,1.014
682.0,304.424,1.014
684.0,304.417,1.014
686.0,304.433,1.014
688.0,304.443,1.014
690.0,304.416,1.014
692.0,304.423,1.014
694.0,304.422,1.014
696.0,304.434,1.014
698.0,304.424,1.014
700.0,304.436,1.014
702.0,304.42,1.014
704.0,304.423,1.014
706.0,304.443,1.014
708.0,304.434,1.014
710.0,304.433,1.014
712.0,304.426,1.014
714.0,304.438,1.014
716.0,304.436,1.014
718.0,304.435,1.014
720.0,304.439,1.014
722.0,304.433,1.014
724.0,304.424,1.014
726.0,304.413,1.014
728.0,304.435,1.014
730.0,304.435,1.014
732.0,304.415,1.014
734.0,304.434,1.014
736.0,304.436,1.014
738.0,304.43,1.014
740.0,304.431,1.014
742.0,304.436,1.014
744.0,304.435,1.014
746.0,304.445,1.014
748.0,304.439,1.014
750.0,304.436,1.014
752.0,304.435,1.014
754.0,304.436,1.014
756.0,304.433,1.014
758.0,304.444,1.014
760.0,304.433,1.014
762.0,304.433,1.014
764.0,304.429,1.014
766.0,304.435,1.014
768.0,304.436,1.014
770.0,304.433,1.014
772.0,304.429,1.014
774.0,304.444,1.014
776.0,304.429,1.014
778.0,304.425,1.014
780.0,304.443,1.014
782.0,304.438,1.014
784.0,304.43,1.014
786.0,304.441,1.014
788.0,304.435,1.014
790.0,304.451,1.014
792.0,304.465,1.014
794.0,304.435,1.014
796.0,304.446,1.014
798.0,304.441,1.014
800.0,304.447,1.014
802.0,304.443,1.014
804.0,304.434,1.014
806.0,304.441,1.014
808.0,304.443,1.014
810.0,304.438,1.014
812.0,304.444,1.014
814.0,304.439,1.014
816.0,304.442,1.014
818.0,304.444,1.014
820.0,304.432,1.014
822.0,304.437,1.014
824.0,304.448,1.014
826.0,304.44,1.014
828.0,304.447,1.014
830.0,304.43,1.014
832.0,304.429,1.014
834.0,304.439,1.014
836.0,304.43,1.014
838.0,304.43,1.014
840.0,304.439,1.014
842.0,304.42,1.014
844.0,304.434,1.014
846.0,304.447,1.014
848.0,304.433,1.014
850.0,304.434,1.014
852.0,304.432,1.014
854.0,304.437,1.014
856.0,304.425,1.014
858.0,304.439,1.014
860.0,304.43,1.014
862.0,304.429,1.014
864.0,304.424,1.014
866.0,304.427,1.014
868.0,304.427,1.014
870.0,304.429,1.014
872.0,304.437,1.014
874.0,304.44,1.014
876.0,304.434,1.014
878.0,304.432,1.014
880.0,304.422,1.014
882.0,304.41,1.013
884.0,304.434,1.013
886.0,304.435,1.013
888.0,304.44,1.013
890.0,304.441,1.013
892.0,304.424,1.013
894.0,304.422,1.013
896.0,304.432,1.013
898.0,304.425,1.013
900.0,304.443,1.013
902.0,304.429,1.013
904.0,304.424,1.013
906.0,304.426,1.013
908.0,304.431,1.013
910.0,304.43,1.013
912.0,304.423,1.013
914.0,304.429,1.013
916.0,304.425,1.013
918.0,304.423,1.013
920.0,304.423,1.013
922.0,304.448,1.013
924.0,304.442,1.013
926.0,304.449,1.013
928.0,304.451,1.013
930.0,304.438,1.013
932.0,304.439,1.013
934.0,304.436,1.013
936.0,304.425,1.013
938.0,304.443,1.013
940.0,304.446,1.013
942.0,304.446,1.013
944.0,304.438,1.013
946.0,304.438,1.013
948.0,304.433,1.013
950.0,304.428,1.013
952.0,304.443,1.013
954.0,304.437,1.013
956.0,304.446,1.013
958.0,304.441,1.013
960.0,304.445,1.013
962.0,304.446,1.013
964.0,304.436,1.013
966.0,304.433,1.013
968.0,304.433,1.013
970.0,304.433,1.013
972.0,304.436,1.013
974.0,304.445,1.013
976.0,304.438,1.013
978.0,304.442,1.013
980.0,304.429,1.013
982.0,304.45,1.013
984.0,304.447,1.013
986.0,304.446,1.013
988.0,304.446,1.013
990.0,304.432,1.013
992.0,304.444,1.013
994.0,304.422,1.013
996.0,304.425,1.013
998.0,304.427,1.013
1000.0,304.415,1.013
1002.0,304.434,1.013
1004.0,304.436,1.013
1006.0,304.419,1.013
1008.0,304.432,1.013
1010.0,304.426,1.013
1012.0,304.435,1.013
1014.0,304.442,1.013
1016.0,304.43,1.013
1018.0,304.43,1.013
1020.0,304.418,1.013
1022.0,304.439,1.013
1024.0,304.423,1.013
1026.0,304.436,1.013
1028.0,304.436,1.013
1030.0,304.435,1.013
1032.0,304.456,1.013
1034.0,304.448,1.013
1036.0,304.443,1.013
1038.0,304.434,1.013
1040.0,304.435,1.013
1042.0,304.425,1.013
1044.0,304.434,1.013
1046.0,304.425,1.013
1048.0,304.435,1.013
1050.0,304.431,1.013
1052.0,304.437,1.013
1054.0,304.444,1.013
1056.0,304.442,1.013
1058.0,304.427,1.013
1060.0,304.43,1.013
1062.0,304.439,1.013
1064.0,304.437,1.013
1066.0,304.423,1.013
1068.0,304.429,1.013
1070.0,304.424,1.013
1072.0,304.429,1.013
1074.0,304.437,1.013
1076.0,304.431,1.013
1078.0,304.433,1.013
1080.0,304.443,1.013
1082.0,304.429,1.013
1084.0,304.449,1.013
1086.0,304.434,1.013
1088.0,304.433,1.013
1090.0,304.46,1.013
1092.0,304.449,1.013
1094.0,304.441,1.013
1096.0,304.427,1.013
1098.0,304.428,1.013
1100.0,304.428,1.013
1102.0,304.436,1.013
1104.0,304.435,1.013
1106.0,304.433,1.013
1108.0,304.445,1.013
1110.0,304.438,1.013
1112.0,304.423,1.013
1114.0,304.431,1.013
1116.0,304.441,1.013
1118.0,304.436,1.013
1120.0,304.441,1.013
1122.0,304.444,1.013
1124.0,304.437,1.013
1126.0,304.441,1.013
1128.0,304.427,1.013
1130.0,304.404,1.013
1132.0,304.452,1.013
1134.0,304.448,1.013
1136.0,304.44,1.013
1138.0,304.446,1.013
1140.0,304.45,1.013
1142.0,304.458,1.013
1144.0,304.45,1.013
1146.0,304.453,1.013
1148.0,304.439,1.013
1150.0,304.455,1.013
1152.0,304.451,1.013
1154.0,304.434,1.013
1156.0,304.45,1.013
1158.0,304.449,1.013
1160.0,304.444,1.013
1162.0,304.427,1.013
1164.0,304.454,1.013
1166.0,304.433,1.013
1168.0,304.434,1.013
1170.0,304.44,1.013
1172.0,304.426,1.013
1174.0,304.425,1.013
1176.0,304.454,1.013
1178.0,304.422,1.013
1180.0,304.434,1.013
1182.0,304.421,1.013
1184.0,304.44,1.013
1186.0,304.447,1.013
1188.0,304.426,1.013
1190.0,304.432,1.013
1192.0,304.428,1.013
1194.0,304.45,1.013
1196.0,304.431,1.013
1198.0,304.447,1.013
1200.0,304.452,1.013
1202.0,304.517,1.012
1204.0,305.026,1.011
1206.0,305.895,1.011
1208.0,307.064,1.01
1210.0,308.18,1.011
1212.0,309.541,1.012
1214.0,311.046,1.013
1216.0,312.626,1.014
1218.0,314.236,1.015
1220.0,315.875,1.015
1222.0,317.543,1.015
1224.0,319.203,1.015
1226.0,320.874,1.014
1228.0,322.535,1.014
1230.0,324.214,1.013
1232.0,325.884,1.013
1234.0,327.56,1.012
1236.0,329.247,1.012
1238.0,330.902,1.011
1240.0,332.582,1.011
1242.0,334.257,1.011
1244.0,335.926,1.01
1246.0,337.588,1.01
1248.0,339.247,1.01
1250.0,340.912,1.01
1252.0,342.57,1.009
1254.0,344.243,1.009
1256.0,345.905,1.009
1258.0,347.558,1.008
1260.0,349.216,1.008
1262.0,350.9,1.007
1264.0,352.564,1.007
1266.0,354.23,1.007
1268.0,355.896,1.006
1270.0,357.551,1.006
1272.0,359.209,1.006
1274.0,360.853,1.005
1276.0,362.525,1.005
1278.0,364.175,1.005
1280.0,365.847,1.004
1282.0,367.511,1.004
1284.0,369.155,1.004
1286.0,370.81,1.004
1288.0,372.494,1.003
1290.0,374.142,1.003
1292.0,375.809,1.003
1294.0,377.485,1.003
1296.0,379.142,1.003
1298.0,380.802,1.003
1300.0,382.464,1.003
1302.0,384.141,1.003
1304.0,385.807,1.003
1306.0,387.466,1.003
1308.0,389.134,1.003
1310.0,390.805,1.003
1312.0,392.468,1.003
1314.0,394.145,1.002
1316.0,395.809,1.002
1318.0,397.473,1.002
1320.0,399.146,1.002
1322.0,400.83,1.002
1324.0,402.503,1.002
1326.0,404.172,1.002
1328.0,405.844,1.002
1330.0,407.52,1.002
1332.0,409.19,1.002
1334.0,410.867,1.002
1336.0,412.553,1.002
1338.0,414.226,1.002
1340.0,415.914,1.002
1342.0,417.595,1.002
1344.0,419.281,1.002
1346.0,420.977,1.002
1348.0,422.649,1.002
1350.0,424.333,1.002
1352.0,426.02,1.002
1354.0,427.698,1.002
1356.0,429.384,1.002
1358.0,431.071,1.002
1360.0,432.761,1.002
1362.0,434.448,1.002
1364.0,436.133,1.002
1366.0,437.834,1.001
1368.0,439.513,1.001
1370.0,441.202,1.001
1372.0,442.902,1.001
1374.0,444.6,1.001
1376.0,446.294,1.001
1378.0,447.988,1.001
1380.0,449.687,1.0
1382.0,451.392,1.0
1384.0,453.082,1.0
1386.0,454.779,1.0
1388.0,456.486,1.0
1390.0,458.185,0.999
1392.0,459.896,0.999
1394.0,461.596,0.999
1396.0,463.31,0.998
1398.0,464.998,0.998
1400.0,466.709,0.998
1402.0,468.428,0.997
1404.0,470.125,0.997
1406.0,471.843,0.997
1408.0,473.553,0.996
1410.0,475.275,0.996
1412.0,476.978,0.995
1414.0,478.681,0.995
1416.0,480.403,0.994
1418.0,482.101,0.993
1420.0,483.819,0.993
1422.0,485.53,0.992
1424.0,487.234,0.992
1426.0,488.951,0.991
1428.0,490.675,0.99
1430.0,492.392,0.99
1432.0,494.112,0.989
1434.0,495.817,0.988
1436.0,497.531,0.987
1438.0,499.256,0.987
1440.0,500.958,0.986
1442.0,502.675,0.985
1444.0,504.392,0.984
1446.0,506.116,0.983
1448.0,507.82,0.982
1450.0,509.535,0.981
1452.0,511.254,0.98
1454.0,512.958,0.979
1456.0,514.677,0.978
1458.0,516.392,0.977
1460.0,518.109,0.976
1462.0,519.82,0.975
1464.0,521.543,0.974
1466.0,523.256,0.973
1468.0,524.977,0.971
1470.0,526.688,0.97
1472.0,528.395,0.968
1474.0,530.121,0.967
1476.0,531.828,0.965
1478.0,533.544,0.964
1480.0,535.262,0.962
1482.0,536.977,0.96
1484.0,538.692,0.958
1486.0,540.406,0.956
1488.0,542.118,0.954
1490.0,543.828,0.952
1492.0,545.534,0.95
1494.0,547.253,0.948
1496.0,548.975,0.945
1498.0,550.668,0.943
1500.0,552.382,0.94
1502.0,554.091,0.938
1504.0,555.803,0.935
1506.0,557.509,0.932
1508.0,559.22,0.929
1510.0,560.919,0.926
1512.0,562.634,0.924
1514.0,564.339,0.921
1516.0,566.054,0.918
1518.0,567.749,0.915
1520.0,569.452,0.912
1522.0,571.16,0.909
1524.0,572.867,0.905
1526.0,574.564,0.902
1528.0,576.27,0.899
1530.0,577.969,0.895
1532.0,579.678,0.892
1534.0,581.381,0.888
1536.0,583.075,0.884
1538.0,584.785,0.881
1540.0,586.474,0.877
1542.0,588.179,0.873
1544.0,589.875,0.869
1546.0,591.58,0.865
1548.0,593.277,0.861
1550.0,594.97,0.856
1552.0,596.669,0.852
1554.0,598.36,0.847
1556.0,600.047,0.842
1558.0,601.742,0.837
1560.0,603.441,0.832
1562.0,605.129,0.827
1564.0,606.817,0.821
1566.0,608.513,0.815
1568.0,610.202,0.809
1570.0,611.877,0.803
1572.0,613.568,0.797
1574.0,615.264,0.791
1576.0,616.95,0.784
1578.0,618.62,0.777
1580.0,620.314,0.77
1582.0,621.997,0.763
1584.0,623.691,0.755
1586.0,625.365,0.748
1588.0,627.056,0.74
1590.0,628.729,0.732
1592.0,630.409,0.724
1594.0,632.084,0.715
1596.0,633.771,0.707
1598.0,635.445,0.698
1600.0,637.132,0.689
1602.0,638.805,0.68
1604.0,640.47,0.671
1606.0,642.151,0.662
1608.0,643.824,0.653
1610.0,645.5,0.643
1612.0,647.166,0.633
1614.0,648.844,0.623
1616.0,650.514,0.613
1618.0,652.184,0.603
1620.0,653.835,0.593
1622.0,655.505,0.582
1624.0,657.185,0.571
1626.0,658.841,0.56
1628.0,660.504,0.549
1630.0,662.165,0.538
1632.0,663.821,0.526
1634.0,665.474,0.514
1636.0,667.139,0.501
1638.0,668.787,0.489
1640.0,670.453,0.476
1642.0,672.112,0.462
1644.0,673.761,0.449
1646.0,675.423,0.435
1648.0,677.075,0.421
1650.0,678.748,0.407
1652.0,680.393,0.393
1654.0,682.051,0.379
1656.0,683.703,0.365
1658.0,685.361,0.352
1660.0,687.017,0.339
1662.0,688.674,0.327
1664.0,690.333,0.316
1666.0,691.995,0.306
1668.0,693.653,0.298
1670.0,695.312,0.29
1672.0,696.968,0.283
1674.0,698.633,0.278
1676.0,700.28,0.273
1678.0,701.938,0.27
1680.0,703.595,0.267
1682.0,705.247,0.264
1684.0,706.904,0.263
1686.0,708.556,0.261
1688.0,710.216,0.26
1690.0,711.865,0.259
1692.0,713.521,0.257
1694.0,715.174,0.256
1696.0,716.82,0.255
1698.0,718.465,0.254
1700.0,720.125,0.253
1702.0,721.773,0.252
1704.0,723.421,0.251
1706.0,725.066,0.25
1708.0,726.722,0.249
1710.0,728.379,0.248
1712.0,730.027,0.247
1714.0,731.674,0.246
1716.0,733.32,0.246
1718.0,734.971,0.245
1720.0,736.618,0.244
1722.0,738.276,0.243
1724.0,739.927,0.242
1726.0,741.569,0.241
1728.0,743.215,0.24
1730.0,744.866,0.239
1732.0,746.509,0.239
1734.0,748.158,0.238
1736.0,749.802,0.237
1738.0,751.467,0.236
1740.0,753.113,0.236
1742.0,754.745,0.235
1744.0,756.397,0.234
1746.0,758.043,0.233
1748.0,759.686,0.233
1750.0,761.343,0.232
1752.0,762.988,0.231
1754.0,764.635,0.231
1756.0,766.277,0.23
1758.0,767.92,0.23
1760.0,769.574,0.229
1762.0,771.226,0.228
1764.0,772.87,0.228
1766.0,774.511,0.227
1768.0,776.167,0.227
1770.0,777.818,0.226
1772.0,779.462,0.226
1774.0,781.11,0.225
1776.0,782.754,0.225
1778.0,784.393,0.224
1780.0,786.04,0.224
1782.0,787.688,0.223
1784.0,789.331,0.223
1786.0,790.981,0.223
1788.0,792.626,0.222
1790.0,794.275,0.222
1792.0,795.923,0.222
1794.0,797.563,0.221
1796.0,799.214,0.221
1798.0,800.869,0.22
1800.0,802.51,0.22
1802.0,804.158,0.22
1804.0,805.804,0.219
1806.0,807.445,0.219
1808.0,809.096,0.218
1810.0,810.743,0.218
1812.0,812.387,0.218
1814.0,814.035,0.217
1816.0,815.677,0.217
1818.0,817.332,0.217
1820.0,818.974,0.216
1822.0,820.626,0.216
1824.0,822.272,0.216
1826.0,823.923,0.215
1828.0,825.57,0.215
1830.0,827.215,0.215
1832.0,828.866,0.215
1834.0,830.507,0.214
1836.0,832.161,0.214
1838.0,833.797,0.214
1840.0,835.459,0.213
1842.0,837.093,0.213
1844.0,838.747,0.213
1846.0,840.401,0.212
1848.0,842.054,0.212
1850.0,843.695,0.212
1852.0,845.338,0.212
1854.0,846.986,0.211
1856.0,848.638,0.211
1858.0,850.279,0.211
1860.0,851.927,0.211
1862.0,853.582,0.21
1864.0,855.232,0.21
1866.0,856.866,0.21
1868.0,858.507,0.21
1870.0,860.155,0.209
1872.0,861.811,0.209
1874.0,863.463,0.209
1876.0,865.098,0.209
1878.0,866.758,0.208
1880.0,868.408,0.208
1882.0,870.057,0.208
1884.0,871.703,0.208
1886.0,873.36,0.207
1888.0,875.003,0.207
1890.0,876.662,0.207
1892.0,878.315,0.206
1894.0,879.964,0.206
1896.0,881.617,0.206
1898.0,883.269,0.206
1900.0,884.924,0.205
1902.0,886.574,0.205
1904.0,888.228,0.205
1906.0,889.882,0.205
1908.0,891.534,0.204
1910.0,893.189,0.204
1912.0,894.849,0.204
1914.0,896.501,0.204
1916.0,898.158,0.204
1918.0,899.808,0.203
1920.0,901.474,0.203
1922.0,903.128,0.203
1924.0,904.784,0.203
1926.0,906.433,0.202
1928.0,908.09,0.202
1930.0,909.743,0.202
1932.0,911.396,0.202
1934.0,913.045,0.202
1936.0,914.715,0.201
1938.0,916.362,0.201
1940.0,918.009,0.201
1942.0,919.679,0.201
1944.0,921.336,0.201
1946.0,922.992,0.2
1948.0,924.642,0.2
1950.0,926.302,0.2
1952.0,927.962,0.2
1954.0,929.617,0.2
1956.0,931.28,0.2
1958.0,932.937,0.199
1960.0,934.606,0.199
1962.0,936.257,0.199
1964.0,937.915,0.199
1966.0,939.574,0.199
1968.0,941.231,0.199
1970.0,942.891,0.198
1972.0,944.551,0.198
1974.0,946.21,0.198
1976.0,947.867,0.198
1978.0,949.528,0.198
1980.0,951.184,0.198
1982.0,952.843,0.198
1984.0,954.502,0.197
1986.0,956.171,0.197
1988.0,957.829,0.197
1990.0,959.496,0.197
1992.0,961.149,0.197
1994.0,962.81,0.197
1996.0,964.468,0.197
1998.0,966.126,0.196
2000.0,967.794,0.196
2002.0,969.458,0.196
2004.0,971.12,0.196
2006.0,972.774,0.196
2008.0,974.437,0.196
2010.0,976.106,0.196
2012.0,977.772,0.196
2014.0,979.43,0.195
2016.0,981.093,0.195
2018.0,982.752,0.195
2020.0,984.41,0.195
2022.0,986.086,0.195
2024.0,987.749,0.195
2026.0,989.417,0.195
2028.0,991.08,0.195
2030.0,992.743,0.195
2032.0,994.412,0.194
2034.0,996.075,0.194
2036.0,997.739,0.194
2038.0,999.403,0.194
2040.0,1001.078,0.194
2042.0,1002.734,0.194
2044.0,1004.41,0.194
2046.0,1006.074,0.194
2048.0,1007.735,0.194
2050.0,1009.405,0.193
2052.0,1011.074,0.193
2054.0,1012.744,0.193
2056.0,1014.401,0.193
2058.0,1016.083,0.193
2060.0,1017.752,0.193
2062.0,1019.418,0.193
2064.0,1021.081,0.193
2066.0,1022.752,0.193
2068.0,1024.428,0.193
2070.0,1026.093,0.192
2072.0,1027.756,0.192
2074.0,1029.432,0.192
2076.0,1031.102,0.192
2078.0,1032.78,0.192
2080.0,1034.453,0.192
2082.0,1036.121,0.192
2084.0,1037.797,0.192
2086.0,1039.464,0.192
2088.0,1041.139,0.192
2090.0,1042.812,0.191
2092.0,1044.483,0.191
2094.0,1046.156,0.191
2096.0,1047.831,0.191
2098.0,1049.487,0.191
2100.0,1051.177,0.191
2102.0,1052.845,0.191
2104.0,1054.622,0.191
2106.0,1055.5,0.191
2108.0,1056.615,0.191
2110.0,1057.704,0.191
2112.0,1058.712,0.191
2114.0,1059.625,0.191
2116.0,1060.478,0.19
2118.0,1061.263,0.19
2120.0,1061.981,0.19
2122.0,1062.64,0.19
2124.0,1063.252,0.19
2126.0,1063.817,0.19
2128.0,1064.347,0.19
2130.0,1064.815,0.19
2132.0,1065.265,0.19
2134.0,1065.676,0.19
2136.0,1066.058,0.19
2138.0,1066.407,0.19
2140.0,1066.735,0.19
2142.0,1067.036,0.19
2144.0,1067.315,0.19
2146.0,1067.577,0.19
2148.0,1067.827,0.189
2150.0,1068.049,0.189
2152.0,1068.251,0.189
2154.0,1068.461,0.189
2156.0,1068.636,0.189
2158.0,1068.811,0.189
2160.0,1068.967,0.189
2162.0,1069.113,0.189
2164.0,1069.25,0.189
2166.0,1069.384,0.189
2168.0,1069.502,0.189
2170.0,1069.622,0.189
2172.0,1069.721,0.189
2174.0,1069.825,0.189
2176.0,1069.917,0.189
2178.0,1070.013,0.189
2180.0,1070.086,0.189
2182.0,1070.178,0.189
2184.0,1070.251,0.189
2186.0,1070.312,0.189
2188.0,1070.387,0.189
2190.0,1070.449,0.189
2192.0,1070.51,0.189
2194.0,1070.568,0.189
2196.0,1070.624,0.189
2198.0,1070.673,0.189
2200.0,1070.724,0.189
2202.0,1070.775,0.189
2204.0,1070.821,0.189
2206.0,1070.862,0.189
2208.0,1070.911,0.189
2210.0,1070.936,0.189
2212.0,1070.98,0.188
2214.0,1071.017,0.188
2216.0,1071.049,0.188
2218.0,1071.093,0.188
2220.0,1071.121,0.188
2222.0,1071.143,0.188
2224.0,1071.176,0.188
2226.0,1071.214,0.188
2228.0,1071.234,0.188
2230.0,1071.273,0.188
2232.0,1071.287,0.188
2234.0,1071.317,0.188
2236.0,1071.336,0.188
2238.0,1071.366,0.188
2240.0,1071.387,0.188
2242.0,1071.413,0.188
2244.0,1071.423,0.188
2246.0,1071.442,0.188
2248.0,1071.464,0.188
2250.0,1071.477,0.188
2252.0,1071.499,0.188
2254.0,1071.514,0.188
2256.0,1071.543,0.188
2258.0,1071.549,0.188
2260.0,1071.571,0.187
2262.0,1071.581,0.187
2264.0,1071.593,0.187
2266.0,1071.618,0.187
2268.0,1071.634,0.187
2270.0,1071.644,0.187
2272.0,1071.661,0.187
2274.0,1071.674,0.187
2276.0,1071.684,0.187
2278.0,1071.696,0.187
2280.0,1071.715,0.187
2282.0,1071.729,0.187
2284.0,1071.748,0.187
2286.0,1071.753,0.187
2288.0,1071.765,0.187
2290.0,1071.77,0.187
2292.0,1071.788,0.187
2294.0,1071.798,0.187
2296.0,1071.805,0.187
2298.0,1071.808,0.187
2300.0,1071.818,0.187
2302.0,1071.83,0.187
2304.0,1071.846,0.187
2306.0,1071.848,0.187
2308.0,1071.863,0.187
2310.0,1071.873,0.187
2312.0,1071.88,0.187
2314.0,1071.882,0.187
2316.0,1071.898,0.187
2318.0,1071.901,0.187
2320.0,1071.906,0.187
2322.0,1071.916,0.187
2324.0,1071.91,0.187
2326.0,1071.928,0.187
2328.0,1071.93,0.187
2330.0,1071.934,0.187
2332.0,1071.949,0.187
2334.0,1071.95,0.187
2336.0,1071.96,0.187
2338.0,1071.954,0.187
2340.0,1071.971,0.187
2342.0,1071.971,0.187
2344.0,1071.979,0.187
2346.0,1071.985,0.187
2348.0,1071.984,0.186
2350.0,1071.991,0.186
2352.0,1071.994,0.186
2354.0,1071.994,0.186
2356.0,1072.003,0.186
2358.0,1072.004,0.186
2360.0,1072.018,0.186
2362.0,1072.014,0.186
2364.0,1072.015,0.186
2366.0,1072.021,0.186
2368.0,1072.035,0.186
2370.0,1072.038,0.186
2372.0,1072.043,0.186
2374.0,1072.047,0.186
2376.0,1072.053,0.186
2378.0,1072.052,0.186
2380.0,1072.059,0.186
2382.0,1072.057,0.186
2384.0,1072.064,0.186
2386.0,1072.066,0.186
2388.0,1072.073,0.186
2390.0,1072.069,0.186
2392.0,1072.07,0.186
2394.0,1072.073,0.186
2396.0,1072.071,0.186
2398.0,1072.089,0.186
2400.0,1072.079,0.186
2402.0,1072.087,0.186
2404.0,1072.085,0.186
2406.0,1072.103,0.186
2408.0,1072.103,0.186
2410.0,1072.101,0.186
2412.0,1072.109,0.186
2414.0,1072.104,0.186
2416.0,1072.104,0.186
2418.0,1072.105,0.186
2420.0,1072.114,0.186
2422.0,1072.113,0.186
2424.0,1072.112,0.186