File: PMMA/Validation_Results/Aalto-II-PMMA-Gasification/Aalto_II_PMMA_Gasification_q50_Temp.csv
Time,T_back
s,K
0,293.15
1.1,293.15
2,293.15
3,293.15
4,293.15
5.1,293.15
6.1,293.15
7.1,293.15
8.1,293.15
9.1,293.15
10.1,293.151
11.1,293.153
12.1,293.156
13.1,293.162
14.1,293.171
15.1,293.187
16.1,293.21
17.1,293.243
18.1,293.289
19,293.346
20,293.42
21,293.516
22,293.635
23,293.779
24,293.951
25,294.151
26,294.383
27,294.649
28,294.949
29,295.285
30,295.658
31,296.07
32,296.52
33,297.01
34,297.54
35,298.11
36,298.719
37,299.369
38,300.059
39,300.789
40,301.558
41,302.365
42,303.211
43,304.094
44,305.014
45,305.97
46,306.962
47,307.987
48,309.046
49,310.137
50,311.259
51,312.411
52,313.593
53,314.802
54,316.039
55,317.301
56,318.588
57,319.898
58,321.23
59,322.584
60,323.959
61,325.352
62,326.763
63,328.192
64,329.636
65,331.096
66,332.57
67,334.057
68,335.556
69,337.067
70,338.589
71,340.121
72,341.661
73,343.211
74,344.768
75,346.332
76.1,347.982
77.1,349.638
78.1,351.22
79.1,352.808
80.1,354.399
81.1,355.995
82.1,357.593
83.1,359.195
84.1,360.799
85.1,362.405
86.1,364.012
87.1,365.621
88.1,367.231
89.1,368.841
90.1,370.452
91.1,372.063
92.1,373.673
93.1,375.283
94.1,376.892
95.1,378.501
96.1,380.108
97.1,381.713
98.1,383.317
99.1,384.92
100.1,386.52
101.1,388.1185
102.1,389.714
103.1,391.308
104.1,392.899
105.1,394.487
106.1,396.072
107.1,397.655
108.1,399.234
109.1,400.81
110.1,402.3827
111.1,403.952
112.1,405.518
113.1,407.08
114.1,408.638
115.1,410.193
116.1,411.744
117.1,413.291
118.1,414.833
119.1,416.372
120.1,417.906
121.1,419.436
122.1,420.962
123.1,422.483
124.1,424
125.1,425.512
126.1,427.02
127.1,428.523
128.1,430.021
129.1,431.5138
130.1,433.002
131.1,434.485
132.1,435.964
133.1,437.436
134.1,438.904
135.1,440.367
136.1,441.824
137.1,443.276
138.1,444.723
139.1,446.164
140.1,447.599
141.1,449.029
142.1,450.453
143.1,451.871
144.1,453.284
145.1,454.691
146.1,456.092
147.1,457.487
148.1,458.876
149.1,460.2586
150.1,461.6355
151.1,463.006
152.1,464.371
153.1,465.73
154.1,467.082
155.1,468.429
156.1,469.769
157.1,471.103
158.1,472.431
159.1,473.753
160.1,475.068
161.1,476.378
162.1,477.681
163.1,478.978
164.1,480.2699
165.1,481.555
166.1,482.835
167.1,484.109
168.1,485.377
169.1,486.64
170.1,487.897
171.1,489.149
172.1,490.395
173.1,491.637
174.1,492.874
175.1,494.106
176.1,495.334
177.1,496.558
178.1,497.777
179.1,498.992
180.1,500.204
181.1,501.413
182.1,502.618
183.1,503.82
184.1,505.02
185.1,506.217
186.1,507.413
187.1,508.607
188.1,509.799
189.1,510.99
190.1,512.18
191.1,513.37
192.1,514.56
193.1,515.75
194.1,516.94
195.1,518.131
196.1,519.323
197.1,520.516
198.1,521.711
199.1,522.908
200.1,524.108
201.1,525.309
202.1,526.513
203.1,527.7209
204.1,528.931
205.1,530.145
206.1,531.3618
207.1,532.582
208.1,533.807
209.1,535.034
210.1,536.266
211.1,537.501
212.1,538.7387
213.1,539.98
214.1,541.225
215.1,542.472
216.1,543.722
217.1,544.974
218.1,546.228
219.1,547.484
220.1,548.741
221.1,549.997
222.1,551.253
223.1,552.507
224.1,553.76
225.1,555.01
226.1,556.2569
227.1,557.5
228.1,558.737
229.1,559.969
230.1,561.193
231.1,562.411
232.1,563.619
233.1,564.819
234.1,566.008
235.1,567.186
236.1,568.353
237.1,569.5073
238.1,570.649
239.1,571.778
240.1,572.892
241.1,573.994
242.1,575.08
243.1,576.153
244.1,577.212
245.1,578.256
246.1,579.287
247.1,580.305
248.1,581.308
249.1,582.299
250.1,583.277
251.1,584.242
252.1,585.196
253.1,586.138
254.1,587.069
255.1,587.9898
256.1,588.901
257.1,589.802
258.1,590.695
259.1,591.58
260.1,592.457
261.1,593.328
262.1,594.192
263.1,595.05
264.1,595.903
265.1,596.751
266.1,597.5958
267.1,598.437
268.1,599.275
269.1,600.111
270.1,600.945
271.1,601.778
272.1,602.61
273.1,603.443
274.1,604.276
275.1,605.109
276.1,605.945
277.1,606.782
278.1,607.621
279.1,608.464
280.1,609.31
281.1,610.16
282.1,611.015
283.1,611.875
284.1,612.739
285.1,613.61
286.1,614.488
287.1,615.374
288.1,616.276
289.1,617.19
290.1,618.117
291.1,619.056
292.1,620.008
293.1,620.969
294.1,621.943
295.1,622.931
296.1,623.931
297.1,624.949
298.1,625.978
299.1,627.021
300.1,628.0794
301.1,629.154
302,630.192
303,631.248
304,632.373
305,633.521
306,634.685
307,635.871
308,637.081
309,638.316
310,639.578
311,640.856
312,642.166
313,643.503
314,644.869
315,646.264
316,647.6903
317,649.1488
318,650.6412
319,652.175
320,653.741
321,655.348
322,656.999
323,658.693
324,660.433
325,662.218
326,664.029
327,665.739
328,667.513
329,669.353
330,671.143
331,673.092
332,674.936
333,676.914
334,678.878
335,680.881
336,682.947
337,685.076
338,687.16
339,689.479
340,691.782
341,694.168
342,697.22
343,700.692
344,704.782
345,708.581
346,715.463
347,725.048
348,740.777
349,776.593
350,816.796
351,819.717
352,824.913
353,828.715
354,831.678
355,834.079
356,836.071
357,837.776
358,839.26
359,840.578
360,841.76
361,842.835
362,843.814
363,844.717
364,845.55
365,846.3228
366,847.045
367,847.718
368,848.344
369,848.941
370,849.502
371,850.026
372,850.528
373,851.005
374,851.456
375,851.892
376,852.298
377,852.701
378,853.076
379,853.445
380,853.796
381,854.14
382,854.464
383,854.789
384,855.092
385,855.39
386,855.687
387,855.963
388,856.241
389,856.5123
390,856.768
391,857.0178
392,857.267
393,857.504
394,857.738
395,857.969
396,858.185
397,858.404
398,858.619
399,858.827
400,859.024
401,859.218
402,859.417
403,859.613
404,859.787
405,859.967
406,860.147
407,860.318
408,860.489
409,860.654
410,860.817
411,860.9751
412,861.134
413,861.287
414,861.428
415,861.5793
416,861.729
417,861.872
418,862.006
419,862.138
420,862.276
421,862.4097
422,862.541
423,862.672
424,862.803
425,862.923
426,863.0364
427,863.162
428,863.286
429,863.406
430,863.522
431,863.632
432,863.742
433,863.858
434,863.9735
435,864.0755
436,864.186
437,864.297
438,864.404
439,864.506
440,864.61
441,864.712
442,864.817
443,864.921
444,865.0214
445,865.123
446,865.211
447,865.308
448,865.41
449,865.509
450,865.607
451,865.704
452,865.798
453,865.893
454,865.983
455,866.074
456,866.171
457,866.261
458,866.35
459,866.444
460,866.538
461,866.629
462,866.721
463,866.802
464,866.89
465,866.98
466,867.065
467,867.158
468,867.248
469,867.336
470,867.418
471,867.505
472,867.587
473,867.675
474,867.761
475,867.848
476,867.929
477,868.01
478,868.095
479,868.181
480,868.267
481,868.3452
482,868.428
483,868.505
484,868.588
485,868.673
486,868.757
487,868.8389
488,868.922
489,869
490,869.076
491,869.154
492,869.2352
493,869.317
494,869.399
495,869.481
496,869.557
497,869.632
498,869.7129
499,869.793
500,869.871