File: PMMA/Calibration_Data/Edinburgh/Edinburgh_Cone_25kW_6.csv
Time,Mass,HRR
[s],[g],[kW/m2]
0,71.9517,-0.042806
1.02,71.9517,-0.0436225
2.02,71.9417,0.0465114
3.03,71.9417,0.137883
4.05,71.9517,0.234811
5.06,71.9617,0.169513
6.05,71.9617,0.0957158
7.07,71.9617,0.158995
8.07,71.9617,0.186514
9.09,71.9617,0.266899
10.07,71.9617,0.118006
11.07,71.9617,0.182283
12.08,71.9617,0.0662494
13.08,71.9617,0.161327
14.08,71.9517,0.095944
15.1,71.9517,0.246712
16.09,71.9417,0.116729
17.09,71.9417,0.0987635
18.11,71.9417,0.212061
19.12,71.9517,0.260316
20.14,71.9517,0.328292
21.16,71.9517,0.325521
22.15,71.9617,0.287037
23.16,71.9517,0.311534
24.17,71.9517,0.335211
25.17,71.9517,0.282662
26.19,71.9517,0.305203
27.21,71.9417,0.306845
28.2,71.9417,0.298939
29.22,71.9317,0.296445
30.23,71.9317,0.399311
31.24,71.9417,0.331254
32.24,71.9417,0.445698
33.23,71.9417,0.382492
34.24,71.9417,0.338134
35.23,71.9417,0.657818
36.23,71.9417,0.658882
37.24,71.9317,0.697473
38.24,71.9217,0.555832
39.23,71.9217,0.687489
40.23,71.9217,0.638165
41.23,71.9217,0.847899
42.23,71.9317,0.708228
43.24,71.9417,0.463123
44.23,71.9417,0.558204
45.23,71.9417,0.375032
46.24,71.9417,0.397615
47.24,71.9317,0.374367
48.24,71.9317,0.255408
49.25,71.9217,0.305764
50.26,71.9117,0.50839
51.26,71.9117,0.480896
52.26,71.9117,0.441772
53.27,71.9117,0.412541
54.23,71.9117,0.264954
55.24,71.9117,0.467331
56.23,71.9117,0.39885
57.23,71.9017,0.491903
58.23,71.8917,0.390623
59.24,71.8917,0.384928
60.25,71.8817,0.381822
61.25,71.8717,0.368106
62.26,71.8417,0.554994
63.27,71.8117,0.301859
64.24,71.7717,0.394658
65.23,71.7317,0.403567
66.23,71.6817,0.352593
67.24,71.6117,0.511161
68.24,71.5317,0.410757
69.24,71.4517,0.539217
70.24,71.3617,0.390359
71.24,71.2617,0.675987
72.23,71.1517,0.567982
73.23,71.0417,0.620017
74.25,70.9317,0.491324
75.27,70.8117,0.662055
76.28,70.7017,0.754226
77.28,70.5917,0.820867
78.28,70.4817,0.541121
79.28,70.3717,0.461277
80.29,70.2517,0.430267
81.3,70.1317,-2.38763
82.32,70.0117,-2.47414
83.33,69.8917,0.710746
84.33,69.7817,0.58665
85.33,69.6517,0.558287
86.33,69.5417,0.516716
87.32,69.4117,3.51201
88.33,69.2917,6.44261
89.33,69.1717,9.4316
90.33,69.0517,11.8974
91.32,68.9317,14.573
92.32,68.8117,19.4437
93.34,68.6817,27.3429
94.35,68.5517,36.3287
95.35,68.4317,42.7592
96.34,68.3017,45.9717
97.36,68.1717,55.4458
98.36,68.0417,66.2827
99.36,67.9117,76.617
100.36,67.7817,87.2081
101.36,67.6517,89.6126
102.36,67.5217,99.6348
103.36,67.4017,109.095
104.36,67.2617,125.482
105.36,67.1317,124.013
106.36,67.0017,135.585
107.36,66.8717,147.232
108.36,66.7417,156.429
109.36,66.6117,168.116
110.36,66.4817,165.734
111.37,66.3417,173.872
112.35,66.2117,185.837
113.37,66.0817,192.966
114.37,65.9517,196.994
115.36,65.8217,210.211
116.36,65.6817,212.071
117.36,65.5517,218.443
118.36,65.4217,223.155
119.36,65.2917,233
120.36,65.1717,236.112
121.37,65.0317,243.211
122.36,64.9017,246.247
123.36,64.7717,251.244
124.37,64.6317,249.886
125.4,64.4917,258.846
126.41,64.3517,262.017
127.41,64.2217,274.346
128.43,64.0817,273.611
129.42,63.9317,275.075
130.43,63.8017,276.307
131.42,63.6717,282.07
132.43,63.5317,282.557
133.45,63.3917,295.955
134.45,63.2517,290.313
135.45,63.1117,291.637
136.45,62.9617,293.548
137.47,62.8217,298.884
138.47,62.6717,301.841
139.49,62.5217,298.836
140.48,62.3817,302.973
141.48,62.2417,306.316
142.49,62.1017,307.555
143.49,61.9617,310.745
144.48,61.8317,313.347
145.49,61.6917,310.188
146.49,61.5617,309.395
147.48,61.4217,317.693
148.48,61.2817,315.354
149.49,61.1417,318.76
150.49,61.0017,321.539
151.48,60.8517,322.1
152.48,60.7117,329.288
153.48,60.5617,321.661
154.49,60.4217,329.101
155.49,60.2717,325.757
156.49,60.1217,328.792
157.49,59.9717,323.974
158.48,59.8317,333.832
159.49,59.7017,331.787
160.48,59.5617,327.366
161.48,59.4117,340.178
162.48,59.2717,343.771
163.48,59.1317,335.895
164.49,58.9817,326.159
165.49,58.8317,336.966
166.49,58.6917,328.144
167.48,58.5417,346.849
168.48,58.3917,345.417
169.49,58.2417,341.003
170.49,58.0917,342.055
171.49,57.9417,354.031
172.48,57.8017,340.725
173.48,57.6617,342.541
174.5,57.5117,348.319
175.52,57.3617,353.238
176.52,57.2117,353.765
177.53,57.0717,347.743
178.55,56.9217,345.924
179.56,56.7817,349.079
180.57,56.6317,359.831
181.6,56.4817,358.221
182.6,56.3317,355.295
183.61,56.1817,357.491
184.61,56.0317,354.986
185.61,55.8817,356.539
186.61,55.7317,348.176
187.62,55.5917,360.125
188.63,55.4417,351.848
189.62,55.2917,357.67
190.63,55.1417,364.176
191.62,54.9917,369.285
192.65,54.8417,359.671
193.66,54.6917,371.501
194.68,54.5317,353.887
195.68,54.3717,368.231
196.67,54.2317,372.997
197.68,54.0817,366.144
198.7,53.9317,367.238
199.7,53.7717,369.921
200.72,53.6217,374.908
201.74,53.4617,354.672
202.74,53.3117,369.006
203.73,53.1617,374.515
204.73,53.0217,372.462
205.74,52.8717,355.914
206.74,52.7117,363.968
207.74,52.5517,360.906
208.73,52.4117,371.669
209.73,52.2617,376.11
210.73,52.1117,380.529
211.73,51.9517,371.534
212.73,51.8017,370.75
213.73,51.6517,376.991
214.73,51.4917,367.336
215.73,51.3317,372.522
216.73,51.1817,383.783
217.73,51.0317,368.355
218.74,50.8717,371.019
219.76,50.7117,374.03
220.79,50.5517,373.945
221.8,50.3917,378.432
222.82,50.2317,386.08
223.83,50.0917,383.243
224.83,49.9317,383.909
225.83,49.7717,371.165
226.82,49.6117,382.553
227.84,49.4517,377.884
228.86,49.3017,386.958
229.86,49.1417,369.203
230.85,48.9917,383.315
231.87,48.8217,380.974
232.87,48.6617,379.404
233.89,48.5017,385.243
234.91,48.3417,378.999
235.91,48.1717,390.324
236.91,48.0117,377.511
237.91,47.8517,386.56
238.9,47.6917,391.126
239.9,47.5417,397.621
240.91,47.3817,391.459
241.91,47.2117,380.393
242.93,47.0517,395.178
243.92,46.8817,390.069
244.94,46.7317,386.124
245.96,46.5617,393.316
246.96,46.4017,394.212
247.95,46.2417,394.744
248.96,46.0817,382.479
249.97,45.9117,386.528
250.98,45.7617,398.829
251.99,45.6017,397.955
252.99,45.4317,398.405
253.98,45.2717,397.78
254.99,45.1117,403.566
255.98,44.9517,388.525
256.99,44.7917,394.889
257.98,44.6317,392.493
258.98,44.4717,394.533
259.99,44.3017,412.588
260.98,44.1417,393.968
261.99,43.9917,401.578
262.98,43.8217,397.649
264,43.6517,396.345
264.98,43.4717,407.801
265.99,43.3017,399.077
266.98,43.1417,394.015
267.99,42.9717,404.552
268.98,42.8017,391.524
269.99,42.6317,399.265
270.99,42.4617,410.259
271.99,42.3017,405.754
272.99,42.1417,403.788
273.99,41.9617,392.632
274.99,41.7817,408.533
275.98,41.6117,403.055
276.98,41.4417,419.883
277.99,41.2717,397.313
278.99,41.0917,408.195
279.99,40.9117,412.545
281,40.7417,404.619
282.02,40.5717,409.349
283.03,40.4017,398.435
284.05,40.2117,408.728
285.04,40.0317,396.832
286.07,39.8517,415.157
287.07,39.6717,408.133
288.09,39.5017,406.071
289.11,39.3217,420.191
290.11,39.1317,400.092
291.1,38.9617,412.4
292.1,38.7917,407.332
293.12,38.6117,408.421
294.14,38.4217,407.528
295.16,38.2417,421.931
296.18,38.0717,422.121
297.17,37.8917,418.059
298.17,37.7117,423.011
299.19,37.5317,421.125
300.2,37.3517,415.301
301.22,37.1817,425.858
302.22,37.0017,428.803
303.22,36.8217,417.729
304.22,36.6417,426.749
305.22,36.4717,430.794
306.23,36.2917,423.411
307.22,36.1117,434.684
308.22,35.9317,428.941
309.23,35.7417,423.135
310.24,35.5517,437.505
311.23,35.3717,429.255
312.24,35.1917,425.077
313.24,35.0117,438.994
314.25,34.8217,427.532
315.25,34.6517,431.129
316.25,34.4717,434.321
317.25,34.2917,436.519
318.26,34.1117,440.843
319.28,33.9217,439.642
320.28,33.7317,437.439
321.31,33.5517,463.007
322.29,33.3617,458.986
323.31,33.1917,445.597
324.33,33.0117,442.389
325.35,32.8217,444.305
326.36,32.6317,454.812
327.37,32.4517,448.499
328.35,32.2617,447.413
329.36,32.0817,447.408
330.36,31.9017,459.288
331.37,31.7117,447.175
332.37,31.5217,445.432
333.4,31.3417,450.49
334.41,31.1517,443.933
335.41,30.9517,446.252
336.41,30.7617,445.759
337.41,30.5817,453.964
338.41,30.3917,459.764
339.43,30.2017,446.05
340.42,30.0117,451.679
341.42,29.8317,460.365
342.42,29.6417,456.98
343.42,29.4517,453.439
344.42,29.2617,459.421
345.42,29.0717,447.961
346.42,28.8817,457.88
347.42,28.6917,449.923
348.42,28.5117,465.25
349.44,28.3217,453.84
350.47,28.1217,462.72
351.47,27.9217,459.815
352.46,27.7217,457.753
353.49,27.5317,462.8
354.48,27.3217,464.948
355.49,27.1417,467.286
356.49,26.9417,473.448
357.48,26.7417,471.912
358.49,26.5417,476.615
359.49,26.3417,457.345
360.49,26.1417,449.958
361.49,25.9317,452.549
362.48,25.7317,464.726
363.49,25.5317,462.924
364.52,25.3317,472.984
365.48,25.1017,457.925
366.48,24.9017,472.923
367.49,24.6917,460.919
368.49,24.4817,476.696
369.49,24.2717,473.307
370.48,24.0617,465.958
371.48,23.8717,468.235
372.49,23.6717,476.171
373.49,23.4617,468.382
374.49,23.2517,490.322
375.48,23.0417,484.197
376.49,22.8517,483.635
377.49,22.6417,499.129
378.49,22.4317,489.42
379.49,22.2317,472.93
380.48,22.0217,502.516
381.48,21.8217,473.308
382.48,21.6217,486.255
383.49,21.4317,488.283
384.49,21.2317,487.311
385.49,21.0317,498.802
386.48,20.8217,481.803
387.5,20.6317,489.904
388.51,20.4317,503.528
389.53,20.2317,496.045
390.53,20.0317,505.212
391.53,19.8317,516.692
392.53,19.6317,497.059
393.54,19.4417,516.342
394.53,19.2417,526.838
395.53,19.0517,523.877
396.53,18.8417,515.298
397.53,18.6517,520.489
398.53,18.4617,520.946
399.55,18.2717,519.046
400.56,18.0917,522.815
401.58,17.9017,535.065
402.58,17.7117,520.578
403.59,17.5317,535.024
404.6,17.3617,525.947
405.59,17.1817,529.22
406.6,17.0117,541.408
407.59,16.8417,543.518
408.62,16.6817,547.078
409.62,16.5217,531.54
410.6,16.3617,553.736
411.61,16.2117,542.542
412.62,16.0517,549.618
413.61,15.9117,554.89
414.61,15.7617,548.564
415.61,15.6117,561.611
416.61,15.4717,559.21
417.62,15.3317,554.502
418.61,15.2017,567.951
419.61,15.0717,554.954
420.61,14.9417,551.977
421.6,14.8217,560.873
422.62,14.6917,563.879
423.61,14.5717,565.931
424.6,14.4617,574.556
425.61,14.3517,574.745
426.6,14.2417,567.475
427.61,14.1417,572.083
428.62,14.0317,563.386
429.6,13.9317,578.404
430.61,13.8417,565.593
431.61,13.7517,553.937
432.61,13.6617,557.212
433.62,13.5617,548.387
434.63,13.4717,554.672
435.64,13.3817,551.623
436.64,13.2917,542.024
437.64,13.2017,531.193
438.64,13.1117,540.783
439.64,13.0317,532.281
440.64,12.9517,526.925
441.64,12.8617,528.799
442.64,12.7817,519.934
443.64,12.7017,512.164
444.64,12.6217,512.18
445.66,12.5517,496.037
446.66,12.4717,491.431
447.67,12.4017,481.58
448.68,12.3317,471.479
449.69,12.2617,473.603
450.69,12.1817,463.127
451.69,12.1017,461.166
452.7,12.0317,446.268
453.7,11.9617,440.541
454.71,11.8917,433.387
455.71,11.8117,419.968
456.71,11.7417,414.434
457.73,11.6717,407.956
458.73,11.6017,396.059
459.74,11.5417,395.375
460.74,11.4717,389.361
461.74,11.4017,373.111
462.74,11.3417,367.008
463.75,11.2717,367.619
464.78,11.2117,357.246
465.75,11.1417,346.068
466.75,11.0717,340.104
467.75,11.0017,331.169
468.74,10.9417,329.935
469.75,10.8717,320.859
470.75,10.8117,318.659
471.76,10.7517,306.715
472.75,10.6817,300.504
473.75,10.6217,294.855
474.75,10.5617,294.547
475.76,10.5017,289.024
476.76,10.4417,277.166
477.76,10.3917,282.328
478.76,10.3417,268.382
479.76,10.2817,266.043
480.76,10.2317,259.993
481.77,10.1717,252.373
482.79,10.1217,256.861
483.78,10.0617,248.759
484.79,10.0017,244.465
485.8,9.95167,240.636
486.79,9.90167,236.833
487.79,9.85167,236.05
488.8,9.80167,232.604
489.81,9.75167,228.382
490.81,9.69167,219.978
491.81,9.63167,224.135
492.81,9.57167,220.735
493.81,9.52167,212.874
494.83,9.46167,208.207
495.82,9.41167,209.287
496.82,9.35167,207.812
497.83,9.29167,203.141
498.83,9.25167,199.323
499.83,9.20167,199.215
500.83,9.14167,196.646
501.83,9.08167,197.95
502.84,9.04167,190.636
503.84,8.99167,188.088
504.84,8.93167,193.161
505.85,8.89167,183.489
506.85,8.83167,185.407
507.86,8.78167,185.385
508.85,8.72167,185.202
509.86,8.67167,179.868
510.86,8.61167,179.944
511.86,8.57167,178.209
512.87,8.52167,175.134
513.87,8.48167,176.214
514.87,8.43167,173.5
515.86,8.38167,171.141
516.85,8.33167,175.756
517.87,8.28167,169.188
518.86,8.24167,168.204
519.85,8.19167,163.294
520.87,8.14167,162.631
521.87,8.08167,165.059
522.86,8.04167,158.308
523.86,8.00167,161.483
524.87,7.95167,159.465
525.86,7.90167,160.252
526.87,7.85167,160.115
527.87,7.81167,158.662
528.86,7.76167,159.913
529.87,7.71167,156.235
530.88,7.66167,156.187
531.89,7.61167,156.994
532.89,7.56167,152.527
533.9,7.52167,151.057
534.9,7.47167,150.631
535.91,7.42167,151.085
536.92,7.37167,151.884
537.92,7.33167,146.258
538.93,7.29167,148.127
539.92,7.24167,146.822
540.93,7.19167,145.269
541.95,7.15167,143.629
542.96,7.10167,146.359
543.95,7.06167,140.229
544.96,7.02167,145.163
545.97,6.98167,143.274
546.98,6.94167,141.578
547.98,6.89167,142.425
548.98,6.84167,141.107
549.98,6.80167,140.852
550.97,6.76167,137.136
551.98,6.72167,137.969
552.99,6.67167,139.87
553.98,6.63167,138.723
554.99,6.58167,134.734
555.99,6.54167,135.018
556.99,6.49167,135.022
557.98,6.45167,134.058
558.98,6.42167,132.424
559.98,6.38167,132.919
560.99,6.34167,133.985
561.98,6.30167,130.567
562.98,6.25167,131.46
563.98,6.21167,131.025
565.02,6.17167,130.708
565.98,6.13167,128.942
566.99,6.09167,128.042
567.99,6.05167,129.454
568.99,6.01167,127.515
569.98,5.98167,126.217
570.98,5.94167,124.799
571.98,5.90167,126.877
572.99,5.86167,125.023
573.98,5.81167,125.371
574.99,5.78167,123.468
575.98,5.74167,124.806
576.99,5.70167,124.009
577.99,5.66167,122.284
579,5.62167,121.153
580,5.58167,119.788
581.01,5.55167,120.618
582.01,5.52167,119.967
583.03,5.48167,117.45
584.03,5.44167,119.428
585.03,5.40167,119.582
586.04,5.37167,115.759
587.04,5.34167,115.767
588.05,5.30167,118.538
589.05,5.27167,115.906
590.05,5.23167,119.59
591.05,5.20167,113.901
592.05,5.17167,114.103
593.05,5.14167,113.691
594.06,5.10167,115.599
595.06,5.07167,113.711
596.08,5.04167,112.788
597.08,5.00167,112.253
598.09,4.97167,112.988
599.1,4.94167,114.625
600.11,4.90167,111.057
601.1,4.86167,110.498
602.11,4.83167,109.529
603.11,4.80167,111.151
604.11,4.78167,111.809
605.1,4.74167,107.6
606.11,4.71167,106.252
607.11,4.68167,106.718
608.11,4.66167,108.244
609.12,4.63167,106.83
610.12,4.59167,105.887
611.13,4.56167,105.719
612.14,4.53167,106.173
613.15,4.50167,105.127
614.16,4.47167,105.845
615.17,4.43167,101.059
616.17,4.40167,103.62
617.17,4.38167,103.717
618.17,4.35167,103.831
619.17,4.32167,102.501
620.17,4.28167,100.144
621.17,4.25167,97.8953
622.16,4.23167,100.839
623.18,4.21167,101.548
624.18,4.18167,99.4735
625.17,4.16167,99.2841
626.19,4.13167,97.1717
627.19,4.10167,97.5453
628.19,4.07167,98.5729
629.19,4.04167,96.25
630.19,4.01167,95.2099
631.19,3.98167,95.4634
632.19,3.95167,95.8023
633.2,3.93167,92.9011
634.21,3.90167,93.4616
635.21,3.87167,92.2691
636.21,3.85167,93.2919
637.21,3.82167,94.3851
638.22,3.80167,89.5232
639.22,3.77167,90.8901
640.23,3.74167,89.488
641.23,3.71167,91.5054
642.23,3.68167,90.8012
643.23,3.66167,87.8606
644.23,3.63167,87.9352
645.24,3.60167,87.5409
646.23,3.57167,87.7425
647.23,3.55167,88.3248
648.23,3.53167,85.4295
649.23,3.50167,85.6189
650.25,3.47167,84.108
651.24,3.44167,86.0883
652.26,3.42167,86.0956
653.26,3.39167,83.5669
654.26,3.36167,83.9851
655.26,3.33167,81.9878
656.27,3.31167,83.1505
657.29,3.29167,82.9504
658.29,3.26167,82.3528
659.3,3.23167,81.9225
660.29,3.21167,83.6326
661.3,3.19167,79.6563
662.3,3.17167,81.0313
663.3,3.15167,80.1172
664.31,3.12167,80.4585
665.4,3.09167,83.063
666.32,3.06167,81.325
667.33,3.04167,78.5864
668.33,3.01167,77.2796
669.33,2.99167,77.023
670.33,2.97167,78.2004
671.32,2.94167,78.2464
672.33,2.91167,78.7967
673.33,2.89167,78.4486
674.32,2.87167,78.6837
675.34,2.86167,78.9908
676.33,2.83167,74.887
677.35,2.80167,76.118
678.34,2.78167,75.7291
679.35,2.75167,76.4238
680.35,2.73167,76.1867
681.35,2.70167,76.0812
682.37,2.68167,73.2429
683.37,2.65167,72.1371
684.35,2.63167,72.9875
685.37,2.61167,73.7602
686.36,2.59167,73.9277
687.36,2.55167,73.125
688.37,2.53167,73.7718
689.36,2.50167,72.8915
690.36,2.48167,74.4951
691.37,2.46167,70.6238
692.38,2.43167,70.1379
693.39,2.40167,71.8812
694.39,2.38167,70.5723
695.4,2.36167,72.846
696.42,2.34167,72.1308
697.43,2.31167,71.7098
698.42,2.28167,71.0601
699.43,2.26167,71.3159
700.44,2.25167,71.6576
701.46,2.23167,67.2216
702.47,2.21167,68.9741
703.48,2.19167,68.5808
704.49,2.17167,68.6676
705.49,2.15167,68.6639
706.48,2.12167,69.0204
707.49,2.10167,68.5248
708.49,2.08167,68.1774
709.49,2.06167,69.3513
710.48,2.04167,65.8685
711.48,2.02167,65.6912
712.49,2.00167,67.4327
713.48,1.97167,67.2785
714.48,1.95167,66.0368
715.49,1.92167,64.8552
716.49,1.90167,65.2835
717.51,1.88167,65.8765
718.52,1.85167,66.9714
719.51,1.83167,66.5219
720.52,1.81167,66.2869
721.54,1.78167,67.3826
722.54,1.76167,62.9596
723.55,1.74167,63.8136
724.56,1.72167,64.2863
725.56,1.70167,64.5275
726.56,1.68167,63.466
727.57,1.66167,64.9891
728.58,1.64167,63.893
729.59,1.62167,63.9852
730.6,1.60167,64.1683
731.61,1.58167,61.6921
732.61,1.56167,61.3591
733.61,1.53167,61.1465
734.6,1.51167,61.0085
735.6,1.48167,62.6771
736.6,1.46167,61.445
737.6,1.45167,61.1249
738.61,1.43167,61.4598
739.61,1.41167,60.3916
740.61,1.39167,61.7338
741.61,1.37167,60.9649
742.6,1.35167,63.0968
743.6,1.32167,61.6731
744.61,1.30167,61.9923
745.61,1.28167,61.0744
746.62,1.26167,60.9273
747.6,1.24167,60.6868
748.61,1.21167,60.3172
749.62,1.20167,61.9515
750.63,1.18167,58.8783
751.64,1.16167,58.1338
752.65,1.14167,58.6137
753.67,1.12167,58.759
754.69,1.09167,57.8764
755.7,1.07167,59.0439
756.71,1.06167,59.2569
757.72,1.04167,58.0236
758.71,1.01167,58.2598
759.72,0.991667,59.7276
760.72,0.971667,58.9136
761.73,0.951667,59.6211
762.73,0.931667,58.5446
763.74,0.911667,59.1971
764.74,0.891667,58.5467
765.81,0.871667,58.689
766.74,0.851667,59.4787
767.73,0.831667,59.7586
768.73,0.811667,55.9835
769.73,0.791667,56.2748
770.73,0.771667,56.7094
771.74,0.751667,55.3418
772.74,0.731667,55.5082
773.73,0.711667,56.3022
774.73,0.691667,56.8681
775.74,0.671667,57.2288
776.74,0.651667,56.7018
777.73,0.641667,56.9415
778.73,0.611667,56.285
779.73,0.591667,57.1462
780.75,0.561667,56.7395
781.76,0.541667,56.5284
782.78,0.531667,56.0654
783.8,0.511667,57.4473
784.81,0.491667,57.3234
785.81,0.481667,56.8096
786.82,0.461667,57.8352
787.84,0.441667,57.3954
788.85,0.421667,57.9321
789.87,0.401667,56.6865
790.86,0.381667,57.0301
791.87,0.361667,57.1889
792.88,0.331667,56.3366
793.89,0.321667,57.4897
794.9,0.301667,57.9073
795.92,0.281667,56.86
796.93,0.261667,57.0015
797.92,0.251667,57.036
798.93,0.231667,58.3887
799.95,0.211667,57.08
800.97,0.201667,57.5234
801.99,0.191667,56.8393
802.99,0.171667,56.6363
803.98,0.151667,57.0906
804.98,0.131667,54.4443
805.98,0.121667,54.131
806.98,0.101667,54.4368
807.99,0.0816667,54.0921
808.99,0.0616667,54.3266
809.99,0.0416667,54.8745
810.99,0.0216667,53.916
811.99,0.001666667,54.1262
812.98,-0.008333333,54.1651
813.99,-0.0283333,53.598
814.99,-0.0583333,54.6201
815.98,-0.0683333,53.9471
816.99,-0.0883333,53.9598
817.99,-0.0983333,54.3245
818.98,-0.118333,54.362
819.98,-0.138333,54.8507
820.99,-0.158333,51.0515
821.98,-0.178333,51.7134
822.98,-0.198333,51.8983
823.99,-0.218333,50.5012
824.98,-0.228333,50.7086
825.99,-0.238333,50.6337
826.99,-0.258333,51.1144
827.99,-0.278333,51.6525
828.99,-0.298333,51.3804
829.99,-0.308333,51.57
830.99,-0.318333,51.5411
831.99,-0.338333,50.9333
832.99,-0.358333,51.2587
833.98,-0.368333,51.5312
834.99,-0.378333,51.6435
835.99,-0.388333,52.0312
836.98,-0.408333,51.4899
837.98,-0.418333,51.8153
838.99,-0.438333,51.7495
839.99,-0.458333,51.3272
840.99,-0.468333,50.9887
841.99,-0.478333,52.4635
842.99,-0.498333,51.4582
843.99,-0.518333,51.0616
844.99,-0.538333,48.4279
845.98,-0.548333,48.4517
846.98,-0.558333,48.611
847.98,-0.558333,48.027
848.98,-0.568333,47.4197
849.98,-0.588333,47.878
850.98,-0.608333,48.2011
851.98,-0.628333,48.3303
852.99,-0.628333,48.4724
853.98,-0.648333,47.8804
854.98,-0.658333,48.5621
855.98,-0.658333,49.3304
856.98,-0.668333,49.3583
857.99,-0.688333,48.6852
858.99,-0.698333,49.4262
859.99,-0.708333,48.5921
860.99,-0.718333,48.3518
862,-0.728333,48.7139
863,-0.748333,49.4116
864,-0.758333,45.9385
865.02,-0.768333,45.5313
866.09,-0.788333,45.7286
867.04,-0.798333,46.8941
868.06,-0.808333,45.5072
869.08,-0.828333,45.6911
870.07,-0.838333,46.034
871.09,-0.848333,46.0596
872.1,-0.858333,45.6257
873.12,-0.868333,45.8509
874.12,-0.888333,46.4746
875.14,-0.908333,45.7633
876.14,-0.908333,43.1937
877.16,-0.918333,42.4315
878.16,-0.928333,42.6347
879.15,-0.938333,43.5517
880.16,-0.948333,43.4589
881.18,-0.968333,43.2555
882.19,-0.978333,42.8647
883.19,-0.988333,42.9495
884.2,-0.998333,42.6401
885.21,-1.00833,40.4019
886.21,-1.01833,40.0848
887.22,-1.01833,40.2108
888.23,-1.01833,40.0972
889.24,-1.01833,40.7699
890.23,-1.02833,40.6606
891.24,-1.03833,40.5083
892.24,-1.04833,39.7801
893.23,-1.05833,40.4871
894.23,-1.06833,38.2909
895.24,-1.08833,37.6621
896.26,-1.09833,37.414
897.27,-1.11833,37.528