File: PMMA/Calibration_Data/Edinburgh/Edinburgh_Cone_65kW_2.csv
Time,Mass,HRR,Back Temp
[s],[g],[kW/m2],[K]
0,70.406,2.3,293.45
1,70.436,2.2,293.45
2,70.446,2.4,293.45
3,70.446,2.3,293.45
4.1,70.456,2.2,293.45
5.1,70.466,2.1,293.45
6.1,70.456,2.4,293.45
7.1,70.446,2.3,293.45
8.1,70.446,2.3,293.45
9.1,70.456,2.3,293.55
10.1,70.466,2.2,293.45
11.2,70.476,2.1,293.45
12.2,70.476,2.2,293.55
13.2,70.486,2.2,293.55
14.2,70.496,2.1,293.55
15.2,70.506,1.8,293.55
16.2,70.496,1.9,293.55
17.2,70.476,1.8,293.55
18.3,70.446,1.6,293.55
19.3,70.396,4.7,293.55
20.3,70.316,4.5,293.55
21.3,70.186,4.5,293.65
22.3,70.006,4.1,293.65
23.3,69.846,4.4,293.65
24.3,69.706,4.3,293.65
25.3,69.546,4,293.65
26.4,69.386,4.2,293.65
27.4,69.226,4.3,293.75
28.4,69.036,4.2,293.85
29.4,68.836,4,293.75
30.4,68.636,7.1,293.85
31.4,68.406,12.4,293.85
32.4,68.186,16.1,293.85
33.5,67.966,24.6,293.85
34.5,67.766,39,293.95
35.5,67.556,58.6,293.95
36.5,67.336,76.7,294.05
37.5,67.096,117.2,294.05
38.5,66.736,124.2,294.05
40.1,66.566,135.1,294.15
40.9,66.396,157.9,294.15
41.7,66.176,189.2,294.15
42.6,65.956,219.3,294.25
43.6,65.726,220.9,294.25
44.6,65.486,246.2,294.35
45.6,65.256,269.9,294.35
46.6,64.996,279.6,294.35
47.7,64.726,299.1,294.45
48.7,64.466,315.6,294.45
49.7,64.216,321.6,294.45
50.7,63.966,342.1,294.55
51.7,63.706,374.2,294.55
52.7,63.456,372.6,294.65
53.7,63.176,393,294.75
54.8,62.896,384.7,294.75
55.8,62.636,413.5,294.85
56.8,62.356,425.7,294.85
57.8,62.096,440.7,294.95
58.8,61.846,435.8,295.05
59.8,61.546,454.6,295.05
60.8,61.236,450.3,295.15
61.9,60.966,474.8,295.15
62.9,60.676,486,295.25
63.9,60.366,491.7,295.35
64.9,60.066,503.3,295.45
65.9,59.786,503.7,295.45
66.9,59.486,505.1,295.55
67.9,59.206,507.5,295.65
69,58.926,532.5,295.75
70,58.666,535.6,295.75
71,58.406,562.4,295.85
72,58.136,572.2,295.95
73,57.866,525,296.05
74,57.596,563.5,296.15
75,57.296,539.2,296.15
76.1,56.996,577.7,296.25
77.1,56.736,557.6,296.35
78.1,56.466,584.7,296.45
79.1,56.196,559.4,296.55
80.1,55.956,580,296.65
81.1,55.716,597.3,296.75
82.1,55.446,568.7,296.95
83.1,55.186,593.4,297.05
84.2,54.926,575.9,297.15
85.2,54.656,583.3,297.25
86.2,54.396,610.5,297.45
87.2,54.126,578.9,297.55
88.2,53.856,614.1,297.75
89.2,53.586,615.4,297.85
90.2,53.316,630.3,298.05
91.3,53.036,615.6,298.15
92.3,52.786,620,298.35
93.3,52.526,608.1,298.55
94.3,52.246,626.4,298.65
95.3,51.956,614,298.85
96.3,51.666,621.9,298.95
97.3,51.386,608.1,299.15
98.4,51.106,613.7,299.35
99.4,50.656,632.1,299.55
101,50.456,599.1,299.65
101.7,50.266,621.6,299.75
102.5,50.006,638.6,299.95
103.4,49.736,645.9,300.05
104.4,49.446,627.6,300.15
105.5,49.186,649.4,300.35
106.5,48.916,624,300.45
107.5,48.666,641.4,300.65
108.5,48.396,672.7,300.75
109.5,48.106,646.1,300.95
110.5,47.816,655.2,301.05
111.5,47.536,641.5,301.25
112.6,47.266,640.8,301.35
113.6,46.986,660.5,301.45
114.6,46.716,629.5,301.65
115.6,46.446,643.7,301.75
116.6,46.156,642.6,301.95
117.6,45.866,642.2,302.05
118.6,45.576,673.5,302.25
119.7,45.286,669.6,302.35
120.7,45.006,642.5,302.55
121.7,44.726,643.7,302.65
122.7,44.436,659.7,302.85
123.7,44.136,638.6,302.95
124.7,43.856,657.9,303.15
125.7,43.556,682.7,303.25
126.8,43.266,661.3,303.45
127.8,42.986,689.7,303.65
128.8,42.686,658.8,303.75
129.8,42.396,669.7,303.85
130.8,42.086,685.5,304.05
131.8,41.776,700.4,304.15
132.8,41.476,671.3,304.35
133.8,41.176,699,304.55
134.9,40.866,708.6,304.65
135.9,40.576,654.1,304.75
136.9,40.276,669.4,304.95
137.9,39.976,693.5,305.05
138.9,39.656,696,305.35
139.9,39.176,700.3,305.45
141.5,38.956,673.1,305.55
142.3,38.716,671.9,305.75
143,38.426,670.6,305.85
144,38.116,730.7,306.05
145,37.806,679.6,306.25
146,37.496,714.1,306.35
147,37.176,702.3,306.55
148,36.866,697.6,306.65
149.1,36.556,743.7,306.85
150.1,36.226,694.9,306.95
151.1,35.906,708.8,307.15
152.1,35.576,736.5,307.35
153.1,35.256,700.9,307.45
154.1,34.946,706.6,307.65
155.1,34.616,712,307.75
156.2,34.266,688.1,307.95
157.2,33.946,756.1,308.15
158.2,33.606,730.6,308.25
159.2,33.256,714.6,308.45
160.2,32.916,732.1,308.65
161.2,32.566,728.8,308.75
162.2,32.226,713.5,308.95
163.3,31.886,779.1,309.05
164.3,31.526,721.7,309.25
165.3,31.156,731.1,309.35
166.3,30.806,759.4,309.55
167.3,30.446,736.8,309.75
168.3,30.096,717.5,309.85
169.3,29.746,728.9,310.05
170.4,29.376,751.6,310.15
171.4,29.006,772.5,310.35
172.4,28.646,772.5,310.55
173.4,28.286,764.2,310.65
174.4,27.906,764.3,310.85
175.4,27.536,775,311.05
176.4,27.176,776.8,311.15
177.5,26.826,791.9,311.35
178.5,26.466,751.2,311.55
179.5,26.116,778.1,311.75
180.5,25.766,817.2,311.95
181.5,25.386,815.7,312.15
182.5,25.016,803.5,312.35
183.5,24.656,837.6,312.55
184.5,24.286,816.4,312.85
185.6,23.936,844.5,313.05
186.6,23.566,842.4,313.25
187.6,23.196,845.9,313.55
188.6,22.816,830.3,313.85
189.6,22.426,834.7,314.15
190.6,22.046,816,314.35
191.6,21.696,893.6,314.65
192.7,21.336,817.4,315.05
193.7,20.966,859.6,315.35
194.7,20.596,864.8,315.65
195.7,20.226,897.8,315.95
196.7,19.856,854.4,316.25
197.7,19.496,879.4,316.65
198.7,19.136,867.2,316.95
199.8,18.776,873.1,317.25
200.8,18.406,868.2,317.65
201.8,18.046,842.9,317.95
202.8,17.676,937.8,318.35
203.8,17.326,908.4,318.75
204.8,16.976,856.4,319.05
205.8,16.626,875.5,319.45
206.9,16.266,891.4,319.85
207.9,15.896,908,320.25
208.9,15.526,908.8,320.65
209.9,15.156,927.7,321.05
210.9,14.796,880.5,321.35
211.9,14.456,955.5,321.75
212.9,14.146,940.3,322.15
214,13.826,890.2,322.55
215,13.516,944.6,322.95
216,13.206,955.8,323.35
217,12.936,934.2,323.75
218,12.676,955.7,324.15
219,12.406,1003.1,324.55
220,12.166,978.1,325.05
221.1,11.916,998.8,325.45
222.1,11.676,993.8,325.95
223.1,11.466,1026.3,326.35
224.1,11.246,975.2,326.85
225.1,11.036,1027.8,327.35
226.1,10.836,1000,327.85
227.1,10.636,1018.2,328.35
228.2,10.446,1024.3,328.85
229.2,10.276,1027.5,329.35
230.2,10.106,1003.1,329.85
231.2,9.926,978.4,330.45
232.2,9.786,998.1,330.95
233.2,9.666,966.9,331.45
234.2,9.526,970.7,332.05
235.3,9.376,933.3,332.55
236.3,9.226,917.7,333.15
237.3,9.096,903,333.75
238.3,8.956,874.5,334.25
239.3,8.806,844.5,334.75
240.3,8.676,822.7,335.65
241.3,8.456,806.1,336.15
243,8.366,771.2,336.55
243.7,8.266,770.5,337.05
244.5,8.146,730.6,337.55
245.4,8.026,702,338.15
246.4,7.916,696.1,338.75
247.4,7.826,684.4,339.35
248.4,7.726,653.9,339.95
249.4,7.636,669.1,340.55
250.5,7.516,606.6,341.15
251.5,7.386,580.1,341.75
252.5,7.276,578.3,342.35
253.5,7.166,567.6,342.95
254.5,7.056,547.5,343.55
255.5,6.966,530.8,344.25
256.5,6.876,491.7,344.85
257.6,6.796,483.4,345.45
258.6,6.716,476.2,346.05
259.6,6.636,451.4,346.65
260.6,6.556,436.5,347.25
261.6,6.446,425,347.95
262.6,6.346,416.9,348.55
263.6,6.276,409.5,349.15
264.7,6.206,402.2,349.75
265.7,6.086,380.2,350.45
266.7,5.936,368.2,351.05
267.7,5.826,366.5,351.65
268.7,5.746,358,352.35
269.7,5.686,361.8,352.95
270.7,5.596,341.6,353.55
271.8,5.506,330.9,354.25
272.8,5.436,318.1,354.85
273.8,5.356,316,355.55
274.8,5.276,308.2,356.15
275.8,5.176,312,356.85
276.8,5.096,291.2,357.45
277.8,5.006,282.9,358.15
278.9,4.956,288,358.75
279.9,4.896,275.1,359.45
280.9,4.846,272.4,360.05
281.9,4.806,267.1,360.75
282.9,4.766,255.4,361.45
283.9,4.706,252.7,362.05
284.9,4.656,256.4,362.75
286,4.636,243.5,363.45
287,4.606,238.5,364.05
288,4.586,237.1,364.75
289,4.546,226.7,365.35
290,4.506,230.6,366.05
291,4.486,225.1,366.65
292,4.456,230.2,367.35
293,4.436,220,367.95
294.1,4.436,212.5,368.65
295.1,4.396,211.1,369.25
296.1,4.346,213.3,369.85
297.1,4.296,207.8,370.45
298.1,4.266,198.6,370.85
299.1,4.236,200.1,371.05
300.1,4.206,197.9,371.25
301.2,4.156,191.2,371.15
302.2,4.106,196.2,370.65
303.2,4.076,192.2,370.55
304.2,4.046,189.2,370.55
305.2,4.016,186.4,370.55
306.2,4.006,186.3,370.75
307.2,3.986,184.7,370.85
308.3,3.956,179.1,371.25
309.3,3.946,177.3,371.85
310.3,3.936,168.6,372.35
311.3,3.896,171.3,372.95
312.3,3.876,166.7,373.55
313.3,3.866,167.6,374.15
314.3,3.846,161.8,374.75
315.4,3.896,154.4,375.35
316.4,3.916,155,376.05
317.4,3.906,151.5,376.95
318.4,3.886,149.9,377.85
319.4,3.846,147.9,378.85
320.4,3.806,144.6,379.75
321.4,3.766,141.2,380.75
322.5,3.766,140.4,381.55
323.5,3.766,138.1,382.45
324.5,3.796,137.5,383.25
325.5,3.786,130.9,384.05
326.5,3.756,131.9,384.75
327.5,3.756,124.8,385.45
328.5,3.756,124.2,386.15
329.6,3.736,121.4,386.85
330.6,3.696,117.2,387.45
331.6,3.686,116.4,388.05
332.6,3.676,112,388.75
333.6,3.686,113.2,389.25
334.6,3.686,113.4,389.95
335.6,3.676,106.8,390.45
336.7,3.686,103,390.95
337.7,3.716,102.6,391.55
338.7,3.756,101,392.05
339.7,3.776,97.9,392.55
340.7,3.796,96.3,393.05
341.7,3.816,93.5,393.95
342.7,3.856,91.4,394.25
344.4,3.856,88.1,394.75
345.2,3.866,91.5,395.15
345.9,3.866,87.2,395.65
346.8,3.866,85.3,396.15
347.8,3.866,85.6,396.65
348.8,3.846,81.6,397.15
349.8,3.826,80.1,397.65
350.8,3.816,81,398.05
351.9,3.816,79.1,398.65
352.9,3.806,76.7,399.05
353.9,3.786,77,399.55
354.9,3.756,72.4,400.05
355.9,3.736,72.9,400.45
356.9,3.726,71.2,400.95
357.9,3.726,69.4,401.45
359,3.716,70.4,401.95
360,3.706,70.1,402.45
361,3.706,67.7,402.95
362,3.706,68.7,403.45
363,3.696,65.8,403.95
364,3.686,66.3,404.35
365,3.676,65.9,404.85
366.1,3.666,63.7,405.35
367.1,3.656,63.7,405.75
368.1,3.646,63.5,406.25
369.1,3.626,62.7,406.65
370.1,3.616,60.1,407.15
371.1,3.586,62.1,407.55
372.1,3.576,58,407.95
373.2,3.576,58.9,408.35
374.2,3.546,60.2,408.85
375.2,3.516,59.6,409.25
376.2,3.496,59.8,409.65
377.2,3.476,57.1,410.25
378.2,3.456,56.5,410.65
379.2,3.466,57.4,411.05
380.3,3.446,56.9,411.55
381.3,3.416,55.3,411.95
382.3,3.416,54.4,412.35
383.3,3.406,54.4,412.75
384.3,3.396,55.6,413.15
385.3,3.376,52.4,413.65
386.3,3.376,51.8,414.15
387.4,3.366,51.7,414.55
388.4,3.356,52.1,415.05
389.4,3.356,52.1,415.45
390.4,3.376,49.7,415.85
391.4,3.376,49.5,416.35
392.4,3.376,48.6,416.75
393.4,3.376,48.9,417.25
394.5,3.366,49.8,417.65
395.5,3.366,49.7,418.05
396.5,3.366,46.4,418.55
397.5,3.356,46.8,418.95
398.5,3.366,46.1,419.35
399.5,3.376,47,419.85
400.5,3.396,47,420.25
401.5,3.406,46.7,420.65
402.6,3.416,47.9,421.05
403.6,3.396,43.8,421.45
404.6,3.366,44.4,421.85
405.6,3.356,44.4,422.35
406.6,3.346,45.3,422.75
407.6,3.346,44.2,423.15
408.6,3.346,45.3,423.55
409.7,3.326,45,423.95
410.7,3.316,44.5,424.35
411.7,3.306,41.9,424.75
412.7,3.306,41.3,425.15
413.7,3.296,41.9,425.65
414.7,3.306,42.4,425.95
415.7,3.306,42.4,426.35
416.8,3.306,39.8,426.75
417.8,3.296,39.9,427.15
418.8,3.276,39.6,427.55
419.8,3.276,40.2,427.95
420.8,3.276,39.8,428.35
421.8,3.266,37.1,428.75
422.8,3.236,37.4,429.15
423.9,3.186,36.9,429.45
424.9,3.166,38.3,429.95
425.9,3.166,37.1,430.25
426.9,3.166,34.9,430.65
427.9,3.146,35.5,431.05
428.9,3.156,34.8,431.45
429.9,3.156,35.2,431.85
431,3.166,35.5,432.25
432,3.166,32.5,432.65
433,3.156,32.3,433.05
434,3.136,32,433.35
435,3.116,32.1,433.75
436,3.126,32.4,434.15
437,3.146,32.6,434.55
438.1,3.146,32,434.95
439.1,3.136,29.8,435.25
440.1,3.116,29.7,435.65
441.1,3.116,29.4,436.05
442.1,3.116,30,436.35
443.1,3.106,29.3,437.05
444.1,3.106,30.2,437.35
445.9,3.096,30.1,437.65
446.6,3.096,30.4,437.95
447.4,3.096,27,438.25
448.2,3.096,27.3,438.65
449.2,3.106,27.4,439.05
450.2,3.086,27.9,439.45
451.2,3.056,27.6,439.75
452.2,3.036,27.6,440.15
453.3,3.016,28.5,440.55
454.3,3.016,24.8,440.85
455.3,3.006,24.9,441.25
456.3,2.986,25.3,441.55
457.3,2.996,24.8,441.95
458.3,3.006,24.9,442.35
459.3,2.996,25.1,442.65
460.4,2.996,22.4,442.95
461.4,3.016,22.3,443.35
462.4,3.016,22.1,443.65
463.4,3.016,22.7,444.05
464.4,2.996,22.3,444.45
465.4,3.006,19.2,444.75
466.4,3.006,19.8,445.15
467.5,2.996,20,445.45
468.5,2.996,20,445.75
469.5,2.996,16.4,446.15
470.5,2.996,16.8,446.45
471.5,3.016,17.2,446.85
472.5,3.006,17,447.15
473.5,2.996,17.4,447.45
474.6,2.986,17.2,447.85
475.6,2.976,14.1,448.15
476.6,2.966,14.1,448.45
477.6,2.956,14.1,448.75
478.6,2.966,14.5,449.15
479.6,2.976,14.5,449.45
480.6,2.986,14.8,449.85
481.7,2.986,14.6,450.15
482.7,2.976,14.8,450.45
483.7,2.986,14.7,450.85
484.7,2.976,11.6,451.15
485.7,2.976,11.7,451.45
486.7,2.986,11.6,451.75
487.7,2.976,12,452.05
488.8,2.976,11.9,452.45
489.8,2.966,11.8,452.75
490.8,2.956,11.9,453.05
491.8,2.946,12.5,453.45
492.8,2.946,11.7,453.75
493.8,2.956,9,454.05
494.8,2.946,9.1,454.35
495.9,2.946,9.1,454.75
496.9,2.946,9,455.05
497.9,2.946,8.8,455.35
498.9,2.956,9.4,455.65
499.9,2.956,9.3,455.95
500.9,2.936,9.3,456.35
501.9,2.936,9.5,456.65
502.9,2.926,9.3,456.95
504,2.926,9.3,457.25
505,2.936,9.2,457.55
506,2.926,9.2,457.85
507,2.936,9.6,458.25
508,2.946,9.4,458.55
509,2.956,9.5,458.85
510,2.956,9.6,459.15
511.1,2.946,6.4,459.45
512.1,2.936,6.5,459.75
513.1,2.926,6.6,460.05
514.1,2.936,6.7,460.35
515.1,2.936,6.6,460.75
516.1,2.916,6.6,460.95
517.1,2.926,6.9,461.35
518.2,2.946,6.8,461.65
519.2,2.946,6.8,461.95
520.2,2.936,6.9,462.25
521.2,2.946,7.1,462.55
522.2,2.956,7.1,462.85
523.2,2.946,6.9,463.15
524.2,2.926,7.2,463.45
525.3,2.916,7,463.75
526.3,2.946,6.6,464.05
527.3,2.946,7.2,464.45
528.3,2.936,4.2,464.65
529.3,2.946,4.2,465.05
530.3,2.946,4.2,465.25
531.3,2.956,4.1,465.55
532.4,2.956,4.1,465.85
533.4,2.946,4.1,466.25
534.4,2.936,4.2,466.45
535.4,2.926,4.2,466.85
536.4,2.906,4.1,467.05
537.4,2.916,4.2,467.35
538.4,2.916,4.2,467.65
539.5,2.926,4.3,467.95
540.5,2.936,4.3,468.25
541.5,2.946,4.4,468.55
542.5,2.936,4.4,468.85
543.5,2.936,4.3,469.15
544.5,2.936,4.5,469.65
545.5,2.916,4.4,469.85
547.3,2.916,4.5,470.15
548.1,2.926,4.4,470.35
548.8,2.916,4.3,470.65
549.6,2.916,4.4,470.95
550.6,2.936,4.4,471.25
551.6,2.926,1.2,471.55
552.6,2.926,1.4,471.75
553.6,2.946,1.4,472.15
554.7,2.946,1.2,472.35