File: PMMA/Calibration_Data/Edinburgh/Edinburgh_Cone_25kW_5.csv
Time,Mass,HRR
[s],[g],[kW/m2]
0,70.2983,0.799384
1.01,70.2883,0.857115
2.01,70.2883,0.97446
2.99,70.2883,0.764207
3.99,70.2883,0.903614
5,70.2883,0.895936
5.99,70.2783,0.930012
7,70.2883,1.08716
8.01,70.2783,0.985646
9,70.2783,1.03122
10,70.2783,1.00714
11.01,70.2783,0.981108
12.01,70.2783,0.984647
13,70.2783,1.06001
14,70.2783,1.04562
15,70.2783,0.941942
16,70.2683,0.954804
17,70.2683,0.98664
18,70.2783,1.09075
19,70.2683,1.0469
20,70.2683,0.952842
21.01,70.2783,0.804517
22.01,70.2783,0.86832
23.01,70.2783,1.0293
24.03,70.2783,1.04715
25.03,70.2783,0.980805
26.04,70.2783,0.962058
27.06,70.2683,0.946375
28.07,70.2683,0.850587
29.08,70.2683,0.955939
30.09,70.2783,0.949849
31.1,70.2683,1.01872
32.11,70.2683,0.85863
33.12,70.2683,0.950431
34.12,70.2583,0.837842
35.13,70.2583,1.04861
36.13,70.2583,1.06944
37.13,70.2483,1.11901
38.12,70.2483,0.985319
39.13,70.2483,0.986557
40.14,70.2583,0.981754
41.14,70.2583,1.07891
42.14,70.2483,1.05196
43.15,70.2583,1.05489
44.16,70.2583,1.02421
45.16,70.2583,0.938978
46.17,70.2483,1.04978
47.18,70.2383,1.07981
48.19,70.2383,1.14131
49.2,70.2383,1.16075
50.21,70.2383,1.12534
51.22,70.2383,1.05024
52.22,70.2383,1.25447
53.22,70.2383,1.24339
54.24,70.2283,1.25503
55.25,70.2183,1.19544
56.29,70.2183,1.25858
57.25,70.2183,1.18328
58.25,70.2083,1.31163
59.26,70.1983,1.3766
60.25,70.1883,1.2886
61.24,70.1783,1.1695
62.26,70.1583,1.04712
63.27,70.1283,0.892094
64.27,70.1083,1.01414
65.28,70.0683,0.93825
66.29,70.0083,0.959414
67.32,69.9483,0.842927
68.33,69.8783,0.805196
69.34,69.7983,0.920458
70.36,69.7083,0.886316
71.38,69.6183,0.91721
72.38,69.5083,0.805642
73.38,69.3983,0.850944
74.38,69.2883,0.804184
75.37,69.1783,0.746539
76.38,69.0583,0.899921
77.37,68.9383,0.876401
78.38,68.8283,0.755678
79.37,68.7083,0.731813
80.38,68.5783,0.651806
81.38,68.4683,0.738325
82.37,68.3483,0.805018
83.37,68.2283,0.807193
84.37,68.1083,0.693076
85.37,67.9883,0.692071
86.37,67.8683,0.595602
87.38,67.7483,3.45264
88.38,67.6183,3.41221
89.38,67.4983,6.30014
90.37,67.3683,8.80484
91.38,67.2483,11.1671
92.38,67.1183,14.4291
93.37,66.9883,19.4589
94.37,66.8583,21.8122
95.38,66.7283,29.7946
96.37,66.5983,36.4866
97.38,66.4783,45.715
98.38,66.3483,52.6599
99.38,66.2183,56.4794
100.38,66.0983,66.8107
101.38,65.9683,76.5983
102.38,65.8283,85.8411
103.37,65.6983,98.3379
104.38,65.5683,100.364
105.38,65.4283,111.828
106.37,65.2983,117.016
107.39,65.1683,127.987
108.4,65.0383,140.305
109.42,64.9083,144.222
110.44,64.7683,145.915
111.45,64.6283,158.312
112.46,64.4983,172.769
113.47,64.3683,175.609
114.49,64.2383,180.133
115.51,64.0983,186.043
116.51,63.9683,194.071
117.5,63.8383,200.658
118.49,63.7083,208.756
119.5,63.5683,210.518
120.5,63.4383,214.765
121.51,63.3083,228.481
122.51,63.1683,232.639
123.5,63.0283,236.818
124.51,62.8883,232.291
125.5,62.7483,243.183
126.5,62.6183,246.791
127.5,62.4783,248.684
128.51,62.3483,254.986
129.5,62.2083,256.888
130.51,62.0683,269.938
131.5,61.9283,268.874
132.5,61.7883,265.726
133.49,61.6583,273.665
134.5,61.5183,267.309
135.5,61.3783,276.933
136.51,61.2383,278.615
137.5,61.0983,274.306
138.49,60.9483,284.836
139.5,60.8083,283.628
140.5,60.6583,291.188
141.5,60.5183,292.396
142.51,60.3783,294.473
143.5,60.2383,294.375
144.49,60.0983,292.571
145.51,59.9583,296.192
146.49,59.8083,302.806
147.5,59.6683,302.482
148.51,59.5283,308.523
149.5,59.3883,303.28
150.5,59.2383,304.207
151.5,59.0883,306.523
152.49,58.9483,312.681
153.51,58.8083,312.145
154.49,58.6583,316.314
155.49,58.5183,320.37
156.55,58.3683,315.706
157.5,58.2083,317.413
158.5,58.0683,314.98
159.49,57.9183,328.593
160.5,57.7783,320.048
161.5,57.6283,318.241
162.5,57.4883,327.872
163.51,57.3383,324.946
164.49,57.1883,323.176
165.5,57.0383,327.038
166.5,56.8883,332.476
167.5,56.7383,336.164
168.5,56.5883,331.7
169.5,56.4383,338.872
170.5,56.2883,338.651
171.5,56.1383,348.837
172.5,55.9883,337.544
173.51,55.8383,340.759
174.51,55.6883,339.255
175.49,55.5483,348.718
176.5,55.3983,338.153
177.5,55.2383,346.277
178.51,55.0883,345.923
179.5,54.9383,341.635
180.49,54.7983,339.415
181.5,54.6383,341.508
182.5,54.4883,341.743
183.5,54.3483,350.495
184.49,54.1983,343.686
185.51,54.0483,343.655
186.51,53.8883,347.518
187.5,53.7383,350.25
188.5,53.5783,354.939
189.5,53.4283,351.705
190.51,53.2783,343.682
191.5,53.1283,354.167
192.51,52.9783,350.267
193.53,52.8183,360.488
194.53,52.6683,354.647
195.54,52.5183,359.669
196.56,52.3583,352.843
197.57,52.2083,357.432
198.57,52.0483,361.692
199.58,51.8783,356.412
200.59,51.7283,360.399
201.58,51.5683,360.67
202.6,51.4083,360.935
203.6,51.2483,361.75
204.61,51.0983,364.657
205.62,50.9383,359.628
206.63,50.7883,362.696
207.64,50.6283,365.165
208.64,50.4683,361.482
209.65,50.3083,361.413
210.66,50.1583,376.392
211.68,49.9983,375.88
212.68,49.8283,378.061
213.69,49.6683,370.526
214.7,49.5083,363.964
215.71,49.3483,370.021
216.73,49.1983,369.21
217.73,49.0283,371.747
218.74,48.8683,372.597
219.76,48.7083,361.192
220.75,48.5383,378.441
221.76,48.3783,369.196
222.74,48.2183,369.553
223.75,48.0583,377.935
224.75,47.8983,366.805
225.76,47.7383,376.214
226.76,47.5783,369.109
227.76,47.4083,374.142
228.76,47.2483,375.381
229.78,47.0883,374.457
230.8,46.9183,382.567
231.8,46.7483,387.591
232.8,46.5783,383.874
233.81,46.4183,380.151
234.81,46.2483,388.27
235.82,46.0883,371.557
236.84,45.9183,375.469
237.85,45.7583,394.276
238.86,45.5883,385.973
239.87,45.4183,379.605
240.88,45.2583,385.643
241.87,45.0883,378.501
242.88,44.9283,377.581
243.87,44.7483,374.851
244.88,44.5783,383.038
245.88,44.4083,381.223
246.88,44.2383,377.773
247.88,44.0783,385.316
248.87,43.8983,391.964
249.88,43.7383,393.753
250.87,43.5683,393.058
251.88,43.3883,396.366
252.87,43.2183,384.682
253.89,43.0383,396.619
254.91,42.8583,382.978
255.92,42.6783,381.283
256.96,42.5083,395.153
257.93,42.3283,388.884
258.94,42.1583,382.732
259.95,41.9783,389.702
260.97,41.7983,378.566
261.97,41.6183,393.619
262.97,41.4483,389.013
263.96,41.2683,389.014
264.97,41.0983,387.938
265.99,40.9183,404.45
267,40.7383,405.018
268.01,40.5583,399.543
269.01,40.3783,400.593
270.02,40.1983,404.06
271.04,40.0283,418
272.05,39.8383,402.953
273.05,39.6583,415.586
274.07,39.4783,392.706
275.06,39.3083,396.148
276.06,39.1383,399.419
277.08,38.9583,407.207
278.08,38.7783,410.619
279.09,38.5983,405.336
280.09,38.4283,425.242
281.1,38.2483,399.606
282.12,38.0583,418.086
283.13,37.8783,414.459
284.12,37.7183,422.583
285.12,37.5483,433.599
286.13,37.3683,407.926
287.13,37.1783,418.937
288.12,37.0083,407.842
289.14,36.8283,422.161
290.14,36.6583,425.045
291.16,36.4683,427.037
292.17,36.2883,427.021
293.18,36.1083,427.226
294.19,35.9183,423.838
295.18,35.7483,426.223
296.18,35.5783,430.459
297.21,35.3983,446.29
298.21,35.2183,431.459
299.21,35.0283,426.473
300.22,34.8483,431.127
301.23,34.6583,437.112
302.24,34.4683,427.672
303.25,34.2883,440.579
304.26,34.0983,425.914
305.24,33.9183,440.94
306.26,33.7383,436.038
307.25,33.5483,429.569
308.26,33.3683,432.478
309.25,33.1883,428.186
310.25,32.9883,438.184
311.24,32.7983,442.131
312.26,32.6083,428.663
313.25,32.4283,441.42
314.24,32.2383,446.75
315.26,32.0583,438.674
316.25,31.8583,446.271
317.25,31.6783,428.047
318.25,31.4883,440.448
319.25,31.2983,443.881
320.26,31.1083,443.428
321.25,30.9083,440.793
322.24,30.7083,437.308
323.25,30.5283,446.736
324.25,30.3383,440.082
325.25,30.1283,455.551
326.25,29.9383,441.442
327.24,29.7383,459.681
328.26,29.5383,441.349
329.25,29.3183,438.377
330.26,29.1083,436.614
331.25,28.8883,438.8
332.25,28.6783,446.091
333.25,28.4583,430.202
334.26,28.2483,447.887
335.24,28.0183,453.061
336.26,27.8183,443.487
337.25,27.6183,442.683
338.25,27.4083,465.746
339.26,27.2083,462.28
340.26,27.0083,453.419
341.26,26.7983,462.512
342.26,26.5983,453.264
343.26,26.3883,463.487
344.26,26.1783,447.51
345.26,25.9783,444.261
346.28,25.7683,465.499
347.28,25.5583,451.577
348.3,25.3383,459.667
349.31,25.1283,469.82
350.32,24.9183,445.338
351.33,24.7083,470.275
352.33,24.5083,465.156
353.34,24.3183,465.341
354.36,24.1183,469.466
355.38,23.9083,486.117
356.37,23.6983,478.209
357.38,23.4983,480.04
358.38,23.2983,494.369
359.38,23.0983,492.289
360.38,22.8983,499.303
361.38,22.6983,492.777
362.37,22.4983,502.156
363.38,22.3083,507.885
364.37,22.1183,495.488
365.38,21.9283,513.115
366.38,21.7283,497.057
367.39,21.5383,512.222
368.39,21.3583,512.757
369.41,21.1683,529.422
370.42,20.9883,511.115
371.44,20.7983,521.729
372.43,20.6083,504.476
373.45,20.4283,523.203
374.46,20.2483,536.348
375.47,20.0683,525.3
376.49,19.8883,535.62
377.51,19.7083,528.791
378.5,19.5383,540.611
379.51,19.3783,535.726
380.49,19.2083,524.268
381.5,19.0483,535.169
382.51,18.8783,537.35
383.51,18.7183,525.423
384.51,18.5483,535.922
385.52,18.3883,537.071
386.53,18.2283,531.252
387.55,18.0783,544.164
388.56,17.9283,524.283
389.57,17.7783,546.461
390.56,17.6383,542.709
391.57,17.4983,554.814
392.59,17.3483,546.984
393.6,17.2183,544.378
394.62,17.0883,540.328
395.63,16.9483,553.371
396.63,16.8183,549.717
397.63,16.6883,537.282
398.62,16.5683,553.619
399.63,16.4383,546.73
400.63,16.3183,546.52
401.63,16.1983,550.395
402.63,16.0783,540.622
403.62,15.9583,530.169
404.62,15.8583,542.217
405.63,15.7483,541.407
406.62,15.6283,521.69
407.63,15.5183,522.655
408.62,15.4183,526.587
409.63,15.3183,525.087
410.63,15.2083,534.438
411.63,15.1083,509.381
412.62,15.0083,520.488
413.63,14.9083,527.307
414.63,14.8083,513.369
415.63,14.7183,514.791
416.63,14.6283,507.445
417.63,14.5383,490.764
418.62,14.4483,490.357
419.62,14.3683,500.275
420.63,14.2683,478.443
421.63,14.1783,478.82
422.62,14.0883,476.733
423.63,14.0083,478.058
424.63,13.9283,467.377
425.63,13.8483,459.275
426.62,13.7783,456.605
427.62,13.6983,446.059
428.62,13.6283,444.715
429.63,13.5483,439.566
430.63,13.4783,424.989
431.64,13.4083,424.537
432.64,13.3283,417.573
433.65,13.2483,420.651
434.65,13.1783,409.461
435.67,13.1083,398.945
436.67,13.0383,391.662
437.68,12.9683,392.799
438.68,12.8983,388.193
439.69,12.8283,385.233
440.7,12.7583,371.35
441.7,12.6883,371.379
442.71,12.6183,363.915
443.73,12.5583,354.471
444.73,12.4983,351.906
445.75,12.4283,347.639
446.75,12.3483,336.253
447.75,12.2883,329.715
448.75,12.2383,328.877
449.75,12.1683,321.525
450.75,12.1183,318.184
451.76,12.0583,311.002
452.76,11.9883,304.593
453.74,11.9283,304.862
454.75,11.8783,298.605
455.75,11.8183,292.977
456.76,11.7583,287.933
457.77,11.6983,289.217
458.74,11.6383,280.301
459.75,11.5783,279.508
460.75,11.5183,267.861
461.75,11.4583,263.149
462.75,11.4183,263.884
463.74,11.3583,261.482
464.75,11.3083,256.697
465.76,11.2583,250.75
466.74,11.1983,248.973
467.74,11.1383,241.337
468.75,11.0883,243.855
469.75,11.0383,241.426
470.76,10.9783,235.073
471.77,10.9283,232.894
472.78,10.8783,229.747
473.8,10.8283,223.882
474.81,10.7683,219.713
475.83,10.7183,218.393
476.84,10.6683,211.481
477.84,10.6183,211.458
478.86,10.5683,210.344
479.87,10.5183,205.718
480.88,10.4683,202.872
481.87,10.4183,197.765
482.87,10.3683,199.093
483.89,10.3183,195.702
484.89,10.2783,192.537
485.9,10.2283,190.47
486.88,10.1683,190.535
487.89,10.1183,185.944
488.91,10.0783,185.808
489.91,10.0283,182.695
490.93,9.98833,181.429
491.94,9.93833,180.738
492.93,9.88833,172.548
493.95,9.84833,170.675
494.95,9.79833,171.895
495.96,9.75833,170.83
496.98,9.71833,168.403
497.99,9.66833,169.416
498.99,9.61833,165.072
499.99,9.57833,165.839
501,9.52833,161.204
502,9.48833,159.854
503,9.44833,159.963
504,9.40833,158.731
505,9.36833,160.406
506,9.32833,156.828
507,9.28833,157.732
507.99,9.23833,155.928
509,9.19833,153.78
509.99,9.15833,148.329
510.99,9.12833,149.512
512,9.08833,150.07
513,9.03833,147.938
514,8.99833,146.185
515,8.94833,145.514
516.01,8.91833,144.668
517,8.87833,143.485
518,8.83833,142.607
518.99,8.79833,138.143
520,8.75833,141.168
521.01,8.71833,140.613
522.01,8.67833,138.578
523,8.63833,140.394
524,8.59833,137.267
525.01,8.56833,134.997
526,8.52833,136.411
526.99,8.47833,132.394
527.99,8.43833,132.727
529,8.40833,131.297
530.01,8.36833,132.299
531,8.32833,129.896
532,8.28833,127.34
532.99,8.24833,129.278
534,8.20833,128.882
535,8.17833,126.48
536,8.13833,126.394
537,8.09833,127.257
538,8.05833,124.256
539,8.02833,124.878
540,7.98833,124.305
541,7.95833,121.779
542.01,7.91833,122.105
543.01,7.88833,116.703
544.01,7.84833,118.447
545,7.80833,118.99
546,7.77833,117.793
546.99,7.73833,117.353
547.99,7.69833,118.816
549.01,7.65833,117.819
550.02,7.62833,115.819
551.03,7.59833,114.786
552.04,7.56833,114.465
553.05,7.52833,115.919
554.07,7.49833,118.038
555.06,7.45833,112.718
556.07,7.42833,111.821
557.09,7.39833,111.883
558.1,7.36833,109.29
559.09,7.32833,108.259
560.11,7.29833,110.25
561.11,7.25833,110.689
562.13,7.22833,108.62
563.12,7.19833,108.148
564.13,7.15833,108.862
565.13,7.12833,107.375
566.12,7.09833,106.711
567.12,7.06833,103.377
568.13,7.03833,103.323
569.12,6.99833,106.235
570.13,6.96833,105.97
571.13,6.93833,107.135
572.12,6.91833,102.747
573.13,6.87833,102.331
574.12,6.84833,102.031
575.12,6.81833,103.948
576.12,6.77833,104.149
577.12,6.74833,102.802
578.13,6.71833,100.26
579.12,6.68833,100.531
580.13,6.65833,100.974
581.12,6.61833,101.898
582.13,6.58833,98.4133
583.12,6.55833,97.139
584.12,6.52833,99.4976
585.13,6.49833,100.259
586.13,6.46833,99.8934
587.12,6.44833,98.7205
588.12,6.40833,96.1977
589.13,6.37833,94.3549
590.13,6.34833,96.6676
591.13,6.30833,96.5874
592.12,6.27833,96.3845
593.12,6.24833,95.7942
594.13,6.21833,93.3351
595.13,6.19833,95.5842
596.13,6.16833,93.9463
597.13,6.13833,92.5491
598.13,6.10833,94.0633
599.13,6.08833,90.4752
600.13,6.05833,91.2885
601.13,6.02833,90.4996
602.13,5.99833,92.0075
603.12,5.97833,90.8006
604.12,5.93833,91.178
605.13,5.90833,87.0965
606.12,5.88833,89.2958
607.13,5.86833,88.1381
608.12,5.82833,88.4909
609.13,5.80833,88.9413
610.13,5.77833,88.1796
611.13,5.75833,90.1271
612.12,5.72833,86.9805
613.12,5.69833,86.797
614.12,5.67833,86.4015
615.14,5.64833,86.3648
616.15,5.62833,85.9859
617.16,5.59833,87.0679
618.18,5.57833,87.2391
619.17,5.53833,84.9457
620.18,5.51833,83.6773
621.19,5.48833,84.4968
622.21,5.46833,85.0251
623.22,5.44833,84.1677
624.23,5.41833,83.9248
625.25,5.38833,84.9774
626.25,5.36833,84.6076
627.25,5.34833,85.2207
628.24,5.31833,80.3341
629.25,5.29833,82.5584
630.25,5.26833,82.4039
631.26,5.23833,81.1655
632.25,5.21833,81.4995
633.24,5.19833,83.0953
634.26,5.17833,79.3281
635.25,5.15833,79.4112
636.26,5.12833,79.5993
637.26,5.10833,79.403
638.27,5.07833,79.6214
639.28,5.04833,79.1789
640.29,5.03833,80.0479
641.31,5.01833,76.4868
642.32,4.98833,76.3905
643.33,4.95833,76.2975
644.34,4.93833,76.7189
645.36,4.90833,76.7522
646.38,4.88833,77.0594
647.38,4.86833,78.3106
648.37,4.84833,77.6339
649.38,4.81833,74.2534
650.37,4.79833,75.3933
651.37,4.77833,74.3859
652.37,4.74833,74.5534
653.37,4.72833,74.0205
654.37,4.70833,75.1023
655.37,4.68833,74.6688
656.38,4.66833,75.0171
657.38,4.64833,71.7808
658.42,4.61833,72.1887
659.38,4.59833,72.6514
660.37,4.57833,72.7368
661.37,4.55833,72.7466
662.37,4.53833,73.0743
663.39,4.51833,72.8616
664.42,4.49833,72.5497
665.44,4.47833,69.4656
666.43,4.45833,69.1501
667.44,4.43833,69.8687
668.44,4.41833,71.3097
669.46,4.39833,69.138
670.46,4.37833,70.5176
671.48,4.35833,68.9636
672.49,4.33833,70.1625
673.49,4.31833,67.3476
674.51,4.29833,67.3849
675.63,4.27833,67.8011
676.53,4.24833,66.8339
677.7,4.23833,66.7992
678.55,4.21833,68.4548
679.55,4.19833,66.8164
680.57,4.17833,67.2626
681.56,4.15833,64.8432
682.58,4.13833,64.1617
683.59,4.11833,65.1983
684.63,4.10833,65.2373
685.64,4.08833,66.1759
686.64,4.05833,64.7506
687.64,4.03833,65.8539
688.66,4.02833,60.4923
689.76,4.00833,62.3098
690.68,3.98833,60.9561
691.87,3.96833,62.8207
692.69,3.94833,63.359
693.68,3.93833,63.0385
694.73,3.90833,62.271
695.72,3.88833,63.196
696.72,3.86833,62.464
697.74,3.85833,59.5721
698.73,3.83833,60.23
699.73,3.81833,59.4307
700.75,3.79833,60.2084
701.74,3.77833,60.0294
702.76,3.76833,60.2444
703.84,3.75833,61.0583
704.8,3.73833,60.9994
705.93,3.72833,56.3642
706.83,3.70833,57.5762
707.85,3.68833,56.8179
708.84,3.67833,57.948
709.87,3.66833,57.6031
711.1,3.64833,57.8135
711.92,3.61833,57.1502
712.93,3.60833,58.7062
713.96,3.58833,56.6503
714.98,3.56833,55.0951
716.01,3.55833,55.8007
717.01,3.53833,55.8595
718.01,3.51833,55.3739
719.02,3.49833,54.7908
720.02,3.48833,55.8454
721.06,3.47833,55.2009
722.08,3.45833,55.4929
723.09,3.43833,55.3819
724.1,3.42833,54.7223
725.12,3.40833,55.3148
726.12,3.38833,55.7172
727.12,3.36833,52.7465
728.12,3.35833,52.1174
729.12,3.34833,52.0987
730.14,3.32833,53.0492
731.15,3.30833,52.375
732.31,3.28833,52.4915
733.18,3.26833,52.4784
734.37,3.25833,52.3639
735.21,3.23833,52.6544
736.23,3.22833,53.1262
737.26,3.21833,52.5598
738.26,3.19833,49.8576
739.25,3.17833,50.6144
740.27,3.16833,49.9536
741.32,3.15833,50.8846
742.35,3.13833,50.6722
743.35,3.12833,50.1846
744.36,3.10833,50.9268
745.36,3.09833,50.4813
746.35,3.07833,50.6898
747.37,3.06833,47.861
748.42,3.04833,47.2765
749.38,3.03833,47.9748
750.37,3.02833,48.4939
751.37,3.00833,48.6498
752.39,2.99833,47.3007
753.55,2.97833,47.6496
754.42,2.96833,48.1466
755.6,2.95833,48.7126
756.43,2.93833,47.9383
757.44,2.92833,48.4766
758.44,2.91833,48.0961
759.49,2.90833,44.4757
760.48,2.89833,45.53
761.46,2.87833,45.2976
762.5,2.85833,45.9577
763.49,2.84833,45.0683
764.51,2.83833,45.6319
765.49,2.83833,44.842
766.5,2.81833,46.0857
767.51,2.79833,45.8392
768.62,2.78833,45.5456
769.55,2.77833,45.4371
770.66,2.76833,45.6135
771.56,2.75833,42.6255
772.58,2.73833,42.143
773.57,2.71833,42.6276
774.59,2.71833,43.2265
775.61,2.70833,42.9001
776.64,2.69833,42.9021
777.65,2.68833,43.3172
778.67,2.67833,42.8882
779.69,2.65833,43.3599