File: PMMA/Calibration_Data/Edinburgh/Edinburgh_Cone_25kW_4.csv
Time,Mass,HRR
[s],[g],[kW/m2]
0,67.005,2.96584
1.02,67.005,2.95733
2.03,67.005,3.00406
3.05,66.995,3.06654
4.04,66.995,2.92643
5.05,66.995,3.14285
6.05,66.995,3.12581
7.06,66.995,3.01303
8.06,67.005,2.9811
9.07,66.995,2.9357
10.09,66.995,3.03326
11.09,66.995,3.11544
12.1,66.995,3.02045
13.11,66.995,2.98544
14.12,66.995,3.06918
15.12,66.985,3.03903
16.12,66.985,3.1272
17.12,66.985,3.23134
18.11,66.985,3.10951
19.11,66.985,3.10299
20.12,66.985,2.92635
21.12,66.985,3.24778
22.12,66.995,3.14284
23.11,66.995,3.05357
24.12,66.995,3.04321
25.12,66.995,2.88123
26.13,66.985,2.81188
27.14,66.975,2.8692
28.15,66.975,3.09399
29.16,66.985,3.06812
30.16,66.985,2.97099
31.16,66.985,2.95164
32.17,66.975,3.00187
33.19,66.975,3.01824
34.2,66.975,3.17751
35.21,66.965,3.10998
36.22,66.975,3.0925
37.23,66.975,2.99255
38.25,66.975,3.07033
39.25,66.985,3.15314
40.25,66.975,3.10493
41.24,66.975,3.29022
42.24,66.965,3.02239
43.25,66.965,2.95977
44.25,66.975,3.19518
45.24,66.975,3.21856
46.24,66.965,3.17213
47.24,66.955,3.19489
48.24,66.955,3.07391
49.25,66.965,2.97335
50.24,66.965,3.2716
51.25,66.955,3.20541
52.24,66.945,3.17363
53.24,66.945,2.98842
54.24,66.955,2.94794
55.25,66.955,2.82751
56.27,66.945,3.10451
57.25,66.935,3.14137
58.24,66.935,3.10113
59.25,66.935,2.90126
60.24,66.935,2.73313
61.24,66.925,2.72869
62.24,66.915,2.90968
63.25,66.885,2.86471
64.24,66.855,2.80863
65.25,66.825,2.84058
66.25,66.795,2.64828
67.25,66.745,2.6306
68.25,66.685,2.79509
69.24,66.605,2.86461
70.26,66.535,2.62506
71.27,66.455,2.71654
72.28,66.355,2.69192
73.29,66.245,2.6282
74.31,66.135,2.84202
75.3,66.015,2.70425
76.32,65.895,2.73218
77.33,65.775,2.55931
78.34,65.655,2.54105
79.34,65.535,2.61588
80.35,65.415,2.63408
81.36,65.295,2.48168
82.35,65.175,2.43378
83.37,65.055,2.52007
84.37,64.935,2.52119
85.38,64.835,2.46244
86.36,64.715,2.56249
87.37,64.585,2.50879
88.37,64.465,2.46717
89.36,64.335,5.44086
90.38,64.215,8.47478
91.37,64.085,11.3136
92.37,63.955,12.1431
93.37,63.825,16.0502
94.38,63.695,21.6702
95.37,63.565,26.9485
96.38,63.435,31.4509
97.37,63.295,37.1339
98.37,63.165,44.5012
99.37,63.045,53.2703
100.36,62.915,62.1949
101.36,62.785,72.1171
102.37,62.665,75.7021
103.36,62.535,86.6522
104.37,62.405,98.1879
105.37,62.265,103.963
106.36,62.135,109.201
107.43,62.005,122.292
108.43,61.865,130.304
109.37,61.735,140.963
110.38,61.605,147.662
111.38,61.465,148.699
112.39,61.335,158.163
113.39,61.205,167.476
114.4,61.055,176.966
115.4,60.925,187.674
116.4,60.795,184.964
117.4,60.655,192.116
118.4,60.515,206.405
119.41,60.375,210.289
120.43,60.235,216.175
121.44,60.095,220.892
122.45,59.955,227.67
123.47,59.815,232.136
124.48,59.675,238.506
125.5,59.535,244.144
126.53,59.395,243.312
127.49,59.245,246.801
128.49,59.115,251.573
129.49,58.975,258.053
130.5,58.835,264.055
131.49,58.695,265.968
132.49,58.555,268.287
133.5,58.415,270.798
134.49,58.265,273.268
135.49,58.125,271.73
136.5,57.975,281.968
137.49,57.835,287.869
138.49,57.695,288.324
139.5,57.555,294.462
140.49,57.405,284.919
141.5,57.275,293.368
142.49,57.125,293.921
143.5,56.985,306.166
144.49,56.835,299.057
145.5,56.695,307.374
146.53,56.555,311.857
147.53,56.415,305.676
148.53,56.285,305.735
149.54,56.135,310.923
150.54,55.995,308.432
151.54,55.855,311.116
152.54,55.705,319.398
153.55,55.555,325.702
154.55,55.395,312.646
155.53,55.245,320.548
156.54,55.105,319.697
157.54,54.965,316.888
158.54,54.815,324.997
159.54,54.675,324.927
160.54,54.535,324.292
161.54,54.385,336.649
162.54,54.225,334.861
163.54,54.065,328.279
164.55,53.915,323.441
165.53,53.775,332.388
166.54,53.625,337.913
167.55,53.475,334.164
168.55,53.325,343.963
169.55,53.175,334.074
170.55,53.025,346.804
171.56,52.875,339.56
172.6,52.725,346.516
173.59,52.575,334.872
174.59,52.425,344.201
175.59,52.285,341.591
176.58,52.135,348.493
177.58,51.985,339.199
178.59,51.825,349.672
179.59,51.675,348.844
180.59,51.525,347.08
181.58,51.375,350.779
182.6,51.225,346.359
183.6,51.065,353.197
184.6,50.905,366.302
185.61,50.745,337.141
186.6,50.585,344.946
187.61,50.445,364.077
188.62,50.295,356.528
189.62,50.145,358.564
190.63,49.985,361.76
191.63,49.835,347.557
192.63,49.685,367.921
193.64,49.535,361.457
194.63,49.375,364.916
195.64,49.215,356.553
196.64,49.055,363.421
197.65,48.895,358.999
198.65,48.735,349.933
199.65,48.575,357.013
200.66,48.425,368.914
201.66,48.275,364.547
202.66,48.115,362.684
203.66,47.965,372.185
204.66,47.805,368.084
205.67,47.655,375.368
206.68,47.485,363.483
207.68,47.325,370.796
208.69,47.165,376.483
209.7,47.015,377.006
210.71,46.855,366.25
211.71,46.695,375.1
212.71,46.535,365.42
213.71,46.375,368.884
214.72,46.215,376.353
215.72,46.055,376.122
216.72,45.895,375.075
217.73,45.735,362.284
218.74,45.575,378.243
219.75,45.415,371.44
220.75,45.245,375.776
221.75,45.085,372.345
222.75,44.935,380.058
223.74,44.775,380.139
224.74,44.605,380.901
225.74,44.445,376.253
226.75,44.285,378.749
227.75,44.115,378.673
228.74,43.955,388.993
229.74,43.795,370.585
230.75,43.635,373.47
231.74,43.465,386.984
232.74,43.305,386.989
233.75,43.135,389.651
234.76,42.975,395.135
235.76,42.815,389.379
236.76,42.645,389.5
237.77,42.485,376.884
238.77,42.325,377.459
239.78,42.155,382.23
240.79,41.995,394.101
241.8,41.825,383.103
242.8,41.655,384.587
243.81,41.485,391.385
244.81,41.305,388.919
245.81,41.135,395.995
246.81,40.975,393.574
247.81,40.795,394.528
248.81,40.615,389.027
249.81,40.445,383.84
250.81,40.275,402.572
251.81,40.105,393.969
252.81,39.935,389.678
253.81,39.765,399.92
254.81,39.605,403.98
255.82,39.435,395.984
256.85,39.265,394.656
257.83,39.085,404.816
258.84,38.915,399.495
259.84,38.745,406.947
260.85,38.575,399.004
261.85,38.395,407.075
262.86,38.225,390.313
263.86,38.045,403.11
264.88,37.875,412.936
265.87,37.705,397.852
266.87,37.525,398.197
267.88,37.345,402.771
268.87,37.175,404.776
269.87,36.995,408.715
270.87,36.825,409.403
271.87,36.645,414.1
272.87,36.475,403.531
273.87,36.305,402.966
274.88,36.125,410.682
275.88,35.945,415.65
276.88,35.785,408.684
277.89,35.615,416.938
278.89,35.435,420.507
279.89,35.255,406.665
280.9,35.075,409.544
281.9,34.895,414.508
282.91,34.725,421.501
283.91,34.555,412.611
284.91,34.375,416.68
285.91,34.195,420.396
286.91,34.015,427.557
287.91,33.835,417.344
288.91,33.665,420.97
289.92,33.485,413.063
290.92,33.305,423.214
291.91,33.125,416.487
292.92,32.945,418.886
293.92,32.765,424.263
294.92,32.585,423.828
295.91,32.395,436.103
296.91,32.215,414.56
297.92,32.035,427.249
298.93,31.845,429.374
299.93,31.655,429.99
300.95,31.465,444.121
301.96,31.285,426.957
302.97,31.095,421.837
303.97,30.915,417.7
304.99,30.715,431.1
306,30.535,439.152
307,30.345,432.838
308,30.165,429.933
309,29.975,422.579
310,29.785,443.452
311,29.595,422.409
312,29.405,430.228
312.99,29.225,436.111
314.01,29.035,424.177
315.01,28.845,442.551
316.01,28.635,434.371
317,28.445,435.822
318,28.245,435.373
319.01,28.055,428.227
320.01,27.855,429.574
321.01,27.665,440.166
322.01,27.455,423.646
323.01,27.255,449.759
324.03,27.045,421.809
325.02,26.845,441.34
326.02,26.635,434.944
327.04,26.435,433.044
328.04,26.235,449.744
329.05,26.035,449.475
330.04,25.845,443.731
331.04,25.645,446.979
332.06,25.435,441.583
333.06,25.235,446.884
334.08,25.035,454.447
335.08,24.825,451.149
336.08,24.635,461.031
337.08,24.435,457.456
338.09,24.235,443.996
339.1,24.035,469.051
340.1,23.835,437.975
341.11,23.625,468.296
342.12,23.435,468.541
343.11,23.235,466.021
344.12,23.035,457.298
345.12,22.835,475.835
346.12,22.625,453.592
347.12,22.425,471.823
348.12,22.215,474.559
349.12,22.015,482.004
350.11,21.825,474.174
351.11,21.625,479.177
352.12,21.425,477.248
353.12,21.225,472.271
354.13,21.035,498.855
355.12,20.825,476.319
356.12,20.625,496.774
357.12,20.435,499.325
358.12,20.245,501.003
359.13,20.055,502.685
360.13,19.865,507.392
361.12,19.675,503.179
362.11,19.495,509.901
363.12,19.305,493.368
364.12,19.125,496.901
365.12,18.935,502.658
366.13,18.745,499.397
367.12,18.555,512.595
368.13,18.375,508.143
369.12,18.195,503.598
370.12,18.025,501.279
371.12,17.845,507.813
372.13,17.675,525.943
373.14,17.495,521.334
374.15,17.315,515.352
375.15,17.145,518.191
376.15,16.975,515.448
377.16,16.805,531.95
378.15,16.645,518.389
379.16,16.475,527.478
380.16,16.315,521.524
381.17,16.155,533.398
382.17,15.995,534.019
383.17,15.835,535.195
384.17,15.685,529.313
385.17,15.545,521.616
386.17,15.395,516.416
387.17,15.255,539.549
388.17,15.115,540.484
389.18,14.975,529.197
390.18,14.835,536.253
391.18,14.705,544.531
392.18,14.565,534.244
393.19,14.445,543.774
394.2,14.305,548.704
395.2,14.185,540.077
396.2,14.065,528.904
397.21,13.945,527.744
398.21,13.825,539.671
399.22,13.705,527.988
400.22,13.585,537.186
401.23,13.475,529.854
402.23,13.365,523.004
403.22,13.255,525.813
404.24,13.145,525.114
405.23,13.045,511.61
406.24,12.935,523.325
407.24,12.835,527.137
408.24,12.745,515.307
409.25,12.645,516.487
410.24,12.555,513.814
411.25,12.465,512.283
412.25,12.375,497.048
413.24,12.285,497.677
414.25,12.195,488.575
415.24,12.105,497.522
416.25,12.025,486.267
417.24,11.945,484.909
418.25,11.865,479.308
419.24,11.775,484.318
420.24,11.695,471.334
421.24,11.625,458.852
422.25,11.555,461.441
423.25,11.475,451.114
424.26,11.385,449.561
425.27,11.315,437.283
426.27,11.255,430.325
427.28,11.185,429.765
428.28,11.105,429.321
429.28,11.035,419.181
430.27,10.965,410.939
431.28,10.895,406.034
432.28,10.835,402.693
433.29,10.765,406.896
434.29,10.695,394.378
435.3,10.635,387.626
436.29,10.575,377.052
437.29,10.505,369.224
438.3,10.445,372.623
439.3,10.385,360.011
440.3,10.325,358.208
441.3,10.255,351.013
442.3,10.195,347.937
443.3,10.135,341.249
444.31,10.075,337.165
445.31,10.025,334.229
446.31,9.965,322.46
447.31,9.905,317.934
448.31,9.845,311.362
449.3,9.795,303.924
450.33,9.735,297.909
451.33,9.685,298.296
452.34,9.635,285.593
453.34,9.585,288.121
454.35,9.525,282.31
455.36,9.475,273.701
456.35,9.415,272.109
457.36,9.365,268.343
458.36,9.315,260.878
459.37,9.265,258.81
460.38,9.215,255.089
461.38,9.165,256.693
462.37,9.115,253.216
463.37,9.055,244.331
464.37,9.005,236.155
465.37,8.955,237.155
466.37,8.915,231.551
467.36,8.865,227.558
468.36,8.815,222.98
469.37,8.765,218.884
470.37,8.715,216.885
471.37,8.675,212.195
472.38,8.635,206.02
473.4,8.585,203.786
474.4,8.535,203.297
475.41,8.485,203.999
476.41,8.445,200.284
477.42,8.405,194.112
478.41,8.355,196.86
479.42,8.315,189.008
480.43,8.265,187.755
481.43,8.225,190.594
482.45,8.185,186.15
483.45,8.145,180.511
484.46,8.095,179.267
485.46,8.055,177.612
486.46,8.005,181.182
487.46,7.965,173.283
488.47,7.925,172.848
489.47,7.875,173.671
490.48,7.835,170.093
491.47,7.805,167.858
492.47,7.755,163.664
493.48,7.715,161.82
494.49,7.675,161.027
495.5,7.635,159.332
496.5,7.585,157.527
497.49,7.545,156.496
498.49,7.505,155.271
499.5,7.455,155.162
500.49,7.415,149.646
501.5,7.375,148.574
502.49,7.335,149.657
503.5,7.295,148.007
504.49,7.255,148.291
505.49,7.225,145.204
506.5,7.185,144.658
507.5,7.145,141.395
508.5,7.105,143.933
509.5,7.075,140.41
510.49,7.045,139.777
511.5,6.995,139.818
512.49,6.955,138.047
513.5,6.925,132.76
514.5,6.885,135.993
515.5,6.845,131.108
516.5,6.805,132.801
517.49,6.765,129.659
518.49,6.735,130.497
519.5,6.705,130.914
520.49,6.665,127.655
521.5,6.625,126.572
522.49,6.595,128.162
523.5,6.555,126.309
524.49,6.515,125.398
525.49,6.485,125.646
526.49,6.445,121.49
527.5,6.395,122.504
528.49,6.355,123.565
529.49,6.325,123.957
530.49,6.275,122.206
531.5,6.235,121.085
532.5,6.195,120.302
533.5,6.165,121.164
534.49,6.135,117.057
535.5,6.095,118.839
536.49,6.055,118.573
537.5,6.015,120.322
538.49,5.985,115.814
539.49,5.945,114.958
540.5,5.915,116.662
541.49,5.875,115.622
542.51,5.835,115.093
543.52,5.805,113.508
544.53,5.775,114.931
545.52,5.735,114.745
546.53,5.705,112.332
547.54,5.675,112.999
548.55,5.645,110.284
549.55,5.605,112.544
550.55,5.585,113.182
551.54,5.545,111.925
552.55,5.515,109.425
553.56,5.475,108.294
554.56,5.445,112.009
555.56,5.415,110.931
556.57,5.385,109.37
557.58,5.345,110.043
558.59,5.315,107.208
559.6,5.285,106.807
560.61,5.245,107.641
561.62,5.215,107.205
562.63,5.185,105.463
563.61,5.145,106.168
564.63,5.115,109.137
565.66,5.085,106.445
566.66,5.055,106.318
567.67,5.025,103.956
568.67,4.985,105.572
569.67,4.955,104.355
570.67,4.935,106.995
571.68,4.905,105.508
572.68,4.875,102.239
573.69,4.835,101.78
574.69,4.805,101.276
575.68,4.775,102.765
576.68,4.745,100.615
577.68,4.725,103.453
578.68,4.695,99.7578
579.68,4.665,99.6699
580.69,4.635,99.5251
581.69,4.605,100.435
582.68,4.585,99.2273
583.69,4.565,100.403
584.7,4.535,97.9164
585.7,4.505,99.4631
586.7,4.465,97.1579
587.7,4.435,98.0903
588.71,4.415,99.3238
589.71,4.395,94.6369
590.72,4.365,95.1807
591.72,4.335,96.5945
592.71,4.305,95.1045
593.71,4.275,95.8336
594.71,4.245,94.1317
595.71,4.215,92.9932
596.72,4.195,93.2855
597.72,4.165,93.8052
598.71,4.135,93.5832
599.71,4.105,93.124
600.72,4.075,90.4135
601.72,4.045,91.9332
602.73,4.015,91.9915
603.73,3.995,91.2605
604.74,3.965,92.1714
605.74,3.935,91.1084
606.75,3.905,87.6616
607.75,3.875,88.5904
608.74,3.845,86.7956
609.74,3.815,87.6919
610.74,3.795,88.4671
611.74,3.775,89.4701
612.74,3.745,89.2231
613.75,3.715,85.9929
614.75,3.695,85.0685
615.74,3.665,85.815
616.75,3.645,86.3829
617.75,3.615,85.9586
618.75,3.595,85.9775
619.74,3.565,85.4729
620.75,3.535,87.1267
621.74,3.505,84.5712
622.75,3.485,85.0005
623.76,3.465,83.0945
624.77,3.445,84.1152
625.77,3.415,82.706
626.78,3.405,84.6371
627.79,3.385,84.3665
628.79,3.355,83.6195
629.79,3.335,85.6125
630.8,3.305,84.4794
631.79,3.275,81.0064
632.8,3.255,81.5432
633.79,3.235,82.5126
634.8,3.215,81.6231
635.8,3.185,81.4375
636.8,3.165,81.5691
637.8,3.145,81.4312
638.8,3.115,83.0526
639.8,3.095,81.6201
640.81,3.075,79.381
641.81,3.055,79.0845
642.8,3.035,79.6601
643.82,3.015,79.6817
644.83,2.995,79.228
645.83,2.965,79.3534
646.84,2.945,79.6132
647.84,2.925,78.3467
648.84,2.895,81.391
649.84,2.875,79.1255
650.84,2.845,77.3788
651.85,2.825,76.8723
652.87,2.805,77.6646
653.88,2.775,76.4378
654.86,2.755,76.8324
655.86,2.735,76.9248
656.86,2.705,76.7825
657.88,2.685,76.3986
658.87,2.665,77.1833
659.87,2.645,74.7213
660.87,2.625,73.8264
661.87,2.605,73.9131
662.87,2.585,73.0661
663.87,2.565,75.5803
664.88,2.545,74.6004
665.86,2.525,74.793
666.86,2.495,73.8345
667.87,2.475,74.1416
668.87,2.455,71.9686
669.88,2.435,71.9776
670.87,2.415,72.7738
671.87,2.395,72.6285
672.87,2.375,72.4248
673.87,2.355,72.3434
674.86,2.335,72.206
675.88,2.315,72.6029
676.86,2.295,69.8767
677.87,2.275,69.9811
678.88,2.255,69.2198
679.89,2.235,69.207
680.9,2.215,71.2291
681.91,2.205,70.6805
682.91,2.185,70.3791
683.91,2.165,68.5797
684.92,2.145,67.7167
685.93,2.125,67.1582
686.94,2.105,66.917
687.93,2.085,67.035
688.94,2.075,66.3152
689.94,2.055,67.841
690.95,2.035,68.9656
691.97,2.005,66.7118
692.98,1.985,65.9524
694,1.965,66.1346
694.99,1.955,65.1536
696.01,1.945,64.1766
697.01,1.925,64.3978
698.01,1.905,65.8992
699.01,1.885,64.4715
700.03,1.865,66.3532
701.02,1.845,67.363
702.04,1.825,65.9318
703.04,1.805,64.622
704.06,1.795,62.7473
705.07,1.775,62.6461
706.07,1.765,63.4689
707.07,1.745,62.3506
708.08,1.735,61.7427
709.09,1.715,62.1842
710.09,1.695,62.1115
711.1,1.675,63.1297
712.1,1.655,62.4385
713.1,1.645,62.2723
714.12,1.625,63.3999
715.11,1.605,63.0813
716.12,1.595,63.4552
717.12,1.585,59.3904
718.11,1.565,59.6033
719.13,1.555,60.0183
720.13,1.535,60.6318
721.14,1.525,59.7815
722.14,1.505,59.7311
723.14,1.495,60.8341
724.16,1.475,60.562
725.16,1.455,60.3243
726.18,1.435,60.2614
727.19,1.425,61.7754
728.18,1.405,57.5664
729.18,1.395,57.8984
730.18,1.375,58.392
731.18,1.365,59.4037
732.18,1.355,57.9112
733.19,1.335,58.3591
734.19,1.325,58.1504
735.27,1.305,58.8135
736.21,1.295,57.8802
737.21,1.275,58.2002
738.21,1.265,58.3907
739.23,1.245,58.4548
740.24,1.225,58.9814
741.24,1.215,56.2337
742.24,1.195,55.2496
743.25,1.185,54.9453
744.25,1.175,55.9066
745.27,1.155,55.7946
746.28,1.145,55.4195
747.29,1.135,55.5353
748.32,1.125,55.5455
749.32,1.105,55.1599
750.34,1.095,57.1496
751.35,1.085,55.5955
752.37,1.075,52.7118
753.37,1.055,52.7372
754.55,1.045,53.4926
755.36,1.025,53.0078
756.36,1.025,53.5648
757.38,1.005,53.7768
758.4,0.995,53.5341
759.39,0.985,53.2828
760.41,0.975,54.1678
761.44,0.965,49.9128
762.45,0.945,50.0567
763.45,0.925,49.461
764.46,0.915,50.7075
765.48,0.905,50.4126
766.48,0.885,49.9431
767.47,0.875,50.6116
768.6,0.865,51.4107
769.48,0.855,46.8124
770.66,0.845,47.2625
771.48,0.825,47.0644
772.48,0.815,46.4956
773.48,0.805,47.3068
774.48,0.785,47.2297
775.5,0.775,47.464
776.51,0.765,47.705
777.51,0.755,46.8539
778.53,0.745,47.5393
779.53,0.735,47.0147
780.55,0.725,44.5873
781.56,0.725,44.4748
782.64,0.705,44.751
783.59,0.695,44.8242
784.72,0.685,44.0398
785.61,0.665,44.903
786.61,0.645,44.5465
787.64,0.645,44.2786
788.64,0.635,45.046
789.66,0.625,45.2625
790.67,0.615,45.5793
791.67,0.605,41.3559
792.69,0.595,42.6517
793.72,0.575,41.96
794.73,0.565,41.9233
795.75,0.555,42.5583
796.75,0.545,41.6509
797.76,0.535,42.1574
798.76,0.525,42.4732
799.77,0.515,42.3819