File: PMMA/Calibration_Data/Edinburgh/Edinburgh_Cone_65kW_6.csv
Time,Mass,HRR
[s],[g],[kW]
0.0400063,69.59,0.261924
1.05301,69.36,0.351969
2.04601,69.13,0.286069
3.03901,68.89,0.203856
4.04501,68.64,0.181773
5.05101,68.38,0.205364
6.05101,68.13,0.345331
7.05101,67.87,0.374865
8.05101,67.61,0.327672
9.04201,67.35,0.237709
10.044,67.09,0.351979
11.039,66.82,0.377334
12.038,66.56,0.347682
13.051,66.29,0.306667
14.044,66.02,0.270171
15.045,65.74,0.277498
16.049,65.46,0.254828
17.053,65.18,2.52664
18.048,64.9,7.22529
19.059,64.62,13.5436
20.06,64.35,18.4067
21.068,64.07,26.27256
22.082,63.79,38.2236
23.09,63.5,52.4501
24.094,63.21,66.2522
25.102,62.92,74.3469
26.112,62.63,90.3013
27.117,62.35,109.341
28.143,62.06,138.904
29.164,61.76,151.665
30.163,61.45,155.99
31.164,61.17,181.816
32.178,60.89,208.438
33.194,60.58,228.994
34.208,60.27,252.096
35.224,59.98,259.631
36.212,59.68,278.483
37.219,59.41,303.086
38.219,59.12,311.927
39.228,58.83,330.279
40.24,58.53,348.351
41.228,58.23,363.36
42.245,57.94,393.88
43.25,57.63,399.325
44.262,57.34,414.249
45.277,57.04,421.205
46.296,56.75,438.07
47.293,56.45,468.282
48.294,56.15,495.709
49.289,55.85,489.696
50.297,55.56,496.626
51.293,55.25,520.382
52.294,54.95,514.054
53.29,54.64,518.398
54.292,54.34,527.539
55.305,54.05,531.813
56.294,53.75,526.779
57.293,53.45,560.467
58.303,53.15,580.332
59.292,52.84,602.471
60.302,52.54,587.749
61.289,52.22,601.674
62.291,51.93,603.055
63.289,51.63,588.729
64.289,51.32,636.035
65.293,51.01,603.74
66.302,50.7,626.397
67.288,50.39,622.374
68.293,50.09,614.763
69.304,49.78,615.401
70.312,49.46,599.094
71.332,49.15,638.841
72.336,48.84,647.588
73.343,48.52,650.346
74.354,48.2,666.303
75.366,47.89,652.035
76.389,47.57,669.729
77.403,47.24,655.143
78.417,46.92,658.147
79.421,46.59,696.639
80.419,46.27,656.325
81.413,45.95,649.578
82.413,45.63,648.854
83.413,45.3,673.961
84.414,44.97,645.061
85.42,44.65,661.69
86.42,44.31,693.459
87.421,44,661.781
88.414,43.69,675.028
89.417,43.37,673.598
90.427,43.04,684.729
91.414,42.7,700.119
92.415,42.38,676.514
93.424,42.04,692.826
94.426,41.7,713.924
95.425,41.36,704.302
96.417,41.03,707.643
97.429,40.7,696.329
98.433,40.36,720.314
99.449,40.02,704.967
100.465,39.67,705.545
101.482,39.33,718.112
102.501,38.99,690.443
103.521,38.64,695.303
104.512,38.28,697.117
105.507,37.94,686.237
106.517,37.59,741.179
107.53,37.23,701.288
108.55,36.87,722.695
109.54,36.5,726.318
110.547,36.15,711.116
111.542,35.79,750.691
112.542,35.43,733.295
113.549,35.06,697.884
114.545,34.68,691.531
115.539,34.32,713.66
116.539,33.95,740.654
117.544,33.58,767.677
118.548,33.19,687.811
119.542,32.81,708.366
120.553,32.42,731.686
121.547,32.04,727.074
122.55,31.65,757.23
123.55,31.27,746.698
124.542,30.88,755.148
125.551,30.48,719.248
126.552,30.05,762.701
127.545,29.64,752.209
128.545,29.22,737.111
129.551,28.81,718.097
130.549,28.4,726.185
131.543,27.98,734.166
132.543,27.57,744.089
133.551,27.14,773.216
134.539,26.71,789.809
135.551,26.31,752.645
136.544,25.88,788.788
137.551,25.46,783.392
138.54,25.04,743.513
139.543,24.62,798.204
140.55,24.21,843.938
141.552,23.77,817.032
142.549,23.33,802.102
143.55,22.89,807.694
144.538,22.44,811.811
145.54,21.98,797.735
146.545,21.53,783.468
147.546,21.06,781.425
148.546,20.59,773.191
149.546,20.12,829.496
150.551,19.65,794.312
151.543,19.17,809.422
152.546,18.71,847.884
153.549,18.25,844.088
154.55,17.82,884.899
155.58,17.37,883.334
156.54,16.93,904.001
157.553,16.53,895.014
158.538,16.15,944.744
159.552,15.8,973.956
160.547,15.48,996.818
161.547,15.2,1015.09
162.542,14.95,1053.78
163.549,14.74,1068.47
164.539,14.52,1091.68
165.551,14.33,1116.89
166.543,14.14,1119.16
167.54,13.96,1139.43
168.544,13.79,1157.63
169.543,13.62,1158.96
170.547,13.47,1165.78
171.546,13.31,1193.73
172.552,13.16,1228.06
173.551,13.01,1235.16
174.543,12.86,1242.4
175.545,12.72,1245.63
176.553,12.59,1269.22
177.538,12.44,1282.69
178.546,12.31,1281.96
179.55,12.17,1306.53
180.541,12.03,1307.83
181.541,11.89,1321.25
182.552,11.76,1310.3
183.545,11.63,1350.92
184.556,11.5,1339.82
185.568,11.38,1325.12
186.558,11.25,1311.47
187.578,11.13,1293
188.593,11.02,1301.64
189.612,10.9,1246.7
190.625,10.78,1240.7
191.619,10.66,1216.28
192.626,10.55,1219.71
193.636,10.44,1179.47
194.654,10.31,1164.51
195.66,10.19,1115.95
196.654,10.08,1077.7
197.67,9.97,1035.5
198.668,9.86,1033.88
199.684,9.75,991.841
200.704,9.64,943.35
201.717,9.53,887.137
202.727,9.42,904.193
203.736,9.33,873.911
204.746,9.22,839.532
205.767,9.11,806.017
206.783,9.01,772.847
207.786,8.92,753.273
208.791,8.83,744.573
209.801,8.74,717.823
210.788,8.65,675.166
211.789,8.56,654.593
212.802,8.47,641.263
213.802,8.39,627.22
214.795,8.3,604.847
215.787,8.22,572.848
216.79,8.14,559.591
217.798,8.05,537.268
218.81,7.97,550.641
219.805,7.88,522.395
220.828,7.8,503.683
221.848,7.72,490.959
222.864,7.64,479.731
223.851,7.55,476.114
224.867,7.47,457.498
225.881,7.39,444.876
226.884,7.31,432.51
227.905,7.24,422.5
228.923,7.16,410.622
229.913,7.08,401.515
230.92,7.01,393.278
231.929,6.93,387.184
232.929,6.85,373.758
233.937,6.78,376.484
234.956,6.7,364.685
235.972,6.63,351.625
236.959,6.56,345.901
237.971,6.49,335.233
238.98,6.41,329.416
239.989,6.34,334.184
240.981,6.26,317.444
241.993,6.19,322.213
243.008,6.11,299.956
244.028,6.05,304.492
245.04,5.97,303.013
246.04,5.9,290.984
247.039,5.83,281.799
248.047,5.76,282.78
249.05,5.69,278.939
250.046,5.61,273.007
251.043,5.54,267.945
252.045,5.47,269.095
253.043,5.41,261.966
254.044,5.34,252.941
255.053,5.26,259.646
256.101,5.19,247.866
257.049,5.11,246.665
258.044,5.05,242.459
259.044,4.99,236.351
260.047,4.92,240.966
261.049,4.85,231.694
262.048,4.78,228.48
263.047,4.73,229.16
264.038,4.67,224.019
265.043,4.6,222.08
266.053,4.53,217.591
267.068,4.46,215.203
268.053,4.38,214.618
269.057,4.31,212.253
270.072,4.24,216.971
271.081,4.18,209.821
272.088,4.11,204.666
273.104,4.04,205.026
274.112,3.98,203.202
275.122,3.92,199.822
276.139,3.85,197.607
277.155,3.79,196.232
278.156,3.72,195.166
279.163,3.66,194.958
280.164,3.59,189.123
281.162,3.52,194.417
282.172,3.47,192.177
283.173,3.41,184.508
284.174,3.37,187.428
285.178,3.33,188.603
286.164,3.27,182.054
287.17,3.22,181.383
288.172,3.16,184.523
289.172,3.11,182.045
290.163,3.07,180.38
291.163,3.03,180.163
292.174,2.99,181.688
293.167,2.94,175.485
294.175,2.9,176.921
295.172,2.86,173.132
296.174,2.81,175.152
297.176,2.77,173.053
298.172,2.72,171.287
299.17,2.68,170.051
300.168,2.65,171.851
301.175,2.6,170.01
302.175,2.54,168.534
303.176,2.5,174.908
304.173,2.47,168.232
305.168,2.44,165.429
306.179,2.4,166.634
307.194,2.36,165.127
308.213,2.32,163.993
309.232,2.29,163.513
310.243,2.24,162.989
311.249,2.22,162.676
312.257,2.19,160.668
313.267,2.16,156.751
314.273,2.13,157.062
315.281,2.1,154.693
316.288,2.08,155.568
317.297,2.06,151.905
318.301,2.03,149.02
319.3,2.01,146.166
320.298,1.99,147.381
321.288,1.96,146.273
322.299,1.94,143.895
323.299,1.92,140.058
324.301,1.91,138.862
325.302,1.88,138.11
326.288,1.85,135.87
327.293,1.83,135.477
328.298,1.82,131.643
329.299,1.81,131.969
330.301,1.79,130.871
331.289,1.78,128.505
332.291,1.76,124.288
333.299,1.74,123.607
334.299,1.72,118.778
335.302,1.71,118.651
336.294,1.7,115.444
337.298,1.69,111.79
338.289,1.67,109.09
339.289,1.66,109.033
340.299,1.65,108.85
341.299,1.64,106.349
342.293,1.62,104.112
343.295,1.6,100.101
344.299,1.59,102.674
345.291,1.58,97.9041
346.298,1.57,96.9623
347.292,1.57,93.4946
348.299,1.55,92.1273
349.302,1.53,88.2763
350.296,1.52,90.3873
351.308,1.51,86.4667
352.325,1.5,84.8158
353.343,1.48,82.6411
354.34,1.48,79.7822
355.351,1.47,78.1289
356.398,1.45,78.555
357.37,1.43,76.1889
358.381,1.43,73.4546
359.401,1.43,70.3656
360.413,1.42,71.5175
361.427,1.4,69.0303
362.422,1.39,66.5004
363.423,1.39,63.7805
364.427,1.38,63.6178
365.425,1.37,61.1918
366.413,1.36,58.9434
367.418,1.36,57.2525
368.427,1.35,56.6988
369.425,1.35,55.1578
370.425,1.34,55.055
371.417,1.33,52.4408
372.419,1.32,50.86
373.426,1.31,50.1586
374.421,1.31,50.1256
375.413,1.3,48.6922
376.426,1.3,45.4117
377.416,1.29,45.6507
378.424,1.29,46.2313
379.415,1.27,43.2596
380.419,1.27,43.0108
381.419,1.27,40.8744
382.414,1.26,41.5995
383.422,1.26,37.7992
384.42,1.25,38.431
385.419,1.25,38.8282
386.423,1.25,34.9679
387.416,1.23,36.0109
388.423,1.22,35.0454
389.433,1.21,33.0831
390.446,1.2,33.0024
391.452,1.2,32.7154
392.46,1.2,29.9965
393.465,1.19,30.4196
394.472,1.18,30.7358
395.473,1.17,31.199
396.48,1.18,27.6385
397.488,1.18,27.9782
398.487,1.17,28.1694
399.477,1.17,25.502
400.49,1.17,25.1271
401.492,1.16,25.821
402.492,1.15,25.8651
403.504,1.13,22.7989
404.501,1.13,22.8482
405.497,1.13,23.5206
406.504,1.13,23.2702
407.497,1.13,23.636
408.499,1.12,20.9215
409.491,1.12,20.4743
410.505,1.12,21.0555
411.519,1.11,21.3841
412.523,1.1,20.9821
413.528,1.09,21.426
414.537,1.08,18.4289
415.527,1.08,18.2881
416.531,1.07,18.3698
417.526,1.07,18.6341
418.53,1.06,18.5882
419.535,1.06,18.5284
420.533,1.06,15.7271
421.532,1.06,15.8761