File: PMMA/Calibration_Data/Edinburgh/Edinburgh_Cone_65kW_5.csv
Time,Mass,HRR
[s],[g],[kW/m2]
0.01,70.55,-0.230342
1,70.31,-0.240863
2,70.06,-0.203524
3.01,69.82,-0.193991
4.01,69.56,-0.170451
5.01,69.3,-0.254755
6.01,69.04,-0.26218
7.01,68.77,-0.250255
8,68.5,-0.167058
9,68.23,-0.237404
10,67.95,2.33646
11.01,67.68,2.40289
12.01,67.41,2.37282
13.02,67.13,2.46951
14.02,66.86,2.30238
15.02,66.58,2.29976
16.02,66.3,4.76339
17.02,66.02,4.51033
18.03,65.73,8.56666
19.03,65.43,15.8384
20.05,65.16,22.1675
21.05,64.87,34.0184
22.07,64.58,39.575
23.08,64.27,53.4359
24.09,63.97,66.6781
25.09,63.67,87.7407
26.09,63.36,97.4803
27.11,63.07,109.422
28.12,62.77,135.55
29.13,62.48,157.744
30.13,62.19,179.973
31.14,61.89,201.667
32.12,61.58,217.287
33.12,61.28,226.22
34.13,60.98,248.385
35.13,60.68,281.853
36.13,60.37,298.582
37.14,60.08,322.814
38.13,59.78,318.083
39.13,59.48,359.8
40.13,59.18,380.901
41.13,58.87,393.606
42.13,58.57,381.605
43.13,58.27,411.761
44.13,57.98,439.448
45.13,57.68,430.84
46.14,57.38,426.66
47.13,57.06,476.153
48.12,56.77,493.274
49.14,56.47,480.165
50.15,56.17,508.696
51.13,55.86,509.69
52.13,55.57,519.48
53.14,55.25,550.754
54.13,54.93,555.402
55.13,54.62,566.676
56.13,54.31,575.996
57.14,54,595.271
58.14,53.68,577.066
59.14,53.37,595.199
60.15,53.07,584.087
61.15,52.76,604.783
62.15,52.44,646.9
63.15,52.12,600.775
64.16,51.81,629.825
65.17,51.49,618.259
66.18,51.18,647.572
67.19,50.87,643.322
68.18,50.55,644.085
69.17,50.24,659.327
70.18,49.93,639.792
71.18,49.62,652.579
72.19,49.3,656.18
73.19,48.97,686.368
74.2,48.66,665.483
75.21,48.34,683.236
76.22,48.02,684.061
77.23,47.7,684.865
78.23,47.38,685.224
79.23,47.04,682.778
80.24,46.72,689.851
81.25,46.4,683.804
82.26,46.07,671.845
83.26,45.74,688.188
84.26,45.42,697.14
85.25,45.1,660.317
86.26,44.77,693.818
87.25,44.43,685.143
88.26,44.1,756.472
89.26,43.77,680.78
90.25,43.44,681.484
91.26,43.1,709.187
92.26,42.77,700.863
93.26,42.44,716.703
94.26,42.1,711.82
95.26,41.76,721.426
96.26,41.42,705.335
97.26,41.08,714.545
98.26,40.73,699.478
99.25,40.38,737.072
100.26,40.06,740.304
101.25,39.7,701.043
102.26,39.36,725.301
103.26,39,736.654
104.25,38.64,706.751
105.25,38.29,760.659
106.26,37.94,734.005
107.25,37.58,704.995
108.25,37.21,732.816
109.25,36.84,760.178
110.27,36.48,702.867
111.28,36.11,702.317
112.3,35.72,721.983
113.29,35.34,716.846
114.31,34.97,733.364
115.3,34.58,747.802
116.31,34.22,709.442
117.31,33.82,709.543
118.31,33.43,727.945
119.31,33.05,702.182
120.3,32.66,743.856
121.31,32.26,732.755
122.3,31.86,761.54
123.31,31.45,745.114
124.32,31.03,734.398
125.32,30.61,722.955
126.32,30.2,799.397
127.33,29.8,745.857
128.34,29.37,733.429
129.35,28.93,715.058
130.36,28.5,781.063
131.37,28.06,781.629
132.37,27.62,803.457
133.39,27.16,801.446
134.39,26.72,769.283
135.4,26.28,796.173
136.4,25.84,801.666
137.41,25.42,753.342
138.42,24.98,767.617
139.42,24.55,784.015
140.43,24.12,790.611
141.43,23.68,827.925
142.43,23.24,767.276
143.43,22.8,782.709
144.44,22.36,841.124
145.44,21.9,764.999
146.45,21.44,767.716
147.45,20.97,805.067
148.44,20.5,794.968
149.47,20.04,809.883
150.48,19.54,883.821
151.47,19.05,884.982
152.48,18.59,829.331
153.49,18.1,852.399
154.5,17.62,843.544
155.62,17.14,885.661
156.5,16.63,905.127
157.51,16.24,856.371
158.51,15.8,900.522
159.51,15.4,979.593
160.51,15.01,1006.35
161.51,14.67,1014.24
162.5,14.35,1019.75
163.5,14.07,1083.42
164.51,13.82,1056.23
165.51,13.58,1105.07
166.51,13.38,1112.1
167.52,13.18,1155.44
168.54,12.98,1151.48
169.54,12.8,1162.94
170.53,12.62,1200.61
171.54,12.45,1222.84
172.53,12.28,1228.46
173.53,12.12,1246.16
174.54,11.97,1259.83
175.54,11.82,1276.38
176.55,11.67,1298.98
177.55,11.53,1297.96
178.57,11.39,1313.89
179.57,11.24,1331.12
180.58,11.11,1326.79
181.59,10.97,1356.13
182.6,10.84,1338.58
183.59,10.7,1352.28
184.6,10.57,1383.3
185.61,10.44,1359.99
186.61,10.31,1377.37
187.62,10.18,1326.44
188.62,10.06,1333.29
189.62,9.93,1334.55
190.63,9.8,1327.28
191.63,9.68,1317.17
192.64,9.56,1271.01
193.64,9.44,1236.04
194.65,9.33,1222.59
195.66,9.21,1193.91
196.67,9.08,1166.87
197.66,8.97,1110.52
198.67,8.87,1087.07
199.68,8.76,1061.97
200.67,8.65,1047.86
201.68,8.54,1018.89
202.69,8.42,974.524
203.7,8.32,936.371
204.71,8.21,908.381
205.71,8.11,878.577
206.72,8.01,858.297
207.73,7.9,843.161
208.74,7.8,806.244
209.75,7.7,794.565
210.76,7.6,758.287
211.76,7.51,740.462
212.75,7.42,695.309
213.76,7.33,682.357
214.75,7.24,646.583
215.76,7.14,644.965
216.76,7.05,618.191
217.75,6.96,597.066
218.76,6.87,573.925
219.75,6.78,567.097
220.75,6.69,555.563
221.75,6.6,533.021
222.76,6.52,515.162
223.75,6.44,510.427
224.76,6.36,492.29
225.76,6.27,487.972
226.76,6.18,466.082
227.76,6.1,441.269
228.76,6.02,447.98
229.75,5.94,431.521
230.75,5.87,414.601
231.76,5.78,405.037
232.76,5.69,392.275
233.76,5.61,388.457
234.76,5.53,390.459
235.76,5.45,372.576
236.76,5.37,369.977
237.75,5.3,358.162
238.76,5.24,351.499
239.76,5.16,349.937
240.76,5.07,341.72
241.75,5,336.892
242.76,4.93,323.667
243.76,4.85,320.915
244.76,4.77,314.973
245.75,4.69,307.043
246.75,4.61,301.783
247.76,4.54,293.487
248.76,4.47,297.475
249.76,4.4,286.284
250.75,4.34,283.66
251.76,4.27,280.064
252.76,4.2,279.329
253.76,4.14,271.565
254.76,4.07,270.167
255.76,4.01,265.391
256.75,3.94,260.294
257.76,3.87,259.525
258.76,3.8,253.458
259.75,3.73,248.054
260.76,3.67,249.929
261.76,3.61,245.487
262.76,3.55,244.425
263.75,3.49,240.812
264.75,3.43,233.117
265.75,3.37,236.105
266.76,3.31,231.104
267.76,3.24,233.455
268.76,3.18,225.913
269.76,3.13,228.221
270.76,3.07,221.024
271.76,3.01,217.38
272.75,2.96,214.823
273.75,2.91,213.806
274.76,2.86,211.416
275.75,2.79,211.9
276.75,2.73,210.969
277.76,2.69,206.612
278.76,2.63,205.508
279.76,2.57,204.195
280.75,2.52,203.605
281.76,2.46,197.244
282.75,2.39,197.124
283.75,2.34,196.354
284.76,2.3,188.201
285.75,2.26,192.973
286.76,2.21,190.527
287.76,2.16,190.791
288.76,2.12,184.768
289.76,2.08,183.657
290.75,2.03,188.868
291.75,1.99,180.487
292.75,1.95,178.511
293.75,1.9,177.149
294.76,1.86,177.142
295.76,1.83,177.193
296.76,1.78,174.28
297.76,1.74,173.486
298.76,1.71,169.506
299.76,1.67,172.643
300.76,1.63,168.161
301.76,1.6,170.073
302.76,1.57,166.986
303.75,1.53,166.238
304.76,1.48,164.356
305.75,1.45,159.815
306.76,1.42,162.176
307.76,1.39,158.074
308.75,1.36,158.816
309.76,1.34,159.734
310.76,1.32,156.099
311.75,1.29,152.265
312.76,1.26,151.267
313.75,1.23,154.451
314.75,1.21,149.067
315.76,1.18,146.319
316.76,1.16,143.808
317.75,1.13,145.207
318.77,1.11,142.204
319.77,1.09,141.55
320.79,1.07,139.763
321.8,1.04,136.091
322.8,1.02,135.828
323.8,1,136.269
324.8,0.98,133.176
325.8,0.96,130.554
326.81,0.93,129.986
327.82,0.92,128.283
328.82,0.9,125.413
329.81,0.88,124.458
330.82,0.88,122.641
331.83,0.87,118.344
332.83,0.85,119.45
333.84,0.81,116.617
334.83,0.8,115.474
335.84,0.8,112.276
336.84,0.8,110.32
337.86,0.79,112.989
338.87,0.78,107.877
339.89,0.76,105.598
340.88,0.74,104.848
341.88,0.73,103.026
342.88,0.72,100.571
343.88,0.71,95.496
344.88,0.7,94.4825
345.88,0.69,91.7813
346.89,0.68,92.1598
347.88,0.68,89.5024
348.89,0.67,88.2213
349.9,0.66,85.8138
350.9,0.66,81.7774
351.91,0.66,83.527
352.92,0.66,81.1117
353.92,0.65,80.1843
354.92,0.64,76.5432
355.92,0.63,72.5659
356.93,0.62,74.0546
357.92,0.62,70.8822
358.92,0.62,69.2361
359.92,0.61,66.0557
360.93,0.6,66.5689
361.93,0.59,64.0983
362.94,0.58,61.7323
363.97,0.57,62.1699
364.97,0.56,59.9937
365.98,0.55,57.0951
366.98,0.55,57.1382
368,0.55,55.184
369,0.54,55.696
370.01,0.53,52.7051
371.01,0.53,52.0114
372,0.52,51.1526
373,0.51,50.9836
374.01,0.51,47.7689
375.01,0.51,45.5542
376.01,0.5,46.2659
377.01,0.5,46.4217
378.01,0.5,43.383
379.01,0.49,40.255
380,0.48,40.7052
381.02,0.47,40.6468
382.02,0.46,38.3174