File: PMMA/Calibration_Data/Edinburgh/Edinburgh_Cone_25kW_3.csv
Time,Mass,HRR,Temperature Backing Centre
[s],[g],[kW/m2],[K]
0,73.7871,0.1,290.15
1,72.6771,0.1,290.15
2,72.6571,0,290.05
3,72.6171,0.1,290.15
4.1,71.8371,0,290.25
5.1,66.7271,0.1,290.25
6.1,66.5071,0.1,290.25
7.1,71.0971,0.1,290.25
8.1,73.1071,0.1,290.25
9.1,73.5271,0,290.25
10.1,73.5571,-0.1,290.25
11.2,73.5371,-0.2,290.35
12.2,73.5171,0,290.35
13.2,73.5071,-0.1,290.35
14.2,73.4771,-0.1,290.35
15.2,73.4471,-0.1,290.35
16.2,73.4371,-0.1,290.35
17.2,73.4071,0,290.35
18.3,73.3871,0.2,290.35
19.3,73.3671,0,290.45
20.3,73.3471,-0.1,290.45
21.3,73.3271,-0.3,290.35
22.3,73.2971,-0.1,290.45
23.3,73.2771,-0.1,290.35
24.3,73.2471,0,290.45
25.3,73.2271,0,290.45
26.4,73.2171,-0.1,290.45
27.4,73.1971,-0.1,290.45
28.4,73.1871,-0.1,290.55
29.4,73.1771,-0.2,290.55
30.4,73.1571,-0.3,290.55
31.4,73.1271,-0.3,290.55
32.4,73.1071,-0.4,290.55
33.5,73.0971,-0.3,290.55
34.5,73.0871,-0.1,290.65
35.5,73.0671,-0.2,290.65
36.5,73.0571,-0.2,290.65
37.5,73.0571,-0.2,290.75
38.5,73.0571,-0.3,290.65
39.5,73.0471,-0.2,290.65
40.6,73.0371,-0.3,290.75
41.6,73.0271,-0.1,290.65
42.6,73.0271,-0.1,290.75
43.6,73.0271,0,290.75
44.6,73.0271,-0.1,290.75
45.6,73.0271,0.1,290.75
46.6,73.0171,0,290.85
47.7,73.0271,0.1,290.85
48.7,73.0371,0,290.85
49.7,73.0471,-0.1,290.85
50.7,73.0471,0,290.95
51.7,73.0571,0.1,290.95
52.7,73.0471,0,290.95
53.7,73.0371,0.2,291.05
54.8,73.0271,0.1,291.05
55.8,73.0371,0.1,291.05
56.8,73.0471,0,291.05
57.8,73.0571,0,291.15
58.8,73.0471,0.1,291.15
59.8,73.0571,-0.1,291.15
60.8,73.0571,-0.2,291.15
62.5,73.0471,-0.4,291.25
63.2,73.0471,-0.3,291.25
64,73.0571,-0.3,291.35
64.9,73.0571,-0.2,291.35
65.9,73.0571,-0.1,291.35
66.9,73.0571,-0.2,291.35
67.9,73.0571,-0.3,291.45
69,73.0571,-0.2,291.45
70,73.0371,0,291.45
71,73.0271,-0.2,291.45
72,73.0171,-0.2,291.55
73,73.0171,-0.3,291.55
74,73.0171,-0.2,291.65
75,73.0171,-0.1,291.65
76,73.0171,0,291.65
77.1,73.0271,0,291.75
78.1,73.0171,-0.3,291.75
79.1,73.0071,-0.2,291.75
80.1,73.0171,-0.1,291.85
81.1,73.0071,-0.3,291.85
82.1,73.0071,-0.1,291.95
83.1,73.0071,-0.3,292.05
84.2,73.0071,-0.3,292.05
85.2,72.9971,-0.3,292.05
86.2,72.9871,-0.2,292.05
87.2,72.9771,0,292.15
88.2,72.9771,0,292.15
89.2,72.9871,-0.1,292.25
90.2,72.9871,-0.3,292.25
91.3,72.9871,-0.2,292.35
92.3,72.9871,-0.2,292.35
93.3,72.9871,-0.2,292.55
94.3,72.9871,-3.8,292.45
95.3,72.9871,-3.7,292.55
96.3,72.9871,-3.8,292.55
97.3,72.9771,-3.7,292.65
98.4,72.9571,-3.6,292.75
99.4,72.9171,-3.4,292.75
100.4,72.8871,-3.5,292.85
101.4,72.8571,-0.1,292.85
102.4,72.8171,-0.1,292.85
103.4,72.7671,-0.2,292.95
104.4,72.7071,0,292.95
105.5,72.6371,0,293.05
106.5,72.5571,0,293.15
107.5,72.4671,0,293.15
108.5,72.3571,-0.1,293.25
109.5,72.2471,0,293.35
110.5,72.1471,0.1,293.35
111.5,72.0371,0,293.55
112.6,71.9271,-0.1,293.45
113.6,71.8171,2.9,293.55
114.6,71.6971,2.9,293.65
115.6,71.5871,6,293.65
116.6,71.4771,11.5,293.75
117.6,71.3571,18,293.85
118.6,71.2471,27.5,293.85
119.7,71.1371,28.3,293.95
120.7,71.0171,39.8,294.05
121.7,70.8971,51.4,294.15
122.7,70.7871,66.1,294.15
123.7,70.6671,77.1,294.25
124.7,70.5471,87.9,294.35
125.7,70.4471,95,294.45
126.8,70.3271,109.2,294.45
127.8,70.2071,123.2,294.55
128.8,70.0971,135,294.65
129.8,69.9671,141.9,294.75
130.8,69.8471,152.8,294.85
131.8,69.7271,161.3,294.95
132.8,69.6071,170.8,294.95
133.8,69.4971,179.4,295.05
134.9,69.3571,191.1,295.15
135.9,69.2371,190.2,295.25
136.9,69.1171,197.9,295.35
137.9,68.9871,209.3,295.45
138.9,68.8571,213.1,295.55
139.9,68.7271,214.6,295.65
140.9,68.6071,218.9,295.75
142,68.4871,224.1,295.85
143,68.3471,230.1,295.95
144,68.2171,233.1,296.05
145,68.1171,237.4,296.15
146,67.9971,237.9,296.25
147,67.8971,248,296.45
148,67.7871,243.6,296.55
149.1,67.6671,255.1,296.65
150.1,67.5671,250.7,296.75
151.1,67.4671,259.3,296.85
152.1,67.3571,255.8,296.95
153.1,67.2271,257.9,297.15
154.1,67.0871,266.5,297.25
155.1,66.9571,278.3,297.35
156.2,66.8271,265.4,297.45
157.2,66.6971,267.5,297.65
158.2,66.5671,267.3,297.75
159.2,66.4271,271.6,297.85
160.2,66.2871,283.5,298.05
161.2,66.1571,270.5,298.05
162.2,66.0371,275,298.35
163.9,65.8071,282.7,298.45
164.7,65.6971,277.9,298.55
165.4,65.5771,276,298.65
166.3,65.4571,280.1,298.75
167.3,65.3371,275.8,298.95
168.3,65.2071,281,299.05
169.3,65.0771,280.9,299.15
170.4,64.9471,278.1,299.25
171.4,64.8071,285.1,299.55
172.4,64.6671,290.7,299.55
173.4,64.5471,283.5,299.65
174.4,64.4271,288,299.65
175.4,64.2871,281.5,299.95
176.4,64.1571,294.4,300.05
177.5,64.0271,287.9,300.25
178.5,63.9071,300.5,300.35
179.5,63.7771,300.4,300.45
180.5,63.6471,296.9,300.65
181.5,63.5171,297.5,300.75
182.5,63.3871,299.9,300.85
183.5,63.2471,304.4,301.05
184.5,63.1071,307.7,301.15
185.6,62.9871,297.4,301.35
186.6,62.8671,301.7,301.45
187.6,62.7171,306.5,301.55
188.6,62.5571,312.7,301.75
189.6,62.4171,312.6,301.85
190.6,62.2671,301.7,301.95
191.6,62.1371,304.1,302.15
192.7,62.0171,308.3,302.25
193.7,61.8871,297.2,302.45
194.7,61.7571,301.8,302.55
195.7,61.6171,303.8,302.75
196.7,61.4871,304.4,302.85
197.7,61.3571,312.9,302.95
198.7,61.2271,310.7,303.15
199.8,61.0971,310,303.25
200.8,60.9671,313.3,303.45
201.8,60.8371,308.6,303.55
202.8,60.7071,314.7,303.65
203.8,60.5771,310.7,303.85
204.8,60.4471,300.3,303.95
205.8,60.3071,300.7,304.15
206.9,60.1671,310.8,304.25
207.9,60.0471,302.5,304.45
208.9,59.9071,311.6,304.55
209.9,59.7671,318.1,304.75
210.9,59.6271,306.6,304.85
211.9,59.5071,303.8,304.95
212.9,59.3671,315.5,305.15
214,59.2471,311.6,305.25
215,59.1171,317.8,305.35
216,58.9771,308.5,305.55
217,58.8371,314.6,305.55
218,58.7071,318.2,305.85
219,58.5771,314.4,305.95
220,58.4471,310.7,306.15
221.1,58.3071,307.2,306.25
222.1,58.1571,311.3,306.35
223.1,58.0271,312.1,306.55
224.1,57.8971,310.5,306.65
225.1,57.7571,308.3,306.85
226.1,57.6071,318.5,306.95
227.1,57.4671,321.5,307.15
228.2,57.3271,311.4,307.25
229.2,57.1771,312.7,307.35
230.2,57.0471,319,307.55
231.2,56.9171,312.6,307.65
232.2,56.7871,312.2,307.75
233.2,56.6571,307.2,307.85
234.2,56.5271,307.8,308.15
235.2,56.3871,316.1,308.15
236.3,56.2471,320,308.35
237.3,56.1071,313.4,308.45
238.3,55.9871,307,308.55
239.3,55.8471,318.5,308.65
240.3,55.7071,312.8,308.85
241.3,55.5671,310.3,308.95
242.3,55.4271,321.9,309.05
243.4,55.2871,321.2,309.25
244.4,55.1571,321.2,309.35
245.4,55.0171,321.1,309.45
246.4,54.8771,315.1,309.65
247.4,54.7471,319.1,309.75
248.4,54.6071,313.7,309.95
249.4,54.4671,319.2,310.05
250.5,54.3371,308,310.15
251.5,54.2071,313.8,310.25
252.5,54.0771,324.3,310.45
253.5,53.9371,311.5,310.55
254.5,53.8071,313.5,310.65
255.5,53.6771,324.1,310.85
256.5,53.5271,320.9,310.95
257.6,53.3771,326.3,311.05
258.6,53.2071,313.5,311.25
259.6,53.0671,326.3,311.35
260.6,52.9371,319.3,311.45
261.6,52.7871,315.6,311.65
262.6,52.6471,321.5,311.75
263.6,52.5071,318.2,312.05
265.5,52.2471,323,312.05
266.3,52.1471,318.3,312.15
267,52.0471,317.3,312.25
267.8,51.9571,323.6,312.45
268.7,51.8371,318.4,312.55
269.7,51.6971,321.5,312.65
270.7,51.5571,323.8,312.85
271.8,51.4071,328.4,312.95
272.8,51.2471,335,313.15
273.8,51.0971,320.7,313.25
274.8,50.9471,323.9,313.35
275.8,50.7971,323.2,313.45
276.8,50.6471,340,313.65
277.8,50.5071,324.3,313.75
278.9,50.3571,333.3,313.85
279.9,50.2071,324.2,314.15
280.9,50.0471,335.6,314.15
281.9,49.9071,321.4,314.25
282.9,49.7771,327.4,314.45
283.9,49.6271,330.2,314.55
284.9,49.4871,336.1,314.65
285.9,49.3371,325.9,314.85
287,49.1971,323.9,314.95
288,49.0671,332.6,315.15
289,48.9271,336,315.25
290,48.7671,322.7,315.35
291,48.6171,328.6,315.55
292,48.4671,331.3,315.65
293,48.3371,321.9,315.75
294.1,48.2071,330.2,315.95
295.1,48.0371,347.4,316.05
296.1,47.8771,332.9,316.15
297.1,47.7271,321,316.35
298.1,47.5771,328.3,316.45
299.1,47.4271,350.5,316.65
300.1,47.2671,324.4,316.75
301.2,47.0971,347.9,316.85
302.2,46.9571,334.5,317.05
303.2,46.8271,330.6,317.15
304.2,46.6771,332.4,317.35
305.2,46.5371,338.4,317.35
306.2,46.3871,339.6,317.55
307.2,46.2271,336.4,317.65
308.3,46.0771,348.1,317.75
309.3,45.9371,341.8,317.95
310.3,45.7871,332.6,318.05
311.3,45.6271,338.7,318.25
312.3,45.4671,342.5,318.35
313.3,45.3171,341.9,318.55
314.3,45.1571,340.6,318.65
315.4,45.0071,350.1,318.75
316.4,44.8671,341.1,318.95
317.4,44.6971,339.3,319.05
318.4,44.5171,349,319.15
319.4,44.3671,338.3,319.35
320.4,44.2071,353.8,319.45
321.4,44.0371,355,319.55
322.5,43.8871,337.3,319.75
323.5,43.7171,352,319.85
324.5,43.5571,350.4,319.95
325.5,43.4071,347.3,320.15
326.5,43.2371,344.4,320.25
327.5,43.0871,361.3,320.45
328.5,42.9371,353.8,320.55
329.6,42.7771,343.7,320.65
330.6,42.6071,354,320.85
331.6,42.4471,360.4,320.95
332.6,42.2771,354.8,321.15
333.6,42.1171,357.4,321.15
334.6,41.9471,343.8,321.35
335.6,41.7871,360.9,321.55
336.6,41.6171,360.5,321.65
337.7,41.4571,359.9,321.75
338.7,41.2971,365.6,321.85
339.7,41.1471,356.4,322.15
340.7,40.9771,360.6,322.25
341.7,40.8071,349,322.35
342.7,40.6471,361.9,322.35
343.7,40.4671,376.4,322.65
344.8,40.3071,370.7,322.75
345.8,40.1371,371.7,322.85
346.8,39.9571,367.6,323.05
347.8,39.7871,361.5,323.15
348.8,39.6171,367.1,323.25
349.8,39.4371,376.7,323.45
350.8,39.2771,374.7,323.55
351.9,39.1071,389.6,323.75
352.9,38.9371,372,323.85
353.9,38.7471,371.7,323.95
354.9,38.5671,375.3,324.15
355.9,38.3971,376.1,324.25
356.9,38.2271,371.3,324.45
357.9,38.0571,366,324.55
359,37.8871,379.3,324.75
360,37.7071,373.4,324.85
361,37.5271,380.3,324.95
362,37.3571,380.6,325.15
363,37.1771,377.2,325.25
364,37.0271,389.8,325.45
365,36.8671,390.3,325.65
366.9,36.5571,389,325.75
367.6,36.4271,389.7,325.85
368.3,36.2971,392.1,326.05
369.1,36.1671,388.5,326.15
370.1,35.9871,390.2,326.25
371.1,35.8271,390.1,326.45
372.1,35.6571,388.6,326.55
373.2,35.4771,389,326.75
374.2,35.3071,397.4,326.95
375.2,35.1371,388.5,327.05
376.2,34.9771,397.4,327.15
377.2,34.8071,392.2,327.35
378.2,34.6271,392.5,327.45
379.2,34.4671,387.7,327.65
380.3,34.2971,396.9,327.85
381.3,34.1271,390.9,327.95
382.3,33.9371,405,328.15
383.3,33.7671,400.6,328.35
384.3,33.5971,388.8,328.45
385.3,33.4171,401.9,328.65
386.3,33.2471,393.9,328.75
387.4,33.0671,418.2,328.95
388.4,32.8971,398.5,329.15
389.4,32.7371,383.9,329.35
390.4,32.5671,402.7,329.55
391.4,32.3971,400.8,329.65
392.4,32.2271,404.5,329.75
393.4,32.0571,402.9,330.05
394.4,31.8771,414.5,330.25
395.5,31.7071,406.4,330.35
396.5,31.5471,394.3,330.55
397.5,31.3771,409.5,330.75
398.5,31.1971,392.3,330.95
399.5,30.9971,383.8,331.15
400.5,30.8371,402,331.35
401.5,30.6571,396.6,331.55
402.6,30.4771,392.1,331.75
403.6,30.3071,410.2,331.95
404.6,30.1571,400.3,332.15
405.6,29.9871,411.5,332.35
406.6,29.7971,394,332.55
407.6,29.6171,418.3,332.75
408.6,29.4571,410.2,332.95
409.7,29.2771,413.8,333.15
410.7,29.1071,402.8,333.45
411.7,28.9371,408.6,333.65
412.7,28.7671,407.3,333.85
413.7,28.5971,405.5,334.05
414.7,28.4571,403.1,334.25
415.7,28.2871,406.8,334.55
416.8,28.1071,406.6,334.75
417.8,27.9471,407.3,334.95
418.8,27.7871,401.1,335.25
419.8,27.6171,404,335.45
420.8,27.4671,403.7,335.65
421.8,27.3271,401.2,335.95
422.8,27.1571,401.9,336.15
423.9,26.9971,408.9,336.35
424.9,26.8271,410.6,336.65
425.9,26.6671,408.9,336.85
426.9,26.5271,411.3,337.05
427.9,26.3771,404.9,337.35
428.9,26.2271,408.9,337.55
429.9,26.0771,400,337.85
431,25.9271,400.2,338.05
432,25.7771,400.7,338.25
433,25.6271,404.5,338.55
434,25.4871,401.4,338.75
435,25.3471,392.1,339.05
436,25.1971,397.3,339.25
437,25.0371,397,339.55
438.1,24.8971,398.8,339.75
439.1,24.7371,397,340.05
440.1,24.5871,395.2,340.25
441.1,24.4271,391,340.45
442.1,24.2771,398,340.75
443.1,24.1371,402.8,341.05
444.1,23.9871,388.6,341.25
445.1,23.8471,382.6,341.55
446.2,23.6971,390.8,341.75
447.2,23.5471,398.5,342.05
448.2,23.3971,387.3,342.25
449.2,23.2571,370,342.55
450.2,23.1071,380.2,342.85
451.2,22.9671,375.8,343.05
452.2,22.8271,372.5,343.35
453.3,22.6871,367.9,343.55
454.3,22.5371,384.7,343.85
455.3,22.3971,378.3,344.05
456.3,22.2571,375.1,344.35
457.3,22.1271,374.7,344.65
458.3,21.9971,381.6,344.85
459.3,21.8571,371,345.05
460.4,21.7071,366.5,345.35
461.4,21.5671,374.4,345.65
462.4,21.4171,362.3,345.95
463.4,21.2771,363.6,346.15
464.4,21.1471,364.4,346.45
465.4,21.0271,353.5,346.75
466.4,20.8871,356,347.25
468.3,20.6371,357.2,347.45
469.1,20.5271,356.1,347.65
469.8,20.4171,352.9,347.85
470.6,20.3071,354.8,348.15
471.5,20.1771,347.9,348.35
472.5,20.0371,357.8,348.65
473.5,19.8871,353.3,348.95
474.6,19.7471,356.5,349.25
475.6,19.6171,345.4,349.55
476.6,19.4871,352.4,349.85
477.6,19.3671,342.3,350.15
478.6,19.2471,343.8,350.35
479.6,19.1171,341.6,350.65
480.6,18.9971,337.4,350.95
481.7,18.8671,343,351.25
482.7,18.7271,343.9,351.55
483.7,18.5971,339,351.85
484.7,18.4671,334.5,352.15
485.7,18.3371,329.8,352.35
486.7,18.1971,331,352.65
487.7,18.0671,333,352.95
488.8,17.9371,345.4,353.25
489.8,17.8071,322.1,353.85
491.8,17.5371,330.1,354.05
492.5,17.4471,330.3,354.25
493.3,17.3571,330.7,354.45
494,17.2571,326.4,354.65
494.8,17.1571,335,354.95
495.8,17.0371,327.7,355.25
496.9,16.8971,323.6,355.55
497.9,16.7771,323.7,355.85
498.9,16.6471,321.3,356.15
499.9,16.5171,326.9,356.45
500.9,16.3771,321.7,356.75
501.9,16.2371,319.4,357.05
502.9,16.1071,318.5,357.35
504,15.9871,325.9,357.65
505,15.8671,317.1,357.95
506,15.7571,331.5,358.25
507,15.6471,316.2,358.55
508,15.5371,321.8,358.85
509,15.4371,320.1,359.15
510,15.3271,317.3,359.45
511.1,15.2071,312.6,359.75
512.1,15.0871,318.2,360.05
513.1,14.9671,315.4,360.35
514.1,14.8571,314.4,360.75
515.1,14.7571,313,360.95
516.1,14.6571,309.3,361.35
517.1,14.5571,310.8,361.65
518.2,14.4371,308.3,361.95
519.2,14.3371,307.8,362.35
520.2,14.2471,308.2,362.65
521.2,14.1471,301.3,362.85
522.2,14.0471,308.2,363.25
523.2,13.9571,306.9,363.55
524.2,13.8671,300.8,363.95
525.3,13.7771,303.5,364.25
526.3,13.6971,294.8,364.55
527.3,13.6171,293.2,364.85
528.3,13.5371,286,365.25
529.3,13.4571,290.4,365.55
530.3,13.3671,286.3,365.95
531.3,13.2871,284.3,366.25
532.4,13.1971,285.4,366.55
533.4,13.1171,272.3,366.95
534.4,13.0271,277.6,367.25
535.4,12.9471,272.8,367.65
536.4,12.8771,272.2,367.95
537.4,12.8071,266.7,368.35
538.4,12.7271,265.2,368.65
539.5,12.6571,259.1,369.15
540.5,12.5871,256.7,369.35
541.5,12.5071,255,369.75
542.5,12.4471,250.7,370.15
543.5,12.3671,244.3,370.45
544.5,12.2871,240.2,370.85
545.5,12.1971,248.5,371.25
546.5,12.0871,233.5,371.65
547.6,11.9771,235.2,371.95
548.6,11.8671,228.6,372.35
549.6,11.7971,230.1,372.65
550.6,11.7271,223.8,373.05
551.6,11.6671,223.2,373.45
552.6,11.5971,212.1,373.75
553.6,11.5471,215.7,374.15
554.7,11.4871,208.6,374.45
555.7,11.4471,205.6,374.85
556.7,11.3971,202.2,375.25
557.7,11.3371,204.5,375.65
558.7,11.2771,204.3,375.95
559.7,11.2271,197.6,376.35
560.7,11.1771,188.2,376.65
561.8,11.1171,193.1,377.15
562.8,11.0671,186.4,377.45
563.8,11.0071,186.7,377.85
564.8,10.9571,182.8,378.25
565.8,10.9071,187,378.65
566.8,10.8571,175.8,379.05
567.8,10.8071,165.8,379.65
569.5,10.7371,176.8,379.95
570.2,10.6971,169.2,380.25
570.9,10.6571,169.6,380.55
571.9,10.6071,164.2,380.95
572.9,10.5671,159.6,381.35
573.9,10.5271,159.6,381.75
574.9,10.4871,157.6,382.25
576,10.4471,156,382.55
577,10.3971,151.1,383.05
578,10.3571,147.6,383.35
579,10.3271,149.6,383.75
580,10.2971,147,384.25
581,10.2571,150,384.65
582,10.2171,140.2,385.05
583.1,10.1771,138,385.45
584.1,10.1271,139.8,385.85
585.1,10.0871,137.1,386.25
586.1,10.0471,136.5,386.65
587.1,10.0071,131,387.05
588.1,9.97714,131.9,387.45
589.1,9.93714,133.7,387.95
590.1,9.89714,126.5,388.35
591.2,9.86714,127.5,388.75
592.2,9.82714,123.8,389.15
593.2,9.78714,121.9,389.55
594.2,9.74714,121.9,389.95
595.2,9.72714,120.4,390.35
596.2,9.69714,115.5,390.75
597.2,9.66714,113.5,391.15
598.3,9.62714,116.3,391.55
599.3,9.59714,113.4,392.05
600.3,9.55714,113.4,392.45
601.3,9.51714,108.5,392.85
602.3,9.48714,108.6,393.15
603.3,9.45714,109.3,393.65
604.3,9.41714,106,394.05
605.4,9.39714,105.7,394.45
606.4,9.36714,101,394.95
607.4,9.33714,101.8,395.25
608.4,9.30714,101.7,395.65
609.4,9.27714,99.2,395.95
610.4,9.23714,99.5,396.45
611.4,9.20714,95.7,396.85
612.5,9.17714,97.1,397.25
613.5,9.13714,93.8,397.65
614.5,9.09714,88.8,398.15
615.5,9.06714,88.3,398.55
616.5,9.05714,90.9,398.85
617.5,9.02714,91,399.35
618.5,8.99714,88.7,399.75
619.6,8.95714,86.9,400.15
620.6,8.92714,86.8,400.65
621.6,8.89714,86.2,400.95
622.6,8.87714,84.6,401.35
623.6,8.84714,84.9,401.75
624.6,8.81714,83.4,402.15
625.6,8.80714,80.6,402.55
626.7,8.77714,82.4,402.95
627.7,8.71714,83.5,403.45
628.7,8.70714,79.6,403.75
629.7,8.69714,80.5,404.25
630.7,8.66714,80.4,404.65
631.7,8.64714,77.9,405.05
632.7,8.62714,76.8,405.45
633.8,8.59714,76.6,405.75
634.8,8.57714,76,406.25
635.8,8.55714,75.4,406.65
636.8,8.52714,72.3,406.95
637.8,8.48714,70.4,407.35
638.8,8.45714,71.5,407.75
639.8,8.43714,72.9,408.15
640.8,8.42714,70.3,408.55
641.9,8.40714,69.9,408.95
642.9,8.37714,69.2,409.35
643.9,8.35714,67.4,409.75
644.9,8.32714,66.9,410.15
645.9,8.29714,68.9,410.45
646.9,8.26714,67,410.85
647.9,8.25714,66.3,411.25
649,8.23714,65.6,411.65
650,8.21714,64.6,412.05
651,8.19714,65.4,412.45
652,8.17714,61.5,412.75
653,8.15714,62.2,413.15
654,8.13714,59.3,413.55
655,8.10714,59,413.95
656.1,8.09714,58.4,414.25
657.1,8.08714,58.6,414.65
658.1,8.05714,59.5,415.05
659.1,8.04714,55.8,415.45
660.1,8.03714,57.3,415.75
661.1,8.02714,57.2,416.15
662.1,8.00714,57.8,416.55
663.2,7.97714,53.9,416.95
664.2,7.94714,54.3,417.25
665.2,7.91714,53.8,417.65
666.2,7.90714,54.1,417.95
667.2,7.88714,55.5,418.35
668.2,7.86714,53.8,418.65
669.2,7.85714,51.2,419.45
671.3,7.80714,51.6,419.75
672,7.78714,52.2,419.95
672.7,7.78714,51.8,420.25
673.5,7.78714,51.3,420.45
674.3,7.77714,52.3,420.85
675.3,7.74714,53.1,421.25
676.3,7.72714,48.6,421.55
677.4,7.71714,48.9,421.95
678.4,7.70714,48.9,422.25
679.4,7.68714,48.5,422.65
680.4,7.67714,49.5,422.95
681.4,7.66714,50.8,423.25
682.4,7.64714,45.8,423.55
683.4,7.61714,46.6,423.95
684.4,7.60714,46.9,424.25
685.5,7.57714,45.9,424.65
686.5,7.54714,46.6,424.95
687.5,7.52714,43.7,425.25
688.5,7.50714,44.4,425.65
689.5,7.49714,44.6,425.95
690.5,7.48714,43.4,426.35
691.5,7.45714,43.6,426.65
692.6,7.43714,44.3,426.95
693.6,7.42714,44.1,427.25
694.6,7.40714,40.2,427.65
695.6,7.38714,40.3,427.95
696.6,7.36714,40.4,428.25
697.6,7.35714,41,428.65
698.6,7.34714,40.8,428.95
699.7,7.32714,40.9,429.25
700.7,7.30714,41.9,429.55
701.7,7.29714,40.8,429.85
702.7,7.28714,40.6,430.25
703.7,7.27714,41.5,430.55
704.7,7.26714,41.4,430.85
705.7,7.24714,42.4,431.15
706.8,7.21714,42.5,431.45
707.8,7.21714,38.4,431.75
708.8,7.19714,38.2,432.05
709.8,7.18714,38.6,432.35
710.8,7.16714,38.6,432.75
711.8,7.15714,37.9,433.05
712.8,7.13714,38.8,433.35
713.9,7.12714,37.9,433.65
714.9,7.10714,37.4,433.95
715.9,7.08714,39,434.25
716.9,7.06714,38.9,434.55
717.9,7.04714,39.3,434.85
718.9,7.03714,38.3,435.15
719.9,7.02714,38.8,435.45
721,7.01714,35.6,435.75
722,6.98714,35.5,436.15
723,6.96714,36.1,436.35
724,6.95714,36.3,436.65
725,6.93714,36.1,436.95
726,6.91714,36.3,437.35
727,6.90714,35.6,437.65
728.1,6.88714,35.9,437.85
729.1,6.87714,36.4,438.15
730.1,6.86714,35.9,438.45
731.1,6.85714,35.8,438.75
732.1,6.83714,35.3,439.05
733.1,6.82714,36.8,439.35
734.1,6.81714,36.3,439.65
735.1,6.79714,36.3,439.95
736.2,6.77714,36.1,440.25
737.2,6.75714,36.1,440.55
738.2,6.74714,35.2,440.85
739.2,6.72714,35.9,441.15
740.2,6.72714,36.8,441.45
741.2,6.73714,35.4,441.75
742.2,6.71714,36.4,442.05
743.3,6.68714,32.8,442.35
744.3,6.66714,33,442.65
745.3,6.64714,33.3,442.85
746.3,6.62714,33,443.15
747.3,6.61714,32.8,443.45
748.3,6.61714,33,443.75
749.3,6.61714,32.8,444.05
750.4,6.60714,32.9,444.35
751.4,6.59714,33,444.65
752.4,6.58714,33.2,444.85
753.4,6.57714,32.7,445.15
754.4,6.55714,32.3,445.45
755.4,6.53714,33.2,445.75
756.4,6.52714,33.1,446.05
757.5,6.50714,33.4,446.35
758.5,6.48714,32.8,446.55
759.5,6.46714,32.5,446.85
760.5,6.45714,32.9,447.15
761.5,6.43714,33.4,447.45
762.5,6.42714,33.7,447.75
763.5,6.40714,33.2,447.95
764.6,6.39714,33.4,448.25
765.6,6.38714,30.2,448.55
766.6,6.37714,29.7,448.85
767.6,6.36714,30.2,449.05
768.6,6.35714,30.1,449.35
769.6,6.33714,30.4,449.65
770.6,6.32714,30.1,450.15
772.5,6.28714,30.2,450.35
773.3,6.28714,30.6,450.55
774,6.27714,29.8,450.75
774.8,6.26714,30.5,451.05
775.7,6.23714,30.1,451.25
776.7,6.22714,30.1,451.55
777.7,6.21714,30.2,451.85
778.7,6.21714,30.4,452.05
779.8,6.20714,30.5,452.35
780.8,6.19714,30.8,452.55
781.8,6.16714,30.4,452.85
782.8,6.14714,31.1,453.15
783.8,6.12714,30.6,453.45
784.8,6.10714,30.5,453.75
785.8,6.08714,30.8,453.95
786.9,6.06714,30.6,454.25
787.9,6.05714,30.5,454.55
788.9,6.05714,30.5,454.75
789.9,6.06714,30.8,455.05
790.9,6.05714,30.7,455.25
791.9,6.03714,30.9,455.55
792.9,6.01714,31.1,455.85
794,6.00714,30.1,456.05
795,6.00714,30.8,456.35
796,5.98714,31.1,456.55
797,5.97714,31.2,456.85
798,5.97714,31.2,457.15
799,5.96714,30.4,457.35
800,5.94714,30.8,457.65
801.1,5.90714,31.1,457.85
802.1,5.88714,31.2,458.15
803.1,5.86714,30.8,458.35
804.1,5.85714,31,458.65
805.1,5.86714,31.1,458.85
806.1,5.83714,31.1,459.15
807.1,5.80714,31,459.45
808.2,5.78714,30.7,459.65
809.2,5.77714,30.7,459.95
810.2,5.75714,31.3,460.25
811.2,5.74714,31.2,460.45
812.2,5.72714,31,460.65
813.2,5.71714,31.3,460.95
814.2,5.72714,31,461.25
815.3,5.71714,31.1,461.45
816.3,5.71714,31.4,461.65
817.3,5.70714,31.2,461.95
818.3,5.68714,31.2,462.15
819.3,5.67714,31.9,462.45
820.3,5.66714,30.9,462.65
821.3,5.65714,30.7,462.95
822.4,5.63714,31.4,463.15
823.4,5.61714,31.3,463.45
824.4,5.56714,30.8,463.65
825.4,5.55714,31.5,463.95
826.4,5.55714,31.3,464.15
827.4,5.52714,31.6,464.45
828.4,5.50714,31.1,464.65
829.4,5.47714,31.5,464.95
830.5,5.45714,30.3,465.15
831.5,5.43714,27.5,465.45
832.5,5.42714,28.2,465.65
833.5,5.41714,28.1,465.95
834.5,5.39714,28,466.15
835.5,5.37714,28.5,466.45
836.5,5.36714,28.7,466.65
837.6,5.35714,27.6,466.85
838.6,5.36714,27.5,467.15
839.6,5.35714,27.8,467.35
840.6,5.32714,27.8,467.65
841.6,5.28714,28,467.85
842.6,5.26714,28.1,468.05
843.6,5.24714,27.8,468.35
844.7,5.22714,28.3,468.55
845.7,5.22714,28.9,468.85
846.7,5.22714,28.3,469.05
847.7,5.22714,28.5,469.35
848.7,5.19714,28.3,469.55
849.7,5.17714,28.2,469.75
850.7,5.15714,28.6,470.05
851.8,5.14714,28.8,470.25
852.8,5.14714,27.8,470.45
853.8,5.14714,28.2,470.65
854.8,5.12714,27.7,470.95
855.8,5.10714,28.7,471.15
856.8,5.09714,28.6,471.35
857.8,5.08714,28.5,471.65
858.9,5.07714,28.6,471.75
859.9,5.07714,28.5,472.05
860.9,5.04714,28.7,472.35
861.9,5.03714,28.2,472.55
862.9,5.02714,27.8,472.75
863.9,5.00714,28.7,472.95
864.9,4.98714,28.7,473.25
866,4.97714,28.8,473.45
867,4.96714,28.5,473.65
868,4.95714,28.6,473.95
869,4.94714,28.6,474.15
870,4.92714,28.2,474.35
871,4.90714,28.4,474.65
872,4.90714,29.3,475.05
873.9,4.87714,28.3,475.15
874.6,4.86714,28.4,475.35
875.4,4.85714,28.4,475.55
876.1,4.84714,28.4,475.75
877.1,4.83714,28,475.95
878.1,4.82714,28,476.15
879.1,4.80714,28.5,476.45
880.1,4.78714,28.7,476.65
881.2,4.77714,28.5,476.85
882.2,4.77714,28.7,477.05
883.2,4.76714,24.9,477.35
884.2,4.73714,25.4,477.55
885.2,4.71714,24.6,477.85
886.2,4.69714,25.6,478.05
887.2,4.67714,25.3,478.25
888.3,4.66714,25.4,478.45
889.3,4.65714,25.1,478.75
890.3,4.64714,25.7,478.95
891.3,4.63714,25.1,479.15
892.3,4.61714,28.4,479.35
893.3,4.59714,25.2,479.65
894.3,4.59714,25.4,479.85
895.4,4.58714,25.3,480.05
896.4,4.59714,25.4,480.25
897.4,4.56714,25.2,480.55
898.4,4.54714,25.2,480.75
899.4,4.52714,25.4,480.95
900.4,4.52714,25.6,481.15
901.4,4.51714,25.2,481.35
902.5,4.51714,25.1,481.65
903.5,4.49714,25,481.85
904.5,4.46714,24.8,482.05
905.5,4.42714,25.1,482.25
906.5,4.44714,25.4,482.55
907.5,4.44714,25.1,482.75
908.5,4.43714,24.6,482.95
909.6,4.44714,24.9,483.15
910.6,4.44714,25.4,483.35
911.6,4.42714,24.9,483.65
912.6,4.39714,25.1,483.85
913.6,4.36714,25.4,484.05
914.6,4.33714,25.5,484.25
915.6,4.30714,24.7,484.45
916.7,4.27714,25.2,484.75
917.7,4.25714,25,484.95
918.7,4.23714,25.2,485.15
919.7,4.22714,25.6,485.35
920.7,4.22714,25.7,485.55
921.7,4.22714,25.6,485.75
922.7,4.22714,25.2,485.95
923.7,4.20714,26,486.15
924.8,4.18714,25.8,486.45
925.8,4.17714,25.5,486.65
926.8,4.16714,25.4,486.75
927.8,4.14714,25.4,486.95
928.8,4.11714,25.9,487.25
929.8,4.08714,25.5,487.45
930.8,4.07714,25.3,487.65
931.9,4.05714,25.1,487.85
932.9,4.04714,25.4,488.05
933.9,4.05714,24.9,488.25
934.9,4.04714,25.4,488.45
935.9,4.02714,25.9,488.65
936.9,4.02714,25.7,488.95
937.9,4.00714,25.8,489.15
939,3.99714,25.4,489.25
940,3.98714,25.4,489.45
941,3.96714,25.1,489.75
942,3.95714,25.2,489.95
943,3.94714,25.5,490.05
944,3.93714,25.8,490.35
945,3.92714,25.4,490.55
946.1,3.90714,25.6,490.75
947.1,3.89714,25.6,490.95
948.1,3.88714,25.7,491.15
949.1,3.86714,26,491.35
950.1,3.84714,25.4,491.55
951.1,3.84714,25.7,491.75
952.1,3.84714,25.6,491.95
953.2,3.84714,26.1,492.15
954.2,3.82714,25.3,492.35
955.2,3.81714,25.7,492.55
956.2,3.80714,25.3,492.75
957.2,3.79714,25.5,493.05
958.2,3.78714,25.9,493.25
959.2,3.76714,25.7,493.35
960.3,3.75714,25.5,493.55
961.3,3.73714,25.7,493.85
962.3,3.72714,25.2,494.05
963.3,3.70714,25.4,494.15
964.3,3.67714,25.2,494.35
965.3,3.66714,25.2,494.65
966.3,3.64714,25.4,494.85
967.3,3.63714,25.1,495.05
968.4,3.62714,26.1,495.25
969.4,3.60714,25.6,495.45
970.4,3.59714,25.6,495.65
971.4,3.58714,26,495.85
972.4,3.58714,25.8,496.05
973.4,3.57714,26.2,496.45
975.3,3.50714,25.8,496.55
976,3.49714,25.8,496.75
976.8,3.50714,25.3,496.85
977.5,3.51714,25.4,497.05
978.5,3.51714,25.6,497.25
979.5,3.48714,26,497.45
980.5,3.46714,25.5,497.65
981.5,3.45714,25.6,497.85
982.6,3.44714,25.9,498.05
983.6,3.42714,25.9,498.25
984.6,3.40714,25.9,498.45
985.6,3.38714,25.4,498.65
986.6,3.37714,25.8,498.85
987.6,3.37714,25.5,499.05
988.6,3.36714,25.4,499.25
989.7,3.33714,25.5,499.45
990.7,3.31714,25.9,499.55
991.7,3.30714,25.4,499.85
992.7,3.28714,26.6,499.95
993.7,3.28714,26.4,500.25
994.7,3.27714,26.1,500.35
995.7,3.26714,25.7,500.55
996.8,3.24714,26.1,500.75
997.8,3.23714,25.5,500.95
998.8,3.23714,25.5,501.15
999.8,3.22714,26,501.35
1000.8,3.21714,26.5,501.55
1001.8,3.21714,25.8,501.75
1002.8,3.19714,25.3,501.95
1003.9,3.18714,26.1,502.05
1004.9,3.16714,25.4,502.25
1005.9,3.16714,26,502.45
1006.9,3.14714,25.9,502.65
1007.9,3.13714,25.2,502.85
1008.9,3.11714,25.5,503.05
1009.9,3.10714,26,503.25
1011,3.10714,26.7,503.45
1012,3.07714,26.5,503.65
1013,3.05714,26,503.85
1014,3.04714,26,503.95
1015,3.01714,25.9,504.15
1016,3.01714,22.3,504.35
1017,3.01714,22.6,504.55
1018.1,2.99714,22.5,504.75
1019.1,2.99714,22.4,504.95
1020.1,2.98714,22,505.15
1021.1,2.97714,22.6,505.35
1022.1,2.95714,22,505.45
1023.1,2.94714,22.5,505.65
1024.1,2.94714,22.3,505.85
1025.1,2.93714,22.4,506.05
1026.2,2.91714,21.7,506.25
1027.2,2.90714,22.1,506.45
1028.2,2.90714,22.5,506.55
1029.2,2.89714,22.8,506.85
1030.2,2.88714,22.5,506.95
1031.2,2.87714,21.8,507.15
1032.2,2.84714,22.6,507.35
1033.3,2.83714,22.3,507.55
1034.3,2.83714,22.6,507.75
1035.3,2.81714,22.5,507.95
1036.3,2.79714,22,508.05
1037.3,2.78714,22.3,508.25
1038.3,2.77714,22.3,508.45
1039.3,2.77714,22.7,508.65
1040.4,2.75714,22.6,508.85
1041.4,2.72714,22,508.95
1042.4,2.72714,22.4,509.25
1043.4,2.73714,22.8,509.35
1044.4,2.71714,22.3,509.55
1045.4,2.69714,22.4,509.75
1046.4,2.68714,22.6,509.95
1047.5,2.67714,22.3,510.15
1048.5,2.67714,22.6,510.35
1049.5,2.67714,22.6,510.45
1050.5,2.66714,22.5,510.65
1051.5,2.64714,23.5,510.85
1052.5,2.61714,22.7,511.05
1053.5,2.60714,22.4,511.25
1054.6,2.59714,22.8,511.35
1055.6,2.58714,22.8,511.55
1056.6,2.58714,22.9,511.75
1057.6,2.57714,23,511.95
1058.6,2.56714,23.1,512.15
1059.6,2.55714,22.6,512.25
1060.6,2.54714,22.9,512.45
1061.7,2.53714,23.4,512.65
1062.7,2.53714,23.2,512.85
1063.7,2.52714,19.5,512.95
1064.7,2.51714,23.1,513.15
1065.7,2.50714,22.8,513.35
1066.7,2.50714,23,513.55
1067.7,2.48714,19.1,513.65
1068.8,2.47714,19.2,513.85
1069.8,2.45714,18.9,514.05
1070.8,2.44714,19.3,514.25
1071.8,2.42714,19.2,514.45
1072.8,2.42714,19.5,514.55
1073.8,2.41714,19.2,514.75
1074.8,2.39714,19,515.05
1076.7,2.36714,19,515.25
1077.5,2.35714,19.2,515.35
1078.2,2.34714,19.4,515.45
1079,2.33714,18.4,515.65
1079.9,2.32714,19,515.85
1080.9,2.31714,19.8,516.05
1081.9,2.30714,19.5,516.15
1082.9,2.30714,19.3,516.35
1084,2.29714,18.9,516.55
1085,2.28714,19.7,516.75
1086,2.26714,19.6,516.85
1087,2.25714,19.8,517.05
1088,2.25714,19.5,517.25
1089,2.22714,19.6,517.45
1090,2.19714,19.7,517.55
1091.1,2.18714,19.6,517.75
1092.1,2.16714,19.3,517.95
1093.1,2.14714,19.9,518.05
1094.1,2.13714,19.5,518.25
1095.1,2.13714,19.4,518.45
1096.1,2.12714,19.6,518.55
1097.1,2.10714,19.4,518.75
1098.2,2.09714,19.8,518.95
1099.2,2.08714,19.3,519.05
1100.2,2.08714,19.3,519.25
1101.2,2.07714,19.3,519.45
1102.2,2.05714,19.6,519.65
1103.2,2.04714,19.6,519.75
1104.2,2.02714,19.7,519.95
1105.3,2.01714,19.8,520.05
1106.3,2.00714,20,520.25
1107.3,1.98714,19.7,520.45
1108.3,1.96714,19.5,520.65
1109.3,1.96714,19.1,520.75
1110.3,1.95714,19.6,520.95
1111.3,1.95714,19.8,521.15
1112.4,1.95714,19.2,521.25
1113.4,1.95714,19.3,521.45
1114.4,1.94714,20,521.55
1115.4,1.94714,19.9,521.75
1116.4,1.94714,19.3,521.95
1117.4,1.92714,19.5,522.05
1118.4,1.91714,19.4,522.25
1119.5,1.92714,18.8,522.45
1120.5,1.91714,15.9,522.65
1121.5,1.90714,16.5,522.75
1122.5,1.89714,16,522.85
1123.5,1.87714,15.9,523.05
1124.5,1.86714,16,523.25
1125.5,1.84714,16.4,523.35
1126.6,1.83714,16.3,523.55
1127.6,1.84714,16,523.75
1128.6,1.82714,15.9,523.85
1129.6,1.79714,15.7,523.95
1130.6,1.77714,15.9,524.15
1131.6,1.75714,16,524.35
1132.6,1.74714,16.3,524.45
1133.7,1.72714,16.5,524.65
1134.7,1.71714,16.5,524.85
1135.7,1.70714,16.1,524.95
1136.7,1.68714,16.3,525.15
1137.7,1.68714,16.2,525.35
1138.7,1.66714,16.1,525.45
1139.7,1.65714,16.1,525.65
1140.7,1.65714,16.1,525.75
1141.8,1.64714,16,525.85
1142.8,1.64714,16.2,526.05
1143.8,1.64714,16.3,526.15
1144.8,1.63714,16.4,526.35
1145.8,1.61714,16.5,526.55
1146.8,1.59714,15.8,526.65
1147.8,1.58714,16.9,526.85
1148.9,1.58714,16.1,526.95
1149.9,1.57714,16.5,527.15
1150.9,1.55714,16.6,527.25
1151.9,1.54714,16.5,527.45
1152.9,1.52714,16.5,527.55
1153.9,1.52714,16.6,527.75
1154.9,1.51714,16.9,527.95
1156,1.51714,16.8,528.05
1157,1.51714,16.9,528.15
1158,1.47714,16.3,528.35
1159,1.45714,16.2,528.55
1160,1.44714,16.5,528.65
1161,1.44714,16.5,528.75
1162,1.43714,16.4,528.95
1163.1,1.44714,16.5,529.15
1164.1,1.42714,16.7,529.25
1165.1,1.42714,16.5,529.45
1166.1,1.43714,16.9,529.55
1167.1,1.44714,16.7,529.65
1168.1,1.43714,16.4,529.85
1169.1,1.40714,16.5,530.05
1170.2,1.39714,16.3,530.15
1171.2,1.38714,12.8,530.25
1172.2,1.35714,13.4,530.45
1173.2,1.33714,13,530.55
1174.2,1.32714,13,530.75
1175.2,1.30714,13.3,530.85
1176.2,1.29714,12.9,531.15
1178.3,1.28714,13,531.35
1180,1.27714,13.1,531.45
1180.8,1.27714,13,531.65
1181.5,1.27714,13.5,531.75
1182.4,1.26714,13,531.85
1183.3,1.25714,13.3,532.05
1184.4,1.24714,13.2,532.15
1185.4,1.22714,13.3,532.25
1186.4,1.21714,12.9,532.45
1187.4,1.21714,13.2,532.65
1188.4,1.20714,13,532.75
1189.4,1.19714,12.8,532.85
1190.4,1.19714,13,533.05
1191.5,1.18714,13.1,533.15
1192.5,1.17714,13.3,533.35
1193.5,1.17714,13.5,533.45
1194.5,1.16714,13.5,533.55
1195.5,1.15714,13.7,533.75
1196.5,1.13714,13.4,533.95
1197.5,1.14714,13.6,534.05
1198.5,1.12714,13.2,534.15
1199.6,1.12714,13.7,534.35
1200.6,1.12714,13.5,534.45
1201.6,1.10714,13.3,534.65
1202.6,1.08714,13.2,534.75
1203.6,1.07714,13.4,534.85
1204.6,1.08714,13.8,535.05
1205.6,1.08714,10,535.15
1206.7,1.06714,10.3,535.25
1207.7,1.07714,10.1,535.45
1208.7,1.07714,10.2,535.55
1209.7,1.06714,9.9,535.75
1210.7,1.05714,10.1,535.85
1211.7,1.04714,9.8,536.05
1212.7,1.03714,10,536.15
1213.8,1.02714,10.1,536.25
1214.8,1.00714,10.3,536.35
1215.8,0.997143,10,536.55
1216.8,0.977143,10.2,536.65
1217.8,0.967143,10,536.85
1218.8,0.957143,10.3,536.95
1219.8,0.967143,10.2,537.05
1220.9,0.967143,9.9,537.25
1221.9,0.957143,10.1,537.35
1222.9,0.957143,9.8,537.55
1223.9,0.947143,10.1,537.65
1224.9,0.947143,10.5,537.75
1225.9,0.957143,10.4,537.95
1226.9,0.947143,10.2,538.05
1228,0.927143,10,538.15
1229,0.917143,10.3,538.35
1230,0.907143,10.3,538.45
1231,0.907143,10.5,538.55
1232,0.897143,9.9,538.75
1233,0.897143,10,538.85
1234,0.887143,10.2,538.95
1235.1,0.877143,10.5,539.15
1236.1,0.877143,10.7,539.25
1237.1,0.887143,10.5,539.35
1238.1,0.877143,10.5,539.45
1239.1,0.867143,10.4,539.65
1240.1,0.857143,10.6,539.75
1241.1,0.837143,10.3,539.85
1242.2,0.827143,10.4,539.95
1243.2,0.807143,10.4,540.15
1244.2,0.787143,10.5,540.25
1245.2,0.787143,10.4,540.35
1246.2,0.787143,10.7,540.55
1247.2,0.777143,11.1,540.65
1248.2,0.777143,10.7,540.85
1249.3,0.787143,10.9,540.95
1250.3,0.797143,10.6,541.05
1251.3,0.797143,10.6,541.25
1252.3,0.787143,10.6,541.45
1253.3,0.787143,10.5,541.55
1254.3,0.777143,10.7,541.65
1255.3,0.777143,10.8,541.75
1256.3,0.767143,10.7,541.85
1257.4,0.747143,10.8,542.05
1258.4,0.737143,11,542.15
1259.4,0.727143,11.3,542.25
1260.4,0.717143,11.2,542.35
1261.4,0.697143,11.2,542.55
1262.4,0.687143,11,542.65
1263.4,0.677143,10.8,542.75
1264.5,0.667143,11,542.85
1265.5,0.657143,11.3,543.05
1266.5,0.657143,8,543.15
1267.5,0.657143,7.8,543.25
1268.5,0.647143,7.9,543.35
1269.5,0.637143,7.9,543.55
1270.5,0.617143,7.8,543.65
1271.6,0.607143,8,543.75
1272.6,0.597143,7.7,543.85
1273.6,0.597143,7.5,544.05
1274.6,0.607143,7.6,544.15
1275.6,0.607143,7.8,544.25
1276.6,0.587143,7.6,544.35
1277.6,0.587143,7.9,544.55
1278.7,0.577143,7.8,544.75
1280.5,0.557143,7.7,544.85
1281.3,0.557143,7.7,544.95
1282,0.557143,8,545.05
1282.8,0.547143,7.8,545.15
1283.7,0.547143,7.8,545.25
1284.7,0.547143,7.6,545.35
1285.8,0.537143,7.6,545.55
1286.8,0.527143,7.7,545.65
1287.8,0.527143,7.8,545.75
1288.8,0.517143,7.8,545.85
1289.8,0.517143,7.7,545.95
1290.8,0.517143,7.8,546.15
1291.8,0.507143,7.7,546.25
1292.9,0.497143,7.9,546.35
1293.9,0.477143,7.8,546.45
1294.9,0.467143,7.8,546.55
1295.9,0.457143,7.7,546.65
1296.9,0.447143,7.8,546.85
1297.9,0.437143,7.7,546.95
1298.9,0.437143,7.6,547.05
1300,0.427143,7.7,547.15
1301,0.417143,7.6,547.35
1302,0.407143,7.7,547.45
1303,0.407143,7.6,547.55
1304,0.387143,7.7,547.75
1305,0.347143,7.7,547.85
1306,0.337143,7.6,547.95
1307.1,0.377143,8.1,548.05
1308.1,0.377143,7.9,548.25
1309.1,0.377143,8,548.25
1310.1,0.377143,8.2,548.45
1311.1,0.377143,8,548.55
1312.1,0.357143,7.9,548.65
1313.1,0.337143,7.9,548.75
1314.1,0.337143,7.8,548.95
1315.2,0.327143,8,548.95
1316.2,0.327143,7.9,549.05
1317.2,0.317143,8.3,549.25
1318.2,0.297143,8.2,549.35
1319.2,0.287143,8.2,549.45
1320.2,0.267143,8,549.55
1321.2,0.267143,8.3,549.65
1322.3,0.267143,8.3,549.75
1323.3,0.257143,8.4,549.85
1324.3,0.247143,8.1,550.05
1325.3,0.237143,8.1,550.05
1326.3,0.247143,8,550.15
1327.3,0.247143,7.9,550.25
1328.3,0.247143,8.2,550.45
1329.4,0.247143,8.1,550.55
1330.4,0.237143,8.3,550.65
1331.4,0.217143,8,550.75
1332.4,0.207143,8,550.85
1333.4,0.217143,7.9,550.95
1334.4,0.207143,8,551.15
1335.4,0.197143,8,551.25
1336.5,0.197143,7.9,551.25
1337.5,0.207143,7.9,551.45
1338.5,0.207143,7.8,551.55
1339.5,0.197143,7.9,551.65
1340.5,0.207143,4.4,551.75
1341.5,0.217143,4.6,551.85
1342.5,0.217143,4.3,551.95
1343.6,0.197143,4.4,552.05
1344.6,0.197143,4.5,552.15
1345.6,0.187143,4.3,552.25
1346.6,0.177143,4.4,552.35
1347.6,0.177143,4.5,552.45
1348.6,0.177143,4.2,552.55
1349.6,0.167143,4.4,552.75
1350.7,0.157143,4.5,552.75
1351.7,0.147143,4.5,552.95
1352.7,0.137143,4.5,553.05
1353.7,0.127143,4.3,553.15
1354.7,0.127143,4.4,553.25
1355.7,0.127143,4.5,553.35
1356.7,0.117143,4.5,553.45
1357.8,0.107143,4.5,553.55
1358.8,0.107143,4.7,553.65
1359.8,0.0971429,4.5,553.75
1360.8,0.0971429,4.6,553.85
1361.8,0.0771429,4.6,553.95
1362.8,0.0671429,4.7,554.05
1363.8,0.0571429,4.5,554.15
1364.9,0.0471429,4.3,554.25