File: PMMA/Calibration_Data/Edinburgh/Edinburgh_Cone_65kW_4.csv
Time,Mass,HRR
[s],[g],[kW/m2]
0,71.16,-0.01795
1,71.41,-0.0690217
2,71.66,0.0173823
3,71.91,0.119708
4,72.16,0.0865367
5,72.43,0.102571
6.01,72.7,-0.0352042
7.02,72.97,-0.0338315
8.03,73.23,-0.0481364
9.04,73.52,0.0199465
10.06,73.8,-0.0147927
11.07,74.09,0.0364176
12.08,74.38,0.0339699
13.09,74.66,0.015245
14.09,74.94,0.136878
15.11,75.23,0.0161627
16.11,75.53,2.56863
17.12,75.82,4.82232
18.12,76.11,8.56585
19.13,76.42,11.7669
20.12,76.71,21.2906
21.13,77.01,30.1301
22.13,77.31,43.7739
23.12,77.61,54.3376
24.13,77.89,60.9933
25.13,78.2,83.7642
26.13,78.51,97.3129
27.13,78.81,119.144
28.12,79.11,140.314
29.13,79.41,146.989
30.13,79.72,168.015
31.13,80.03,194.711
32.13,80.34,221.225
33.12,80.65,228.072
34.12,80.95,251.63
35.13,81.26,274.518
36.14,81.58,284.716
37.16,81.88,338.392
38.16,82.19,312.881
39.15,82.51,343.251
40.16,82.81,386.79
41.17,83.11,390.081
42.17,83.43,415.747
43.17,83.75,416.408
44.17,84.05,447.535
45.17,84.37,459.156
46.18,84.69,446.139
47.18,85,482.635
48.18,85.32,497.424
49.18,85.63,484.317
50.19,85.94,488.192
51.19,86.24,546.243
52.19,86.56,534.255
53.2,86.89,554.381
54.2,87.22,539.032
55.2,87.53,550.232
56.22,87.86,579.89
57.21,88.19,566.011
58.21,88.5,577.52
59.22,88.81,578.299
60.21,89.13,590.781
61.22,89.46,597.566
62.23,89.78,635.477
63.23,90.09,622.8
64.23,90.41,621.664
65.23,90.73,620.722
66.24,91.04,632.497
67.25,91.36,635.775
68.25,91.69,648.152
69.25,92.01,647.772
70.26,92.34,662.066
71.25,92.67,637.352
72.25,93.01,652.355
73.25,93.35,654.998
74.25,93.67,696.823
75.25,93.98,634.145
76.24,94.31,669.966
77.25,94.64,673.433
78.26,94.97,680.499
79.26,95.31,698.735
80.26,95.65,713.144
81.25,95.97,695.305
82.26,96.3,678.866
83.26,96.63,702.457
84.26,96.96,700.203
85.26,97.29,681.151
86.26,97.63,707.903
87.25,97.98,702.834
88.25,98.3,733.055
89.25,98.65,727.189
90.25,98.99,736.672
91.25,99.32,717.669
92.25,99.66,719.93
93.25,100.01,705.278
94.25,100.33,732.206
95.26,100.68,715.197
96.26,101.03,723.699
97.26,101.37,731.847
98.26,101.72,732.27
99.25,102.07,728.941
100.25,102.41,709.303
101.25,102.76,750.04
102.25,103.13,756.074
103.26,103.48,725.487
104.25,103.85,720.703
105.25,104.21,748.112
106.26,104.56,739.584
107.26,104.93,742.91
108.26,105.29,770.628
109.26,105.65,762.067
110.26,106.01,742.525
111.26,106.38,736.062
112.25,106.74,742.52
113.25,107.11,784.324
114.25,107.48,715.778
115.26,107.87,745.08
116.26,108.25,709.768
117.25,108.63,747.007
118.25,109.02,750.982
119.25,109.42,743.034
120.24,109.81,721.616
121.25,110.21,741.851
122.26,110.62,703.494
123.26,111.02,724.331
124.25,111.42,768.166
125.25,111.83,803.433
126.26,112.25,747.244
127.26,112.67,773.614
128.25,113.11,757.999
129.25,113.53,802.02
130.24,113.97,733.067
131.26,114.41,789.048
132.26,114.84,767.636
133.25,115.28,736.56
134.25,115.72,756.433
135.25,116.17,767.656
136.25,116.6,838.944
137.25,117.04,786.4
138.25,117.48,788.243
139.25,117.92,802.653
140.24,118.36,786.845
141.24,118.8,766.963
142.24,119.25,738.054
143.25,119.7,769.219
144.25,120.18,802.676
145.25,120.65,795.911
146.25,121.12,795.113
147.25,121.6,785.356
148.25,122.07,808.392
149.25,122.56,866.205
150.25,123.04,914.282
151.24,123.52,835.613
152.24,123.99,858.816
153.24,124.45,842.433
154.25,124.91,861.84
155.25,125.39,815.534
156.25,125.84,891.814
157.25,126.27,916.395
158.26,126.67,928.321
159.26,127.06,964.797
160.26,127.42,963.867
161.25,127.76,1021.04
162.26,128.09,1015.58
163.25,128.38,1066.34
164.26,128.66,1103.73
165.25,128.9,1119.19
166.24,129.13,1117.64
167.25,129.33,1174.61
168.25,129.53,1167.85
169.25,129.71,1202.17
170.26,129.89,1218.94
171.25,130.07,1214.4
172.25,130.23,1238.01
173.24,130.4,1256.73
174.24,130.56,1302.29
175.26,130.71,1293.54
176.26,130.87,1280.2
177.25,131.02,1324.66
178.26,131.17,1320.2
179.26,131.32,1361.35
180.29,131.46,1364.53
181.28,131.59,1353.79
182.28,131.71,1376.92
183.29,131.85,1366.01
184.29,131.99,1386.79
185.3,132.12,1394.18
186.3,132.25,1381.44
187.3,132.37,1355.27
188.31,132.49,1346.05
189.31,132.62,1332.21
190.32,132.74,1318.32
191.32,132.86,1301.39
192.33,132.98,1268.77
193.33,133.1,1268.76
194.34,133.22,1234.37
195.35,133.34,1225.99
196.34,133.45,1176.77
197.34,133.56,1129.55
198.34,133.68,1109.49
199.34,133.8,1112.07
200.35,133.91,1037.34
201.34,134.03,1004.56
202.34,134.14,980.5
203.35,134.25,967.441
204.35,134.37,950.546
205.35,134.48,914.211
206.36,134.59,875.624
207.37,134.69,875.973
208.38,134.79,820.052
209.38,134.9,794.618
210.37,135,767.126
211.38,135.1,737.967
212.37,135.2,705.351
213.38,135.3,691.798
214.38,135.4,688.67
215.37,135.5,645.265
216.38,135.6,631.889
217.41,135.69,595.652
218.42,135.77,593.319
219.43,135.86,572.623
220.44,135.95,547.824
221.45,136.04,535.279
222.45,136.13,511.912
223.46,136.22,511.611
224.48,136.32,493.04
225.49,136.4,478.622
226.5,136.48,469.928
227.5,136.58,457.696
228.5,136.66,445.722
229.51,136.75,431.752
230.49,136.83,428.869
231.51,136.91,407.577
232.5,136.99,404.547
233.5,137.07,393.553
234.5,137.15,387.677
235.5,137.23,377.647
236.49,137.31,372.666
237.5,137.38,374.232
238.5,137.46,359.498
239.5,137.54,352.099
240.5,137.61,345.544
241.5,137.68,340.593
242.5,137.74,336.039
243.5,137.82,331.479
244.51,137.88,323.072
245.49,137.95,315.458
246.71,138.02,308.766
247.5,138.1,308.086
248.5,138.14,303.567
249.49,138.21,296.207
250.51,138.27,290.521
251.51,138.33,289.343
252.49,138.39,283.518
253.5,138.45,280.182
254.5,138.51,273.62
255.5,138.57,270.67
256.5,138.63,269.753
257.5,138.68,267.933
258.5,138.74,262.789
259.5,138.79,257.293
260.5,138.84,253.127
261.5,138.9,255.212
262.5,138.95,248.328
263.49,139,241.095
264.5,139.05,244.609
265.49,139.11,244.179
266.5,139.16,230.382
267.5,139.2,232.991
268.5,139.26,224.652
269.5,139.31,230.215
270.5,139.36,223.424
271.51,139.4,218.952
272.5,139.44,221.166
273.5,139.48,212.711
274.5,139.53,213.747
275.5,139.57,208.561
276.5,139.61,207.615
277.5,139.65,201.73
278.5,139.69,197.826
279.51,139.72,197.576
280.51,139.76,194.064
281.52,139.79,190.744
282.53,139.82,192.628
283.54,139.87,187.092
284.54,139.9,183.387
285.55,139.93,181.134
286.56,139.96,179.828
287.56,139.99,174.948
288.56,140.02,171.045
289.58,140.04,170.808
290.6,140.07,167.425
291.6,140.1,165.153
292.61,140.12,164.066
293.61,140.15,160.599
294.62,140.18,159.518
295.62,140.2,156.691
296.62,140.23,157.885
297.63,140.26,152.777
298.63,140.28,150.128
299.62,140.3,146.403
300.63,140.32,143.252
301.63,140.32,142.612
302.62,140.34,137.526
303.62,140.36,138.31
304.63,140.39,137.205
305.63,140.4,137.031
306.63,140.43,131.517
307.62,140.45,127.168
308.62,140.47,129.153
309.62,140.49,126.699
310.62,140.51,122.879
311.63,140.51,120.966
312.63,140.52,119.045
313.62,140.54,117.239
314.63,140.57,113.554
315.62,140.59,111.404
316.63,140.61,109.008
317.62,140.63,108.141
318.63,140.65,107.672
319.63,140.67,101.509
320.63,140.67,99.269
321.62,140.68,98.2821
322.63,140.69,98.7751
323.63,140.71,95.007
324.66,140.71,93.0314
325.66,140.73,91.4341
326.66,140.74,91.3197
327.67,140.75,88.6399
328.67,140.75,86.5106
329.67,140.77,85.5067
330.67,140.78,82.9019
331.68,140.79,81.3059
332.68,140.8,80.279
333.68,140.82,79.2792
334.69,140.83,75.3711
335.7,140.84,76.0674
336.7,140.86,73.0509
337.74,140.87,70.7124
338.73,140.89,70.1102
339.72,140.9,68.7839
340.72,140.91,66.3491
341.72,140.92,64.5072
342.73,140.93,62.649
343.74,140.94,63.09
344.74,140.95,61.2569
345.74,140.96,58.3107
346.76,140.97,58.9647
347.75,140.98,59.3826
348.75,140.98,56.4116
349.75,140.98,56.5853
350.75,140.99,54.4907
351.75,141,54.4306
352.75,141.01,52.0555
353.76,141.02,52.8006
354.74,141.02,49.837
355.75,141.03,49.5649
356.75,141.04,50.304
357.76,141.05,47.4893
358.76,141.04,48.0719
359.75,141.05,44.9281
360.75,141.06,45.2481
361.75,141.06,45.2866
362.76,141.07,46.617
363.78,141.08,42.2491
364.78,141.09,42.9862
365.79,141.09,43.1236
366.78,141.09,40.5368
367.8,141.1,40.0973
368.81,141.11,40.3897
369.81,141.11,37.5723
370.81,141.12,37.4066
371.81,141.13,37.458
372.81,141.14,37.9038
373.81,141.14,35.0923
374.82,141.15,35.0901
375.82,141.16,34.9526
376.83,141.16,35.4591
377.84,141.17,35.1375
378.85,141.18,32.7429
379.86,141.19,32.8584
380.86,141.19,33.2168
381.85,141.19,32.9156