File: Verification/Kinetics/iso_tga_data.csv
Time,Mass,Temperature
[s],[-],K
0.0,1.0,700
3.60721,0.757563,700
7.21443,0.573902,700
10.8216,0.434767,700
14.4289,0.329363,700
18.0361,0.249513,700
21.6433,0.189022,700
25.2505,0.143196,700
28.8577,0.10848,700
32.4649,0.0821804,700
36.0721,0.0622568,700
39.6794,0.0471635,700
43.2866,0.0357293,700
46.8938,0.0270672,700
50.501,0.0205051,700
54.1082,0.0155339,700
57.7154,0.0117679,700
61.3226,0.00891493,700
64.9299,0.00675362,700
68.5371,0.00511629,700
72.1443,0.00387591,700
75.7515,0.00293625,700
79.3587,0.00222439,700
82.9659,0.00168512,700
86.5731,0.00127658,700
90.1804,0.000967092,700
93.7876,0.000732633,700
97.3948,0.000555016,700
101.002,0.000420459,700
104.609,0.000318524,700
108.216,0.000241302,700
111.824,0.000182802,700
115.431,0.000138484,700
119.038,0.00010491,700
122.645,7.9476e-05,700
126.253,6.02081e-05,700
129.86,4.56114e-05,700
133.467,3.45535e-05,700
137.074,2.61765e-05,700
140.681,1.98303e-05,700
144.289,1.50227e-05,700
147.896,1.13807e-05,700
151.503,8.62156e-06,700
155.11,6.53137e-06,700
158.717,4.94793e-06,700
162.325,3.74837e-06,700
165.932,2.83962e-06,700
169.539,2.15119e-06,700
173.146,1.62966e-06,700
176.754,1.23457e-06,700
180.361,9.35267e-07,700
183.968,7.08523e-07,700
187.575,5.36751e-07,700
191.182,4.06623e-07,700
194.79,3.08042e-07,700
198.397,2.33361e-07,700
202.004,1.76786e-07,700
205.611,1.33926e-07,700
209.218,1.01458e-07,700
212.826,7.68606e-08,700
216.433,5.82268e-08,700
220.04,4.41104e-08,700
223.647,3.34164e-08,700
227.255,2.5315e-08,700
230.862,1.91777e-08,700
234.469,1.45283e-08,700
238.076,1.10061e-08,700
241.683,8.33784e-09,700
245.291,6.31644e-09,700
248.898,4.7851e-09,700
252.505,3.62501e-09,700
256.112,2.74618e-09,700
259.719,2.0804e-09,700
263.327,1.57603e-09,700
266.934,1.19395e-09,700
270.541,9.04489e-10,700
274.148,6.85207e-10,700
277.756,5.19088e-10,700
281.363,3.93242e-10,700
284.97,2.97905e-10,700
288.577,2.25682e-10,700
292.184,1.70968e-10,700
295.792,1.29519e-10,700
299.399,9.8119e-11,700
303.006,7.43313e-11,700
306.613,5.63106e-11,700
310.22,4.26588e-11,700
313.828,3.23168e-11,700
317.435,2.4482e-11,700
321.042,1.85466e-11,700
324.649,1.40502e-11,700
328.257,1.06439e-11,700
331.864,8.06346e-12,700
335.471,6.10858e-12,700
339.078,4.62763e-12,700
342.685,3.50572e-12,700
346.293,2.65581e-12,700
349.9,2.01194e-12,700
353.507,1.52417e-12,700
357.114,1.15466e-12,700
360.721,8.74724e-13,700
364.329,6.62658e-13,700
367.936,5.02005e-13,700
371.543,3.80301e-13,700
375.15,2.88102e-13,700
378.758,2.18255e-13,700
382.365,1.65342e-13,700
385.972,1.25257e-13,700
389.579,9.48901e-14,700
393.186,7.18852e-14,700
396.794,5.44576e-14,700
400.401,4.1255e-14,700
404.008,3.12533e-14,700
407.615,2.36763e-14,700
411.222,1.79363e-14,700
414.83,1.35879e-14,700
418.437,1.02937e-14,700
422.044,7.79811e-15,700
425.651,5.90756e-15,700
429.259,4.47535e-15,700
432.866,3.39036e-15,700
436.473,2.56841e-15,700
440.08,1.94573e-15,700
443.687,1.47401e-15,700
447.295,1.11666e-15,700
450.902,8.45938e-16,700
454.509,6.40852e-16,700
458.116,4.85485e-16,700
461.723,3.67786e-16,700
465.331,2.78621e-16,700
468.938,2.11073e-16,700
472.545,1.59901e-16,700
476.152,1.21135e-16,700
479.76,9.17674e-17,700
483.367,6.95196e-17,700
486.974,5.26655e-17,700
490.581,3.98974e-17,700
494.188,3.02248e-17,700
497.796,2.28972e-17,700
501.403,1.73461e-17,700
505.01,1.31407e-17,700
508.617,9.95493e-18,700
512.224,7.54148e-18,700
515.832,5.71315e-18,700
519.439,4.32807e-18,700
523.046,3.27879e-18,700
526.653,2.48389e-18,700
530.261,1.8817e-18,700
533.868,1.42551e-18,700
537.475,1.07991e-18,700
541.082,8.181e-19,700
544.689,6.19762e-19,700
548.297,4.69509e-19,700
551.904,3.55683e-19,700
555.511,2.69452e-19,700
559.118,2.04127e-19,700
562.725,1.54639e-19,700
566.333,1.17149e-19,700
569.94,8.87475e-20,700
573.547,6.72318e-20,700
577.154,5.09323e-20,700
580.762,3.85845e-20,700
584.369,2.92302e-20,700
587.976,2.21437e-20,700
591.583,1.67752e-20,700
595.19,1.27083e-20,700
598.798,9.62733e-21,700
602.405,7.29331e-21,700
606.012,5.52514e-21,700
609.619,4.18564e-21,700
613.226,3.17089e-21,700
616.834,2.40215e-21,700
620.441,1.81978e-21,700
624.048,1.3786e-21,700
627.655,1.04437e-21,700
631.263,7.91178e-22,700
634.87,5.99367e-22,700
638.477,4.54058e-22,700
642.084,3.43978e-22,700
645.691,2.60585e-22,700
649.299,1.97409e-22,700
652.906,1.4955e-22,700
656.513,1.13294e-22,700
660.12,8.5827e-23,700
663.727,6.50194e-23,700
667.335,4.92563e-23,700
670.942,3.73147e-23,700
674.549,2.82682e-23,700
678.156,2.1415e-23,700
681.764,1.62232e-23,700
685.371,1.22901e-23,700
688.978,9.31051e-24,700
692.585,7.0533e-24,700
696.192,5.34332e-24,700
699.8,4.0479e-24,700
703.407,3.06654e-24,700
707.014,2.3231e-24,700
710.621,1.75989e-24,700
714.228,1.33323e-24,700
717.836,1.01e-24,700
721.443,7.65142e-25,700
725.05,5.79643e-25,700
728.657,4.39116e-25,700
732.265,3.32658e-25,700
735.872,2.52009e-25,700
739.479,1.90913e-25,700
743.086,1.44629e-25,700
746.693,1.09565e-25,700
750.301,8.30026e-26,700
753.908,6.28797e-26,700
757.515,4.76353e-26,700
761.122,3.60868e-26,700
764.729,2.7338e-26,700
768.337,2.07102e-26,700
771.944,1.56893e-26,700
775.551,1.18856e-26,700
779.158,9.00412e-27,700
782.766,6.82119e-27,700
786.373,5.16748e-27,700
789.98,3.91469e-27,700
793.587,2.96563e-27,700
797.194,2.24665e-27,700
800.802,1.70198e-27,700
804.409,1.28935e-27,700
808.016,9.76767e-28,700
811.623,7.39963e-28,700
815.23,5.60568e-28,700
818.838,4.24666e-28,700
822.445,3.21711e-28,700
826.052,2.43716e-28,700
829.659,1.8463e-28,700
833.267,1.39869e-28,700
836.874,1.0596e-28,700
840.481,8.02712e-29,700
844.088,6.08104e-29,700
847.695,4.60677e-29,700
851.303,3.48992e-29,700
854.91,2.64383e-29,700
858.517,2.00287e-29,700
862.124,1.5173e-29,700
865.731,1.14945e-29,700
869.339,8.70781e-30,700
872.946,6.59672e-30,700
876.553,4.99743e-30,700
880.16,3.78587e-30,700
883.768,2.86803e-30,700
887.375,2.17271e-30,700
890.982,1.64597e-30,700
894.589,1.24692e-30,700
898.196,9.44624e-31,700
901.804,7.15612e-31,700
905.411,5.42121e-31,700
909.018,4.10691e-31,700
912.625,3.11124e-31,700
916.232,2.35696e-31,700
919.84,1.78555e-31,700
923.447,1.35266e-31,700
927.054,1.02473e-31,700
930.661,7.76296e-32,700
934.269,5.88093e-32,700
937.876,4.45517e-32,700
941.483,3.37507e-32,700
945.09,2.55683e-32,700
948.697,1.93696e-32,700
952.305,1.46737e-32,700
955.912,1.11162e-32,700
959.519,8.42126e-33,700
963.126,6.37963e-33,700
966.733,4.83297e-33,700
970.341,3.66128e-33,700
973.948,2.77365e-33,700
977.555,2.10121e-33,700
981.162,1.5918e-33,700
984.77,1.20589e-33,700
988.377,9.13538e-34,700
991.984,6.92063e-34,700
995.591,5.24281e-34,700
999.198,3.97176e-34,700
1002.81,3.00886e-34,700
1006.41,2.2794e-34,700
1010.02,1.72679e-34,700
1013.63,1.30815e-34,700
1017.23,9.91006e-35,700
1020.84,7.50749e-35,700
1024.45,5.6874e-35,700
1028.06,4.30856e-35,700
1031.66,3.26401e-35,700
1035.27,2.47269e-35,700
1038.88,1.87322e-35,700
1042.48,1.41908e-35,700
1046.09,1.07504e-35,700
1049.7,8.14413e-36,700
1053.31,6.16969e-36,700
1056.91,4.67393e-36,700
1060.52,3.5408e-36,700
1064.13,2.68238e-36,700
1067.74,2.03207e-36,700
1071.34,1.53942e-36,700
1074.95,1.16621e-36,700
1078.56,8.83475e-37,700
1082.16,6.69288e-37,700
1085.77,5.07028e-37,700
1089.38,3.84105e-37,700
1092.99,2.90984e-37,700
1096.59,2.20439e-37,700
1100.2,1.66996e-37,700
1103.81,1.2651e-37,700
1107.41,9.58394e-38,700
1111.02,7.26044e-38,700
1114.63,5.50024e-38,700
1118.24,4.16678e-38,700
1121.84,3.1566e-38,700
1125.45,2.39132e-38,700
1129.06,1.81158e-38,700
1132.67,1.37238e-38,700
1136.27,1.03967e-38,700
1139.88,7.87612e-39,700
1143.49,5.96666e-39,700
1147.09,4.52012e-39,700
1150.7,3.42427e-39,700
1154.31,2.5941e-39,700
1157.92,1.9652e-39,700
1161.52,1.48876e-39,700
1165.13,1.12783e-39,700
1168.74,8.54402e-40,700
1172.34,6.47263e-40,700
1175.95,4.90343e-40,700
1179.56,3.71465e-40,700
1183.17,2.81408e-40,700
1186.77,2.13185e-40,700
1190.38,1.61501e-40,700
1193.99,1.22347e-40,700
1197.6,9.26855e-41,700
1201.2,7.02151e-41,700
1204.81,5.31924e-41,700
1208.42,4.02966e-41,700
1212.02,3.05272e-41,700
1215.63,2.31263e-41,700
1219.24,1.75196e-41,700
1222.85,1.32722e-41,700
1226.45,1.00545e-41,700
1230.06,7.61693e-42,700
1233.67,5.77031e-42,700
1237.27,4.37137e-42,700
1240.88,3.31159e-42,700
1244.49,2.50874e-42,700
1248.1,1.90053e-42,700
1251.7,1.43977e-42,700
1255.31,1.09071e-42,700
1258.92,8.26285e-43,700
1262.53,6.25963e-43,700
1266.13,4.74206e-43,700
1269.74,3.59241e-43,700
1273.35,2.72148e-43,700
1276.95,2.06169e-43,700
1280.56,1.56186e-43,700
1284.17,1.18321e-43,700
1287.78,8.96354e-44,700
1291.38,6.79045e-44,700
1294.99,5.14419e-44,700
1298.6,3.89705e-44,700
1302.2,2.95226e-44,700
1305.81,2.23652e-44,700
1309.42,1.69431e-44,700
1313.03,1.28354e-44,700
1316.63,9.72365e-45,700
1320.24,7.36628e-45,700
1323.85,5.58042e-45,700
1327.45,4.22752e-45,700
1331.06,3.20261e-45,700
1334.67,2.42618e-45,700
1338.28,1.83798e-45,700
1341.88,1.39239e-45,700
1345.49,1.05482e-45,700
1349.1,7.99094e-46,700
1352.71,6.05364e-46,700
1356.31,4.58601e-46,700
1359.92,3.47419e-46,700
1363.53,2.63192e-46,700
1367.13,1.99384e-46,700
1370.74,1.51046e-46,700
1374.35,1.14427e-46,700
1377.96,8.66857e-47,700
1381.56,6.56699e-47,700
1385.17,4.9749e-47,700
1388.78,3.7688e-47,700
1392.38,2.85511e-47,700
1395.99,2.16292e-47,700
1399.6,1.63855e-47,700
1403.21,1.2413e-47,700
1406.81,9.40366e-48,700
1410.42,7.12387e-48,700
1414.03,5.39678e-48,700
1417.64,4.0884e-48,700
1421.24,3.09722e-48,700
1424.85,2.34634e-48,700
1428.46,1.7775e-48,700
1432.06,1.34657e-48,700
1435.67,1.02011e-48,700
1439.28,7.72797e-49,700
1442.89,5.85442e-49,700
1446.49,4.43509e-49,700
1450.1,3.35986e-49,700
1453.71,2.54531e-49,700
1457.31,1.92823e-49,700
1460.92,1.46076e-49,700
1464.53,1.10661e-49,700
1468.14,8.3833e-50,700
1471.74,6.35088e-50,700
1475.35,4.81119e-50,700
1478.96,3.64478e-50,700
1482.57,2.76115e-50,700
1486.17,2.09174e-50,700
1489.78,1.58463e-50,700
1493.39,1.20046e-50,700
1496.99,9.09421e-51,700
1500.6,6.88943e-51,700
1504.21,5.21918e-51,700
1507.82,3.95386e-51,700
1511.42,2.9953e-51,700
1515.03,2.26912e-51,700
1518.64,1.719e-51,700
1522.24,1.30225e-51,700
1525.85,9.86539e-52,700
1529.46,7.47366e-52,700
1533.07,5.66177e-52,700
1536.67,4.28914e-52,700
1540.28,3.2493e-52,700
1543.89,2.46155e-52,700
1547.49,1.86478e-52,700
1551.1,1.41269e-52,700
1554.71,1.0702e-52,700
1558.32,8.10742e-53,700
1561.92,6.14188e-53,700
1565.53,4.65286e-53,700
1569.14,3.52484e-53,700
1572.75,2.67029e-53,700
1576.35,2.02291e-53,700
1579.96,1.53248e-53,700
1583.57,1.16095e-53,700
1587.17,8.79493e-54,700
1590.78,6.66272e-54,700
1594.39,5.04743e-54,700
1598,3.82374e-54,700
1601.6,2.89673e-54,700
1605.21,2.19445e-54,700
1608.82,1.66244e-54,700
1612.42,1.2594e-54,700
1616.03,9.54074e-55,700
1619.64,7.22771e-55,700
1623.25,5.47545e-55,700
1626.85,4.148e-55,700
1630.46,3.14237e-55,700
1634.07,2.38054e-55,700
1637.68,1.80341e-55,700
1641.28,1.3662e-55,700
1644.89,1.03498e-55,700
1648.5,7.84062e-56,700
1652.1,5.93977e-56,700
1655.71,4.49975e-56,700
1659.32,3.40884e-56,700
1662.93,2.58241e-56,700
1666.53,1.95634e-56,700
1670.14,1.48205e-56,700
1673.75,1.12275e-56,700
1677.35,8.50551e-57,700
1680.96,6.44346e-57,700
1684.57,4.88132e-57,700
1688.18,3.69791e-57,700
1691.78,2.8014e-57,700
1695.39,2.12224e-57,700
1699,1.60773e-57,700
1702.61,1.21796e-57,700
1706.21,9.22678e-58,700
1709.82,6.98986e-58,700
1713.43,5.29526e-58,700
1717.03,4.01149e-58,700
1720.64,3.03896e-58,700
1724.25,2.3022e-58,700
1727.86,1.74406e-58,700
1731.46,1.32124e-58,700
1735.07,1.00092e-58,700
1738.68,7.5826e-59,700
1742.28,5.7443e-59,700
1745.89,4.35167e-59,700
1749.5,3.29666e-59,700
1753.11,2.49743e-59,700
1756.71,1.89196e-59,700
1760.32,1.43328e-59,700
1763.93,1.0858e-59,700
1767.54,8.22561e-60,700
1771.14,6.23142e-60,700
1774.75,4.72069e-60,700
1778.36,3.57622e-60,700
1781.96,2.70921e-60,700
1785.57,2.0524e-60,700
1789.18,1.55482e-60,700
1792.79,1.17787e-60,700
1796.39,8.92314e-61,700
1800.0,6.75984e-61,700