File: PMMA/Calibration_Data/ULSTER/ULSTER_Cone_50kW_5.csv
Time,Mass,HRR
[s],[g],[kW/m2]
0,69.34,0
1,69.34,0.7
2,69.323,0.7
3,69.323,3.3
4,69.323,3.3
5,69.323,3.3
6,69.323,4.9
7,69.418,4.9
8,69.501,5
9,69.559,4.1
10,69.592,4.1
11,69.601,1.5
12,69.591,0.7
13,69.562,1.5
14,69.52,0.7
15,69.465,0
16,69.401,1.6
17,69.329,0
18,69.25,0
19,69.167,0.8
20,69.079,0
21,68.987,0
22,68.891,0
23,68.791,0
24,68.688,0
25,68.582,1.6
26,68.471,2.4
27,68.358,0.7
28,68.242,1.5
29,68.122,1.5
30,68,2.3
31,67.874,3.1
32,67.746,3.9
33,67.614,8.8
34,67.48,12.6
35,67.343,21.5
36,67.223,43.9
37,67.101,61.3
38,66.975,85.7
39,66.846,127.3
40,66.713,155.1
41,66.577,187.2
42,66.438,234.8
43,66.296,266.9
44,66.151,290.8
45,66.003,331.8
46,65.853,356.1
47,65.7,376.7
48,65.545,400.6
49,65.387,434.7
50,65.229,450.1
51,65.068,467
52,64.905,488.1
53,64.741,499
54,64.575,509.7
55,64.407,521.8
56,64.238,528.2
57,64.067,534.1
58,63.894,540.6
59,63.72,542.5
60,63.544,546.1
61,63.368,554.7
62,63.189,556.1
63,63.009,560.2
64,62.828,565.5
65,62.645,569.8
66,62.461,575.7
67,62.276,577.8
68,62.09,582.4
69,61.903,586.3
70,61.715,590.7
71,61.526,593.6
72,61.336,595.5
73,61.145,597.2
74,60.954,600.1
75,60.761,602
76,60.568,601.7
77,60.374,601.5
78,60.18,601.9
79,59.985,603.4
80,59.79,601.9
81,59.594,604.2
82,59.397,603.6
83,59.201,604.8
84,59.003,606.7
85,58.805,611.1
86,58.607,617
87,58.408,620.6
88,58.209,625.3
89,58.009,629.8
90,57.809,630.6
91,57.609,632.8
92,57.408,638
93,57.206,638
94,57.004,636.4
95,56.801,637.6
96,56.598,634.7
97,56.394,632.7
98,56.189,632
99,55.984,629.7
100,55.778,630
101,55.572,632.4
102,55.365,638.5
103,55.157,643.2
104,54.948,645.3
105,54.739,651
106,54.528,656.4
107,54.317,655.6
108,54.105,657.4
109,53.891,659.7
110,53.678,659.9
111,53.463,656.6
112,53.247,655.2
113,53.029,651.9
114,52.811,654
115,52.592,659.2
116,52.371,660.3
117,52.15,666.5
118,51.927,670.7
119,51.703,673
120,51.477,678.3
121,51.251,679.3
122,51.023,684.8
123,50.794,688.9
124,50.563,688.1
125,50.332,687.6
126,50.099,689.9
127,49.865,689
128,49.63,685.5
129,49.393,681.5
130,49.155,680.6
131,48.916,679.4
132,48.677,679.7
133,48.435,680
134,48.193,679.1
135,47.949,679.8
136,47.705,684.3
137,47.459,694.2
138,47.212,699.7
139,46.964,709.5
140,46.716,713.4
141,46.466,715.5
142,46.215,723.4
143,45.964,725.9
144,45.711,726.4
145,45.458,726.9
146,45.204,726.4
147,44.949,724.5
148,44.693,725.2
149,44.437,722.5
150,44.179,716.6
151,43.921,716.3
152,43.663,717.8
153,43.403,721.5
154,43.143,727.3
155,42.883,730.9
156,42.622,733.4
157,42.36,738.6
158,42.098,745.1
159,41.835,750.8
160,41.572,755.6
161,41.308,759.2
162,41.043,762
163,40.779,763.4
164,40.513,766.4
165,40.247,766.3
166,39.98,763.3
167,39.712,764
168,39.443,767
169,39.174,770.2
170,38.905,772.8
171,38.634,774.8
172,38.363,774.9
173,38.091,780.6
174,37.818,786.3
175,37.545,795.7
176,37.27,800.5
177,36.995,806.5
178,36.718,813.9
179,36.441,819.8
180,36.162,824.4
181,35.883,823.2
182,35.603,822.6
183,35.321,822.7
184,35.038,822.6
185,34.755,822.5
186,34.47,823.8
187,34.184,829.1
188,33.897,826.4
189,33.608,827.4
190,33.319,836.4
191,33.027,842.8
192,32.735,845.9
193,32.442,845.9
194,32.147,852
195,31.852,853.6
196,31.555,858.4
197,31.257,861.5
198,30.958,867
199,30.658,868.9
200,30.357,864
201,30.056,863.6
202,29.754,863.5
203,29.451,857.8
204,29.147,855.3
205,28.843,857.4
206,28.538,860.1
207,28.234,861
208,27.929,871.1
209,27.624,871.7
210,27.319,879.8
211,27.014,885.6
212,26.709,893.3
213,26.405,903
214,26.101,909
215,25.798,911.4
216,25.496,916.3
217,25.194,920.6
218,24.894,919.9
219,24.595,920.2
220,24.297,918.4
221,24.001,915.8
222,23.706,909.7
223,23.413,908
224,23.123,910.1
225,22.834,911.9
226,22.547,916.6
227,22.263,934.3
228,21.982,942.4
229,21.704,944.4
230,21.428,951.8
231,21.155,959.3
232,20.885,966.4
233,20.619,981.8
234,20.356,989.3
235,20.097,1003.4
236,19.841,1012.5
237,19.589,1016.8
238,19.341,1019.7
239,19.096,1020.3
240,18.855,1014.9
241,18.618,1017.7
242,18.385,1019.9
243,18.157,1012.6
244,17.932,1010
245,17.711,1011.1
246,17.495,1010.5
247,17.283,1011.6
248,17.075,1008.8
249,16.872,1005.3
250,16.673,1002.8
251,16.477,997.2
252,16.287,987.3
253,16.101,976
254,15.919,960
255,15.741,943
256,15.568,918
257,15.398,899
258,15.233,880
259,15.072,848
260,14.915,825.6
261,14.762,807.3
262,14.614,774.8
263,14.468,756.1
264,14.327,721.6
265,14.189,698.4
266,14.055,675.1
267,13.924,635.8
268,13.797,611.5
269,13.672,587.7
270,13.552,547.5
271,13.433,524.1
272,13.318,486.8
273,13.206,460.8
274,13.097,442
275,12.99,413
276,12.886,397.2
277,12.784,380.9
278,12.685,360.3
279,12.588,350.3
280,12.494,339.1
281,12.401,324.8
282,12.311,318.8
283,12.223,308.4
284,12.136,302.5
285,12.052,296.5
286,11.968,286.4
287,11.887,278.4
288,11.806,274.4
289,11.727,264.9
290,11.65,259.7
291,11.573,250.5
292,11.498,246.9
293,11.423,241.5
294,11.349,233.9
295,11.277,229.4
296,11.205,227.2
297,11.134,223.6
298,11.063,221.3
299,10.993,218.9
300,10.923,214.8
301,10.854,214
302,10.785,210.8
303,10.718,207.7
304,10.65,204.8
305,10.583,201.7
306,10.516,199.3
307,10.45,195.9
308,10.384,195.1
309,10.318,191.5
310,10.252,188.9
311,10.187,187
312,10.122,184.5
313,10.057,181.5
314,9.992,181.6
315,9.928,179
316,9.863,179.1
317,9.799,178
318,9.735,178
319,9.671,177.5
320,9.607,178.1
321,9.543,178.1
322,9.48,176.5
323,9.417,175.2
324,9.353,174.3
325,9.291,174.1
326,9.229,170.9
327,9.166,169.9
328,9.105,168.1
329,9.044,168
330,8.983,166.9
331,8.922,164.1
332,8.863,163.2
333,8.803,161.8
334,8.744,163.2
335,8.685,161.9
336,8.627,158.4
337,8.569,159.7
338,8.512,161.6
339,8.455,160.9
340,8.399,161.9
341,8.343,160.1
342,8.287,161.4
343,8.232,160.3
344,8.178,158.8
345,8.124,158.4
346,8.071,159.4
347,8.018,157.7
348,7.966,155.9
349,7.914,157.3
350,7.863,155.7
351,7.813,155.2
352,7.762,153.9
353,7.713,155.8
354,7.664,155.1
355,7.615,154.3
356,7.567,155
357,7.519,153.9
358,7.471,152.4
359,7.424,152
360,7.377,150.7
361,7.329,149.5
362,7.283,151.8
363,7.236,150.5
364,7.189,149.9
365,7.142,150
366,7.095,147.5
367,7.049,145.6
368,7.001,145.7
369,6.954,144.4
370,6.907,143.9
371,6.859,144
372,6.811,142.8
373,6.764,141.9
374,6.715,143.9
375,6.667,142.7
376,6.618,142.8
377,6.569,141.4
378,6.519,143
379,6.469,140.6
380,6.418,141.3
381,6.367,140.5
382,6.315,139
383,6.262,140.1
384,6.21,137.3
385,6.156,138
386,6.102,137.4
387,6.048,137.7
388,5.993,136.9
389,5.937,135.6
390,5.881,136.3
391,5.825,135.5
392,5.768,137
393,5.711,135.8
394,5.654,135.8
395,5.596,137
396,5.539,134.8
397,5.481,135.5
398,5.423,134.7
399,5.366,136.4
400,5.308,133.4
401,5.25,134.3
402,5.192,132.2
403,5.135,129.8
404,5.078,129
405,5.021,128.9
406,4.965,128.3
407,4.909,127.5
408,4.854,128.4
409,4.798,127.8
410,4.744,127
411,4.691,127.8
412,4.638,125.7
413,4.586,126.4
414,4.535,126
415,4.484,125.5
416,4.436,126.4
417,4.388,124.7
418,4.341,123.8
419,4.296,123
420,4.251,123.2
421,4.208,122.5
422,4.166,121.3
423,4.126,119.4
424,4.086,117.7
425,4.048,116.9
426,4.011,116.3
427,3.975,118.3
428,3.941,115.3
429,3.908,115.7
430,3.876,116.8
431,3.845,115.2
432,3.815,116.7
433,3.786,115.9
434,3.759,115.9
435,3.732,115.8
436,3.707,114
437,3.682,113.4
438,3.658,115.1
439,3.636,113.3
440,3.614,115.1
441,3.594,114.4
442,3.573,114.2
443,3.554,115.6
444,3.536,115.5
445,3.518,113.9
446,3.5,115
447,3.484,112.8
448,3.468,112.2
449,3.451,110.9
450,3.436,112.8
451,3.42,110.7
452,3.404,108.3
453,3.389,108.3
454,3.373,107.5
455,3.356,105.1
456,3.341,106.9
457,3.324,105.7
458,3.308,105.3
459,3.29,105.6
460,3.273,105.7
461,3.256,104
462,3.238,104.9
463,3.219,104.2
464,3.201,104
465,3.181,103.9
466,3.162,102.4
467,3.141,100.9
468,3.121,99.2
469,3.1,100.9
470,3.078,97.8
471,3.055,97.5
472,3.032,95.7
473,3.009,94
474,2.984,93.1
475,2.96,93.4
476,2.934,91.3
477,2.909,92
478,2.882,90.7
479,2.855,90.2
480,2.827,89.8
481,2.8,89.3
482,2.771,88.5
483,2.741,88.5
484,2.712,85.2
485,2.682,84.3
486,2.652,82.7
487,2.622,83.8
488,2.592,80.6
489,2.561,79.7
490,2.531,78.9
491,2.5,78.1
492,2.47,77
493,2.44,75.5
494,2.409,73.2
495,2.379,72.6
496,2.349,71.6
497,2.319,69.9
498,2.29,68.5
499,2.26,66.3
500,2.231,67.4
501,2.203,66.7
502,2.174,66.7
503,2.146,64.9
504,2.118,64.2
505,2.091,64.2
506,2.064,65
507,2.038,63.5
508,2.012,63.5
509,1.986,63.5
510,1.961,63.6
511,1.936,62
512,1.912,61.1
513,1.888,60.2
514,1.865,59.3
515,1.842,59.4
516,1.819,57.2
517,1.798,55.5
518,1.777,54.8
519,1.756,56.6
520,1.736,54
521,1.716,53.1
522,1.698,53.1
523,1.679,53.3
524,1.661,52.5
525,1.644,51.7
526,1.627,50.1
527,1.611,49.3
528,1.594,48.6
529,1.579,47.7
530,1.564,47.8
531,1.549,47.7
532,1.535,46
533,1.521,44.5
534,1.508,44.4
535,1.495,44.3
536,1.482,42.5
537,1.469,43.3
538,1.458,44.2
539,1.446,40.9
540,1.435,41.9
541,1.425,40.5
542,1.414,40.6
543,1.405,39.8
544,1.395,39
545,1.386,37.4
546,1.378,37.4
547,1.37,35
548,1.362,34.2
549,1.355,34.2
550,1.347,33.4
551,1.341,32.6
552,1.334,32.5
553,1.328,30.9
554,1.323,31
555,1.317,30.2
556,1.312,29.4
557,1.306,26.9
558,1.301,26.9
559,1.296,27.8
560,1.291,27
561,1.287,24.5
562,1.282,24.5
563,1.277,23
564,1.272,23
565,1.268,21.4
566,1.263,22.3
567,1.259,21.5
568,1.254,21.5
569,1.25,19.8
570,1.245,19.8
571,1.241,18.1
572,1.236,19
573,1.231,17.4
574,1.226,18.2
575,1.222,17.5
576,1.216,17.5
577,1.211,17.4
578,1.205,16.6
579,1.2,16.6
580,1.193,16.6
581,1.187,15.8
582,1.18,15.8
583,1.174,16.7
584,1.167,15.9
585,1.159,15.9
586,1.151,12.6
587,1.143,13.4
588,1.135,12.6
589,1.126,12.7
590,1.117,15.2
591,1.107,13.5
592,1.098,13.5
593,1.088,13.5
594,1.078,12.7
595,1.068,13.5
596,1.057,11.9
597,1.046,12.8
598,1.035,11.1
599,1.024,11.9
600,1.012,11.1
601,1,10.3
602,0.988,10.2
603,0.976,10.3
604,0.964,11.3
605,0.951,10.5
606,0.939,9.7
607,0.926,10.5
608,0.912,8.8
609,0.899,8.8
610,0.886,8
611,0.873,7.2
612,0.859,7.2
613,0.845,7.2
614,0.832,5.6
615,0.818,6.4
616,0.805,6.4
617,0.791,7.3
618,0.778,6.5
619,0.765,5.6
620,0.751,5.6
621,0.738,6.5
622,0.725,6.4
623,0.713,4.8
624,0.7,4
625,0.687,5.7
626,0.675,7.3
627,0.663,6.5
628,0.651,4.9
629,0.64,5.7
630,0.628,5.7
631,0.617,4.1
632,0.606,4.9
633,0.595,4.1
634,0.585,5.8
635,0.575,5.7
636,0.565,4.9
637,0.555,4.1
638,0.546,4.1
639,0.537,2.5
640,0.528,1.7
641,0.519,1.7
642,0.511,2.5
643,0.503,3.4
644,0.496,2.6
645,0.488,2.6
646,0.481,2.6
647,0.474,2.5
648,0.467,3.3
649,0.461,1.7
650,0.454,2.6
651,0.448,3.4
652,0.441,3.4
653,0.435,3.4
654,0.429,3.4
655,0.423,4.3
656,0.417,3.4
657,0.411,3.4
658,0.405,3.4
659,0.399,3.4
660,0.393,6.9
661,0.387,5.2
662,0.381,5.2
663,0.375,5.2
664,0.37,5.2
665,0.364,4.4
666,0.359,5.2
667,0.353,3.6
668,0.348,6.1
669,0.343,5.3
670,0.337,5.3
671,0.332,5.3
672,0.326,4.5
673,0.32,4.5
674,0.314,4.5
675,0.307,5.3
676,0.3,3.6
677,0.293,4.5
678,0.286,5.5
679,0.278,5.5
680,0.271,4.5
681,0.263,5.5
682,0.255,4.5
683,0.246,4.5
684,0.237,4.5
685,0.227,3.8
686,0.217,4.5
687,0.207,3.8
688,0.197,4.5
689,0.188,4.5
690,0.179,3.8
691,0.172,3.8
692,0.167,3.8
693,0.168,3.8
694,0.18,2.2
695,0.18,2.2
696,0.18,2.2
697,0.18,2.2
698,0.18,3.1
699,0.18,3.1
700,0.18,3.1