File: PMMA/Calibration_Data/ULSTER/ULSTER_Cone_25kW_2.csv
Time,Mass,HRR
[s],[g],[kW/m2]
0,71.01,0
1,71.01,4
2,71.018,4.7
3,71.018,4.1
4,71.018,4.1
5,71.018,4.1
6,71.018,3.4
7,71.023,2.8
8,71.031,3.4
9,71.04,3.4
10,71.05,2.8
11,71.061,3.5
12,71.072,4.1
13,71.083,4.1
14,71.094,3.5
15,71.103,3.5
16,71.113,3.5
17,71.122,3
18,71.131,3
19,71.139,2.3
20,71.147,1.7
21,71.155,2.3
22,71.162,1.7
23,71.168,1.1
24,71.174,0
25,71.18,1.1
26,71.185,0
27,71.19,0
28,71.194,0
29,71.198,0
30,71.202,0
31,71.206,0
32,71.209,0
33,71.212,0
34,71.215,0
35,71.217,0
36,71.22,0
37,71.222,0
38,71.224,0
39,71.226,0
40,71.228,0
41,71.23,0
42,71.232,0
43,71.233,0
44,71.234,0
45,71.235,0
46,71.236,0
47,71.237,0
48,71.238,0
49,71.238,0
50,71.239,0
51,71.239,0
52,71.241,0
53,71.242,0.6
54,71.243,0
55,71.243,0.6
56,71.244,0.6
57,71.245,0.6
58,71.245,0.6
59,71.245,1.8
60,71.245,1.1
61,71.245,1.1
62,71.244,1.8
63,71.243,2.4
64,71.242,2.4
65,71.241,0.6
66,71.239,1.1
67,71.237,0.6
68,71.234,0.6
69,71.232,0
70,71.229,0
71,71.226,0.6
72,71.222,0.6
73,71.218,1.1
74,71.214,0.6
75,71.209,1.7
76,71.204,0.6
77,71.198,0.6
78,71.192,1.1
79,71.186,1.1
80,71.179,1.8
81,71.171,1.1
82,71.163,1.1
83,71.155,1.8
84,71.146,2.4
85,71.136,1.8
86,71.125,1.3
87,71.114,1.1
88,71.103,1.1
89,71.09,0.6
90,71.077,0.6
91,71.063,0.6
92,71.048,0.6
93,71.033,1.1
94,71.017,1.1
95,70.999,1.1
96,70.981,1.8
97,70.962,1.8
98,70.942,1.1
99,70.921,1.8
100,70.899,1.1
101,70.876,1.8
102,70.852,0.6
103,70.826,1.1
104,70.8,1.1
105,70.773,1.1
106,70.744,1.8
107,70.714,1.1
108,70.683,1.1
109,70.651,1.1
110,70.617,1.1
111,70.582,1.8
112,70.547,1.1
113,70.509,0.6
114,70.47,0.6
115,70.43,1.8
116,70.389,1.8
117,70.346,2.4
118,70.301,2.4
119,70.256,2.3
120,70.209,2.3
121,70.16,2.3
122,70.11,1.7
123,70.059,3.4
124,70.006,4
125,69.952,6.3
126,69.896,10.1
127,69.839,13.5
128,69.78,19.8
129,69.72,32.7
130,69.658,42
131,69.595,67.3
132,69.53,83
133,69.464,100.2
134,69.396,133.1
135,69.327,152
136,69.257,167.8
137,69.185,196.9
138,69.111,212.2
139,69.036,236.8
140,68.96,247.8
141,68.883,258.8
142,68.804,277
143,68.723,287.4
144,68.642,294.1
145,68.558,305.3
146,68.474,309.7
147,68.389,313.2
148,68.302,321.6
149,68.214,327.8
150,68.124,336
151,68.034,342.6
152,67.943,346.7
153,67.85,355.7
154,67.756,360
155,67.661,363.1
156,67.565,365.3
157,67.467,369.9
158,67.369,373
159,67.27,374
160,67.169,374.4
161,67.068,376.4
162,66.966,376.8
163,66.862,373.8
164,66.758,372.5
165,66.654,371.9
166,66.548,373
167,66.441,373.2
168,66.334,374
169,66.225,374
170,66.116,374.5
171,66.007,376.1
172,65.896,375.8
173,65.785,377.5
174,65.674,376.4
175,65.561,378.8
176,65.448,379.7
177,65.334,380.7
178,65.22,382.3
179,65.106,384.1
180,64.99,387.3
181,64.875,391.8
182,64.758,394.5
183,64.641,392.6
184,64.524,392.6
185,64.406,393.4
186,64.288,393.1
187,64.169,392.3
188,64.05,390.9
189,63.931,390.7
190,63.811,391.1
191,63.691,390.9
192,63.57,391.9
193,63.449,393.1
194,63.328,392.2
195,63.206,392
196,63.083,393.4
197,62.961,393.8
198,62.838,395.5
199,62.715,395.5
200,62.591,392.6
201,62.467,393.4
202,62.343,394.3
203,62.218,395.8
204,62.094,396.6
205,61.968,397.2
206,61.842,396.9
207,61.717,395.7
208,61.591,398.6
209,61.464,401.9
210,61.337,401.8
211,61.211,405.9
212,61.083,405.9
213,60.955,409.1
214,60.827,412.6
215,60.699,413.5
216,60.57,412.7
217,60.441,414.4
218,60.312,416.6
219,60.183,419.5
220,60.053,421.9
221,59.922,421.5
222,59.792,421.8
223,59.661,418.8
224,59.529,418.2
225,59.397,421.3
226,59.265,423
227,59.133,423.5
228,59,425
229,58.867,425.9
230,58.733,425.5
231,58.599,422
232,58.465,421.1
233,58.33,421.4
234,58.195,421.7
235,58.059,421.8
236,57.923,422
237,57.787,421.7
238,57.651,419
239,57.514,415.5
240,57.376,415.5
241,57.238,413.5
242,57.1,414.4
243,56.961,414.7
244,56.822,415.8
245,56.683,415.9
246,56.543,417.2
247,56.403,419.8
248,56.263,420.2
249,56.122,421.8
250,55.98,423.2
251,55.838,423.6
252,55.696,427.8
253,55.554,430.6
254,55.411,432
255,55.268,435.2
256,55.124,436.7
257,54.98,432.2
258,54.836,431.9
259,54.691,432.7
260,54.546,432.4
261,54.4,433.1
262,54.254,436.9
263,54.108,439.7
264,53.962,438.2
265,53.815,439.4
266,53.667,437.5
267,53.52,439.4
268,53.372,441.9
269,53.223,444.2
270,53.075,447.7
271,52.926,447.5
272,52.777,447.2
273,52.627,449.3
274,52.477,448.3
275,52.327,445.8
276,52.177,450
277,52.026,452.6
278,51.875,455.8
279,51.724,457
280,51.572,458.4
281,51.42,459.2
282,51.268,456.5
283,51.116,455.9
284,50.963,460.3
285,50.81,459.4
286,50.657,457.2
287,50.503,456.5
288,50.35,455.9
289,50.196,456
290,50.042,454.7
291,49.887,457.6
292,49.733,457.2
293,49.578,455.8
294,49.423,457.4
295,49.267,458
296,49.111,457.7
297,48.955,458.5
298,48.799,459
299,48.643,462
300,48.486,464.2
301,48.329,460.9
302,48.172,460.2
303,48.014,461.5
304,47.857,465
305,47.698,470.8
306,47.54,473.3
307,47.382,474.7
308,47.223,474
309,47.064,476.8
310,46.905,481.6
311,46.745,482.3
312,46.586,481.1
313,46.425,484.4
314,46.265,483.4
315,46.104,480.7
316,45.944,483.3
317,45.782,484
318,45.62,480.7
319,45.459,482.2
320,45.297,483
321,45.134,485.1
322,44.971,485.9
323,44.808,485.2
324,44.645,491
325,44.482,493.3
326,44.318,495.2
327,44.153,499.9
328,43.989,502.6
329,43.824,502.6
330,43.658,501
331,43.492,500.6
332,43.327,499.2
333,43.16,499.5
334,42.993,499.3
335,42.827,499.5
336,42.659,499.9
337,42.491,498.3
338,42.323,500
339,42.154,497.7
340,41.986,501.9
341,41.816,506.5
342,41.647,509.4
343,41.477,512.5
344,41.306,516.8
345,41.135,516.4
346,40.964,514.9
347,40.793,516.3
348,40.621,516.6
349,40.448,518.9
350,40.276,519.8
351,40.102,524
352,39.929,523.2
353,39.755,524.3
354,39.581,526.1
355,39.406,524.9
356,39.23,523.1
357,39.055,524
358,38.879,523.9
359,38.702,524.1
360,38.525,522.6
361,38.348,524.4
362,38.17,524.3
363,37.992,521.7
364,37.814,521.3
365,37.635,523.6
366,37.456,522.4
367,37.276,525.2
368,37.095,524.8
369,36.915,524.3
370,36.734,519.9
371,36.553,517.8
372,36.371,517.4
373,36.189,518.6
374,36.006,520.2
375,35.824,520.8
376,35.641,522.2
377,35.457,525
378,35.273,532.4
379,35.089,536.6
380,34.905,543.8
381,34.72,547.5
382,34.535,549.4
383,34.349,549.2
384,34.163,548.1
385,33.978,545.1
386,33.791,549.9
387,33.605,554.9
388,33.418,553.3
389,33.232,552.4
390,33.044,559.3
391,32.857,563.5
392,32.67,562.4
393,32.482,564.1
394,32.294,565.3
395,32.107,569
396,31.919,574.5
397,31.73,576.7
398,31.543,578.5
399,31.355,583.8
400,31.167,587.2
401,30.979,587.8
402,30.791,590.6
403,30.603,593.2
404,30.415,595.6
405,30.227,595.6
406,30.039,598.1
407,29.852,595.1
408,29.664,595
409,29.477,600.8
410,29.29,601.4
411,29.104,602.4
412,28.917,606.3
413,28.731,610.7
414,28.545,611
415,28.36,616.8
416,28.175,624.5
417,27.99,639.1
418,27.806,650.1
419,27.621,660
420,27.438,676.7
421,27.255,687.4
422,27.073,696
423,26.891,704.7
424,26.709,707
425,26.528,705.2
426,26.348,699.4
427,26.168,694.2
428,25.989,679.4
429,25.811,664.5
430,25.633,654.3
431,25.456,639.8
432,25.279,631.4
433,25.104,618.1
434,24.928,606.7
435,24.754,596
436,24.581,586.8
437,24.408,584.2
438,24.236,576.8
439,24.065,573.6
440,23.894,572.4
441,23.725,570.8
442,23.556,569.1
443,23.388,568.1
444,23.221,564.9
445,23.055,561.1
446,22.89,558.1
447,22.726,557.3
448,22.562,557.3
449,22.399,556
450,22.238,555.9
451,22.077,552.7
452,21.918,547
453,21.759,544.5
454,21.601,542.6
455,21.444,536.5
456,21.288,535.1
457,21.134,529.9
458,20.98,526.1
459,20.827,525.9
460,20.675,525
461,20.524,525.1
462,20.375,524
463,20.226,524.8
464,20.078,525.1
465,19.932,524.9
466,19.786,521.8
467,19.641,524.3
468,19.498,519.1
469,19.355,519.2
470,19.214,518.3
471,19.074,517.4
472,18.935,514.1
473,18.797,509
474,18.659,506
475,18.524,505.1
476,18.389,500.9
477,18.255,499.9
478,18.122,496.7
479,17.991,491.3
480,17.861,484.5
481,17.732,479.3
482,17.603,478.3
483,17.476,476.3
484,17.351,473.2
485,17.226,473.4
486,17.102,470.9
487,16.98,465.3
488,16.858,462.6
489,16.738,456.8
490,16.62,453.8
491,16.501,448.4
492,16.385,440.6
493,16.269,435.1
494,16.155,430.9
495,16.042,420.5
496,15.93,415.7
497,15.819,406.8
498,15.709,402
499,15.6,400.6
500,15.493,396.6
501,15.386,391.9
502,15.281,390.9
503,15.177,383.1
504,15.074,379.4
505,14.972,370.8
506,14.871,367
507,14.771,360.8
508,14.673,350.6
509,14.575,344.7
510,14.479,340.1
511,14.384,330.6
512,14.289,325.1
513,14.196,319.3
514,14.104,317.5
515,14.012,312.7
516,13.922,306.7
517,13.833,304.4
518,13.745,301.5
519,13.657,297
520,13.571,295.6
521,13.485,290
522,13.401,286.8
523,13.317,286.1
524,13.234,279
525,13.153,275.8
526,13.072,272
527,12.992,266.3
528,12.912,263.3
529,12.834,259.7
530,12.756,251.7
531,12.68,249.5
532,12.604,247.6
533,12.529,243.2
534,12.454,240.2
535,12.38,237
536,12.307,236.7
537,12.235,233.8
538,12.163,233.6
539,12.092,233
540,12.022,232
541,11.952,227.8
542,11.883,226.8
543,11.815,224.2
544,11.747,222
545,11.68,219.7
546,11.613,217.2
547,11.547,216
548,11.482,215.1
549,11.417,210.3
550,11.352,209.5
551,11.288,206.5
552,11.225,204.9
553,11.162,202.4
554,11.099,200.2
555,11.037,200.5
556,10.976,198.6
557,10.915,198
558,10.854,197.6
559,10.794,194.9
560,10.734,194.5
561,10.674,192.5
562,10.616,191.8
563,10.557,192.6
564,10.499,191.3
565,10.441,190.2
566,10.384,189.7
567,10.327,187.6
568,10.27,185.3
569,10.213,182.6
570,10.157,181.1
571,10.102,179.7
572,10.046,178.8
573,9.992,177.6
574,9.937,176.6
575,9.883,174.7
576,9.829,175.6
577,9.775,173.5
578,9.722,173.3
579,9.668,174
580,9.615,173.5
581,9.563,171.1
582,9.511,169
583,9.458,164.9
584,9.407,164.7
585,9.355,163.5
586,9.304,164.3
587,9.253,164.8
588,9.203,166.1
589,9.152,166.1
590,9.102,165.3
591,9.052,164.8
592,9.002,164.3
593,8.953,163.9
594,8.904,162.5
595,8.854,161.5
596,8.806,161.1
597,8.757,162.5
598,8.709,160.7
599,8.66,159.1
600,8.612,159.3
601,8.565,158.5
602,8.517,157.2
603,8.469,157.2
604,8.422,155.2
605,8.375,153.9
606,8.328,150.9
607,8.282,150.2
608,8.235,148.5
609,8.189,145.9
610,8.142,144.1
611,8.096,142.6
612,8.05,142.7
613,8.005,142.5
614,7.959,140.7
615,7.914,140.6
616,7.868,139.5
617,7.823,140.6
618,7.778,141.1
619,7.734,140.7
620,7.689,140.1
621,7.645,141.7
622,7.6,141.3
623,7.556,139.8
624,7.513,138.5
625,7.469,137.5
626,7.425,136
627,7.382,134.8
628,7.338,134.8
629,7.295,135.3
630,7.253,133.2
631,7.21,131.9
632,7.167,131.5
633,7.125,130.7
634,7.083,129.5
635,7.041,129.7
636,6.999,130.1
637,6.958,132
638,6.916,131.7
639,6.875,130.9
640,6.835,130.1
641,6.794,129.9
642,6.753,127.8
643,6.713,126.3
644,6.673,125.1
645,6.633,125.7
646,6.594,125.8
647,6.554,124.4
648,6.515,123.3
649,6.476,122.6
650,6.438,121.3
651,6.399,119.4
652,6.361,118.6
653,6.323,117.2
654,6.285,118.5
655,6.248,117.3
656,6.211,118.2
657,6.175,116.6
658,6.138,116.4
659,6.102,116.3
660,6.066,116.8
661,6.03,116.7
662,5.995,116.8
663,5.96,115.3
664,5.925,115.7
665,5.891,114.4
666,5.857,114.7
667,5.823,112.7
668,5.789,111.5
669,5.756,110
670,5.723,109.4
671,5.691,107.7
672,5.658,106.5
673,5.626,107.2
674,5.595,106
675,5.563,105.6
676,5.532,104.5
677,5.501,103.8
678,5.471,103.6
679,5.44,103.2
680,5.411,103.8
681,5.381,104.3
682,5.352,104
683,5.323,104.2
684,5.294,103.3
685,5.265,101.9
686,5.237,101.6
687,5.209,101.3
688,5.182,100.7
689,5.154,101.1
690,5.127,99
691,5.1,99.3
692,5.074,98.9
693,5.048,96.6
694,5.022,95.8
695,4.996,95.7
696,4.971,93.1
697,4.946,93.2
698,4.922,91.1
699,4.897,91.1
700,4.873,90.3
701,4.849,88.8
702,4.825,88
703,4.802,86.8
704,4.779,87.3
705,4.756,85.8
706,4.734,85.1
707,4.712,83.4
708,4.69,83.1
709,4.668,82.5
710,4.646,81.5
711,4.625,82.7
712,4.604,81.8
713,4.583,81.5
714,4.562,80.6
715,4.542,81.1
716,4.522,80.1
717,4.502,79.9
718,4.482,78.5
719,4.463,77.2
720,4.443,75.8
721,4.424,75.3
722,4.405,74.2
723,4.387,72.6
724,4.368,73
725,4.35,71.5
726,4.332,71.3
727,4.314,71.4
728,4.296,69
729,4.278,69.5
730,4.261,68.3
731,4.244,68.6
732,4.227,68
733,4.21,67.3
734,4.193,66.1
735,4.176,66
736,4.16,64.9
737,4.144,65.5
738,4.128,64.1
739,4.112,63.4
740,4.095,62.8
741,4.08,63
742,4.064,62.8
743,4.048,62.4
744,4.033,60.6
745,4.018,61.3
746,4.002,60.8
747,3.987,61.5
748,3.972,61.3
749,3.957,61.5
750,3.942,61.1
751,3.927,59.9
752,3.913,59.2
753,3.898,59.3
754,3.883,58.6
755,3.868,59.1
756,3.854,57.6
757,3.839,56.9
758,3.825,56.8
759,3.81,55.6
760,3.797,55.7
761,3.782,56.3
762,3.768,56
763,3.754,54.3
764,3.739,54.3
765,3.725,54.1
766,3.711,54.7
767,3.697,54
768,3.683,54
769,3.669,53.8
770,3.655,53.1
771,3.641,53.3
772,3.627,52.2
773,3.613,52.7
774,3.6,51.6
775,3.586,51.1
776,3.572,51.1
777,3.559,51.1
778,3.545,51
779,3.532,50.5
780,3.518,50.6
781,3.504,50
782,3.491,50
783,3.477,48.8
784,3.464,48.9
785,3.451,48.9
786,3.437,48.9
787,3.424,48.3
788,3.411,48.4
789,3.398,47.3
790,3.385,47.3
791,3.372,47.3
792,3.359,47.2
793,3.346,47.4
794,3.333,46.7
795,3.32,46.1
796,3.307,46
797,3.295,45.6
798,3.282,44.4
799,3.269,45.1
800,3.257,45.2
801,3.244,44.2
802,3.232,44.8
803,3.22,44
804,3.207,43.9
805,3.195,44.1
806,3.183,45.1
807,3.171,44.5
808,3.159,45
809,3.146,44.4
810,3.134,44.4
811,3.123,44
812,3.11,44
813,3.099,43.3
814,3.087,42.3
815,3.075,42.4
816,3.064,41.7
817,3.052,41.3
818,3.04,41.3
819,3.029,40
820,3.017,39.4
821,3.006,39.3
822,2.995,38.9
823,2.983,38.4
824,2.972,37.7
825,2.961,37.3
826,2.95,37.2
827,2.939,37.2
828,2.928,37.3
829,2.917,37.8
830,2.906,39
831,2.895,38.4
832,2.884,37.8
833,2.873,37.4
834,2.862,37.5
835,2.851,36.4
836,2.841,36.3
837,2.83,35.7
838,2.819,35.8
839,2.809,35.9
840,2.798,35.3
841,2.788,35.9
842,2.778,35.2
843,2.767,35.3
844,2.757,35.2
845,2.747,35.7
846,2.737,34
847,2.727,33.4
848,2.717,33.9
849,2.707,33.5
850,2.697,33.5
851,2.688,33
852,2.678,33
853,2.669,32.4
854,2.659,32.4
855,2.65,33.1
856,2.641,32.5
857,2.632,32
858,2.623,32
859,2.614,32
860,2.605,31.4
861,2.597,30.8
862,2.588,31.3
863,2.58,31.3
864,2.572,30.8
865,2.564,30.8
866,2.556,30.8
867,2.548,31.4
868,2.541,30.2
869,2.533,29.8
870,2.526,30.3
871,2.518,30.1
872,2.511,30.2
873,2.504,31.4
874,2.498,31.3
875,2.491,29.5
876,2.485,30.1
877,2.478,29.5
878,2.472,29
879,2.466,28.5
880,2.46,28.4
881,2.454,26.9
882,2.448,26.4
883,2.443,26.3
884,2.438,25.7
885,2.433,24.4
886,2.428,24.4
887,2.423,24.4
888,2.418,24.4
889,2.413,23.9
890,2.409,23.3
891,2.404,23.9
892,2.4,23.2
893,2.396,22.6
894,2.392,22.6
895,2.388,22.6
896,2.384,22
897,2.38,21.6
898,2.377,21
899,2.373,21.6
900,2.369,21
901,2.366,19.3
902,2.362,20
903,2.359,20.1
904,2.356,19.9
905,2.353,21
906,2.35,21.1
907,2.347,21.1
908,2.343,21.1
909,2.341,20.6
910,2.338,20.6
911,2.335,21.3
912,2.332,21.8
913,2.329,21.3
914,2.326,21.3
915,2.323,21.3
916,2.32,20.6
917,2.317,19.9
918,2.315,19.3
919,2.312,19.3
920,2.309,19.3
921,2.306,19.3
922,2.303,18.8
923,2.301,18.3
924,2.298,18.4
925,2.295,17.3
926,2.292,16.6
927,2.29,16.6
928,2.287,16
929,2.284,16
930,2.281,15.3
931,2.278,15.3
932,2.276,16.6
933,2.273,17.3
934,2.271,16.1
935,2.268,16.1
936,2.265,16.1
937,2.263,16.1
938,2.26,14.9
939,2.257,14.9
940,2.255,14.9
941,2.252,14.8
942,2.25,14.8
943,2.247,14.8
944,2.245,14.2
945,2.243,13.8
946,2.24,14.4
947,2.238,13.9
948,2.236,13.9
949,2.234,13.8
950,2.232,14.3
951,2.23,13.8
952,2.228,13.8
953,2.226,13.6
954,2.224,13.6
955,2.222,13.8
956,2.22,12.6
957,2.219,12.5
958,2.218,12.5
959,2.216,12.5
960,2.215,11.4
961,2.214,11.4
962,2.213,10.8
963,2.212,10.8
964,2.211,10.2
965,2.21,10.2
966,2.209,9.1
967,2.209,9.1
968,2.208,8.6
969,2.208,8.5
970,2.207,8
971,2.207,8.5
972,2.206,7.4
973,2.206,7.4
974,2.205,7.4
975,2.205,7.4
976,2.204,8.6
977,2.204,9.2
978,2.204,8.6
979,2.204,7.4
980,2.203,6.8
981,2.203,7.4
982,2.203,6.8
983,2.203,7.4
984,2.203,6.8
985,2.203,7.4
986,2.204,8
987,2.204,8.1
988,2.205,6.8
989,2.206,7.5
990,2.206,7.4
991,2.207,6.8
992,2.209,6.9
993,2.21,7.5
994,2.211,7.5
995,2.213,7.5
996,2.214,6.3
997,2.215,6.3
998,2.217,6.9
999,2.218,6.3
1000,2.22,6.8
1001,2.221,6.8
1002,2.222,6.9
1003,2.224,6.4
1004,2.225,7.5
1005,2.226,6.9
1006,2.227,6.8
1007,2.227,6.8
1008,2.228,7.4
1009,2.228,6.3
1010,2.227,5.7
1011,2.226,6.8
1012,2.224,7.4
1013,2.221,6.8
1014,2.217,8
1015,2.212,8
1016,2.205,9.2
1017,2.196,9.2
1018,2.185,9.1
1019,2.172,9.1
1020,2.157,9.8
1021,2.141,9.2
1022,2.124,9.2
1023,2.11,9.8
1024,2.1,9.2
1025,2.1,9.1
1026,2.1,9.1
1027,2.1,9.1
1028,2.1,9.1
1029,2.1,9.7
1030,2.1,9.7