File: PMMA/Calibration_Data/UQ/UQ_Cone_25kW_2.csv
Time,Mass,HRR,Back Surface Temperature 1,Back Surface Temperature 2,Back Surface Temperature 3
[s],[g],[kW/m2],[K],[K],[K]
0,73.4,4.07818,301.5,302,301.1
1,73.52854,3.9089,301.6,302,301.1
2,73.57988,3.56657,301.7,302.1,301.2
3,73.61822,2.57899,301.8,302.1,301.4
4,73.52662,2.34998,301.8,302.2,301.5
5,73.5905,2.54434,302,302.2,301.7
6,73.61693,3.56178,302.1,302.4,301.9
7,73.52436,3.53963,302.2,302.5,302
8,73.62296,4.06982,302.3,302.6,302.3
9,73.54371,4.21141,302.5,302.7,302.6
10,73.62286,4.31569,302.6,302.8,302.8
11,73.55582,4.66592,302.9,303,303
12,73.59758,4.89164,303,303.1,303.4
13,73.53663,4.68427,303.3,303.3,303.7
14,73.57962,4.39871,303.6,303.5,304
15,73.52534,4.3709,303.8,303.6,304.4
16,73.52498,4.50966,304,303.9,304.8
17,73.54688,4.88933,304.3,304.1,305.1
18,73.6149,4.54703,304.6,304.3,305.5
19,73.5419,3.87273,304.8,304.5,305.7
20,73.58048,2.72169,305.2,304.8,306.3
21,73.52467,2.48337,305.5,305,306.8
22,73.57063,1.93716,305.8,305.3,307.2
23,73.55755,2.0309,306.2,305.6,307.7
24,73.5606,2.02177,306.6,305.9,308.1
25,73.57884,1.79493,306.9,306.2,308.7
26,73.53987,1.64334,307.3,306.5,309.1
27,73.52699,1.64591,307.7,306.8,309.7
28,73.62141,1.82785,308.1,307.2,310.2
29,73.54348,2.17949,308.5,307.5,310.8
30,73.58742,2.10924,308.9,307.9,311.3
31,73.55375,1.8242,309.4,308.2,311.9
32,73.58219,1.72075,309.8,308.6,312.5
33,73.58469,1.18726,310.2,309.1,313
34,73.57345,1.04919,310.7,309.4,313.6
35,73.54199,1.31076,311.3,309.8,314.1
36,73.55481,1.12017,311.7,310.2,314.8
37,73.6233,0.829752,312.2,310.7,315.3
38,73.56561,0.698853,312.7,311,316
39,73.56193,0.774834,313.1,311.5,316.6
40,73.56108,1.00858,313.7,311.9,317.2
41,73.61893,1.5291,314.2,312.4,317.8
42,73.56902,2.02518,314.7,312.9,318.5
43,73.6168,1.91848,315.3,313.4,319.2
44,73.52854,1.77826,315.8,313.8,319.7
45,73.54355,1.91089,316.4,314.3,320.4
46,73.53569,2.23407,316.9,314.8,321
47,73.56276,2.33796,317.4,315.3,321.7
48,73.59804,2.05978,318,315.8,322.2
49,73.52931,1.80305,318.6,316.3,323
50,73.55327,1.80784,319.2,316.8,323.7
51,73.57406,1.94069,319.7,317.3,324.3
52,73.61449,2.25245,320.3,317.9,325
53,73.55372,3.16288,320.9,318.3,325.7
54,73.61019,3.10328,321.5,318.9,326.5
55,73.57715,2.88551,322.1,319.4,327.1
56,73.62213,2.86261,322.7,319.9,327.7
57,73.6096,3.02028,323.2,320.5,328.4
58,73.61676,3.37328,323.8,321,329.1
59,73.58835,3.37339,324.4,321.5,329.8
60,73.56372,3.08733,325,322.1,330.4
61,73.55481,3.0343,325.6,322.7,331.2
62,73.58318,3.07273,326.2,323.2,331.8
63,73.55446,3.10434,326.8,323.8,332.5
64,73.554,3.40011,327.4,324.3,333.1
65,73.54475,3.27276,328,324.9,333.8
66,73.57499,2.1167,328.6,325.5,334.5
67,73.53652,1.77708,329.1,326.1,335.2
68,73.58769,1.7978,329.7,326.6,335.9
69,73.59124,2.02887,330.2,327.2,336.6
70,73.60776,2.36848,330.7,327.8,337.2
71,73.59037,2.16851,331.4,328.3,338
72,73.60339,1.85804,331.8,328.9,338.6
73,73.59803,1.74799,332.3,329.5,339.3
74,73.55429,1.82496,333,330.1,340
75,73.59918,2.09629,333.6,330.7,340.6
76,73.52582,2.38813,334,331.2,341.3
77,73.58934,2.1817,334.6,331.9,342.1
78,73.59297,2.72701,335.2,332.4,342.7
79,73.58774,2.8616,335.7,333,343.3
80,73.57544,2.92579,336.3,333.6,344.2
81,73.60002,3.24633,336.9,334.2,344.7
82,73.56881,3.42219,337.5,334.7,345.4
83,73.61392,3.24251,338,335.3,345.8
84,73.58818,2.93328,338.6,335.9,346.5
85,73.56592,2.85153,339.2,336.5,347.5
86,73.61041,2.15886,339.7,337.1,348
87,73.53386,2.28359,340.3,337.6,348.7
88,73.54671,2.35708,340.9,338.2,349.2
89,73.57208,2.1647,341.4,338.7,350
90,73.56541,1.89538,342,339.3,350.7
91,73.57137,1.80076,342.5,339.9,351.3
92,73.59027,1.9581,343.1,340.5,351.9
93,73.5322,2.30834,343.7,341,352.6
94,73.56497,2.27189,344.3,341.7,353.2
95,73.62314,2.00299,344.8,342.1,353.8
96,73.60152,1.83023,345.4,342.8,354.4
97,73.57653,1.86147,346,343.3,355.1
98,73.53872,2.02796,346.5,343.8,355.7
99,73.56565,2.36864,347.1,344.3,356.3
100,73.60417,2.22096,347.7,344.9,356.9
101,73.5745,1.12964,348.2,345.5,357.5
102,73.54879,0.75074,348.8,346,358.1
103,73.52684,0.772969,349.3,346.5,358.7
104,73.52903,0.982276,350.1,347,359.3
105,73.55091,1.27086,350.9,347.5,359.7
106,73.56899,1.09496,351.8,348.1,360.4
107,73.60814,0.834398,352.6,348.6,361
108,73.54045,1.55759,353.3,349.1,361.5
109,73.6169,1.8487,353.9,349.6,362.1
110,73.53187,2.13949,354.5,350.1,362.6
111,73.55891,2.41881,355.1,350.6,363
112,73.5705,2.28093,355.7,351.1,363.7
113,73.55526,2.79695,356.2,351.6,364.2
114,73.5298,2.89944,356.8,352.1,364.7
115,73.57468,3.00084,357.3,352.6,365.3
116,73.56917,3.2843,357.9,353.1,365.9
117,73.60647,3.4605,358.4,353.6,366.3
118,73.60687,3.17191,359,354.1,366.9
119,73.59393,2.92512,359.5,354.6,367.5
120,73.57139,2.83682,360,355.1,367.9
121,73.56535,3.17546,360.5,355.6,368.4
122,73.53186,4.13871,361,356,368.8
123,73.53376,4.36649,361.5,356.5,369.2
124,73.58134,4.06326,362,356.9,369.6
125,73.61691,3.71041,362.5,357.3,370
126,73.54389,2.98261,363.1,357.7,370.4
127,73.54216,2.91991,363.6,358.2,370.9
128,73.60499,3.2808,364.1,358.7,371.2
129,73.53378,3.29064,364.7,359.2,371.7
130,73.54065,2.97992,365.4,359.7,372.1
131,73.53758,2.81712,365.8,360.2,372.5
132,73.61152,2.83435,366.3,360.6,372.9
133,73.58847,3.02006,366.9,361.2,373.4
134,73.57401,3.35694,367.5,361.6,373.7
135,73.6004,2.3637,368.1,362.2,374.1
136,73.53911,1.18293,368.7,362.7,374.3
137,73.58061,0.659727,369.4,363.2,374.8
138,73.52968,0.629321,370,363.8,375.2
139,73.60366,0.812804,370.5,364.3,375.7
140,73.57332,1.02225,371.1,364.9,376
141,73.5637,1.15193,371.6,365.4,376.4
142,73.56953,0.702242,372.1,366,376.7
143,73.61318,0.794511,372.6,366.5,377.4
144,73.60832,1.75053,373.2,367.1,377.8
145,73.54967,4.0354,373.7,367.6,378.3
146,73.53827,7.12927,374.2,368.1,378.8
147,73.56987,11.2033,374.8,368.6,379.3
148,73.53407,16.9563,375.2,369.1,379.8
149,73.56273,23.6418,375.8,369.7,380.4
150,73.53658,30.1531,376.4,370.2,380.9
151,73.55327,34.9734,376.9,370.7,381.4
152,73.53014,39.7678,377.4,371.2,381.9
153,73.61155,45.179,377.9,371.7,382.5
154,73.59178,52.7671,378.5,372.3,383
155,73.61122,59.6683,379,372.8,383.6
156,73.53024,66.8265,379.6,373.3,384.2
157,73.60717,72.9766,380.1,373.8,384.9
158,73.55895,78.7998,380.7,374.4,385.5
159,73.58612,83.2039,381.2,374.9,386.2
160,73.52713,87.3981,381.7,375.4,386.7
161,73.55874,92.9765,382.2,376,387.4
162,73.55724,99.1582,382.7,376.6,388
163,73.56762,105.955,383.2,377,388.7
164,73.57462,111.661,383.7,377.5,389.4
165,73.52546,116.519,384.2,378.1,390
166,73.56072,121.872,384.8,378.6,390.6
167,73.56267,127.249,385.2,379.2,391.5
168,73.5496,132.554,385.8,379.7,392
169,73.53872,138.245,386.3,380.3,392.7
170,73.54271,143.746,386.8,380.8,393.3
171,73.54238,148.638,387.3,381.3,394
172,73.55649,153.266,387.8,381.9,394.6
173,73.56429,156.54,388.3,382.4,395.3
174,73.52592,163.277,388.9,383,396
175,73.61201,171.101,389.4,383.6,396.6
176,73.6234,179.407,389.9,384.1,397.2
177,73.59563,186.968,390.5,384.7,397.8
178,73.56326,194.263,391.1,385.3,398.4
179,73.61907,202.945,391.6,385.8,399
180,73.60567,211.005,392.2,386.4,399.7
181,73.52909,218.712,392.7,386.9,400.2
182,73.59516,227.45,393.3,387.6,400.8
183,73.5629,235.529,393.9,388.2,401.4
184,73.4889,242.283,394.5,388.8,402
185,73.3827,249.699,395,389.5,402.6
186,73.2884,255.897,395.6,390,403.1
187,73.2095,261.254,396.2,390.7,403.8
188,73.0845,266.881,396.7,391.2,404.3
189,72.9975,271.08,397.3,391.9,404.9
190,72.935,273.641,397.9,392.5,405.5
191,72.8495,276.515,398.4,393.1,406
192,72.7091,279.26,399,393.7,406.6
193,72.6207,279.7,399.7,394.3,407.1
194,72.549,282.631,400.2,395,407.7
195,72.4364,285.079,400.7,395.6,408.3
196,72.3272,289.041,401.3,396.2,408.8
197,72.2223,292.303,401.8,396.8,409.3
198,72.1164,298.336,402.4,397.4,409.8
199,72.01025,305.623,403,398,410.5
200,71.9324,308.929,403.6,398.6,411.1
201,71.8105,309.765,404.2,399.2,411.6
202,71.71306,310.633,404.7,399.8,412.2
203,71.5723,312.358,405.3,400.4,412.7
204,71.4818,314.659,405.9,401,413.1
205,71.385,317.68,406.5,401.6,413.7
206,71.26,318.876,407.1,402.2,414.3
207,71.1565,320.205,407.7,402.8,414.8
208,71.0292,323.42,408.3,403.4,415.3
209,70.9408,326.652,409,404,415.8
210,70.8111,330.782,409.7,404.6,416.4
211,70.7263,329.628,410.4,405.2,416.9
212,70.6051,329.641,411.1,405.8,417.5
213,70.48284,330.015,411.7,406.4,417.9
214,70.3963,330.764,412.3,407,418.4
215,70.2654,329.778,413,407.7,419
216,70.1658,332.677,413.6,408.4,419.5
217,70.0419,332.369,414.2,408.9,420
218,69.9165,334.8,414.8,409.6,420.6
219,69.7906,335.647,415.3,410.2,421.2
220,69.6766,333.508,415.9,410.9,421.8
221,69.57,336.87,416.5,411.4,422.5
222,69.4869,341.47,417.1,412.1,423.2
223,69.4022,343.537,417.7,412.8,423.8
224,69.2525,341.245,418.2,413.3,424.4
225,69.1275,341.808,418.8,413.9,425
226,68.98,343.639,419.4,414.5,425.6
227,68.8374,345.686,420,415.1,426.1
228,68.7488,345.187,420.5,415.7,426.7
229,68.6443,346.128,421.1,416.3,427.2
230,68.5205,343.267,421.7,416.9,427.7
231,68.41452,344.416,422.1,417.5,428.2
232,68.28794,344.272,422.7,418.1,428.8
233,68.1606,344.353,423.2,418.7,429.3
234,68.0566,347.194,423.8,419.3,429.9
235,67.9246,350.161,424.3,419.9,430.4
236,67.8148,351.278,424.9,420.5,431
237,67.6937,353.174,425.5,421.1,431.5
238,67.5836,352.99,426,421.7,432
239,67.4506,355.696,426.5,422.3,432.6
240,67.3263,355.91,427.1,422.9,433.2
241,67.2019,355.816,427.7,423.4,433.7
242,67.0628,358.643,428.2,424.1,434.2
243,66.9648,361.397,428.7,424.6,434.8
244,66.8162,363.193,429.2,425.3,435.3
245,66.7217,364.439,429.8,425.8,435.9
246,66.6072,365.828,430.5,426.4,436.4
247,66.4728,366.529,430.9,427,436.9
248,66.3275,364.935,431.4,427.6,437.6
249,66.233,365.868,431.9,428.1,438
250,66.0926,365.201,432.4,428.7,438.5
251,65.97018,368.219,433,429.3,439.1
252,65.83109,368.548,433.5,429.9,439.6
253,65.696,369.481,434,430.5,440
254,65.5982,370.817,434.5,431.1,440.7
255,65.4807,371.181,435.1,431.6,441.2
256,65.3434,370.504,435.7,432.2,441.7
257,65.2261,371.99,436.4,432.8,442.3
258,65.0945,373.955,436.8,433.4,442.8
259,64.9647,375.554,437.4,433.9,443.4
260,64.8463,374.019,437.9,434.5,444
261,64.7064,374.794,438.5,435,444.5
262,64.6161,374.862,439,435.6,445
263,64.4872,373.15,439.5,436.2,445.5
264,64.3403,373.355,440,436.7,446
265,64.1884,375.72,440.6,437.3,446.5
266,64.0462,376.565,441.1,437.9,447.1
267,63.9501,381.076,441.7,438.5,447.6
268,63.82,382.114,442.1,439.1,448
269,63.6645,384.22,442.7,439.6,448.7
270,63.5171,386.396,443.2,440.1,449.2
271,63.3596,388.317,443.7,440.7,449.7
272,63.2236,391.061,444.2,441.3,450.3
273,63.0891,391.803,444.7,441.9,450.7
274,62.9556,392.854,445.3,442.4,451.3
275,62.837,389.704,445.8,443,451.9
276,62.6865,387.123,446.3,443.4,452.3
277,62.5497,387.198,446.8,444.1,452.8
278,62.4272,390.445,447.3,444.7,453.4
279,62.2803,394.028,447.9,445.2,453.9
280,62.1623,395.396,448.4,445.7,454.4
281,62.0405,392.469,448.8,446.4,455
282,61.9214,393.414,449.4,446.9,455.5
283,61.7948,392.889,449.9,447.4,456
284,61.6553,394.181,450.4,448,456.4
285,61.547,394.176,451,448.6,457
286,61.4032,393.062,451.4,449.1,457.4
287,61.2518,391.921,452,449.7,458.1
288,61.123,393.355,452.5,450.2,458.6
289,61.0192,395.357,453,450.8,459.1
290,60.8924,394.741,453.4,451.2,459.6
291,60.7722,398.05,454,451.9,460.2
292,60.6234,398.952,454.5,452.4,460.8
293,60.4883,398.661,455,452.9,461.3
294,60.353,397.443,455.5,453.5,461.9
295,60.1945,397.573,456,454,462.6
296,60.0569,397.818,456.5,454.6,463
297,59.89372,398.87,457,455.1,463.5
298,59.7805,399.779,457.5,455.7,464.1
299,59.6485,401.777,458,456.2,464.6
300,59.53304,402.503,458.6,456.8,465.1
301,59.4057,401.551,459,457.3,465.6
302,59.25895,400.503,459.6,457.9,466.1
303,59.1259,402.2,460.1,458.4,466.5
304,58.9933,402.439,460.6,458.9,467.1
305,58.8957,405.062,460.9,459.4,467.6
306,58.7163,406.239,461.5,459.9,468.1
307,58.5618,407.729,462,460.5,468.6
308,58.4033,407.939,462.6,461,469.3
309,58.2973,410.116,463.1,461.5,469.5
310,58.1663,409.693,463.6,462.1,470.1
311,58.0289,410.731,464.1,462.6,470.7
312,57.8841,413.355,464.6,463.1,471.3
313,57.7551,412.319,465,463.7,471.7
314,57.6267,415.996,465.6,464.2,472.2
315,57.5015,421.304,466.1,464.8,472.7
316,57.3567,419.926,466.5,465.3,473.2
317,57.1914,419.141,467.1,465.8,473.7
318,57.0283,418.806,467.5,466.4,474.3
319,56.9186,419.373,468,466.9,474.8
320,56.76481,417.641,468.4,467.4,475.3
321,56.621,418.408,469,468,475.8
322,56.5062,419.243,469.5,468.5,476.4
323,56.3776,418.645,470,469,476.9
324,56.2322,418.86,470.5,469.6,477.3
325,56.082,418.844,471,470,477.8
326,55.9211,418.998,471.5,470.6,478.2
327,55.8195,419.875,472,471.1,478.7
328,55.6896,419.792,472.5,471.6,479.3
329,55.5234,422.863,473,472.2,479.8
330,55.3856,423.703,473.5,472.6,480.2
331,55.2479,423.551,474,473.2,480.7
332,55.0862,425.127,474.5,473.7,481.1
333,54.9317,423.591,475,474.3,481.6
334,54.8011,425.588,475.5,474.8,482.2
335,54.65908,423.024,476,475.3,482.7
336,54.5157,425.588,476.4,475.9,483.1
337,54.4024,425.793,477,476.4,483.5
338,54.22819,427.762,477.4,476.8,484.1
339,54.063,428.576,477.9,477.3,484.6
340,53.9316,430.691,478.4,477.8,485.2
341,53.7966,430.252,478.9,478.3,485.8
342,53.653,427.853,479.4,478.8,486.2
343,53.5078,429.525,479.9,479.3,486.6
344,53.3623,432.623,480.4,479.8,487.1
345,53.2099,434.428,480.9,480.3,487.5
346,53.0609,436.139,481.4,480.8,487.8
347,52.8863,434.604,481.9,481.3,488.3
348,52.7133,435.025,482.5,481.8,488.8
349,52.5822,435.986,482.8,482.3,489.3
350,52.43012,434.651,483.4,482.8,489.8
351,52.286,435.609,483.9,483.3,490.2
352,52.1368,438.202,484.4,483.9,490.5
353,52.0037,438.716,484.8,484.4,491
354,51.8687,438.659,485.4,485,491.4
355,51.7117,435.812,485.8,485.5,491.9
356,51.5787,435.354,486.3,486,492.5
357,51.41308,437.404,486.9,486.5,492.9
358,51.2482,438.73,487.3,487,493.5
359,51.1068,440.362,487.8,487.6,493.9
360,50.9624,441.147,488.3,488.1,494.4
361,50.8241,445.592,488.9,488.6,494.9
362,50.686,449.412,489.4,489.1,495.5
363,50.519,449.337,489.8,489.7,495.9
364,50.3303,451.802,490.4,490.2,496.4
365,50.1819,453.885,490.8,490.7,497
366,50.0427,457.341,491.3,491.3,497.8
367,49.9314,454.685,491.8,491.8,498.1
368,49.7663,451.341,492.4,492.3,498.7
369,49.596,449.431,492.7,492.9,499.2
370,49.4469,447.751,493.2,493.4,499.8
371,49.3094,450.762,493.7,493.9,500.1
372,49.1558,451.102,494.2,494.5,500.6
373,48.99507,452.207,494.6,495,501
374,48.8407,451.718,495.1,495.5,501.5
375,48.67626,449.388,495.6,496,502.1
376,48.5187,450.285,496.2,496.6,502.7
377,48.3709,450.048,496.6,497.1,503.2
378,48.2189,447.847,497.1,497.7,503.7
379,48.0672,449.832,497.6,498.2,504.2
380,47.9074,451.094,498.1,498.7,504.6
381,47.74399,454.004,498.6,499.2,505.3
382,47.6219,455.853,499.1,499.7,505.7
383,47.45586,458.216,499.5,500.1,506.3
384,47.3061,458.071,500.1,500.7,506.8
385,47.1613,458.468,500.6,501.2,507.3
386,47.0175,458.721,501,501.6,508
387,46.8554,459.471,501.5,502.1,508.5
388,46.6704,458.555,502,502.6,509.1
389,46.5093,458.162,502.5,503.2,509.5
390,46.3505,458.823,503,503.7,510
391,46.1939,463.852,503.4,504.2,510.4
392,46.0373,464.234,503.9,504.7,510.9
393,45.8895,459.886,504.4,505.3,511.3
394,45.7209,457.802,504.9,505.9,511.8
395,45.5624,456.456,505.4,506.3,512.3
396,45.3994,456.03,505.9,506.9,512.7
397,45.2579,456.155,506.4,507.4,513.3
398,45.129,459.687,506.9,507.9,513.8
399,44.9783,462.426,507.4,508.5,514.4
400,44.8136,467.638,507.9,508.9,515
401,44.6527,472.01,508.4,509.4,515.6
402,44.49,472.783,508.9,509.9,516.1
403,44.342,471.273,509.4,510.4,516.7
404,44.1655,469.754,510,510.9,517.2
405,44.0017,470.31,510.5,511.4,517.8
406,43.8428,467.463,511,511.9,518.3
407,43.7002,466.935,511.5,512.4,519
408,43.5481,467.967,512,512.9,519.6
409,43.4453,466.866,512.6,513.3,520.2
410,43.2881,469.585,513.1,513.8,520.8
411,43.1282,469.096,513.6,514.4,521.5
412,42.9612,468.972,514.1,514.9,522.1
413,42.8092,467.235,514.6,515.4,522.7
414,42.657,466.131,515.1,516,523.3
415,42.495,465.652,515.6,516.4,523.9
416,42.332,463.808,516.1,517,524.3
417,42.1687,467.695,516.6,517.5,525
418,42.0056,471.201,517.1,518,525.6
419,41.8291,471.622,517.6,518.5,526.1
420,41.6645,473.286,518.1,519,526.7
421,41.5058,470.912,518.5,519.5,527.2
422,41.3553,471.151,518.9,519.9,527.8
423,41.1869,473.659,519.5,520.4,528.4
424,41.0204,473.076,520,520.9,529
425,40.8584,470.449,520.5,521.4,529.5
426,40.7194,469.343,521,522,530.1
427,40.5641,469.296,521.6,522.5,530.7
428,40.418,472.082,522.1,523,531.3
429,40.2583,470.539,522.7,523.5,531.9
430,40.1221,469.078,523.3,524.1,532.4
431,39.9773,468.233,523.9,524.6,533
432,39.8047,468.849,524.4,525.1,533.6
433,39.6346,471.562,525,525.7,534.2
434,39.4801,469.601,525.5,526.2,534.8
435,39.32115,470.734,526,526.8,535.4
436,39.1609,469.708,526.5,527.3,535.9
437,38.9958,469.044,527,527.8,536.6
438,38.8584,470.744,527.5,528.5,537.1
439,38.6749,470.301,527.9,528.9,537.7
440,38.5135,464.913,528.5,529.4,538.3
441,38.3724,465.14,528.9,529.9,538.8
442,38.2217,464.14,529.5,530.5,539.4
443,38.05472,466.804,530.1,531.1,539.9
444,37.9017,468.232,530.6,531.6,540.5
445,37.7386,469.826,531.2,532.2,541
446,37.5728,472.41,531.8,532.8,541.6
447,37.407,475.317,532.4,533.4,542.1
448,37.2518,473.738,533,534,542.7
449,37.1045,475.282,533.6,534.5,543.3
450,36.9477,476.704,534.2,535.1,543.9
451,36.7802,474.417,534.8,535.6,544.5
452,36.628,476.31,535.5,536.2,544.9
453,36.4749,477.631,536.1,536.9,545.5
454,36.3217,478.161,536.8,537.5,546.2
455,36.1642,478.265,537.4,538.2,546.7
456,36.0014,479.35,538.1,538.8,547.3
457,35.82194,478.245,538.8,539.5,548
458,35.6387,478.748,539.5,540.1,548.5
459,35.4812,482.842,540.2,540.7,549
460,35.3239,479.963,540.8,541.3,549.7
461,35.1717,479.264,541.4,542.1,550.3
462,35.0156,482.113,542.2,542.8,550.9
463,34.85387,483.453,542.9,543.4,551.4
464,34.6932,483.862,543.5,544,552.1
465,34.5324,486.82,544.2,544.7,552.7
466,34.3582,488.068,544.9,545.4,553.3
467,34.1905,490.992,545.7,546,553.9
468,34.0517,491.961,546.4,546.7,554.5
469,33.89563,490.781,547.1,547.4,555.1
470,33.74,486.621,547.8,548.1,555.7
471,33.5594,484.835,548.6,548.7,556.3
472,33.40304,486.861,549.3,549.4,556.9
473,33.2309,487.427,550,550,557.4
474,33.0781,486.421,550.7,550.7,558
475,32.9235,487.447,551.5,551.4,558.6
476,32.7827,488.613,552.2,552,559.2
477,32.6037,490.928,553.1,552.7,559.9
478,32.4195,490.007,553.8,553.4,560.6
479,32.2483,492.834,554.6,554.1,561.5
480,32.1125,489.778,555.4,554.8,562.1
481,31.9405,488.37,556.1,555.5,562.9
482,31.7492,491.465,556.9,556.2,563.3
483,31.6009,490.563,557.7,556.8,564.1
484,31.45463,490.461,558.4,557.5,564.8
485,31.304,489.633,559.2,558.3,565.5
486,31.1451,489.818,560,559,566.1
487,31.001,492.462,560.8,559.6,566.8
488,30.79486,498.544,561.6,560.3,567.5
489,30.63191,502.219,562.3,561,568.2
490,30.4748,504.418,563.1,561.6,568.9
491,30.3044,502.612,563.8,562.4,569.6
492,30.159,502.196,564.7,563.2,570.3
493,29.9919,501.653,565.5,563.8,571.2
494,29.8297,502.907,566.3,564.5,571.8
495,29.6521,502.13,567.1,565.3,572.5
496,29.5059,499.767,567.9,566,573.3
497,29.3478,499.437,568.7,566.7,574
498,29.1732,497.172,569.5,567.5,574.8
499,29.0032,497.625,570.3,568.2,575.5
500,28.8252,497.556,571.1,569,576.1
501,28.6636,499.621,571.9,569.7,577
502,28.4991,501.56,572.6,570.5,577.7
503,28.3352,503.027,573.4,571.2,578.5
504,28.1788,501.438,574.2,572,579.3
505,28.024,500.513,575,572.8,580.1
506,27.8749,499.582,575.8,573.4,580.9
507,27.7209,499.081,576.6,574.2,581.6
508,27.5257,497.741,577.4,575,582.4
509,27.354,495.172,578.2,575.7,583.2
510,27.18352,494.599,579,576.5,584
511,27.0299,495.283,579.8,577.2,584.8
512,26.8563,494.646,580.6,578,585.5
513,26.6729,491.52,581.4,578.7,586.3
514,26.5103,489.745,582.2,579.5,587.1
515,26.3337,485.909,583.1,580.1,587.9
516,26.1805,486.141,583.9,580.8,588.7
517,26.0472,487.201,584.5,581.5,589.5
518,25.90005,487.993,585.4,582.3,590.2
519,25.7416,487.702,586.2,583,591.1
520,25.5905,487.147,587.1,583.8,591.9
521,25.41502,483.856,588,584.6,592.7
522,25.2478,481.24,588.8,585.1,593.3
523,25.09423,480.008,589.7,585.8,594.3
524,24.9639,475.077,590.5,586.5,595.2
525,24.7968,473.112,591.4,587.2,596
526,24.63,472.644,592.3,587.8,596.8
527,24.4657,470.291,593.1,588.6,597.7
528,24.3072,466.073,593.9,589.3,598.5
529,24.158,465.994,594.7,590,599.5
530,24.0014,465.969,595.6,590.7,600.1
531,23.8629,463.011,596.3,591.4,601
532,23.72495,456.958,597.1,592.1,601.7
533,23.5882,451.367,598,592.8,602.2
534,23.4656,449.045,598.8,593.5,603.3
535,23.3202,450.391,599.6,594.1,603.8
536,23.187,448.501,600.5,594.8,604.6
537,23.0241,445.56,601.2,595.5,605.4
538,22.8779,443.127,602,596.2,606
539,22.6916,441.499,602.8,596.8,606.8
540,22.5742,442.48,603.6,597.5,607.5
541,22.4223,440.583,604.4,598.1,608.2
542,22.2836,440.347,605.2,598.8,609.1
543,22.1345,439.438,606,599.4,609.7
544,22.029,437.364,606.8,600.1,610.6
545,21.8825,436.11,607.5,600.8,611.3
546,21.7915,436.506,608.3,601.5,612
547,21.64618,437.312,609.2,602.1,612.8
548,21.521,437.77,609.9,602.8,613.5
549,21.4075,432.249,610.8,603.5,614.3
550,21.1993,429.08,611.6,604.2,615.2
551,21.0127,430.99,612.4,604.9,616
552,20.8435,428.291,613.1,605.6,616.9
553,20.7067,431.371,613.9,606.3,617.7
554,20.5879,434.276,614.7,607,618.6
555,20.4629,431.351,615.5,607.7,619.5
556,20.2946,430.166,616.3,608.5,620.4
557,20.1485,431.472,617.1,609.1,621.3
558,20.0152,428.924,618,609.8,622.4
559,19.8798,427.8,618.8,610.6,623.2
560,19.729,425.461,619.6,611.3,624.2
561,19.5871,422.472,620.4,612,625.2
562,19.4527,422.216,621.3,612.7,626.4
563,19.3218,422.191,622.1,613.4,627.4
564,19.2334,421.158,622.9,614.1,628.5
565,19.0651,421.452,623.8,614.7,629.6
566,18.9547,419.076,624.7,615.4,630.6
567,18.8312,414.379,625.6,616.1,632
568,18.6777,415.679,626.6,616.8,633.3
569,18.501,417.127,627.5,617.5,634.5
570,18.3855,418.696,628.4,618.2,635.9
571,18.2852,421.139,629.4,619.1,637.2
572,18.1266,420.766,630.4,619.8,638.6
573,17.9806,420.554,631.4,620.6,640.1
574,17.8276,421.547,632.4,621.4,641.7
575,17.6867,422.077,633.4,622.3,643.3
576,17.5495,424.198,634.5,623.1,645
577,17.4108,426.975,635.6,624,646.7
578,17.27632,428.733,636.7,624.9,648.6
579,17.1276,423.945,637.9,625.9,650.4
580,17.02773,419.2,639,626.9,652.3
581,16.8662,418.654,640.2,628,654.2
582,16.7315,416.823,641.3,629,656
583,16.5964,419.509,642.3,630.1,658
584,16.4396,414.894,643.2,631.3,660.2
585,16.2727,411.664,644.2,632.5,662.4
586,16.173,413.02,645.3,633.8,664.7
587,16.0503,413.438,646.3,635.1,666.9
588,15.9092,415.46,647.4,636.5,669.4
589,15.76697,416.214,648.8,638,671.9
590,15.61198,412.9,650.3,639.5,674.5
591,15.5076,410.978,651.6,641.1,677.7
592,15.3684,408.321,653,642.8,681.2
593,15.23928,406.894,654.4,644.7,684.8
594,15.1025,407.636,655.9,646.6,688.3
595,14.9638,406.355,657.7,648.6,691.8
596,14.8223,406.63,659.5,650.6,696.3
597,14.7052,408.513,661.5,652.8,700.2
598,14.5754,406.225,663.3,655,704
599,14.4476,405.509,665.1,657.4,708.5
600,14.2931,406.477,666.8,660.3,713
601,14.1425,404.594,668.6,663.3,717.4
602,14.0415,404.832,670.5,666.5,722.2
603,13.90554,404.202,672.3,669.9,727
604,13.7827,402.473,674.6,673.6,732.2
605,13.6303,403.374,676.6,677.3,736.4
606,13.4803,402.252,678.7,681,740.1
607,13.3297,397.191,681,684.7,743.7
608,13.23127,394.645,683.5,687.9,746.7
609,13.1597,394.854,686.2,691.2,750.2
610,13.0179,394.593,688.6,694.2,752.5
611,12.8716,390.983,691.3,696.9,754.8
612,12.75322,384.242,692.9,699.3,756.5
613,12.6466,378.917,694.3,701.5,758.4
614,12.4935,376.594,696.1,703.6,760.3
615,12.3895,377.226,698.5,705.5,762.6
616,12.2492,378.676,700.9,707.5,765
617,12.1026,378.315,703.6,709.4,767.3
618,12.0011,379.918,706,710.8,769.4
619,11.87269,381.414,708.6,712.3,771.4
620,11.7667,378.625,711.1,713.7,772.9
621,11.6173,377.297,714,715.7,775.4
622,11.4519,378.242,716.8,717.2,777.1
623,11.337,377.697,719.6,718.5,779.2
624,11.20502,376.958,721.9,719.6,780.5
625,11.1005,378.26,724.4,720.8,782.4
626,11.01165,374.73,726.4,721.8,783.5
627,10.8751,368.751,728.4,723.1,785
628,10.774,365.924,730.4,724.1,786.3
629,10.6497,365.56,732.5,725.4,787.6
630,10.559,365.014,734.9,727,789.3
631,10.4181,361.628,737.2,728.2,791
632,10.3075,355.681,739.6,729.7,795.3
633,10.2277,350.45,741.9,731.1,800.7
634,10.10913,349.877,743.7,732.2,805
635,9.975004,348.823,745.5,733.4,806.2
636,9.868928,349.169,747.3,734.7,806.1
637,9.778993,345.174,749.2,735.9,806.5
638,9.666376,339.876,750.9,737.3,807.6
639,9.584816,335.056,752.9,738.5,808.1
640,9.490142,329.401,754.5,739.4,810.8
641,9.366593,325.326,756.3,740.5,816.6
642,9.266339,322.718,757.9,741.5,816.4
643,9.159493,319.812,760,742.9,815
644,9.071924,316.736,761.7,744,815.1
645,8.956663,316.252,763.9,745.5,826.4
646,8.860944,314.349,765.8,746.7,837.6
647,8.732919,311.973,767.7,748.1,836.8
648,8.659055,307.077,769,749.3,845
649,8.602142,304.142,770.4,750.7,846.9
650,8.463678,305.276,771.7,752.2,844.6
651,8.352443,303.839,773.7,753.6,850.4
652,8.28159,298.058,775.8,755.1,857.2
653,8.191845,290.228,777.8,756.7,865.4
654,8.067413,283.427,779.7,758.5,870.5
655,7.998157,279.458,784.2,760.4,875.3
656,7.913515,274.485,786.3,761.7,872.3
657,7.805189,271.415,787.1,763.3,875.2
658,7.74401,270.29,790.6,765.1,871.9
659,7.670911,268.549,797.1,767.1,868.8
660,7.567536,265.984,801.2,770.4,874.9
661,7.502474,261.697,803.3,771.4,881.5
662,7.451663,257.602,810.1,773.2,881.8
663,7.360036,255.237,817.7,775.5,875.8
664,7.266598,252.172,824.3,777.8,869.2
665,7.200483,244.091,825.1,780,872.9
666,7.116117,237.897,830.7,782,877.9
667,7.03829,230.762,838.8,784.2,878.6
668,6.988703,225.851,842.2,786.2,885.7
669,6.945373,223.354,844.7,788.1,888.1
670,6.880171,219.142,846.9,791,888.2
671,6.774503,214.204,848.7,793.3,887.2
672,6.719044,208.88,853.3,797.3,885.1
673,6.679284,204.948,854.1,799,887.1
674,6.603492,202.544,857,800.8,893.8
675,6.529081,199.065,863.2,802.7,899.6
676,6.4515,195.545,868.2,805.1,898.1
677,6.419387,191.218,870.2,807.4,897.9
678,6.373558,186.856,868.2,809.7,897.1
679,6.259052,181.543,870.6,813.3,896.4
680,6.196163,177.417,868.8,816.3,901.6
681,6.158909,174.179,869,818.9,905.3
682,6.125448,171.99,870.7,821.3,906.3
683,6.072263,168.427,871.8,824,905.6
684,6.04081,163.997,873.7,826.7,905.7
685,6.008501,160.378,875.6,830.1,908.4
686,5.924991,157.239,879.5,831,911.9
687,5.858242,153.133,880,833.1,911.7
688,5.826956,149.538,880.1,835.9,910.1
689,5.810003,145.017,880.7,838,907.1
690,5.785357,139.763,879.8,841.1,908.6
691,5.732635,134.897,878.5,842.8,907.6
692,5.684793,131.596,877.6,844.9,907.5
693,5.659061,129.481,879.2,847.3,911.4
694,5.631574,127.503,880.2,847.6,917.5
695,5.601711,124.877,881.3,848.3,917.8
696,5.570865,122.854,882.6,850.2,914.2
697,5.541434,121.135,881.5,851.5,910
698,5.509541,119.774,880,853.2,914
699,5.480583,118.055,879.7,854.3,917.7
700,5.446937,116.188,880.4,854.8,918.6
701,5.379729,113.72,881.3,856.8,919.6
702,5.352928,111.418,882.4,858.2,920.4
703,5.337094,109.921,882.3,860.8,920
704,5.322679,108.958,883.1,863,920.5
705,5.299256,107.782,883.8,862.4,921.1
706,5.262168,106.448,884.5,863.6,925.7
707,5.237251,103.598,885.1,865.8,928.3
708,5.221817,100.893,885.6,866,928.3
709,5.201387,99.8876,886.6,866.3,928.3
710,5.170142,99.5798,887.9,867.3,931.9
711,5.130976,98.7189,889,868.9,931.9
712,5.102054,97.2656,890.6,870.9,938.2
713,5.088932,95.8559,891,873.5,938.9
714,5.071636,94.7089,892.1,876,939
715,5.050448,93.9871,892.9,877,938.6
716,5.017694,93.494,894.2,876.9,938.4
717,4.975765,93.5214,895.4,878,943.1
718,4.94701,92.9576,894.9,877,943.5
719,4.92701,92.3649,894.3,878.2,942.7
720,4.901411,92.4786,894.8,878.5,944.4
721,4.873391,91.3103,895.6,880.1,943.5
722,4.845417,89.7021,896.4,881,942.4
723,4.782659,89.6783,897.7,881.5,943.7
724,4.732604,88.953,898.4,884.3,943.6
725,4.724,88.8367,898.9,883.6,937.1
726,4.721601,88.1699,900.6,883.8,930.5
727,4.707424,86.8489,901.4,884,922.5
728,4.679206,85.7763,901.4,883.8,916.7
729,4.643341,85.1411,901.7,884.1,911.3
730,4.619141,84.8651,902.8,884.3,909.3
731,4.614208,84.2558,903.8,887,905.3
732,4.605965,84.07,904.1,887.7,900.4
733,4.588652,83.2892,906.3,887.6,895.3
734,4.577713,83.2339,908,887.7,892.1
735,4.559784,82.255,908,887.5,890.3
736,4.536497,81.1416,908.2,886.9,886.5
737,4.52016,80.7417,909.1,886.9,881.1
738,4.507432,80.1372,908.8,887.7,877.7
739,4.484153,80.0113,907.5,888.4,871.1
740,4.45891,79.6179,906.8,888.4,864.6
741,4.445952,79.3759,905.9,887.7,856.4
742,4.439237,78.7882,903.2,889.4,851.7
743,4.425918,78.4626,900.6,889.7,845.1
744,4.402755,77.6533,897,889.7,839.7
745,4.377231,77.9185,893.3,891.2,834.6
746,4.358441,77.5752,889.5,891.2,830.7
747,4.344769,77.6405,885.8,891.2,828.3
748,4.328659,77.3876,882.3,891.9,826.3
749,4.309812,76.8668,878.1,892.9,823.8
750,4.28912,77.0383,873.6,893.1,821.6
751,4.269693,77.1449,869.5,893.8,819.3
752,4.26441,76.7281,865.8,892.8,818
753,4.255279,76.3251,862.3,892.3,816.4
754,4.236042,75.1914,859.1,891.7,814.6
755,4.219011,74.588,855.6,891.2,813
756,4.201586,74.7101,852.7,892.3,811.4
757,4.186195,74.445,850,892.4,808.4
758,4.172002,73.9637,847.8,892.6,805.3
759,4.156207,73.8756,845.5,891.9,802.9
760,4.13208,73.6626,843.2,893.6,801.8
761,4.115719,73.7755,840.8,894.2,800.7
762,4.102501,73.2698,838.6,893.8,799.8
763,4.080876,72.7922,836.6,892,799.2
764,4.064078,72.2855,834.8,891,798.7
765,4.051295,71.3481,832.5,890,797.4
766,4.033785,70.3247,830.1,887.9,795.9
767,4.015607,69.0067,827.9,884.7,795.8
768,3.99701,68.8428,825.7,881.3,794.8
769,3.973311,68.4729,824.1,879.5,792.4
770,3.951967,67.6836,822.4,877.2,790.9
771,3.937525,67.3399,821,875.2,788.8
772,3.926924,66.4024,819.7,873,788
773,3.914641,66.2554,818,871.5,788
774,3.892906,65.6023,816.5,869.4,788
775,3.866486,65.3629,814.7,867.3,786.8
776,3.835445,65.3697,813.3,865.6,785.9
777,3.807405,64.6026,812.4,863.4,785.9
778,3.790778,64.2159,811.2,861.6,783.9
779,3.781673,63.6152,809.7,859.8,782.1
780,3.770525,63.1639,808.4,857.7,781.4
781,3.757552,63.0562,807.6,855.6,781.1
782,3.754192,62.9128,806.7,853.4,779.7
783,3.749952,63.019,805.1,851.2,777.5
784,3.733272,62.926,803.7,849.1,776.7
785,3.711024,62.3994,802,847,776.5
786,3.691681,61.7382,800.3,844.8,775.4
787,3.684798,60.2747,798.6,842.8,774.7
788,3.684,59.1247,796.8,841.1,775.1
789,3.672927,57.8426,795.4,839.5,774.1
790,3.658156,57.4866,794.5,837.5,773.7
791,3.646293,57.5125,793.5,835.7,773.7
792,3.636749,57.8832,792.4,833.7,774.2
793,3.626092,58.2888,791,831.6,774.3
794,3.608579,58.2155,789.6,829.8,773.8
795,3.593963,57.4297,788.4,827.8,771.5
796,3.583948,57.2285,787.1,826,771
797,3.573227,56.8647,786.2,824.3,769.6
798,3.562974,56.7037,785.5,822.6,768.4
799,3.549747,56.4684,784.8,820.6,768.1
800,3.533715,55.816,784,819,768.4
801,3.517335,54.7556,783.2,817.5,768.8
802,3.501109,54.5132,782.1,816,768
803,3.479356,54.2008,781,814.3,767.8
804,3.458764,54.2231,779.8,812.9,768.7
805,3.437639,54.1734,779.2,811.6,768.9
806,3.425946,54.0772,778.5,810.4,768.3
807,3.419287,53.8234,778,809.1,768.1
808,3.406974,53.6848,777.7,807.9,767.5
809,3.393579,53.7223,776.9,806.4,765.9
810,3.381473,53.3677,776.6,805.3,764.8
811,3.366331,53.3804,775.8,804,763.7
812,3.350303,53.1193,775.3,802.8,762.6
813,3.337307,52.6515,774.5,801.6,763.5
814,3.332562,52.264,773.6,800.4,764.5
815,3.323982,51.9495,772.6,799.2,764.3
816,3.309393,51.8616,771.7,798,763.9
817,3.291856,51.7787,771.2,797.1,764.4
818,3.277762,51.6698,770.5,796.1,763.3
819,3.272595,52.2424,769.6,795,762.5
820,3.265547,51.8636,768.8,794.2,762.3
821,3.25445,51.8253,768.4,793.3,763.4
822,3.240269,52.0586,768.1,792.2,764
823,3.229868,51.8367,767.6,791.2,763
824,3.221619,51.1219,767,790.5,763.2
825,3.208018,50.8187,766,789.6,764.3
826,3.190817,50.2348,765.2,788.5,763
827,3.180707,50.2437,764.6,787.8,761.8
828,3.173485,50.4505,764.1,786.8,760.5
829,3.165561,50.294,763.6,785.9,759.8
830,3.156568,50.1177,763.3,784.9,759.5
831,3.146749,49.9494,762.8,784.2,758.5
832,3.142607,49.8642,762.3,783.5,758.4
833,3.129267,50.2524,762,782.5,757.9
834,3.10873,50.644,761,781.6,757.1
835,3.086762,49.6105,760.2,780.8,756.1
836,3.072573,49.041,759.3,780,755.5
837,3.058985,49.0296,758.8,779.2,755.3
838,3.044171,49.2499,757.9,778.4,754.6
839,3.028363,49.6481,757.3,777.7,752.6
840,3.012933,49.217,756.9,777.2,751.8
841,2.998844,48.6718,756.4,776.1,752.6
842,2.984078,48.5979,755.8,775.6,752.5
843,2.974627,47.9027,755.1,774.9,752.2
844,2.966036,47.8415,754.6,774.4,750.9
845,2.95862,47.1697,754.2,773.3,750.4
846,2.948252,46.9347,753.7,772.5,751
847,2.950746,46.8763,753,771.8,751.5
848,2.953578,46.8167,752.5,771.6,751.8
849,2.946094,46.7528,752.2,770.8,753.1
850,2.934017,47.2116,751.9,770.4,753.3
851,2.924704,47.9471,751.9,770.2,752.5
852,2.915044,47.3628,751.7,770,751.9
853,2.903438,46.9115,751.4,769.6,751.2
854,2.893255,46.642,750.8,769.1,750.1
855,2.877718,46.7233,750.6,768.5,749.6
856,2.853237,46.9063,750.5,767.9,749.9
857,2.828227,47.196,750.4,767.3,750.3
858,2.814315,47.2021,750.1,766.7,749.3
859,2.802511,47.0063,749.9,766.4,748.5
860,2.788904,46.8886,749.6,765.8,748.1
861,2.777031,47.0918,749.3,765.4,747.1
862,2.765159,47.2019,749.2,764.8,746.3
863,2.747998,47.4874,748.9,764.3,746.4
864,2.725194,47.2241,748.7,763.7,747.4
865,2.715361,46.9726,748.5,763.3,748.1
866,2.720937,46.9412,748.4,763,748.1
867,2.723797,46.9036,748.6,763,748
868,2.716749,47.1595,748.8,762.8,747.8
869,2.704667,47.5206,748.9,762.5,747.6
870,2.695658,46.8593,749.1,762.5,747
871,2.694,46.2367,749.2,761.9,746.5
872,2.692408,45.4212,749.1,761.4,746.5
873,2.685619,45.5638,748.6,760.9,745.9
874,2.677704,45.9148,748,760.4,744.9
875,2.661089,45.2994,747.7,760.1,744.3
876,2.607446,44.859,747.2,759.6,744.1
877,2.591634,45.1985,747,759.1,742.9
878,2.624961,45.3882,746.7,758.6,742.3
879,2.628459,45.6698,746.5,758.4,741.9
880,2.604802,45.8842,746.7,758.3,741.7
881,2.581519,46.0082,746.8,757.8,740.9
882,2.57461,45.9028,746.7,757.4,740.5
883,2.574,45.8006,746.3,757.1,739.9
884,2.574,44.9009,745.9,756.9,739.5
885,2.574,44.6636,745.2,756.7,739.9
886,2.563772,45.1617,745,756,741.9
887,2.542373,44.8842,745,755.7,742.6
888,2.540936,44.6259,744.8,755.4,742.9
889,2.537172,44.2611,744.5,755.2,742.8
890,2.520063,44.5849,744.4,755,742.4
891,2.506462,44.7359,744.2,754.7,742.4
892,2.485678,45.0626,744.1,754.5,743.1
893,2.465524,45.296,744.1,754.2,742.7
894,2.453068,45.0357,744,754.1,742.8
895,2.441533,44.881,744,753.6,742.6
896,2.435062,45.0757,744.2,753.5,743.3
897,2.42769,45.3101,743.9,753.2,742.5
898,2.415722,44.8464,743.4,753.1,742.1
899,2.405867,44.3808,742.8,752.9,743.1
900,2.396856,44.1247,742.4,752.6,743.6
901,2.396591,43.9636,742.1,752.5,742.6
902,2.402578,43.8404,742,752.2,742.5
903,2.399284,44.1629,741.8,752.1,742.1
904,2.378386,44.6136,741.4,751.5,741.7
905,2.358842,44.5256,741.1,751.3,741
906,2.346334,43.4532,740.7,751.2,740.4
907,2.344,43.3815,740.6,750.8,741.3
908,2.344,43.3772,740.6,750.8,741.9
909,2.337759,42.9619,740.4,750.7,742.3
910,2.315912,42.8312,739.8,750.5,741.8
911,2.299018,42.5233,739.6,750.3,741.2
912,2.29443,42.3309,739.4,750,741.2
913,2.294,42.3251,739.2,749.8,741.5
914,2.286457,42.4159,739.1,749.5,741.6
915,2.27695,42.738,739,749.3,741.5
916,2.260017,42.8753,739,749,741.9
917,2.239414,42.8503,739.3,748.7,741.5
918,2.226293,42.6225,739.5,748.6,739.8
919,2.226378,42.4781,739.7,748.3,739
920,2.232562,42.5924,740.1,748,739.4
921,2.225237,42.9096,739.9,747.8,739.3
922,2.209846,42.7817,739.8,747.9,739.4
923,2.196778,42.3993,739.5,747.7,739.3
924,2.183048,41.8117,739.6,747.6,739.1
925,2.165051,41.6993,739.5,747.3,739.7
926,2.150748,41.8394,739.2,747.2,740.9
927,2.143257,42.0776,738.8,747.1,741
928,2.131707,41.9851,738.5,746.7,740.2
929,2.111017,41.5964,738.2,746.7,738.8
930,2.088579,41.465,738,746.5,738.6
931,2.074441,41.8099,737.6,746.3,738.1
932,2.065712,42.0113,737.2,746.1,737.4
933,2.058508,42.2999,736.9,745.9,737.8
934,2.050714,42.2397,736.4,745.7,738.2
935,2.039698,42.0241,736.1,745.6,738.9
936,2.029146,41.9459,736,745.6,739.5
937,2.02459,41.8666,736.1,745.4,739.1
938,2.022408,41.445,736.5,745.2,738.5
939,2.010887,41.5143,736.7,745.1,737.6
940,1.990497,41.3628,736.8,744.9,738.1
941,1.976438,41.1789,736.7,744.9,737.8
942,1.973201,41.1391,736.6,744.6,736.5
943,1.959813,41.262,736.6,744.5,736.1
944,1.941121,40.5976,736.3,744.6,736.1
945,1.934637,40.5786,735.9,744.5,736.5
946,1.932421,40.3215,735.8,744.2,736.2
947,1.924988,40.0304,735.9,744.1,735.8
948,1.915895,39.9366,736,744.1,736.3
949,1.912411,40.9607,736.3,744,737.7
950,1.90245,41.4307,736.6,743.8,737.3
951,1.88273,40.9461,736.8,743.7,737.7
952,1.857627,40.4643,736.8,743.6,737.3
953,1.836304,40.2582,736.8,743.5,737.2
954,1.825707,40.3425,736.3,743.1,736.8
955,1.819269,40.4856,736,743,736.3
956,1.810219,40.6257,735.5,742.6,735.7
957,1.804846,40.6711,735.1,742.5,735.1
958,1.797554,40.4782,734.8,742.7,734.2
959,1.789617,41.1297,734.6,742.5,734
960,1.79039,41.4879,734.8,742.1,734.1
961,1.79319,39.4912,735,742,734.3
962,1.787196,36.9888,735.2,742,733.6
963,1.777168,35.1861,735.3,741.9,733.6
964,1.762411,34.0787,735.1,741.8,733
965,1.755057,32.8955,734.9,741.5,733.9
966,1.754,32.6628,734.8,741.3,734.8
967,1.750833,32.9293,734.6,741.5,734.9
968,1.733335,32.5335,734.5,741.4,734.6
969,1.721052,32.8182,734.2,741.4,734.5
970,1.715017,33.5361,733.8,741.2,734.1
971,1.709357,35.0033,733.6,741.3,734.6
972,1.704876,36.5628,733.5,741.1,734.4
973,1.695356,37.8172,733.8,741.1,734
974,1.679611,38.7645,734,741.1,734.1
975,1.659435,38.8077,734.2,740.8,734.3
976,1.638398,38.6947,734,740.7,733.1
977,1.618148,38.6873,734.1,740.7,732.9
978,1.603681,38.7543,734,740.6,733.4
979,1.591453,39.1976,733.8,740.3,733.9
980,1.583422,40.1328,733.6,740.1,734.3
981,1.574926,40.6793,733.7,739.7,733.8
982,1.56605,41.5673,733.6,739.6,733.7
983,1.564,42.0909,733.3,739.7,733.1
984,1.564,42.8521,733.1,739.7,732.6
985,1.564,43.1612,733.1,739.4,732.7
986,1.558815,43.1889,733.2,739.3,732.2
987,1.554635,42.4918,733.3,739.2,732
988,1.554,42.0482,733.3,739,731.7
989,1.54445,41.8656,733.5,739,731.9
990,1.53101,41.8947,733.6,738.9,731.6
991,1.519517,42.3078,733.9,738.9,731.8
992,1.513152,41.5111,733.9,738.7,733.3
993,1.5026,40.4277,733.5,738.7,734.5
994,1.489759,39.333,733.2,738.7,735.5
995,1.481473,38.4511,732.8,738.8,734.5
996,1.475251,38.5231,732.5,738.8,733.2
997,1.474,38.134,732.1,738.5,733.2
998,1.474,37.1115,732,738.7,732.3
999,1.474,35.3862,731.8,738.7,732.8
1000,1.47086,33.7306,731.8,738.6,731.9