File: PMMA/Calibration_Data/UQ/UQ_TGA_N2_10K_3.csv
Time,Temperature,Mass
[s],[K],[mg]
0,316.816,5.5945
6,317.816,5.5946
12,318.816,5.5943
18,319.816,5.5946
24,320.816,5.5967
30,321.816,5.5987
36,322.816,5.5986
42,323.816,5.5996
48,324.816,5.5995
54,325.816,5.5998
60,326.816,5.5998
66,327.816,5.5993
72,328.816,5.5993
78,329.816,5.5989
84,330.816,5.5987
90,331.816,5.5988
96,332.816,5.5992
102,333.816,5.5995
108,334.816,5.5999
114,335.816,5.5985
120,336.816,5.5973
126,337.816,5.5965
132,338.816,5.5957
138,339.816,5.5955
144,340.816,5.5945
150,341.816,5.5943
156,342.816,5.5947
162,343.816,5.5962
168,344.816,5.5968
174,345.816,5.5979
180,346.816,5.5986
186,347.816,5.5988
192,348.816,5.5984
198,349.816,5.5976
204,350.816,5.5969
210,351.816,5.5963
216,352.816,5.5957
222,353.816,5.5956
228,354.816,5.5956
234,355.816,5.5947
240,356.816,5.5942
246,357.816,5.5942
252,358.816,5.5938
258,359.816,5.5945
264,360.816,5.5951
270,361.816,5.5944
276,362.816,5.5941
282,363.816,5.5945
288,364.816,5.5942
294,365.816,5.5929
300,366.816,5.5917
306,367.816,5.5922
312,368.816,5.5922
318,369.816,5.5926
324,370.816,5.5929
330,371.816,5.5938
336,372.816,5.594
342,373.816,5.5924
348,374.816,5.5918
354,375.816,5.5911
360,376.816,5.5902
366,377.816,5.5897
372,378.816,5.5908
378,379.816,5.5912
384,380.816,5.5906
390,381.816,5.5893
396,382.816,5.5873
402,383.816,5.5861
408,384.816,5.5867
414,385.816,5.5874
420,386.816,5.5883
426,387.816,5.5889
432,388.816,5.5882
438,389.816,5.5884
444,390.816,5.5891
450,391.816,5.5891
456,392.816,5.5882
462,393.816,5.587
468,394.816,5.5871
474,395.816,5.5871
480,396.816,5.5864
486,397.816,5.5853
492,398.816,5.5841
498,399.816,5.583
504,400.816,5.5822
510,401.816,5.5816
516,402.816,5.5802
522,403.816,5.5806
528,404.816,5.5807
534,405.816,5.5807
540,406.816,5.5802
546,407.816,5.5791
552,408.816,5.5791
558,409.816,5.5783
564,410.816,5.577
570,411.816,5.5766
576,412.816,5.5764
582,413.816,5.5748
588,414.816,5.5738
594,415.816,5.5731
600,416.816,5.5728
606,417.816,5.572
612,418.816,5.5711
618,419.816,5.5706
624,420.816,5.57
630,421.816,5.5695
636,422.816,5.5674
642,423.816,5.5672
648,424.816,5.5669
654,425.816,5.5652
660,426.816,5.5627
666,427.816,5.5617
672,428.816,5.5614
678,429.816,5.5612
684,430.816,5.5606
690,431.816,5.5596
696,432.816,5.5577
702,433.816,5.5555
708,434.816,5.5539
714,435.816,5.5528
720,436.816,5.5513
726,437.816,5.5494
732,438.816,5.5469
738,439.816,5.5436
744,440.816,5.5415
750,441.816,5.539
756,442.816,5.5363
762,443.816,5.5334
768,444.816,5.5295
774,445.816,5.524
780,446.816,5.5204
786,447.816,5.5169
792,448.816,5.5136
798,449.816,5.5105
804,450.816,5.507
810,451.816,5.5037
816,452.816,5.501
822,453.816,5.4981
828,454.816,5.4942
834,455.816,5.492
840,456.816,5.4878
846,457.816,5.4838
852,458.816,5.4792
858,459.816,5.4763
864,460.816,5.4732
870,461.816,5.4699
876,462.816,5.4674
882,463.816,5.4656
888,464.816,5.4627
894,465.816,5.4601
900,466.816,5.4574
906,467.816,5.4542
912,468.816,5.4503
918,469.816,5.447
924,470.816,5.443
930,471.816,5.4407
936,472.816,5.438
942,473.816,5.4338
948,474.816,5.4312
954,475.816,5.4272
960,476.816,5.4245
966,477.816,5.4217
972,478.816,5.419
978,479.816,5.4168
984,480.816,5.4151
990,481.816,5.4122
996,482.816,5.4089
1002,483.816,5.4077
1008,484.816,5.4058
1014,485.816,5.4037
1020,486.816,5.4016
1026,487.816,5.3999
1032,488.816,5.3991
1038,489.816,5.3973
1044,490.816,5.3963
1050,491.816,5.3949
1056,492.816,5.3938
1062,493.816,5.3928
1068,494.816,5.3915
1074,495.816,5.39
1080,496.816,5.3896
1086,497.816,5.3887
1092,498.816,5.3872
1098,499.816,5.3858
1104,500.816,5.3848
1110,501.816,5.3843
1116,502.816,5.3824
1122,503.816,5.3808
1128,504.816,5.3789
1134,505.816,5.3779
1140,506.816,5.3773
1146,507.816,5.3772
1152,508.816,5.3768
1158,509.816,5.3764
1164,510.816,5.376
1170,511.816,5.3756
1176,512.816,5.3751
1182,513.816,5.3749
1188,514.816,5.3746
1194,515.816,5.373
1200,516.816,5.3721
1206,517.816,5.3709
1212,518.816,5.3703
1218,519.816,5.37
1224,520.816,5.3683
1230,521.816,5.3677
1236,522.816,5.367
1242,523.816,5.3658
1248,524.816,5.3643
1254,525.816,5.3633
1260,526.816,5.3625
1266,527.816,5.361
1272,528.816,5.3598
1278,529.816,5.3577
1284,530.816,5.356
1290,531.816,5.3539
1296,532.816,5.3515
1302,533.816,5.3502
1308,534.816,5.3476
1314,535.816,5.3455
1320,536.816,5.342
1326,537.816,5.3397
1332,538.816,5.3375
1338,539.816,5.3352
1344,540.816,5.3324
1350,541.816,5.3301
1356,542.816,5.3271
1362,543.816,5.3243
1368,544.816,5.321
1374,545.816,5.3179
1380,546.816,5.315
1386,547.816,5.3116
1392,548.816,5.3083
1398,549.816,5.3032
1404,550.816,5.2986
1410,551.816,5.2938
1416,552.816,5.2888
1422,553.816,5.2827
1428,554.816,5.2775
1434,555.816,5.2719
1440,556.816,5.2667
1446,557.816,5.2612
1452,558.816,5.2556
1458,559.816,5.2504
1464,560.816,5.2448
1470,561.816,5.2386
1476,562.816,5.2326
1482,563.816,5.2256
1488,564.816,5.219
1494,565.816,5.2119
1500,566.816,5.2036
1506,567.816,5.1969
1512,568.816,5.1899
1518,569.816,5.1823
1524,570.816,5.1753
1530,571.816,5.1683
1536,572.816,5.1609
1542,573.816,5.1516
1548,574.816,5.1426
1554,575.816,5.1354
1560,576.816,5.1262
1566,577.816,5.1169
1572,578.816,5.1074
1578,579.816,5.0958
1584,580.816,5.0868
1590,581.816,5.0757
1596,582.816,5.0651
1602,583.816,5.0534
1608,584.816,5.0398
1614,585.816,5.0278
1620,586.816,5.0147
1626,587.816,5.0012
1632,588.816,4.9861
1638,589.816,4.9701
1644,590.816,4.9523
1650,591.816,4.9352
1656,592.816,4.915
1662,593.816,4.8959
1668,594.816,4.875
1674,595.816,4.8542
1680,596.816,4.8331
1686,597.816,4.8098
1692,598.816,4.7848
1698,599.816,4.7599
1704,600.816,4.7319
1710,601.816,4.6932
1716,602.816,4.6593
1722,603.816,4.6283
1728,604.816,4.5904
1734,605.816,4.5534
1740,606.816,4.5142
1746,607.816,4.4724
1752,608.816,4.4291
1758,609.816,4.3848
1764,610.816,4.3388
1770,611.816,4.2902
1776,612.816,4.2377
1782,613.816,4.1827
1788,614.816,4.1263
1794,615.816,4.0667
1800,616.816,4.0056
1806,617.816,3.9415
1812,618.816,3.8745
1818,619.816,3.8079
1824,620.816,3.739
1830,621.816,3.6658
1836,622.816,3.5925
1842,623.816,3.5145
1848,624.816,3.4373
1854,625.816,3.3586
1860,626.816,3.2784
1866,627.816,3.1977
1872,628.816,3.1145
1878,629.816,3.029
1884,630.816,2.942
1890,631.816,2.8573
1896,632.816,2.7691
1902,633.816,2.6813
1908,634.816,2.5898
1914,635.816,2.4987
1920,636.816,2.4077
1926,637.816,2.3138
1932,638.816,2.2229
1938,639.816,2.1281
1944,640.816,2.0347
1950,641.816,1.9416
1956,642.816,1.848
1962,643.816,1.7529
1968,644.816,1.6608
1974,645.816,1.5771
1980,646.816,1.478
1986,647.816,1.3949
1992,648.816,1.314
1998,649.816,1.2244
2004,650.816,1.1449
2010,651.816,1.0681
2016,652.816,0.9938
2022,653.816,0.9257
2028,654.816,0.8574
2034,655.816,0.7941
2040,656.816,0.7342
2046,657.816,0.6795
2052,658.816,0.6283
2058,659.816,0.58
2064,660.816,0.5324
2070,661.816,0.4912
2076,662.816,0.4526
2082,663.816,0.4149
2088,664.816,0.3823
2094,665.816,0.3553
2100,666.816,0.33
2106,667.816,0.3035
2112,668.816,0.278
2118,669.816,0.2557
2124,670.816,0.2336
2130,671.816,0.2148
2136,672.816,0.1986
2142,673.816,0.1839
2148,674.816,0.1696
2154,675.816,0.1564
2160,676.816,0.1445
2166,677.816,0.1342
2172,678.816,0.123
2178,679.816,0.1151
2184,680.816,0.1078
2190,681.816,0.1002
2196,682.816,0.0931
2202,683.816,0.0859
2208,684.816,0.0814
2214,685.816,0.0757
2220,686.816,0.0708
2226,687.816,0.0657
2232,688.816,0.0616
2238,689.816,0.0573
2244,690.816,0.0543
2250,691.816,0.0512
2256,692.816,0.049
2262,693.816,0.0439
2268,694.816,0.0417
2274,695.816,0.04
2280,696.816,0.0383
2286,697.816,0.0355
2292,698.816,0.0336
2298,699.816,0.0323
2304,700.816,0.0316
2310,701.816,0.0304
2316,702.816,0.0297
2322,703.816,0.0292
2328,704.816,0.0292
2334,705.816,0.0281
2340,706.816,0.0274
2346,707.816,0.0267
2352,708.816,0.0266
2358,709.816,0.0266
2364,710.816,0.0266
2370,711.816,0.0266
2376,712.816,0.0266
2382,713.816,0.0266
2388,714.816,0.0266
2394,715.816,0.0266
2400,716.816,0.0266
2406,717.816,0.0266
2412,718.816,0.0266
2418,719.816,0.0266
2424,720.816,0.0266
2430,721.816,0.0266
2436,722.816,0.0266
2442,723.816,0.0266
2448,724.816,0.0266
2454,725.816,0.0265
2460,726.816,0.0264
2466,727.816,0.0263
2472,728.816,0.0262
2478,729.816,0.0261
2484,730.816,0.026
2490,731.816,0.0258
2496,732.816,0.0257
2502,733.816,0.0261
2508,734.816,0.0262
2514,735.816,0.0263
2520,736.816,0.0265
2526,737.816,0.0266
2532,738.816,0.0267
2538,739.816,0.0268
2544,740.816,0.0269
2550,741.816,0.027
2556,742.816,0.0271
2562,743.816,0.0271
2568,744.816,0.0271
2574,745.816,0.0271
2580,746.816,0.0271
2586,747.816,0.0271
2592,748.816,0.0271
2598,749.816,0.0271
2604,750.816,0.0271
2610,751.816,0.0271
2616,752.816,0.0271
2622,753.816,0.0271
2628,754.816,0.0271
2634,755.816,0.0271
2640,756.816,0.0271
2646,757.816,0.0271
2652,758.816,0.0271
2658,759.816,0.0271
2664,760.816,0.0271
2670,761.816,0.0271
2676,762.816,0.027
2682,763.816,0.027
2688,764.816,0.027
2694,765.816,0.0269
2700,766.816,0.0254
2706,767.816,0.0253
2712,768.816,0.0251
2718,769.816,0.0251
2724,770.816,0.025
2730,771.816,0.0249
2736,772.816,0.0247
2742,773.816,0.0246
2748,774.816,0.0246
2754,775.816,0.0235
2760,776.816,0.0233
2766,777.816,0.0232
2772,778.816,0.023
2778,779.816,0.0229
2784,780.816,0.0228
2790,781.816,0.0227
2796,782.816,0.0225
2802,783.816,0.0224
2808,784.816,0.0225
2814,785.816,0.0228
2820,786.816,0.0229
2826,787.816,0.0229
2832,788.816,0.0228
2838,789.816,0.0229
2844,790.816,0.0228
2850,791.816,0.0229
2856,792.816,0.0218
2862,793.816,0.0215
2868,794.816,0.0212
2874,795.816,0.0209
2880,796.816,0.0204
2886,797.816,0.0202
2892,798.816,0.0198
2898,799.816,0.0195
2904,800.816,0.0195
2910,801.816,0.0193
2916,802.816,0.0191
2922,803.816,0.0188
2928,804.816,0.0186
2934,805.816,0.0183
2940,806.816,0.018
2946,807.816,0.0177
2952,808.816,0.0174
2958,809.816,0.0172
2964,810.816,0.0169
2970,811.816,0.0169
2976,812.816,0.0174
2982,813.816,0.0179
2988,814.816,0.0192
2994,815.816,0.0199
3000,816.816,0.0199
3006,817.816,0.0199
3012,818.816,0.0193
3018,819.816,0.0187
3024,820.816,0.0185
3030,821.816,0.0182
3036,822.816,0.018
3042,823.816,0.0179
3048,824.816,0.0179
3054,825.816,0.0189
3060,826.816,0.0191
3066,827.816,0.0193
3072,828.816,0.0194
3078,829.816,0.0201
3084,830.816,0.0204
3090,831.816,0.0205
3096,832.816,0.0209
3102,833.816,0.021
3108,834.816,0.021
3114,835.816,0.0192
3120,836.816,0.0187
3126,837.816,0.0183
3132,838.816,0.0187
3138,839.816,0.019
3144,840.816,0.0195
3150,841.816,0.0199
3156,842.816,0.0201
3162,843.816,0.0204
3168,844.816,0.0207
3174,845.816,0.021
3180,846.816,0.0212
3186,847.816,0.0214
3192,848.816,0.0215
3198,849.816,0.0215
3204,850.816,0.0215
3210,851.816,0.0215
3216,852.816,0.0215
3222,853.816,0.0216
3228,854.816,0.0217
3234,855.816,0.0219
3240,856.816,0.022
3246,857.816,0.0221
3252,858.816,0.0222
3258,859.816,0.0223
3264,860.816,0.0224
3270,861.816,0.0225
3276,862.816,0.0209
3282,863.816,0.0209
3288,864.816,0.0209
3294,865.816,0.0197
3300,866.816,0.0193
3306,867.816,0.019
3312,868.816,0.0185
3318,869.816,0.0182
3324,870.816,0.0181
3330,871.816,0.0182
3336,872.816,0.0183
3342,873.816,0.0184
3348,874.816,0.0184
3354,875.816,0.0184
3360,876.816,0.0184
3366,877.816,0.0184
3372,878.816,0.0184
3378,879.816,0.0184
3384,880.816,0.0184
3390,881.816,0.0168
3396,882.816,0.0167
3402,883.816,0.0165
3408,884.816,0.0164
3414,885.816,0.0163
3420,886.816,0.0165
3426,887.816,0.0168
3432,888.816,0.0171
3438,889.816,0.0172
3444,890.816,0.0173
3450,891.816,0.0172
3456,892.816,0.0172
3462,893.816,0.0171
3468,894.816,0.0171
3474,895.816,0.017
3480,896.816,0.017
3486,897.816,0.0169
3492,898.816,0.0168
3498,899.816,0.0164
3504,900.816,0.0163
3510,901.816,0.0151
3516,902.816,0.0147
3522,903.816,0.0148
3528,904.816,0.0148
3534,905.816,0.0149
3540,906.816,0.015
3546,907.816,0.0151
3552,908.816,0.0152
3558,909.816,0.0152
3564,910.816,0.0153
3570,911.816,0.0153
3576,912.816,0.0153
3582,913.816,0.0153
3588,914.816,0.0153
3594,915.816,0.0153
3600,916.816,0.014
3606,917.816,0.0137
3612,918.816,0.0135
3618,919.816,0.0136
3624,920.816,0.014
3630,921.816,0.0143
3636,922.816,0.0147
3642,923.816,0.015
3648,924.816,0.0151
3654,925.816,0.015
3660,926.816,0.015
3666,927.816,0.0149
3672,928.816,0.0149
3678,929.816,0.0143
3684,930.816,0.0142
3690,931.816,0.014
3696,932.816,0.0139
3702,933.816,0.0138
3708,934.816,0.0137
3714,935.816,0.0136
3720,936.816,0.0132
3726,937.816,0.013
3732,938.816,0.0129
3738,939.816,0.0127
3744,940.816,0.0127
3750,941.816,0.0133
3756,942.816,0.0132
3762,943.816,0.0132
3768,944.816,0.0128
3774,945.816,0.0124
3780,946.816,0.0122
3786,947.816,0.0118
3792,948.816,0.0117
3798,949.816,0.0117
3804,950.816,0.0117
3810,951.816,0.0117
3816,952.816,0.0117
3822,953.816,0.0117
3828,954.816,0.0117
3834,955.816,0.0117
3840,956.816,0.0117
3846,957.816,0.0117
3852,958.816,0.0117
3858,959.816,0.0117
3864,960.816,0.0117
3870,961.816,0.0116
3876,962.816,0.0115
3882,963.816,0.0114
3888,964.816,0.0113
3894,965.816,0.0112
3900,966.816,0.0111
3906,967.816,0.011
3912,968.816,0.0104
3918,969.816,0.0096
3924,970.816,0.0093
3930,971.816,0.0092
3936,972.816,0.0089
3942,973.816,0.0088
3948,974.816,0.0085
3954,975.816,0.0078
3960,976.816,0.0076
3966,977.816,0.0073
3972,978.816,0.0071
3978,979.816,0.0068
3984,980.816,0.0065
3990,981.816,0.0063
3996,982.816,0.0066
4002,983.816,0.0071
4008,984.816,0.0071
4014,985.816,0.0071
4020,986.816,0.0076
4026,987.816,0.0079
4032,988.816,0.0082
4038,989.816,0.0085
4044,990.816,0.0087
4050,991.816,0.0087
4056,992.816,0.007
4062,993.816,0.0067
4068,994.816,0.0062
4074,995.816,0.0058
4080,996.816,0.0053
4086,997.816,0.0062
4092,998.816,0.0064
4098,999.816,0.0068
4104,1000.816,0.0072