File: Non-charring/PMMA/NIST/NIST_TGA_10kpm_1.csv
Time,Temperature,Mass
s,K,mg
0,297.798,4.198
18,297.951,4.19715
36,298.082,4.1922
54,298.193,4.1879
72,298.282,4.17935
90,298.352,4.1771
108,298.412,4.1795
126,298.457,4.17745
144,298.5,4.17342
162,298.533,4.17162
180,298.568,4.17025
198,298.6,4.16857
216,298.637,4.16712
234,298.672,4.16677
252,298.71,4.1652
270,298.749,4.16437
288,298.793,4.1634
306,298.836,4.16147
324,298.883,4.16115
342,298.93,4.1618
360,298.978,4.15973
378,299.025,4.1585
396,299.079,4.15875
414,299.137,4.15917
432,299.197,4.1595
450,299.251,4.15865
468,299.305,4.1586
486,299.359,4.15655
504,299.413,4.15823
522,299.468,4.15795
540,299.518,4.15748
558,299.57,4.1591
576,299.62,4.15752
594,299.667,4.15878
612,299.714,4.159
630,299.758,4.16002
648,299.803,4.15907
666,299.846,4.15862
684,299.891,4.162
702,299.93,4.1618
720,299.966,4.15973
738,299.999,4.16263
756,300.03,4.1621
774,300.06,4.1612
792,300.088,4.1604
810,300.113,4.1616
828,300.138,4.16287
846,300.161,4.163
864,300.179,4.16202
882,300.196,4.16182
900,300.212,4.16215
918,300.226,4.1623
936,300.238,4.164
954,300.245,4.16415
972,300.254,4.16245
990,300.263,4.1634
1008,300.27,4.16337
1026,300.277,4.1644
1044,300.283,4.16185
1062,300.286,4.16767
1080,300.286,4.16472
1098,300.289,4.16622
1116,300.287,4.1662
1134,300.285,4.1655
1152,300.284,4.16403
1170,300.282,4.1686
1188,300.282,4.16567
1206,300.278,4.16643
1224,300.277,4.16313
1242,300.272,4.16168
1260,300.27,4.16807
1278,300.266,4.1661
1296,300.26,4.16495
1314,300.252,4.16575
1332,300.248,4.16703
1350,300.249,4.1669
1368,300.247,4.16608
1386,300.241,4.16508
1404,300.236,4.167
1422,300.231,4.16582
1440,300.224,4.16472
1458,300.217,4.16567
1476,300.221,4.16748
1494,300.2042,4.16753
1502.25,300.199,4.16777
1505.85,300.206,4.16735
1509.45,300.212,4.16738
1513.05,300.2151,4.1676
1516.65,300.219,4.1669
1520.25,300.221,4.16603
1523.85,300.228,4.16525
1527.45,300.237,4.16525
1531.05,300.254,4.16585
1534.65,300.2781,4.16577
1538.25,300.303,4.16505
1541.85,300.333,4.16553
1545.45,300.365,4.16563
1549.05,300.404,4.16672
1552.65,300.449,4.1653
1556.25,300.499,4.16513
1559.85,300.557,4.167
1563.45,300.624,4.1678
1567.05,300.698,4.16617
1570.65,300.777,4.1662
1574.25,300.867,4.16613
1577.85,300.963,4.16558
1581.45,301.069,4.16565
1585.05,301.183,4.16635
1588.65,301.303,4.1662
1592.25,301.433,4.16485
1595.85,301.573,4.16515
1599.45,301.722,4.1647
1603.05,301.878,4.16487
1606.65,302.048,4.16622
1610.25,302.2279,4.1671
1613.85,302.417,4.16615
1617.45,302.614,4.16565
1621.05,302.824,4.16515
1624.65,303.044,4.16593
1628.25,303.276,4.16555
1631.85,303.521,4.16645
1635.45,303.774,4.16682
1639.05,304.041,4.1663
1642.65,304.317,4.16648
1646.25,304.606,4.1668
1649.85,304.907,4.1665
1653.45,305.2219,4.16665
1657.05,305.546,4.16625
1660.65,305.884,4.16537
1664.25,306.235,4.16535
1667.85,306.596,4.16535
1671.45,306.97,4.16598
1675.05,307.352,4.1671
1678.65,307.749,4.16655
1682.25,308.154,4.16662
1685.85,308.575,4.16543
1689.45,309.004,4.16477
1693.05,309.449,4.16548
1696.65,309.903,4.16505
1700.25,310.369,4.16392
1703.85,310.846,4.16268
1707.45,311.334,4.1631
1711.05,311.8319,4.16345
1714.65,312.344,4.16323
1718.25,312.868,4.16345
1721.85,313.401,4.1643
1725.45,313.942,4.16408
1729.05,314.495,4.16403
1732.65,315.0559,4.16522
1736.25,315.6319,4.16465
1739.85,316.213,4.1647
1743.45,316.804,4.16555
1747.05,317.406,4.16522
1750.65,318.015,4.16555
1754.25,318.636,4.1657
1757.85,319.2619,4.16653
1761.45,319.8969,4.16577
1765.05,320.5371,4.16363
1768.65,321.186,4.16368
1772.25,321.842,4.16413
1775.85,322.507,4.16403
1779.45,323.176,4.16553
1783.05,323.8529,4.1659
1786.65,324.538,4.16582
1790.25,325.227,4.16598
1793.85,325.9249,4.16648
1797.45,326.625,4.16622
1801.05,327.329,4.16525
1804.65,328.042,4.1652
1808.25,328.756,4.1645
1811.85,329.482,4.16422
1815.45,330.21,4.16485
1819.05,330.942,4.16442
1822.65,331.678,4.1642
1826.25,332.42,4.16325
1829.85,333.164,4.16175
1833.45,333.911,4.16192
1837.05,334.66,4.16263
1840.65,335.414,4.16287
1844.25,336.171,4.16258
1847.85,336.929,4.16335
1851.45,337.691,4.16487
1855.05,338.455,4.1661
1858.65,339.225,4.16703
1862.25,339.995,4.1658
1865.85,340.765,4.1659
1869.45,341.538,4.16748
1873.05,342.313,4.16893
1876.65,343.089,4.16933
1880.25,343.866,4.16848
1883.85,344.6439,4.16688
1887.45,345.422,4.16605
1891.05,346.2,4.16577
1894.65,346.982,4.1657
1898.25,347.763,4.16513
1901.85,348.547,4.16537
1905.45,349.331,4.16137
1909.05,350.117,4.16258
1912.65,350.904,4.16935
1916.25,351.69,4.1697
1919.85,352.478,4.16812
1923.45,353.267,4.16688
1927.05,354.054,4.16598
1930.65,354.8449,4.1658
1934.25,355.636,4.1661
1937.85,356.429,4.16648
1941.45,357.222,4.16772
1945.05,358.017,4.16798
1948.65,358.812,4.16732
1952.25,359.608,4.16638
1955.85,360.405,4.1661
1959.45,361.201,4.1648
1963.05,362,4.16323
1966.65,362.7979,4.16365
1970.25,363.596,4.1642
1973.85,364.3949,4.16392
1977.45,365.192,4.1636
1981.05,365.991,4.16282
1984.65,366.79,4.16315
1988.25,367.587,4.16387
1991.85,368.385,4.16442
1995.45,369.182,4.1647
1999.05,369.976,4.16435
2002.65,370.77,4.16495
2006.25,371.565,4.16537
2009.85,372.358,4.16472
2013.45,373.153,4.16463
2017.05,373.9459,4.1642
2020.65,374.739,4.16358
2024.25,375.53,4.16413
2027.85,376.3189,4.1647
2031.45,377.105,4.16537
2035.05,377.891,4.16627
2038.65,378.676,4.1668
2042.25,379.459,4.1667
2045.85,380.242,4.16605
2049.45,381.025,4.16632
2053.05,381.805,4.16722
2056.65,382.583,4.1656
2060.25,383.359,4.16345
2063.85,384.131,4.16427
2067.45,384.904,4.1649
2071.05,385.676,4.1643
2074.65,386.446,4.16608
2078.25,387.218,4.16745
2081.85,387.983,4.16625
2085.45,388.748,4.1646
2089.05,389.512,4.16405
2092.65,390.275,4.16413
2096.25,391.038,4.16168
2099.85,391.797,4.16002
2103.45,392.558,4.1653
2107.05,393.311,4.16585
2110.65,394.065,4.1655
2114.25,394.819,4.16603
2117.85,395.571,4.16645
2121.45,396.322,4.16632
2125.05,397.0699,4.1666
2128.65,397.8209,4.1668
2132.25,398.571,4.1668
2135.85,399.317,4.16643
2139.45,400.062,4.1663
2143.05,400.803,4.16627
2146.65,401.543,4.16587
2150.25,402.284,4.1655
2153.85,403.025,4.16545
2157.45,403.762,4.16525
2161.05,404.501,4.16482
2164.65,405.237,4.16513
2168.25,405.9709,4.16572
2171.85,406.703,4.16498
2175.45,407.436,4.16347
2179.05,408.167,4.16382
2182.65,408.896,4.16337
2186.25,409.621,4.163
2189.85,410.347,4.16415
2193.45,411.069,4.16603
2197.05,411.791,4.16553
2200.65,412.51,4.16335
2204.25,413.23,4.16325
2207.85,413.947,4.16522
2211.45,414.663,4.1642
2215.05,415.379,4.163
2218.65,416.092,4.16297
2222.25,416.803,4.16318
2225.85,417.514,4.1633
2229.45,418.2211,4.16382
2233.05,418.93,4.16453
2236.65,419.636,4.16508
2240.25,420.339,4.16525
2243.85,421.039,4.16503
2247.45,421.736,4.16482
2251.05,422.434,4.16453
2254.65,423.131,4.16418
2258.25,423.828,4.16403
2261.85,424.522,4.16415
2265.45,425.214,4.16445
2269.05,425.905,4.16422
2272.65,426.592,4.16353
2276.25,427.276,4.16323
2279.85,427.96,4.16327
2283.45,428.643,4.16325
2287.05,429.324,4.1634
2290.65,430.003,4.16297
2294.25,430.679,4.16185
2297.85,431.3529,4.16133
2301.45,432.0261,4.15847
2305.05,432.697,4.1665
2308.65,433.364,4.1655
2312.25,434.035,4.16472
2315.85,434.703,4.16475
2319.45,435.372,4.16432
2323.05,436.038,4.16263
2326.65,436.701,4.1616
2330.25,437.363,4.16163
2333.85,438.023,4.16275
2337.45,438.682,4.1624
2341.05,439.338,4.1595
2344.65,439.994,4.16192
2348.25,440.65,4.1616
2351.85,441.305,4.15992
2355.45,441.957,4.1591
2359.05,442.6081,4.15928
2362.65,443.256,4.16033
2366.25,443.903,4.1611
2369.85,444.549,4.16045
2373.45,445.194,4.15983
2377.05,445.84,4.16042
2380.65,446.485,4.16063
2384.25,447.128,4.16012
2387.85,447.767,4.15902
2391.45,448.407,4.15907
2395.05,449.047,4.16005
2398.65,449.687,4.15978
2402.25,450.325,4.15812
2405.85,450.959,4.157
2409.45,451.593,4.15622
2413.05,452.2251,4.1558
2416.65,452.862,4.15565
2420.25,453.494,4.15617
2423.85,454.127,4.15515
2427.45,454.757,4.15417
2431.05,455.387,4.15377
2434.65,456.02,4.1519
2438.25,456.6509,4.15082
2441.85,457.282,4.15177
2445.45,457.909,4.1523
2449.05,458.534,4.15187
2452.65,459.161,4.152
2456.25,459.787,4.1516
2459.85,460.412,4.15002
2463.45,461.036,4.1509
2467.05,461.659,4.152
2470.65,462.28,4.14723
2474.25,462.902,4.14348
2477.85,463.524,4.145525
2481.45,464.146,4.14723
2485.05,464.7669,4.14213
2488.65,465.386,4.1399
2492.25,466.001,4.14023
2495.85,466.618,4.14065
2499.45,467.233,4.1406
2503.05,467.8491,4.14015
2506.65,468.465,4.13797
2510.25,469.078,4.13588
2513.85,469.69,4.136
2517.45,470.303,4.13605
2521.05,470.916,4.13515
2524.65,471.53,4.13443
2528.25,472.143,4.13402
2531.85,472.755,4.13407
2535.45,473.364,4.1341
2539.05,473.972,4.13235
2542.65,474.5831,4.1303
2546.25,475.195,4.12913
2549.85,475.806,4.12887
2553.45,476.415,4.1289
2557.05,477.02,4.12797
2560.65,477.6271,4.12633
2564.25,478.233,4.12533
2567.85,478.84,4.12512
2571.45,479.446,4.1238
2575.05,480.0491,4.12293
2578.65,480.653,4.12272
2582.25,481.259,4.12248
2585.85,481.861,4.1216
2589.45,482.466,4.12045
2593.05,483.067,4.11815
2596.65,483.667,4.11827
2600.25,484.269,4.1197
2603.85,484.871,4.11835
2607.45,485.47,4.11673
2611.05,486.07,4.11575
2614.65,486.668,4.114
2618.25,487.265,4.11315
2621.85,487.866,4.11297
2625.45,488.466,4.1127
2629.05,489.0669,4.11243
2632.65,489.665,4.11207
2636.25,490.262,4.112
2639.85,490.86,4.1117
2643.45,491.459,4.11067
2647.05,492.06,4.10922
2650.65,492.658,4.1079
2654.25,493.257,4.10672
2657.85,493.852,4.10542
2661.45,494.45,4.10447
2665.05,495.045,4.10402
2668.65,495.637,4.1029
2672.25,496.23,4.10197
2675.85,496.825,4.10242
2679.45,497.421,4.10093
2683.05,498.016,4.09805
2686.65,498.611,4.09735
2690.25,499.205,4.09753
2693.85,499.797,4.09603
2697.45,500.3909,4.09403
2701.05,500.985,4.09423
2704.65,501.578,4.09515
2708.25,502.175,4.09532
2711.85,502.7679,4.09563
2715.45,503.362,4.09627
2719.05,503.954,4.0971
2722.65,504.544,4.09658
2726.25,505.137,4.09513
2729.85,505.73,4.09337
2733.45,506.324,4.09147
2737.05,506.917,4.09055
2740.65,507.509,4.0905
2744.25,508.099,4.08988
2747.85,508.6921,4.0892
2751.45,509.287,4.0882
2755.05,509.881,4.0872
2758.65,510.474,4.08465
2762.25,511.064,4.08242
2765.85,511.656,4.08227
2769.45,512.249,4.0818
2773.05,512.841,4.08137
2776.65,513.433,4.08197
2780.25,514.022,4.08147
2783.85,514.615,4.07817
2787.45,515.206,4.07675
2791.05,515.7979,4.07617
2794.65,516.388,4.07627
2798.25,516.98,4.07555
2801.85,517.569,4.07488
2805.45,518.159,4.07472
2809.05,518.751,4.0746
2812.65,519.3411,4.07325
2816.25,519.933,4.07363
2819.85,520.522,4.07405
2823.45,521.112,4.07408
2827.05,521.704,4.07625
2830.65,522.297,4.07802
2834.25,522.888,4.07785
2837.85,523.479,4.07638
2841.45,524.0711,4.07565
2845.05,524.662,4.07512
2848.65,525.256,4.07332
2852.25,525.848,4.0703
2855.85,526.44,4.06925
2859.45,527.031,4.06892
2863.05,527.621,4.06925
2866.65,528.211,4.06925
2870.25,528.802,4.06825
2873.85,529.395,4.0649
2877.45,529.986,4.07272
2881.05,530.579,4.07058
2884.65,531.174,4.06807
2888.25,531.765,4.06688
2891.85,532.3561,4.066
2895.45,532.946,4.0648
2899.05,533.538,4.065
2902.65,534.131,4.065
2906.25,534.725,4.06455
2909.85,535.317,4.0635
2913.45,535.909,4.06365
2917.05,536.502,4.06377
2920.65,537.094,4.0625
2924.25,537.687,4.06155
2927.85,538.277,4.06118
2931.45,538.867,4.061
2935.05,539.461,4.0606
2938.65,540.053,4.05992
2942.25,540.645,4.05965
2945.85,541.237,4.05757
2949.45,541.828,4.05612
2953.05,542.42,4.05618
2956.65,543.012,4.05638
2960.25,543.602,4.05773
2963.85,544.194,4.05752
2967.45,544.785,4.05312
2971.05,545.376,4.04977
2974.65,545.969,4.05352
2978.25,546.561,4.05623
2981.85,547.153,4.05457
2985.45,547.745,4.05265
2989.05,548.337,4.05222
2992.65,548.931,4.05205
2996.25,549.525,4.0517
2999.85,550.117,4.05032
3003.45,550.71,4.04887
3007.05,551.299,4.0474
3010.65,551.891,4.04628
3014.25,552.483,4.04585
3017.85,553.076,4.04615
3021.45,553.671,4.0468
3025.05,554.264,4.04715
3028.65,554.857,4.04578
3032.25,555.45,4.04388
3035.85,556.043,4.04352
3039.45,556.634,4.0422
3043.05,557.225,4.04022
3046.65,557.816,4.03945
3050.25,558.407,4.03877
3053.85,559.0009,4.03685
3057.45,559.591,4.03442
3061.05,560.184,4.032
3064.65,560.7769,4.02743
3068.25,561.369,4.0303
3071.85,561.962,4.0328
3075.45,562.552,4.0349
3079.05,563.147,4.03295
3082.65,563.741,4.02872
3086.25,564.334,4.027
3089.85,564.927,4.0254
3093.45,565.519,4.0239
3097.05,566.111,4.0215
3100.65,566.703,4.019
3104.25,567.294,4.01765
3107.85,567.885,4.01622
3111.45,568.477,4.0128
3115.05,569.071,4.0102
3118.65,569.664,4.0084
3122.25,570.26,4.00735
3125.85,570.855,4.00745
3129.45,571.449,4.00693
3133.05,572.043,4.00735
3136.65,572.634,4.00712
3140.25,573.227,4.0071
3143.85,573.822,4.00545
3147.45,574.415,4.00007
3151.05,575.01,3.99707
3154.65,575.604,3.99435
3158.25,576.202,3.9919
3161.85,576.798,3.98952
3165.45,577.393,3.98775
3169.05,577.986,3.9859
3172.65,578.578,3.98407
3176.25,579.1711,3.982
3179.85,579.765,3.97842
3183.45,580.359,3.97628
3187.05,580.952,3.97623
3190.65,581.546,3.9749
3194.25,582.141,3.97265
3197.85,582.736,3.96965
3201.45,583.329,3.96647
3205.05,583.922,3.96365
3208.65,584.518,3.9612
3212.25,585.111,3.95858
3215.85,585.704,3.95565
3219.45,586.296,3.9529
3223.05,586.887,3.94988
3226.65,587.48,3.9455
3230.25,588.075,3.94213
3233.85,588.671,3.93945
3237.45,589.268,3.93707
3241.05,589.864,3.9338
3244.65,590.456,3.93142
3248.25,591.05,3.9276
3251.85,591.644,3.92285
3255.45,592.237,3.91875
3259.05,592.831,3.9144
3262.65,593.425,3.91013
3266.25,594.018,3.90665
3269.85,594.612,3.90415
3273.45,595.206,3.89898
3277.05,595.799,3.89275
3280.65,596.394,3.88615
3284.25,596.987,3.88003
3287.85,597.581,3.87453
3291.45,598.173,3.86838
3295.05,598.767,3.8616
3298.65,599.36,3.85527
3302.25,599.953,3.84965
3305.85,600.546,3.8427
3309.45,601.137,3.8352
3313.05,601.73,3.82765
3316.65,602.322,3.8198
3320.25,602.917,3.81148
3323.85,603.511,3.80235
3327.45,604.105,3.79418
3331.05,604.699,3.78437
3334.65,605.293,3.77108
3338.25,605.887,3.75935
3341.85,606.482,3.74915
3345.45,607.077,3.7361
3349.05,607.672,3.7252
3352.65,608.266,3.71353
3356.25,608.86,3.7001
3359.85,609.451,3.68673
3363.45,610.0429,3.67155
3367.05,610.636,3.65698
3370.65,611.231,3.64252
3374.25,611.825,3.6284
3377.85,612.42,3.60148
3381.45,613.015,3.58805
3385.05,613.609,3.57553
3388.65,614.203,3.5613
3392.25,614.797,3.5246
3395.85,615.3921,3.5014
3399.45,615.986,3.4813
3403.05,616.581,3.4616
3406.65,617.174,3.44112
3410.25,617.767,3.41995
3413.85,618.364,3.39483
3417.45,618.961,3.3701
3421.05,619.558,3.3439
3424.65,620.152,3.31842
3428.25,620.744,3.29138
3431.85,621.336,3.2629
3435.45,621.931,3.23348
3439.05,622.526,3.20428
3442.65,623.119,3.17498
3446.25,623.712,3.14402
3449.85,624.304,3.11012
3453.45,624.897,3.07588
3457.05,625.49,3.04125
3460.65,626.083,3.00863
3464.25,626.679,2.96975
3467.85,627.273,2.93158
3471.45,627.866,2.90577
3475.05,628.458,2.86408
3478.65,629.048,2.82315
3482.25,629.642,2.78485
3485.85,630.238,2.7449
3489.45,630.832,2.70343
3493.05,631.426,2.66282
3496.65,632.018,2.61797
3500.25,632.612,2.57367
3503.85,633.205,2.5289
3507.45,633.799,2.48467
3511.05,634.3941,2.43672
3514.65,634.989,2.38985
3518.25,635.584,2.3402
3521.85,636.18,2.29297
3525.45,636.7749,2.24797
3529.05,637.368,2.20075
3532.65,637.964,2.15357
3536.25,638.559,2.10455
3539.85,639.154,2.05575
3543.45,639.751,2.00755
3547.05,640.344,1.95995
3550.65,640.939,1.90933
3554.25,641.534,1.85805
3557.85,642.128,1.80878
3561.45,642.724,1.76023
3565.05,643.321,1.71008
3568.65,643.917,1.65965
3572.25,644.5131,1.60993
3575.85,645.107,1.55945
3579.45,645.7,1.50835
3583.05,646.293,1.4657
3586.65,646.886,1.4175
3590.25,647.479,1.36985
3593.85,648.071,1.32017
3597.45,648.664,1.27145
3601.05,649.258,1.22657
3604.65,649.85,1.17958
3608.25,650.444,1.1342
3611.85,651.036,1.08825
3615.45,651.628,1.04412
3619.05,652.22,1.00265
3622.65,652.813,0.959325
3626.25,653.404,0.916675
3629.85,653.995,0.872075
3633.45,654.586,0.83215
3637.05,655.18,0.7926248
3640.65,655.775,0.75285
3644.25,656.368,0.715225
3647.85,656.963,0.678675
3651.45,657.557,0.64085
3655.05,658.152,0.606625
3658.65,658.748,0.574075
3662.25,659.344,0.54155
3665.85,659.941,0.510525
3669.45,660.541,0.479975
3673.05,661.141,0.449275
3676.65,661.742,0.42385
3680.25,662.342,0.395125
3683.85,662.941,0.369975
3687.45,663.54,0.34485
3691.05,664.141,0.321175
3694.65,664.742,0.3012
3698.25,665.343,0.2834
3701.85,665.943,0.263525
3705.45,666.544,0.246975
3709.05,667.143,0.2312
3712.65,667.742,0.21845
3716.25,668.341,0.19575
3719.85,668.941,0.1847
3723.45,669.54,0.175125
3727.05,670.143,0.159325
3730.65,670.743,0.1483
3734.25,671.3439,0.13975
3737.85,671.945,0.1293
3741.45,672.545,0.1178
3745.05,673.146,0.10795
3748.65,673.745,0.0993499
3752.25,674.344,0.09147484
3755.85,674.942,0.0827749
3759.45,675.5429,0.0739751
3763.05,676.142,0.0676751
3766.65,676.742,0.0614251
3770.25,677.343,0.05417519
3773.85,677.942,0.0484999
3777.45,678.5419,0.0432499
3781.05,679.142,0.0383248
3784.65,679.741,0.0344001
3788.25,680.34,0.0312999
3791.85,680.941,0.0279499
3795.45,681.54,0.0234748
3799.05,682.14,0.0181249
3802.65,682.741,0.0178251
3806.25,683.3422,0.0181748
3809.85,683.9431,0.015575
3813.45,684.542,0.007000165
3817.05,685.141,0.008524879
3820.65,685.74,0.003975002
3824.25,686.339,0.002974997
3827.85,686.94,0.003400002
3831.45,687.54,0.003675013
3835.05,688.138,0.002349998
3838.65,688.738,0.00060002
3842.25,689.335,-0.001225018
3845.85,689.933,-0.003150011
3849.45,690.531,-0.005224831
3853.05,691.128,-0.007249946
3856.65,691.726,-0.008050085
3860.25,692.324,-0.007875028
3863.85,692.921,-0.008275098
3867.45,693.517,-0.008749891
3871.05,694.115,-0.01230014
3874.65,694.71,-0.0138249
3878.25,695.306,-0.0102998
3881.85,695.901,-0.007174802
3885.45,696.496,-0.008275098
3889.05,697.091,-0.0108002
3892.65,697.685,-0.0127002
3896.25,698.277,-0.01387481
3899.85,698.869,-0.01465018
3903.45,699.46,-0.0158
3907.05,700.051,-0.0165502
3910.65,700.641,-0.0154499
3914.25,701.235,-0.01387481
3917.85,701.826,-0.0137249
3921.45,702.418,-0.014575
3925.05,703.011,-0.0156002
3928.65,703.602,-0.0153
3932.25,704.196,-0.01385
3935.85,704.788,-0.0123501
3939.45,705.378,-0.012675
3943.05,705.969,-0.0157501
3946.65,706.561,-0.0171749
3950.25,707.1518,-0.0173251
3953.85,707.743,-0.0170749
3957.45,708.334,-0.01687512
3961.05,708.926,-0.0169998
3964.65,709.519,-0.0173751
3968.25,710.113,-0.0181748
3971.85,710.707,-0.0183998
3975.45,711.3,-0.0180749
3979.05,711.894,-0.01865
3982.65,712.487,-0.0188998
3986.25,713.081,-0.01915
3989.85,713.675,-0.019925
3993.45,714.269,-0.0207998
3997.05,714.862,-0.0207751
4000.65,715.454,-0.020875
4004.25,716.048,-0.0212251
4007.85,716.641,-0.0197499
4011.45,717.236,-0.01897496
4015.05,717.83,-0.0185249
4018.65,718.424,-0.0163999
4022.25,719.018,-0.0158
4025.85,719.611,-0.0154999
4029.45,720.205,-0.0158752
4033.05,720.7981,-0.0166749
4036.65,721.392,-0.016975
4040.25,721.986,-0.0162001
4043.85,722.579,-0.0144252
4047.45,723.173,-0.0155498
4051.05,723.768,-0.019375
4054.65,724.362,-0.0198251
4058.25,724.956,-0.0196
4061.85,725.549,-0.0192999
4065.45,726.143,-0.01844979
4069.05,726.735,-0.0187
4072.65,727.329,-0.0225252
4076.25,727.922,-0.0233749
4079.85,728.518,-0.0168499
4083.45,729.112,-0.0166002
4087.05,729.706,-0.0167001
4090.65,730.3,-0.0165502
4094.25,730.896,-0.0167752
4097.85,731.492,-0.0185501
4101.45,732.086,-0.0192
4105.05,732.679,-0.0186001
4108.65,733.27,-0.0185002
4112.25,733.864,-0.019425
4115.85,734.457,-0.0197251
4119.45,735.052,-0.018925
4123.05,735.646,-0.0181001
4126.65,736.239,-0.029475
4130.25,736.8339,-0.0155498
4133.85,737.43,-0.0177
4137.45,738.026,-0.022
4141.05,738.621,-0.024
4144.65,739.215,-0.0143748
4148.25,739.809,-0.0152001
4151.85,740.404,-0.0154999
4155.45,740.999,-0.0151002
4159.05,741.593,-0.0161749
4162.65,742.188,-0.0224001
4166.25,742.781,-0.023675
4169.85,743.377,-0.0211751
4173.45,743.972,-0.0180002
4177.05,744.568,-0.01625
4180.65,745.164,-0.0164751
4184.25,745.761,-0.0163
4187.85,746.355,-0.0156749
4191.45,746.949,-0.0171001
4195.05,747.543,-0.0177
4198.65,748.139,-0.0176748
4202.25,748.736,-0.0177752
4205.85,749.333,-0.0173751
4209.45,749.928,-0.0159998
4213.05,750.522,-0.0154999
4216.65,751.113,-0.0156749
4220.25,751.708,-0.0192751
4223.85,752.302,-0.0192499
4227.45,752.898,-0.0183998
4231.05,753.492,-0.018425
4234.65,754.087,-0.0185249
4238.25,754.68,-0.0205748
4241.85,755.278,-0.03192495
4245.45,755.875,-0.0257002
4249.05,756.471,-0.0241998
4252.65,757.067,-0.004549792
4256.25,757.6619,-0.0100001
4259.85,758.258,-0.013175
4263.45,758.854,-0.0142501
4267.05,759.45,-0.0137249
4270.65,760.043,-0.0140751
4274.25,760.639,-0.0153752
4277.85,761.233,-0.0149251
4281.45,761.83,-0.0140499
4285.05,762.428,-0.0145998
4288.65,763.027,-0.0157748
4292.25,763.623,-0.0157748
4295.85,764.219,-0.0159251
4299.45,764.813,-0.0167248
4303.05,765.406,-0.0169251
4306.65,766.001,-0.019425
4310.25,766.597,-0.0212998
4313.85,767.192,-0.0202751
4317.45,767.789,-0.0194502
4321.05,768.385,-0.0286501
4324.65,768.981,-0.0191752
4328.25,769.579,-0.0145998
4331.85,770.176,-0.0133249
4335.45,770.773,-0.01535
4339.05,771.371,-0.01610017
4342.65,771.968,-0.016575
4346.25,772.564,-0.0167248
4349.85,773.162,-0.0165502
4353.45,773.758,-0.0163
4357.05,774.354,-0.01662492
4360.65,774.9491,-0.0179498
4364.25,775.543,-0.0201999
4367.85,776.138,-0.01915
4371.45,776.734,-0.0171749
4375.05,777.331,-0.0193498
4378.65,777.925,-0.0197751
4382.25,778.52,-0.0183998
4385.85,779.117,-0.0209749
4389.45,779.714,-0.02014998
4393.05,780.312,-0.0157249
4396.65,780.909,-0.0149751
4400.25,781.508,-0.016525
4403.85,782.104,-0.0171249
4407.45,782.701,-0.01662492
4411.05,783.297,-0.0158252
4414.65,783.894,-0.0162001
4418.25,784.49,-0.0175749
4421.85,785.086,-0.0190749
4425.45,785.681,-0.0187499
4429.05,786.279,-0.0178251
4432.65,786.877,-0.0182
4436.25,787.474,-0.0194502
4439.85,788.0699,-0.0198498
4443.45,788.664,-0.018875
4447.05,789.26,-0.0185002
4450.65,789.856,-0.0183499
4454.25,790.453,-0.0185002
4457.85,791.052,-0.0187499
4461.45,791.647,-0.0187252
4465.05,792.2429,-0.0177752
4468.65,792.838,-0.0156501
4472.25,793.435,-0.0144499
4475.85,794.034,-0.0163999
4479.45,794.631,-0.0192999
4483.05,795.229,-0.019875
4486.65,795.826,-0.0192252
4490.25,796.423,-0.0191752
4493.85,797.019,-0.0175749
4497.45,797.616,-0.01675002
4501.05,798.213,-0.0166749
4504.65,798.809,-0.017525
4508.25,799.406,-0.0202251
4511.85,800.003,-0.0224249
4515.45,800.599,-0.0236998
4519.05,801.197,-0.0231499
4522.65,801.795,-0.0188998
4526.25,802.394,-0.01662492
4529.85,802.9911,-0.01675002
4533.45,803.59,-0.017025
4537.05,804.188,-0.0154251
4540.65,804.786,-0.0158752
4544.25,805.383,-0.018025
4547.85,805.982,-0.0187499
4551.45,806.579,-0.0191248
4555.05,807.174,-0.0183499
4558.65,807.771,-0.0162748
4562.25,808.367,-0.0176001
4565.85,808.965,-0.0192499
4569.45,809.562,-0.0187499
4573.05,810.161,-0.01675002
4576.65,810.759,-0.015525
4580.25,811.356,-0.0148752
4583.85,811.953,-0.0145998
4587.45,812.55,-0.015125
4591.05,813.147,-0.0185749
4594.65,813.743,-0.0201
4598.25,814.338,-0.0164751
4601.85,814.9331,-0.01779994
4605.45,815.531,-0.0175749
4609.05,816.127,-0.0172248
4612.65,816.726,-0.0176748
4616.25,817.324,-0.017025
4619.85,817.92,-0.016075
4623.45,818.5191,-0.01625
4627.05,819.116,-0.0167001
4630.65,819.713,-0.01727519
4634.25,820.311,-0.0183499
4637.85,820.908,-0.0183751
4641.45,821.504,-0.01825
4645.05,822.101,-0.0193251
4648.65,822.7,-0.0221251
4652.25,823.3,-0.0238249
4655.85,823.897,-0.0240499
4659.45,824.494,-0.0224748
4663.05,825.09,-0.0221251
4666.65,825.687,-0.0235751
4670.25,826.286,-0.0235252
4673.85,826.885,-0.02345
4677.45,827.4849,-0.0235
4681.05,828.08,-0.0225252
4684.65,828.679,-0.0206999
4688.25,829.273,-0.0197999
4691.85,829.868,-0.0193498
4695.45,830.466,-0.0185749
4699.05,831.062,-0.018925
4702.65,831.661,-0.0201248
4706.25,832.258,-0.0205001
4709.85,832.855,-0.0217498
4713.45,833.451,-0.0215248
4717.05,834.049,-0.0180501
4720.65,834.6451,-0.0180749
4724.25,835.243,-0.0187499
4727.85,835.8401,-0.0200001
4731.45,836.438,-0.0205249
4735.05,837.037,-0.020825
4738.65,837.636,-0.0195501
4742.25,838.234,-0.0196
4745.85,838.832,-0.021325
4749.45,839.43,-0.021775
4753.05,840.028,-0.0211252
4756.65,840.625,-0.0209002
4760.25,841.223,-0.0209002
4763.85,841.821,-0.02055005
4767.45,842.419,-0.0190749
4771.05,843.015,-0.01739987
4774.65,843.611,-0.0171001
4778.25,844.208,-0.0169998
4781.85,844.808,-0.0176748
4785.45,845.408,-0.0183998
4789.05,846.007,-0.0180002
4792.65,846.605,-0.018925
4796.25,847.205,-0.0199502
4799.85,847.804,-0.0192751
4803.45,848.404,-0.0190749
4807.05,849.002,-0.0192999
4810.65,849.6,-0.0193498
4814.25,850.197,-0.0185501
4817.85,850.793,-0.01775
4821.45,851.3909,-0.0170749
4825.05,851.989,-0.01662492
4828.65,852.587,-0.0168
4832.25,853.185,-0.018475
4835.85,853.781,-0.0195749
4839.45,854.378,-0.0193498
4843.05,854.9779,-0.0180501
4846.65,855.577,-0.0172
4850.25,856.174,-0.0176001
4853.85,856.771,-0.02002488
4857.45,857.368,-0.0214749
4861.05,857.968,-0.0207998
4864.65,858.568,-0.0198251
4868.25,859.167,-0.0182752
4871.85,859.763,-0.0159998
4875.45,860.361,-0.0147501
4879.05,860.958,-0.0147249
4882.65,861.5569,-0.0166002
4886.25,862.155,-0.0197499
4889.85,862.753,-0.02205
4893.45,863.35,-0.02345
4897.05,863.948,-0.0220752
4900.65,864.545,-0.0187252
4904.25,865.144,-0.017975
4907.85,865.743,-0.0181249
4911.45,866.34,-0.0178499
4915.05,866.938,-0.0178499
4918.65,867.5342,-0.0182
4922.25,868.133,-0.018425
4925.85,868.731,-0.02067515
4929.45,869.33,-0.021375
4933.05,869.928,-0.0197751
4936.65,870.525,-0.0198498
4940.25,871.123,-0.0200748
4943.85,871.719,-0.0196
4947.45,872.318,-0.0233749
4951.05,872.9169,-0.0202751
4954.65,873.518,-0.0159751
4958.25,874.118,-0.0167248
4961.85,874.718,-0.0176001
4965.45,875.315,-0.0173751
4969.05,875.914,-0.01775
4972.65,876.51,-0.0202998
4976.25,877.109,-0.020875
4979.85,877.708,-0.0201999
4983.45,878.306,-0.0186248
4987.05,878.905,-0.0181001
4990.65,879.5042,-0.0163751
4994.25,880.103,-0.0163252
4997.85,880.699,-0.0200501
5001.45,881.296,-0.02172507
5005.05,881.893,-0.0204249
5008.65,882.492,-0.0180749
5012.25,883.093,-0.0174498
5015.85,883.692,-0.0173
5019.45,884.292,-0.0196752
5023.05,884.892,-0.02065
5026.65,885.491,-0.0207251
5030.25,886.091,-0.0211751
5033.85,886.69,-0.01387481
5037.45,887.289,-0.0149499
5041.05,887.889,-0.0154251
5044.65,888.4887,-0.0161749
5048.25,889.0889,-0.0178251
5051.85,889.69,-0.0187499
5055.45,890.289,-0.0186248
5059.05,890.886,-0.01727519
5062.65,891.486,-0.0158252
5066.25,892.084,-0.01779994
5069.85,892.683,-0.0203498
5073.45,893.2811,-0.0212499
5077.05,893.877,-0.0207499
5080.65,894.475,-0.0193498
5084.25,895.073,-0.0187
5087.85,895.672,-0.0177
5091.45,896.273,-0.01792504
5095.05,896.873,-0.0182
5098.65,897.473,-0.0168
5102.25,898.072,-0.0161249
5105.85,898.671,-0.0164499
5109.45,899.2717,-0.0176501
5113.05,899.87,-0.0185749
5116.65,900.47,-0.0181501
5120.25,901.067,-0.0163751
5123.85,901.666,-0.0153248
5127.45,902.267,-0.0153248
5131.05,902.866,-0.017025
5134.65,903.465,-0.01775
5138.25,904.063,-0.018025
5141.85,904.662,-0.018425
5145.45,905.26,-0.0170749
5149.05,905.861,-0.0152249
5152.65,906.458,-0.01585
5156.25,907.057,-0.0179498
5159.85,907.655,-0.0193498
5163.45,908.252,-0.0191248
5167.05,908.8531,-0.01775
5170.65,909.454,-0.017975
5174.25,910.054,-0.0187
5177.85,910.655,-0.0187252
5181.45,911.255,-0.0186748
5185.05,911.855,-0.0197999
5188.65,912.454,-0.0204749
5192.25,913.051,-0.0207251
5195.85,913.65,-0.01915
5199.45,914.247,-0.0161749
5203.05,914.844,-0.0161249
5206.65,915.44,-0.0173751
5210.25,916.037,-0.0187999
5213.85,916.636,-0.0187751
5217.45,917.233,-0.016975
5221.05,917.831,-0.01585
5224.65,918.431,-0.0170502
5228.25,919.03,-0.0171001
5231.85,919.6299,-0.0163751
5235.45,920.229,-0.01610017
5239.05,920.826,-0.016025
5242.65,921.426,-0.0159751
5246.25,922.027,-0.0174251
5249.85,922.631,-0.0185501
5253.45,923.232,-0.0178251
5257.05,923.831,-0.0178251
5260.65,924.43,-0.01884986
5264.25,925.029,-0.019375
5267.85,925.628,-0.0169251
5271.45,926.228,-0.0171749
5275.05,926.827,-0.0176501
5278.65,927.424,-0.0173499
5282.25,928.023,-0.0174498
5285.85,928.623,-0.0176501
5289.45,929.224,-0.01775
5293.05,929.825,-0.0178499
5296.65,930.425,-0.0178999
5300.25,931.025,-0.0183499
5303.85,931.624,-0.0206
5307.45,932.223,-0.0217998
5311.05,932.824,-0.01282489
5314.65,933.422,-0.0147501
5318.25,934.0212,-0.015075
5321.85,934.618,-0.0153
5325.45,935.217,-0.015625
5329.05,935.818,-0.0162001
5332.65,936.418,-0.0164998
5336.25,937.02,-0.01635
5339.85,937.618,-0.01625
5343.45,938.217,-0.01635
5347.05,938.815,-0.0170749
5350.65,939.414,-0.018025
5354.25,940.015,-0.0193251
5357.85,940.617,-0.0202751
5361.45,941.218,-0.0214749
5365.05,941.819,-0.0210248
5368.65,942.416,-0.0178999
5372.25,943.0128,-0.0159751
5375.85,943.611,-0.01485
5379.45,944.211,-0.0126251
5383.05,944.813,-0.0135751
5386.65,945.4129,-0.0149251
5390.25,946.012,-0.0154499
5393.85,946.611,-0.01622485
5397.45,947.209,-0.0169998
5401.05,947.807,-0.01792504
5404.65,948.405,-0.018475
5408.25,949.005,-0.0187751
5411.85,949.6049,-0.018475
5415.45,950.204,-0.0182
5419.05,950.804,-0.019425
5422.65,951.403,-0.0199749
5426.25,952,-0.01915
5429.85,952.598,-0.01727519
5433.45,953.196,-0.0169998
5437.05,953.795,-0.0170749
5440.65,954.397,-0.0171249
5444.25,954.997,-0.0173751
5447.85,955.597,-0.0180002
5451.45,956.1952,-0.0192
5455.05,956.7942,-0.0197751
5458.65,957.392,-0.019875
5462.25,957.995,-0.01965
5465.85,958.595,-0.0193998
5469.45,959.195,-0.0183998
5473.05,959.7939,-0.0172
5476.65,960.394,-0.0159751
5480.25,960.994,-0.0143248
5483.85,961.595,-0.0133001
5487.45,962.197,-0.013675
5491.05,962.798,-0.014125
5494.65,963.397,-0.0146749
5498.25,963.997,-0.0152748
5501.85,964.596,-0.0161249
5505.45,965.196,-0.0168499
5509.05,965.796,-0.0171501
5512.65,966.395,-0.0185002
5516.25,966.994,-0.0192999
5519.85,967.594,-0.018475
5523.45,968.195,-0.0182252
5527.05,968.797,-0.0183751
5530.65,969.396,-0.016975
5534.25,969.994,-0.01625
5537.85,970.591,-0.0169998
5541.45,971.191,-0.0185002
5545.05,971.793,-0.0192
5548.65,972.393,-0.0190249
5552.25,972.991,-0.0188251
5555.85,973.591,-0.0185749
5559.45,974.19,-0.0181001
5563.05,974.788,-0.0173751
5566.65,975.388,-0.0164751
5570.25,975.987,-0.0164499
5573.85,976.586,-0.019925
5577.45,977.186,-0.0197
5581.05,977.785,-0.01897496
5584.65,978.384,-0.0183499
5588.25,978.983,-0.01884986
5591.85,979.582,-0.0202998
5595.45,980.18,-0.0209501
5599.05,980.779,-0.0215752
5602.65,981.379,-0.0217998
5606.25,981.978,-0.0199502
5609.85,982.578,-0.01965
5613.45,983.175,-0.0204249
5617.05,983.775,-0.020875
5620.65,984.375,-0.0196752
5624.25,984.976,-0.0187
5627.85,985.577,-0.0185749
5631.45,986.177,-0.0172
5635.05,986.777,-0.0157748
5638.65,987.377,-0.01610017
5642.25,987.977,-0.0174251
5645.85,988.578,-0.016575
5649.45,989.181,-0.0157748
5653.05,989.783,-0.0174251
5656.65,990.384,-0.0196752
5660.25,990.983,-0.020375
5663.85,991.584,-0.0195501
5667.45,992.185,-0.0196
5671.05,992.787,-0.0210001
5674.65,993.386,-0.02065
5678.25,993.984,-0.0195501
5681.85,994.58,-0.0186001
5685.45,995.178,-0.018475
5689.05,995.777,-0.0195749
5692.65,996.377,-0.0192751
5696.25,996.976,-0.0185249
5699.85,997.576,-0.0176001
5703.45,998.175,-0.0171749
5707.05,998.775,-0.0219749
5710.65,999.372,-0.01335006
5714.25,999.97,-0.0164499
5714.85,1000.07,-0.01687512