File: PMMA/Calibration_Data/LCPP/LCPP_TGA_N2_2-5K_3.csv
Time,Temperature,Mass
[s],[K],[mg]
0,301.243,3.18254
10,301.173,3.18228
20,301.09,3.1821
30,301.031,3.18209
40,300.966,3.18205
50,300.899,3.18173
60,300.857,3.18201
70,300.834,3.1818
80,300.783,3.182
90,300.748,3.18168
100,300.716,3.18104
110,300.685,3.18139
120,300.645,3.18199
130,300.621,3.18199
140,300.598,3.18197
150,300.579,3.18179
160,300.555,3.18114
170,300.54,3.181
180,300.506,3.181
190,300.478,3.181
200,300.458,3.181
210,300.467,3.181
220,300.461,3.181
230,300.43,3.181
240,300.402,3.18108
250,300.394,3.1813
260,300.383,3.1814
270,300.375,3.18175
280,300.381,3.18132
290,300.372,3.18146
300,300.345,3.18066
310,300.418,3.18142
320,300.623,3.18145
330,300.867,3.18134
340,301.163,3.18122
350,301.483,3.18123
360,301.814,3.18114
370,302.174,3.18112
380,302.54,3.18098
390,302.929,3.18089
400,303.317,3.18081
410,303.722,3.18078
420,304.122,3.18076
430,304.514,3.18078
440,304.931,3.18031
450,305.338,3.18034
460,305.745,3.18041
470,306.147,3.18033
480,306.541,3.18041
490,306.947,3.18028
500,307.34,3.18017
510,307.739,3.18012
520,308.144,3.18043
530,308.542,3.18016
540,308.942,3.1803
550,309.338,3.18001
560,309.735,3.17978
570,310.119,3.1796
580,310.51,3.17968
590,310.904,3.17955
600,311.304,3.17945
610,311.701,3.1794
620,312.091,3.17936
630,312.47,3.1793
640,312.864,3.17923
650,313.265,3.17932
660,313.649,3.17923
670,314.03,3.17915
680,314.428,3.17907
690,314.812,3.1787
700,315.202,3.17873
710,315.587,3.17855
720,315.982,3.17851
730,316.366,3.17834
740,316.758,3.17827
750,317.141,3.17821
760,317.531,3.17803
770,317.921,3.17787
780,318.311,3.17784
790,318.704,3.17783
800,319.088,3.17777
810,319.479,3.17788
820,319.866,3.17778
830,320.256,3.17784
840,320.648,3.1778
850,321.041,3.17805
860,321.424,3.1778
870,321.808,3.17783
880,322.199,3.17805
890,322.585,3.17768
900,322.972,3.17779
910,323.369,3.1777
920,323.758,3.17757
930,324.149,3.17753
940,324.538,3.17757
950,324.926,3.17735
960,325.316,3.17738
970,325.698,3.17726
980,326.096,3.17754
990,326.478,3.17749
1000,326.869,3.17736
1010,327.256,3.1773
1020,327.666,3.17719
1030,328.041,3.17731
1040,328.431,3.17721
1050,328.83,3.17725
1060,329.212,3.17706
1070,329.605,3.17709
1080,329.999,3.17708
1090,330.392,3.17707
1100,330.787,3.17696
1110,331.166,3.17694
1120,331.56,3.17696
1130,331.946,3.17691
1140,332.347,3.17706
1150,332.741,3.17684
1160,333.124,3.17659
1170,333.51,3.17675
1180,333.916,3.17676
1190,334.3,3.17655
1200,334.703,3.17665
1210,335.087,3.17679
1220,335.487,3.17673
1230,335.867,3.17659
1240,336.256,3.17674
1250,336.647,3.17679
1260,337.043,3.17656
1270,337.447,3.17672
1280,337.834,3.17644
1290,338.225,3.17628
1300,338.616,3.17635
1310,339.018,3.17641
1320,339.413,3.17644
1330,339.809,3.17655
1340,340.197,3.17665
1350,340.582,3.17655
1360,340.992,3.17655
1370,341.378,3.17641
1380,341.775,3.17622
1390,342.175,3.17623
1400,342.568,3.17635
1410,342.956,3.17646
1420,343.343,3.17631
1430,343.749,3.17638
1440,344.145,3.17628
1450,344.546,3.17615
1460,344.929,3.17622
1470,345.338,3.17634
1480,345.722,3.1763
1490,346.122,3.17606
1500,346.526,3.17601
1510,346.908,3.17605
1520,347.308,3.17613
1530,347.711,3.17609
1540,348.114,3.17604
1550,348.499,3.17592
1560,348.901,3.17588
1570,349.298,3.17598
1580,349.694,3.17591
1590,350.092,3.17602
1600,350.481,3.17596
1610,350.891,3.17574
1620,351.285,3.17577
1630,351.681,3.17569
1640,352.082,3.1756
1650,352.482,3.17528
1660,352.871,3.17553
1670,353.278,3.1755
1680,353.678,3.17548
1690,354.068,3.17538
1700,354.468,3.17517
1710,354.868,3.17534
1720,355.267,3.1754
1730,355.668,3.17515
1740,356.062,3.17505
1750,356.469,3.17522
1760,356.867,3.17512
1770,357.267,3.17519
1780,357.667,3.17484
1790,358.063,3.1749
1800,358.462,3.17484
1810,358.864,3.17471
1820,359.254,3.17443
1830,359.661,3.1748
1840,360.067,3.17497
1850,360.455,3.17467
1860,360.869,3.17445
1870,361.272,3.17481
1880,361.668,3.17481
1890,362.074,3.17473
1900,362.469,3.17467
1910,362.869,3.17473
1920,363.278,3.17437
1930,363.683,3.1742
1940,364.079,3.17428
1950,364.473,3.17462
1960,364.876,3.17442
1970,365.269,3.17413
1980,365.689,3.17415
1990,366.084,3.17433
2000,366.48,3.17394
2010,366.894,3.17403
2020,367.301,3.17407
2030,367.697,3.17374
2040,368.098,3.17396
2050,368.506,3.17391
2060,368.9,3.17385
2070,369.306,3.17387
2080,369.717,3.17402
2090,370.113,3.17391
2100,370.525,3.17362
2110,370.928,3.17371
2120,371.328,3.17376
2130,371.736,3.17365
2140,372.133,3.17362
2150,372.536,3.17395
2160,372.942,3.17368
2170,373.352,3.17344
2180,373.753,3.17381
2190,374.16,3.17362
2200,374.561,3.17343
2210,374.961,3.17382
2220,375.372,3.17345
2230,375.77,3.17322
2240,376.188,3.17354
2250,376.582,3.17312
2260,376.993,3.17315
2270,377.412,3.17307
2280,377.808,3.17294
2290,378.218,3.17292
2300,378.622,3.17257
2310,379.033,3.17291
2320,379.425,3.17252
2330,379.844,3.17242
2340,380.235,3.17243
2350,380.649,3.17215
2360,381.055,3.17264
2370,381.462,3.17244
2380,381.878,3.17245
2390,382.287,3.17226
2400,382.674,3.1719
2410,383.096,3.17209
2420,383.495,3.17174
2430,383.903,3.17178
2440,384.314,3.1718
2450,384.72,3.17151
2460,385.139,3.17165
2470,385.536,3.17116
2480,385.95,3.1713
2490,386.35,3.171
2500,386.762,3.17103
2510,387.164,3.1714
2520,387.568,3.17086
2530,387.975,3.17102
2540,388.377,3.17049
2550,388.799,3.17083
2560,389.208,3.17065
2570,389.611,3.17027
2580,390.022,3.17056
2590,390.417,3.1701
2600,390.839,3.17035
2610,391.243,3.16995
2620,391.653,3.17007
2630,392.068,3.16996
2640,392.469,3.17001
2650,392.883,3.16982
2660,393.286,3.16974
2670,393.693,3.16958
2680,394.109,3.16926
2690,394.502,3.16974
2700,394.927,3.16918
2710,395.333,3.1696
2720,395.741,3.16906
2730,396.148,3.16923
2740,396.561,3.16887
2750,396.972,3.16906
2760,397.373,3.16859
2770,397.789,3.16897
2780,398.193,3.16831
2790,398.605,3.16848
2800,399.015,3.16805
2810,399.426,3.1678
2820,399.825,3.1679
2830,400.224,3.16765
2840,400.65,3.16769
2850,401.055,3.16784
2860,401.475,3.16735
2870,401.882,3.16752
2880,402.297,3.16724
2890,402.712,3.1673
2900,403.12,3.16706
2910,403.525,3.16703
2920,403.929,3.16692
2930,404.34,3.16616
2940,404.757,3.1666
2950,405.183,3.16603
2960,405.579,3.16628
2970,406.003,3.16595
2980,406.412,3.16584
2990,406.818,3.16583
3000,407.221,3.16505
3010,407.649,3.1653
3020,408.048,3.16492
3030,408.47,3.16482
3040,408.883,3.16456
3050,409.289,3.16413
3060,409.706,3.16445
3070,410.12,3.16403
3080,410.534,3.16375
3090,410.945,3.16408
3100,411.35,3.16328
3110,411.775,3.16388
3120,412.179,3.16316
3130,412.589,3.16314
3140,412.997,3.16303
3150,413.407,3.16267
3160,413.816,3.16294
3170,414.235,3.16237
3180,414.652,3.16284
3190,415.059,3.16239
3200,415.473,3.16225
3210,415.886,3.16213
3220,416.295,3.16182
3230,416.716,3.16193
3240,417.123,3.1616
3250,417.545,3.16138
3260,417.956,3.16152
3270,418.362,3.16101
3280,418.782,3.16094
3290,419.198,3.16092
3300,419.609,3.16052
3310,420.027,3.16089
3320,420.433,3.1601
3330,420.863,3.16024
3340,421.268,3.16004
3350,421.689,3.15939
3360,422.102,3.15983
3370,422.523,3.15922
3380,422.928,3.15895
3390,423.341,3.15904
3400,423.753,3.15879
3410,424.181,3.15815
3420,424.591,3.15845
3430,425.002,3.15801
3440,425.435,3.15738
3450,425.85,3.15778
3460,426.256,3.15719
3470,426.668,3.15694
3480,427.086,3.15703
3490,427.501,3.15696
3500,427.916,3.15623
3510,428.33,3.15638
3520,428.748,3.15617
3530,429.164,3.15594
3540,429.564,3.15554
3550,429.985,3.1557
3560,430.394,3.15507
3570,430.809,3.15493
3580,431.221,3.15501
3590,431.639,3.15469
3600,432.058,3.15405
3610,432.466,3.15461
3620,432.885,3.15403
3630,433.298,3.15385
3640,433.711,3.15363
3650,434.126,3.15386
3660,434.54,3.15309
3670,434.954,3.15281
3680,435.367,3.15298
3690,435.788,3.15284
3700,436.202,3.1521
3710,436.615,3.15251
3720,437.031,3.15208
3730,437.452,3.15181
3740,437.862,3.15108
3750,438.288,3.15147
3760,438.698,3.15118
3770,439.116,3.151
3780,439.538,3.15016
3790,439.949,3.15019
3800,440.366,3.15021
3810,440.779,3.14979
3820,441.198,3.14918
3830,441.609,3.14973
3840,442.019,3.14912
3850,442.45,3.14893
3860,442.861,3.14833
3870,443.28,3.14868
3880,443.701,3.14847
3890,444.121,3.14806
3900,444.526,3.14718
3910,444.951,3.14735
3920,445.363,3.14729
3930,445.778,3.14702
3940,446.197,3.14678
3950,446.617,3.1462
3960,447.019,3.14651
3970,447.445,3.14604
3980,447.866,3.14557
3990,448.283,3.14503
4000,448.699,3.14478
4010,449.112,3.145
4020,449.537,3.14467
4030,449.954,3.14402
4040,450.363,3.14358
4050,450.779,3.14369
4060,451.198,3.14367
4070,451.616,3.14296
4080,452.033,3.14274
4090,452.448,3.14199
4100,452.871,3.14245
4110,453.283,3.14219
4120,453.703,3.14199
4130,454.121,3.14127
4140,454.538,3.14101
4150,454.952,3.14036
4160,455.371,3.14014
4170,455.795,3.14055
4180,456.205,3.14002
4190,456.622,3.13964
4200,457.046,3.13902
4210,457.464,3.13894
4220,457.885,3.13816
4230,458.295,3.13796
4240,458.715,3.13782
4250,459.132,3.13799
4260,459.548,3.13754
4270,459.965,3.13702
4280,460.386,3.13666
4290,460.807,3.13604
4300,461.225,3.13589
4310,461.641,3.13512
4320,462.062,3.13499
4330,462.478,3.13429
4340,462.894,3.13433
4350,463.314,3.13401
4360,463.729,3.134
4370,464.142,3.13369
4380,464.56,3.13304
4390,464.977,3.13281
4400,465.386,3.13207
4410,465.806,3.13197
4420,466.228,3.13126
4430,466.641,3.13099
4440,467.067,3.13063
4450,467.492,3.13089
4460,467.906,3.13049
4470,468.326,3.13003
4480,468.744,3.12989
4490,469.153,3.12928
4500,469.575,3.12902
4510,469.996,3.12897
4520,470.417,3.1282
4530,470.834,3.1279
4540,471.247,3.12797
4550,471.667,3.12785
4560,472.088,3.12706
4570,472.504,3.12691
4580,472.925,3.12645
4590,473.349,3.12645
4600,473.761,3.12683
4610,474.181,3.1261
4620,474.597,3.12595
4630,475.01,3.1252
4640,475.435,3.12588
4650,475.863,3.12548
4660,476.282,3.12502
4670,476.695,3.12481
4680,477.112,3.12409
4690,477.531,3.1246
4700,477.953,3.12427
4710,478.372,3.12401
4720,478.792,3.12408
4730,479.207,3.12405
4740,479.624,3.12397
4750,480.046,3.12342
4760,480.473,3.1236
4770,480.878,3.12359
4780,481.308,3.12306
4790,481.728,3.12322
4800,482.141,3.12299
4810,482.572,3.12291
4820,482.985,3.1224
4830,483.408,3.12241
4840,483.825,3.12276
4850,484.245,3.12206
4860,484.665,3.12217
4870,485.085,3.12209
4880,485.492,3.12201
4890,485.915,3.12181
4900,486.341,3.12111
4910,486.751,3.12195
4920,487.175,3.12144
4930,487.589,3.12103
4940,488.007,3.12108
4950,488.423,3.12112
4960,488.842,3.12101
4970,489.258,3.1206
4980,489.688,3.12045
4990,490.107,3.12096
5000,490.518,3.12024
5010,490.934,3.12001
5020,491.356,3.11975
5030,491.779,3.11992
5040,492.196,3.11979
5050,492.613,3.119
5060,493.033,3.11923
5070,493.455,3.11937
5080,493.872,3.11901
5090,494.283,3.11885
5100,494.714,3.11817
5110,495.129,3.11889
5120,495.554,3.11845
5130,495.969,3.11802
5140,496.389,3.11796
5150,496.8,3.11775
5160,497.221,3.11797
5170,497.65,3.11757
5180,498.07,3.11704
5190,498.483,3.11706
5200,498.909,3.11652
5210,499.322,3.11679
5220,499.738,3.11668
5230,500.167,3.11607
5240,500.59,3.116
5250,500.999,3.11546
5260,501.421,3.11502
5270,501.836,3.11471
5280,502.258,3.11404
5290,502.672,3.11405
5300,503.091,3.11444
5310,503.51,3.11402
5320,503.928,3.11386
5330,504.356,3.11312
5340,504.776,3.11301
5350,505.193,3.11293
5360,505.605,3.11217
5370,506.029,3.11201
5380,506.457,3.11156
5390,506.878,3.11103
5400,507.297,3.11094
5410,507.714,3.11026
5420,508.128,3.11012
5430,508.55,3.11
5440,508.966,3.10915
5450,509.39,3.10899
5460,509.803,3.1083
5470,510.231,3.10802
5480,510.65,3.10795
5490,511.07,3.10719
5500,511.48,3.10701
5510,511.908,3.1069
5520,512.325,3.10617
5530,512.743,3.106
5540,513.16,3.10586
5550,513.583,3.10487
5560,513.999,3.10444
5570,514.416,3.10374
5580,514.842,3.10314
5590,515.266,3.10309
5600,515.686,3.1027
5610,516.105,3.10203
5620,516.516,3.10108
5630,516.937,3.10059
5640,517.357,3.10003
5650,517.779,3.09995
5660,518.201,3.09869
5670,518.622,3.09801
5680,519.04,3.09775
5690,519.462,3.09691
5700,519.874,3.09604
5710,520.295,3.09562
5720,520.715,3.09504
5730,521.134,3.09401
5740,521.551,3.0933
5750,521.972,3.09294
5760,522.393,3.09179
5770,522.808,3.09104
5780,523.229,3.09039
5790,523.648,3.08975
5800,524.066,3.08905
5810,524.482,3.08807
5820,524.902,3.08747
5830,525.322,3.08609
5840,525.751,3.08599
5850,526.162,3.08454
5860,526.576,3.08377
5870,527.007,3.08293
5880,527.423,3.08212
5890,527.843,3.08104
5900,528.267,3.08023
5910,528.683,3.07969
5920,529.105,3.0782
5930,529.516,3.07746
5940,529.94,3.07636
5950,530.364,3.07502
5960,530.772,3.07403
5970,531.197,3.07283
5980,531.62,3.07155
5990,532.046,3.0708
6000,532.457,3.06915
6010,532.876,3.06798
6020,533.298,3.06701
6030,533.719,3.06535
6040,534.14,3.0642
6050,534.551,3.06313
6060,534.978,3.06139
6070,535.395,3.06012
6080,535.811,3.05901
6090,536.242,3.0572
6100,536.654,3.05575
6110,537.068,3.05462
6120,537.493,3.05266
6130,537.913,3.05111
6140,538.332,3.04994
6150,538.749,3.04805
6160,539.166,3.04637
6170,539.588,3.04487
6180,540.002,3.04292
6190,540.426,3.04113
6200,540.852,3.0396
6210,541.268,3.03805
6220,541.692,3.03593
6230,542.11,3.03401
6240,542.529,3.03227
6250,542.946,3.02987
6260,543.372,3.02785
6270,543.789,3.02609
6280,544.203,3.02366
6290,544.623,3.02165
6300,545.042,3.0197
6310,545.464,3.01709
6320,545.883,3.01469
6330,546.314,3.01261
6340,546.722,3.01
6350,547.142,3.00756
6360,547.566,3.00525
6370,547.984,3.00241
6380,548.401,3.00008
6390,548.814,2.99774
6400,549.239,2.99489
6410,549.651,2.99219
6420,550.071,2.98966
6430,550.491,2.98708
6440,550.909,2.98397
6450,551.331,2.98136
6460,551.753,2.97849
6470,552.177,2.9754
6480,552.581,2.97274
6490,553.006,2.96955
6500,553.433,2.96608
6510,553.839,2.96316
6520,554.273,2.9602
6530,554.692,2.95661
6540,555.115,2.95348
6550,555.529,2.9505
6560,555.949,2.94675
6570,556.378,2.94338
6580,556.799,2.94021
6590,557.208,2.93688
6600,557.631,2.93272
6610,558.058,2.92928
6620,558.472,2.92565
6630,558.891,2.92146
6640,559.32,2.91802
6650,559.733,2.91436
6660,560.164,2.91004
6670,560.569,2.90622
6680,561.004,2.90238
6690,561.408,2.89805
6700,561.836,2.89361
6710,562.252,2.88955
6720,562.672,2.88516
6730,563.093,2.88044
6740,563.507,2.87611
6750,563.938,2.8717
6760,564.352,2.86659
6770,564.777,2.86197
6780,565.193,2.85742
6790,565.611,2.85198
6800,566.026,2.84712
6810,566.448,2.84234
6820,566.864,2.83671
6830,567.295,2.83162
6840,567.704,2.82652
6850,568.128,2.82065
6860,568.551,2.81519
6870,568.97,2.8099
6880,569.399,2.80401
6890,569.817,2.7978
6900,570.231,2.79206
6910,570.653,2.78624
6920,571.078,2.77955
6930,571.496,2.77343
6940,571.922,2.76731
6950,572.331,2.76065
6960,572.748,2.75385
6970,573.174,2.74743
6980,573.588,2.74058
6990,574.011,2.73313
7000,574.421,2.72635
7010,574.842,2.71942
7020,575.256,2.71173
7030,575.689,2.70439
7040,576.1,2.69715
7050,576.523,2.68925
7060,576.942,2.68138
7070,577.359,2.67374
7080,577.783,2.66546
7090,578.204,2.65698
7100,578.618,2.649
7110,579.042,2.64076
7120,579.461,2.63167
7130,579.88,2.62315
7140,580.309,2.61463
7150,580.718,2.60529
7160,581.133,2.59603
7170,581.561,2.58704
7180,581.977,2.57776
7190,582.4,2.56788
7200,582.822,2.55838
7210,583.243,2.5489
7220,583.662,2.53858
7230,584.076,2.52825
7240,584.499,2.51813
7250,584.921,2.5078
7260,585.335,2.49707
7270,585.757,2.48658
7280,586.177,2.47607
7290,586.6,2.465
7300,587.014,2.45341
7310,587.428,2.44244
7320,587.859,2.43128
7330,588.27,2.41932
7340,588.694,2.40764
7350,589.12,2.39609
7360,589.538,2.38433
7370,589.954,2.37173
7380,590.37,2.3595
7390,590.789,2.34724
7400,591.209,2.33461
7410,591.627,2.32143
7420,592.054,2.30889
7430,592.473,2.2962
7440,592.889,2.28253
7450,593.313,2.26917
7460,593.743,2.25577
7470,594.156,2.24211
7480,594.579,2.22791
7490,594.993,2.21409
7500,595.412,2.20022
7510,595.834,2.1859
7520,596.254,2.17111
7530,596.673,2.1568
7540,597.088,2.14229
7550,597.518,2.12705
7560,597.937,2.11206
7570,598.357,2.09711
7580,598.777,2.08165
7590,599.204,2.06583
7600,599.627,2.05054
7610,600.038,2.035
7620,600.46,2.01892
7630,600.883,2.00289
7640,601.299,1.98702
7650,601.718,1.97099
7660,602.137,1.95428
7670,602.564,1.93768
7680,602.984,1.92134
7690,603.406,1.90481
7700,603.829,1.88781
7710,604.247,1.87037
7720,604.664,1.85339
7730,605.092,1.83641
7740,605.509,1.81855
7750,605.931,1.80075
7760,606.35,1.78324
7770,606.763,1.76551
7780,607.195,1.74718
7790,607.609,1.72878
7800,608.024,1.71067
7810,608.444,1.69216
7820,608.87,1.67302
7830,609.283,1.65435
7840,609.708,1.63557
7850,610.119,1.61653
7860,610.542,1.59698
7870,610.956,1.57796
7880,611.38,1.55867
7890,611.795,1.53894
7900,612.217,1.5196
7910,612.628,1.50043
7920,613.047,1.48115
7930,613.469,1.46081
7940,613.889,1.44151
7950,614.31,1.42211
7960,614.731,1.40214
7970,615.148,1.38208
7980,615.571,1.36238
7990,615.989,1.34271
8000,616.408,1.32349
8010,616.818,1.30291
8020,617.241,1.28244
8030,617.66,1.2623
8040,618.081,1.2425
8050,618.505,1.22232
8060,618.923,1.20225
8070,619.341,1.18237
8080,619.762,1.16213
8090,620.188,1.14151
8100,620.595,1.12122
8110,621.025,1.10186
8120,621.45,1.08116
8130,621.862,1.061
8140,622.28,1.04148
8150,622.702,1.02176
8160,623.129,1.00157
8170,623.542,0.982209
8180,623.96,0.962806
8190,624.382,0.943457
8200,624.799,0.92418
8210,625.216,0.904425
8220,625.64,0.8856
8230,626.056,0.866608
8240,626.469,0.847808
8250,626.887,0.828619
8260,627.311,0.810225
8270,627.724,0.792111
8280,628.144,0.773992
8290,628.561,0.755389
8300,628.981,0.73755
8310,629.405,0.719878
8320,629.819,0.702367
8330,630.237,0.684414
8340,630.66,0.667128
8350,631.08,0.650108
8360,631.493,0.633354
8370,631.911,0.616091
8380,632.325,0.599841
8390,632.744,0.583738
8400,633.165,0.567846
8410,633.579,0.55162
8420,633.991,0.535651
8430,634.411,0.520406
8440,634.84,0.505208
8450,635.25,0.489851
8460,635.669,0.47528
8470,636.086,0.46124
8480,636.504,0.447459
8490,636.925,0.433714
8500,637.344,0.419514
8510,637.756,0.406311
8520,638.17,0.393493
8530,638.596,0.38051
8540,639.016,0.367764
8550,639.424,0.355832
8560,639.845,0.344212
8570,640.251,0.332531
8580,640.677,0.321109
8590,641.09,0.310395
8600,641.504,0.300045
8610,641.918,0.289974
8620,642.338,0.27961
8630,642.759,0.269926
8640,643.18,0.260715
8650,643.596,0.251747
8660,644.009,0.242359
8670,644.423,0.233743
8680,644.843,0.225568
8690,645.257,0.217666
8700,645.681,0.209924
8710,646.09,0.201811
8720,646.516,0.194408
8730,646.93,0.187596
8740,647.353,0.18088
8750,647.771,0.173643
8760,648.183,0.167261
8770,648.613,0.16123
8780,649.02,0.155123
8790,649.438,0.149145
8800,649.86,0.143623
8810,650.277,0.138431
8820,650.698,0.133444
8830,651.114,0.128195
8840,651.528,0.123149
8850,651.953,0.118752
8860,652.375,0.114575
8870,652.78,0.110269
8880,653.207,0.105736
8890,653.622,0.102013
8900,654.041,0.0984245
8910,654.457,0.0950213
8920,654.879,0.091126
8930,655.293,0.0877811
8940,655.712,0.084739
8950,656.132,0.081741
8960,656.548,0.0783678
8970,656.964,0.075547
8980,657.379,0.0730008
8990,657.798,0.0706848
9000,658.221,0.0683134
9010,658.644,0.0652743
9020,659.054,0.0633449
9030,659.474,0.0612747
9040,659.894,0.0594281
9050,660.306,0.0573522
9060,660.725,0.0550185
9070,661.149,0.0533731
9080,661.56,0.0518496
9090,661.978,0.0504247
9100,662.397,0.0485997
9110,662.819,0.0469731
9120,663.235,0.0456456
9130,663.656,0.0443637
9140,664.068,0.0431632
9150,664.487,0.0412534
9160,664.905,0.0402116
9170,665.321,0.03934
9180,665.747,0.0386523
9190,666.161,0.0375346
9200,666.575,0.0360837
9210,666.998,0.0351038
9220,667.415,0.0343907
9230,667.828,0.0339369
9240,668.254,0.0323279
9250,668.674,0.0319
9260,669.093,0.031057
9270,669.506,0.0308741
9280,669.924,0.0298771
9290,670.343,0.0290771
9300,670.763,0.0284549
9310,671.177,0.0280086
9320,671.594,0.0279993
9330,672.012,0.0269017
9340,672.438,0.0260334
9350,672.858,0.0260035
9360,673.272,0.0258916
9370,673.692,0.0250516
9380,674.105,0.0243466
9390,674.522,0.0240239
9400,674.945,0.0240061
9410,675.36,0.0235528
9420,675.787,0.0232413
9430,676.19,0.022042
9440,676.616,0.0219077
9450,677.035,0.0219047
9460,677.447,0.0219047
9470,677.863,0.0217137
9480,678.29,0.0209881
9490,678.703,0.0209074
9500,679.127,0.0209064
9510,679.543,0.0206887
9520,679.966,0.019978
9530,680.379,0.0198941
9540,680.797,0.0198931
9550,681.212,0.0198432
9560,681.637,0.0190944
9570,682.053,0.01964
9580,682.471,0.019991
9590,682.881,0.0199973
9600,683.308,0.0198237
9610,683.722,0.0192395
9620,684.143,0.0190067
9630,684.556,0.0192311
9640,684.974,0.0196981
9650,685.393,0.0199404
9660,685.806,0.0192609
9670,686.228,0.0190108
9680,686.642,0.0189991
9690,687.067,0.0192596
9700,687.476,0.0198934
9710,687.902,0.0191934
9720,688.331,0.0190051
9730,688.745,0.0189991
9740,689.165,0.018999
9750,689.581,0.0193333
9760,690,0.0192849
9770,690.407,0.0190113
9780,690.829,0.0189994
9790,691.247,0.018999
9800,691.668,0.0186248
9810,692.086,0.0184438
9820,692.498,0.0189807
9830,692.927,0.018999
9840,693.348,0.018999
9850,693.762,0.0188331
9860,694.181,0.0181471
9870,694.592,0.0180053
9880,695.023,0.0184838
9890,695.44,0.018902
9900,695.853,0.0186221
9910,696.268,0.0180655
9920,696.688,0.0179165
9930,697.099,0.0179842
9940,697.53,0.0189676
9950,697.946,0.0185419
9960,698.368,0.0180118
9970,698.779,0.0179865
9980,699.196,0.0179857
9990,699.608,0.018699
10000,700.027,0.0187753
10010,700.444,0.0181731
10020,700.864,0.0181065
10030,701.275,0.0181049
10040,701.699,0.0180302
10050,702.11,0.0181827
10060,702.531,0.0180171
10070,702.949,0.018001
10080,703.37,0.0180006
10090,703.789,0.0180006
10100,704.205,0.0178782
10110,704.623,0.017115
10120,705.041,0.0178906
10130,705.457,0.0180003
10140,705.877,0.0179973
10150,706.294,0.0174904
10160,706.712,0.0170708
10170,707.12,0.0173175
10180,707.547,0.0179835
10190,707.964,0.0180005
10200,708.379,0.017984
10210,708.802,0.017261
10220,709.213,0.0173294
10230,709.637,0.0177474
10240,710.056,0.0178936
10250,710.469,0.0178963
10260,710.889,0.0177427
10270,711.303,0.0171288
10280,711.725,0.0175363
10290,712.139,0.0179552
10300,712.558,0.0180005
10310,712.975,0.0178306
10320,713.387,0.0171603
10330,713.805,0.0170979
10340,714.219,0.0180003
10350,714.636,0.0180888
10360,715.051,0.0180326
10370,715.467,0.0172025
10380,715.884,0.0170077
10390,716.305,0.0170023
10400,716.727,0.0176479
10410,717.144,0.0179913
10420,717.562,0.0174751
10430,717.975,0.0170288
10440,718.389,0.0169985
10450,718.813,0.0177908
10460,719.226,0.0172749
10470,719.642,0.0178101
10480,720.065,0.0170833
10490,720.475,0.0169893
10500,720.894,0.0169874
10510,721.308,0.0169873
10520,721.731,0.0165285
10530,722.15,0.0169191
10540,722.569,0.0169869
10550,722.981,0.0169873
10560,723.395,0.0169871
10570,723.817,0.0164953
10580,724.231,0.0160104
10590,724.65,0.0159896
10600,725.061,0.016276
10610,725.477,0.0169239
10620,725.896,0.0168484
10630,726.32,0.0162259
10640,726.732,0.0161101
10650,727.155,0.0161082
10660,727.572,0.0161279
10670,727.985,0.0170438
10680,728.406,0.0170703
10690,728.825,0.0162612
10700,729.239,0.0160099
10710,729.651,0.0160039
10720,730.073,0.0160038
10730,730.483,0.0162883
10740,730.914,0.0161652
10750,731.321,0.0160075
10760,731.742,0.016004
10770,732.166,0.0160038
10780,732.577,0.0160933
10790,732.992,0.0166031
10800,733.41,0.0161168
10810,733.823,0.0160063
10820,734.243,0.0160021
10830,734.667,0.0154291
10840,735.085,0.0150277
10850,735.499,0.0152473
10860,735.913,0.0159159
10870,736.332,0.0160029
10880,736.754,0.0160038
10890,737.17,0.0160036
10900,737.583,0.015492
10910,738.003,0.0150608
10920,738.416,0.0158317
10930,738.829,0.0159864
10940,739.248,0.0159889
10950,739.667,0.0158399
10960,740.089,0.0152
10970,740.5,0.0150976
10980,740.916,0.01515
10990,741.338,0.0160393
11000,741.757,0.0160928
11010,742.171,0.0157835
11020,742.592,0.0150951
11030,742.998,0.0149955
11040,743.426,0.0149906
11050,743.843,0.0150349
11060,744.256,0.0158144
11070,744.669,0.0156708
11080,745.088,0.0150796
11090,745.498,0.0149917
11100,745.919,0.0149906
11110,746.338,0.0149906
11120,746.754,0.0151072
11130,747.183,0.0152032
11140,747.596,0.015002
11150,748.014,0.0149907
11160,748.428,0.0149906
11170,748.846,0.0149906
11180,749.258,0.0146683
11190,749.673,0.0146703
11200,750.082,0.0150065
11210,750.505,0.0150055
11220,750.918,0.0150055
11230,751.335,0.0150055
11240,751.75,0.0148479
11250,752.174,0.0142188
11260,752.584,0.0140153
11270,753.006,0.0143178
11280,753.427,0.0149011
11290,753.833,0.0150015
11300,754.251,0.0145136
11310,754.672,0.0141217
11320,755.093,0.014097
11330,755.503,0.0148729
11340,755.915,0.0150813
11350,756.338,0.0145548
11360,756.753,0.014041
11370,757.168,0.0140075
11380,757.585,0.0140071
11390,758.007,0.0146604
11400,758.418,0.0149714
11410,758.842,0.0142927
11420,759.25,0.0140086
11430,759.676,0.0139924
11440,760.09,0.0139964
11450,760.51,0.0143708
11460,760.929,0.0145982
11470,761.339,0.0143396
11480,761.754,0.0142819
11490,762.169,0.0143311
11500,762.584,0.0140121
11510,763,0.0139925
11520,763.427,0.0141369
11530,763.831,0.0147116
11540,764.255,0.0141135
11550,764.672,0.0139965
11560,765.091,0.0139922
11570,765.506,0.0139922
11580,765.919,0.0139922
11590,766.341,0.0139612
11600,766.748,0.0139607
11610,767.175,0.0139923
11620,767.59,0.0139922
11630,768,0.0139922
11640,768.418,0.0139922
11650,768.839,0.0140879
11660,769.254,0.0140138
11670,769.66,0.0140986
11680,770.087,0.0140966
11690,770.498,0.0140965
11700,770.92,0.0140965
11710,771.338,0.0140165
11720,771.758,0.0134355
11730,772.163,0.0137721
11740,772.588,0.013989
11750,773.008,0.0139922
11760,773.43,0.0139922
11770,773.84,0.0139964
11780,774.25,0.0140171
11790,774.67,0.0140285
11800,775.088,0.0140078
11810,775.499,0.0140071
11820,775.92,0.0140071
11830,776.339,0.0140745
11840,776.758,0.0136188
11850,777.175,0.0138853
11860,777.587,0.0140067
11870,778.008,0.0140071
11880,778.426,0.0140071
11890,778.845,0.013824
11900,779.268,0.0130976
11910,779.68,0.0133711
11920,780.105,0.0139819
11930,780.515,0.0140068
11940,780.939,0.0140071
11950,781.355,0.0137662
11960,781.766,0.0131316
11970,782.185,0.0130449
11980,782.596,0.0133944
11990,783.01,0.0139189
12000,783.433,0.0139906
12010,783.85,0.0136495
12020,784.272,0.0131469
12030,784.691,0.0130987
12040,785.108,0.0130981
12050,785.525,0.0133422
12060,785.943,0.0140702
12070,786.36,0.0139882
12080,786.781,0.013136
12090,787.19,0.0129974
12100,787.611,0.0129939
12110,788.024,0.0133541
12120,788.449,0.0139785
12130,788.867,0.0139844
12140,789.283,0.0135523
12150,789.703,0.0130454
12160,790.116,0.0129945
12170,790.523,0.0129938
12180,790.95,0.0135472
12190,791.364,0.0139779
12200,791.774,0.0139354
12210,792.204,0.0132409
12220,792.615,0.0129995
12230,793.042,0.012994
12240,793.439,0.0130049
12250,793.842,0.0133678
12260,794.154,0.0130022
12270,794.403,0.0129967
12280,794.608,0.0130378
12290,794.769,0.0129086
12300,794.908,0.0126643
12310,795.027,0.0129801
12320,795.117,0.0129933
12330,795.205,0.0129938
12340,795.268,0.0129938
12350,795.327,0.0129938
12360,795.367,0.0129938
12370,795.416,0.0129938
12380,795.452,0.0129938
12390,795.483,0.0129938
12400,795.511,0.0129938
12410,795.526,0.0129938
12420,795.551,0.0129938
12430,795.555,0.0127337
12440,795.568,0.0129828
12450,795.58,0.0129563
12460,795.593,0.0129375
12470,795.597,0.0129821
12480,795.612,0.0126346
12490,795.609,0.0129555
12500,795.617,0.0127599
12510,795.62,0.0129755
12520,795.619,0.0129938
12530,795.621,0.012872
12540,795.625,0.0129928
12550,795.622,0.0129938
12560,795.625,0.0129938
12570,795.621,0.0129938
12580,795.635,0.0129938
12590,795.625,0.0129938
12600,795.634,0.0129938