File: PMMA/Calibration_Data/LCPP/LCPP_Cone_25kW_1.csv
Time,Mass,HRR,Back Surface Temperature
[s],[g],[kW/m2],[K]
0,67.0167,0.656419,303.994
1,67.0167,,304.006
2,67.0167,,304.026
3,67.0167,,304.002
4,67.0167,,304.071
5,67.0167,1.10254,304.134
6,67.0167,,304.172
7,67.0167,,304.314
8,67.0167,,304.402
9,67.0167,,304.553
10,67.0167,5.37361,304.769
11,67.0167,,304.933
12,67.0167,,305.15
13,67.0167,,305.451
14,67.0167,,305.69
15,67.0167,11.0004,306.039
16,67.0167,,306.415
17,66.8611,,306.786
18,66.7375,,307.25
19,66.8162,,307.666
20,66.73908,8.84904,308.18
21,66.6221,,308.741
22,66.5129,,309.337
23,66.4176,,309.909
24,66.4177,,310.547
25,66.4204,4.50263,311.224
26,66.4199,,311.903
27,66.4198,,312.606
28,66.41345,,313.249
29,66.4771,,314.132
30,66.49,3.35835,314.873
31,66.4993,,315.582
32,66.5895,,316.429
33,66.5953,,317.227
34,66.6085,,318.134
35,66.6085,4.37385,319.043
36,66.6103,,319.866
37,66.608,,320.852
38,66.6043,,321.799
39,66.7027,,322.612
40,66.6256,7.2456,323.694
41,66.7002,,324.618
42,66.5292,,325.503
43,66.5912,,326.619
44,66.511,,327.572
45,66.4294,8.97148,328.446
46,66.4209,,329.609
47,66.4187,,330.579
48,66.3215,,331.487
49,66.3054,,332.687
50,66.21358,5.94629,333.682
51,66.1961,,334.618
52,66.1979,,335.635
53,66.1945,,336.813
54,66.1897,,337.761
55,66.1327,3.45271,338.813
56,66.1211,,339.779
57,66.182,,340.931
58,66.1303,,341.98
59,66.1829,,342.941
60,66.1953,4.66858,344.11
61,66.2867,,345.156
62,66.3059,,346.102
63,66.3063,,347.317
64,66.40127,,348.35
65,66.3182,3.41045,349.269
66,66.3052,,350.542
67,66.3067,,351.521
68,66.4048,,352.464
69,66.4177,,353.541
70,66.4232,1.72363,354.638
71,66.42,,355.61
72,66.4207,,356.667
73,66.4878,,357.765
74,66.4807,,358.762
75,66.4921,0.926052,359.937
76,66.58734,,360.708
77,66.6054,,361.85
78,66.5111,,362.842
79,66.4742,,363.753
80,66.4902,1.2353,364.926
81,66.4339,,365.834
82,66.4191,,366.719
83,66.4201,,367.847
84,66.3414,,368.72
85,66.3076,1.43165,369.571
86,66.3055,,370.646
87,66.2101,,371.44
88,66.1345,,372.253
89,66.0192,,373.282
90,65.9081,6.52718,373.842
91,65.8918,,374.595
92,65.8294,,375.323
93,65.8205,,375.906
94,65.72417,,376.721
95,65.70785,5.33455,377.305
96,65.7096,,377.708
97,65.6119,,378.23
98,65.6911,,378.772
99,65.6096,,379.487
100,65.6866,2.62081,379.995
101,65.6089,,380.666
102,65.6889,,381.388
103,65.7059,,381.96
104,65.6121,,382.682
105,65.6756,0.818301,383.432
106,65.7071,,384.11
107,65.6129,,384.858
108,65.5949,,385.589
109,65.59614,,386.389
110,65.5765,-1.17911,387.172
111,65.5937,,388.003
112,65.5318,,389.028
113,65.578,,390.148
114,65.5277,,391.388
115,65.5552,56.5949,392.578
116,65.5888,,393.655
117,65.5914,,394.911
118,65.5914,,396.16
119,65.52673,,397.193
120,65.5148,188.064,398.503
121,65.5193,,399.625
122,65.5224,,400.669
123,65.52058,,401.945
124,65.4248,,402.987
125,65.40944,295.943,404.015
126,65.3136,,405.246
127,65.299,,406.209
128,65.2968,,407.223
129,65.0458,,408.26
130,65.0013,346.007,409.308
131,64.9382,,410.282
132,64.7389,,411.225
133,64.5505,,412.304
134,64.0776,,413.264
135,64.0913,355.696,414.185
136,64.1081,,415.127
137,63.9496,,416.199
138,63.6675,,417.081
139,62.7637,,418.055
140,62.6837,374.931,419.037
141,62.5368,,419.918
142,62.4213,,420.823
143,62.3369,,421.793
144,62.2339,,422.7
145,62.1232,394.907,423.599
146,61.9456,,424.665
147,61.7554,,425.597
148,61.7285,,426.392
149,61.53342,,427.298
150,61.43635,400.049,428.307
151,61.3242,,429.147
152,61.1468,,430.072
153,60.92944,,430.925
154,60.74045,,432.001
155,60.5215,409.556,432.916
156,60.1639,,433.759
157,59.32,,434.695
158,59.2845,,435.728
159,59.2042,,436.584
160,59.12555,412.376,437.499
161,58.9826,,438.492
162,58.83299,,439.382
163,58.81339,,440.319
164,58.626,,441.128
165,58.5892,414.176,442.179
166,58.4668,,443.055
167,58.4097,,443.83
168,58.3078,,444.766
169,58.2292,,445.48
170,58.0265,420.182,446.249
171,57.838,,447.222
172,57.7142,,447.962
173,57.54555,,448.822
174,57.1699,,449.817
175,57.0112,414.794,450.576
176,56.8331,,451.504
177,56.802,,452.224
178,56.643,,453.069
179,56.1121,,453.766
180,56.0213,424.391,454.392
181,55.9271,,455.305
182,55.8125,,456.022
183,55.7324,,456.889
184,55.2861,,457.697
185,55.1135,421.13,458.449
186,54.9367,,459.317
187,54.8143,,460.25
188,54.6394,,461.084
189,54.2618,,461.961
190,54.1312,421.225,462.916
191,54.0263,,463.839
192,53.9027,,464.694
193,53.8272,,465.557
194,53.63328,,466.597
195,53.5039,436.138,467.426
196,53.4248,,468.363
197,53.2058,,469.389
198,53.032,,470.285
199,52.4036,,471.256
200,52.2982,444.141,472.134
201,52.2343,,473.262
202,52.0558,,474.195
203,51.9367,,475.28
204,51.8269,,476.304
205,51.6158,448.764,477.182
206,51.2679,,478.294
207,51.2128,,479.242
208,51.1217,,480.169
209,51.0079,,481.187
210,50.9253,434.319,482.242
211,50.7249,,483.043
212,50.6329,,484.209
213,50.525,,485.121
214,50.35421,,486.337
215,49.982,446.189,487.268
216,49.8222,,488.242
217,49.6445,,489.262
218,49.2654,,490.347
219,48.9539,,491.373
220,48.8089,455.737,492.498
221,48.5424,,493.462
222,48.433,,494.507
223,48.3304,,495.444
224,48.06549,,496.441
225,47.83337,454.389,497.605
226,47.7391,,498.561
227,47.5355,,499.648
228,47.4352,,500.679
229,47.0651,,501.708
230,46.6612,476.815,502.713
231,46.437,,503.614
232,46.4114,,504.788
233,46.3208,,505.715
234,46.20959,,506.873
235,46.03835,468.813,507.933
236,45.6663,,508.908
237,45.5421,,509.919
238,45.4383,,511.04
239,45.072,,512.009
240,44.9427,500.341,513.019
241,44.8358,,514.06
242,44.7247,,515.08
243,44.6426,,516.081
244,44.4381,,517.139
245,44.0616,508.988,518.103
246,43.9315,,518.961
247,43.6691,,519.932
248,43.12089,,520.845
249,42.6836,,521.691
250,42.5236,506.763,522.587
251,42.41135,,523.45
252,42.0735,,524.389
253,41.7606,,525.257
254,41.5353,,526.166
255,41.4982,519.096,527.014
256,41.3455,,527.851
257,41.3138,,528.652
258,41.2054,,529.65
259,41.0454,,530.465
260,40.8675,542.091,531.326
261,40.6505,,532.365
262,40.2652,,533.191
263,40.0877,,534.072
264,39.9276,,534.91
265,39.74221,553.821,535.864
266,39.2089,,536.762
267,39.0222,,537.591
268,38.7772,,538.447
269,38.3728,,539.454
270,38.24562,553.089,540.277
271,38.0483,,541.178
272,37.94727,,542.186
273,37.7428,,543.042
274,37.2939,,543.953
275,36.87614,563.662,544.984
276,36.8126,,545.923
277,36.6574,,546.987
278,36.53194,,547.893
279,36.42188,,548.844
280,36.34,557.556,549.733
281,36.0817,,550.819
282,35.8536,,551.774
283,35.499,,552.682
284,35.244,,553.668
285,35.1124,570.505,554.762
286,34.84746,,555.741
287,34.6429,,556.764
288,34.1148,,557.701
289,33.9286,,558.849
290,33.8497,585.771,559.846
291,33.6525,,560.79
292,33.1112,,561.971
293,32.9253,,562.978
294,32.8403,,563.967
295,32.7374,585.008,565.246
296,32.46515,,566.264
297,32.2623,,567.353
298,31.4546,,568.619
299,31.30422,,569.656
300,31.246,575.364,570.8
301,31.1424,,571.901
302,30.9673,,573.212
303,30.7501,,574.379
304,30.2768,,575.656
305,29.9685,591.107,576.874
306,29.743,,578.055
307,29.648,,579.229
308,29.4414,,580.463
309,28.9015,,581.745
310,28.7586,569.141,582.862
311,28.5541,,583.911
312,28.1019,,585.057
313,27.9296,,586.092
314,27.7463,,586.998
315,27.6299,576.963,588.238
316,26.9514,,589.3
317,26.8924,,590.495
318,26.8421,,591.89
319,26.6585,,592.93
320,26.5455,587.324,594.014
321,25.8378,,595.109
322,25.6144,,596.316
323,25.3435,,597.374
324,25.299,,598.605
325,25.236,587.46,599.609
326,25.034,,600.629
327,24.4348,,601.576
328,24.3319,,602.656
329,24.146,,603.609
330,24.0166,631.528,604.532
331,23.7481,,605.575
332,23.6401,,606.289
333,23.4348,,607.283
334,23.241,,608.176
335,22.8614,629.328,609.219
336,22.6419,,610.169
337,22.51431,,610.997
338,22.3445,,612.095
339,21.9692,,613.01
340,21.9023,623.52,613.857
341,21.654,,614.812
342,21.10031,,615.728
343,20.7545,,616.792
344,20.4534,,617.809
345,20.22193,626.094,618.765
346,20.0318,,619.976
347,19.9039,,620.987
348,19.6397,,621.965
349,19.0913,,623.264
350,18.7483,622.236,624.411
351,18.546,,625.879
352,18.4186,,627.106
353,18.1462,,628.416
354,17.9418,,629.781
355,17.5682,627.341,631.112
356,17.2512,,632.769
357,17.0538,,634.169
358,16.8343,,635.589
359,16.1984,,637.389
360,16.024,637.507,639.002
361,15.9191,,640.799
362,15.7418,,643.173
363,15.5246,,645.33
364,15.0806,,648.478
365,14.6613,623.944,653.32
366,14.4459,,660.703
367,14.3242,,667.897
368,14.1413,,676.471
369,14.0185,,689.582
370,13.8436,638.132,710.32
371,12.9656,,737.07
372,12.96572,,791.645
373,12.5868,,847.7
374,12.2627,,874.809
375,12.1259,622.282,877.607
376,11.9526,,866.964
377,11.7293,,851.276
378,11.4401,,834.399
379,10.7982,,816.231
380,10.6211,632.087,802.062
381,10.423,,788.975
382,10.3234,,777.51
383,10.1234,,767.254
384,9.687494,,757.723
385,9.522546,618.279,747.685
386,9.247477,,739.618
387,9.10391,,732.14
388,8.928766,,724.442
389,8.738579,,717.881
390,8.45463,601.449,712.356
391,8.069055,,707.51
392,7.906993,,703.225
393,7.639905,,699.973
394,7.442437,,696.448
395,7.221407,549.14,693.12
396,7.027841,,689.772
397,6.746306,,686.569
398,6.541319,,683.262
399,6.419872,,679.574
400,5.989858,527.595,676.318
401,5.916717,,673.284
402,5.822392,,670.202
403,5.714494,,666.735
404,5.536255,,662.484
405,5.316565,529.562,656.742
406,4.881277,,652.143
407,4.716953,,646.551
408,4.628611,,641.039
409,4.424168,,636.681
410,4.324025,509.099,632.771
411,4.125412,,628.772
412,3.933483,,625.176
413,3.468132,,621.167
414,3.327718,,617.467
415,3.306629,443.04,614.148
416,3.118138,,611.354
417,2.932593,,608.667
418,2.559235,,605.821
419,2.499494,,603.553
420,2.417202,338.528,600.898
421,2.32838,,598.412
422,2.15235,,596.371
423,2.024212,,594.275
424,1.914354,,592.587
425,1.671518,239.109,590.685
426,1.602386,,589.094
427,1.500128,,587.489
428,1.488551,,586.139
429,1.424934,,584.54
430,1.313934,147.636,583.312
431,1.19889,,582.398
432,1.184205,,581.526
433,1.12456,,580.72
434,1.019422,,580.271
435,0.906667,85.4765,579.298
436,0.986698,,578.432
437,0.90891,,577.764
438,0.898043,,576.964
439,0.829944,,576.044
440,0.816668,47.0534,575.027
441,0.820691,,573.982
442,0.817798,,573.075
443,0.724489,,572.385
444,0.705545,,571.797
445,0.607552,16.9772,571.302
446,0.526075,,570.903
447,0.579149,,570.713
448,0.5893,,570.655
449,0.687074,,570.686
450,0.705664,7.72439,570.535
451,0.80249,,570.202
452,0.879692,,570.047
453,0.828139,,570.208
454,0.815673,,570.251
455,0.72287,6.93404,570.258
456,0.7094,,570.269
457,0.708249,,570.35
458,0.703805,,570.682
459,0.703956,,570.832
460,0.609664,6.40898,570.921
461,0.598593,,570.951
462,0.593386,,571.011
463,0.597227,,571.133
464,0.696722,,570.755
465,0.708548,3.99129,570.669
466,0.706456,,570.726
467,0.797819,,570.39
468,0.816846,,570.206
469,0.815218,,569.996
470,0.815876,2.67599,569.379
471,0.723853,,568.995
472,0.709364,,568.192
473,0.610052,,567.627
474,0.592121,,567.231
475,0.59128,0.962888,566.552
476,0.589752,,566.157
477,0.690495,,565.88
478,0.610361,,565.505
479,0.692813,,565.612
480,0.707208,-0.831879,566.139
481,0.706827,,566.941
482,0.70181,,567.3
483,0.608248,,566.99
484,0.592513,,567.17
485,0.59,-0.177878,567.306
486,0.683048,,567.427
487,0.607221,,567.42
488,0.592122,,567.578
489,0.689957,,567.632
490,0.612483,-0.893132,567.727
491,0.595447,,567.892
492,0.589877,,568.138
493,0.58989,,568.117
494,0.526877,,568.035
495,0.516977,-0.275771,567.798
496,0.516136,,567.628
497,0.577576,,567.9
498,0.437463,,568.18
499,0.408545,,568.455
500,0.409746,0.480228,568.521