File: PMMA/Calibration_Data/LCPP/LCPP_TGA_N2_2-5K_2.csv
Time,Temperature,Mass
[s],[K],[mg]
0,301.319,3.12678
10,301.25,3.12687
20,301.165,3.12656
30,301.095,3.12622
40,301.03,3.12629
50,300.979,3.12646
60,300.93,3.12617
70,300.894,3.12634
80,300.848,3.12601
90,300.815,3.12639
100,300.767,3.12604
110,300.738,3.126
120,300.702,3.126
130,300.673,3.126
140,300.66,3.12621
150,300.623,3.12631
160,300.603,3.12611
170,300.577,3.126
180,300.574,3.126
190,300.546,3.126
200,300.52,3.12519
210,300.517,3.125
220,300.492,3.125
230,300.478,3.125
240,300.468,3.12509
250,300.439,3.12545
260,300.44,3.12564
270,300.424,3.12593
280,300.421,3.12599
290,300.418,3.126
300,300.398,3.12514
310,300.469,3.12592
320,300.659,3.12584
330,300.909,3.12568
340,301.216,3.12552
350,301.517,3.12552
360,301.849,3.12548
370,302.22,3.12544
380,302.586,3.1253
390,302.976,3.12526
400,303.366,3.12516
410,303.756,3.12509
420,304.156,3.1251
430,304.577,3.12494
440,304.967,3.12466
450,305.368,3.12445
460,305.781,3.12466
470,306.182,3.12437
480,306.589,3.12436
490,306.977,3.12421
500,307.389,3.12425
510,307.781,3.12404
520,308.192,3.12425
530,308.574,3.12418
540,308.98,3.12421
550,309.36,3.12405
560,309.75,3.1237
570,310.14,3.12364
580,310.53,3.12372
590,310.931,3.12369
600,311.316,3.12367
610,311.723,3.12377
620,312.099,3.12346
630,312.499,3.12344
640,312.892,3.12328
650,313.288,3.12344
660,313.663,3.12341
670,314.06,3.12336
680,314.457,3.12327
690,314.841,3.12287
700,315.237,3.12303
710,315.623,3.12275
720,316.019,3.12277
730,316.402,3.12258
740,316.794,3.12273
750,317.19,3.12259
760,317.578,3.12256
770,317.964,3.12234
780,318.359,3.12217
790,318.742,3.12215
800,319.12,3.12219
810,319.519,3.12221
820,319.904,3.12226
830,320.291,3.12222
840,320.673,3.12206
850,321.064,3.12221
860,321.47,3.12214
870,321.858,3.1222
880,322.241,3.12214
890,322.622,3.12202
900,323.03,3.12198
910,323.418,3.12184
920,323.805,3.1218
930,324.19,3.12166
940,324.585,3.12147
950,324.969,3.12151
960,325.361,3.12157
970,325.752,3.12147
980,326.144,3.12158
990,326.531,3.12151
1000,326.919,3.12138
1010,327.316,3.12145
1020,327.7,3.12137
1030,328.092,3.12135
1040,328.48,3.12123
1050,328.88,3.12136
1060,329.263,3.12126
1070,329.658,3.12103
1080,330.038,3.12116
1090,330.434,3.12114
1100,330.821,3.12128
1110,331.215,3.12134
1120,331.597,3.1212
1130,331.997,3.12104
1140,332.381,3.12111
1150,332.768,3.121
1160,333.163,3.12104
1170,333.558,3.12109
1180,333.952,3.12094
1190,334.342,3.1205
1200,334.735,3.12076
1210,335.133,3.12094
1220,335.518,3.12082
1230,335.911,3.1207
1240,336.306,3.12085
1250,336.693,3.12079
1260,337.087,3.12081
1270,337.488,3.12083
1280,337.885,3.12068
1290,338.275,3.12044
1300,338.655,3.12041
1310,339.057,3.12044
1320,339.452,3.12047
1330,339.846,3.12069
1340,340.249,3.12081
1350,340.646,3.12052
1360,341.03,3.12064
1370,341.424,3.1204
1380,341.818,3.12053
1390,342.211,3.12063
1400,342.607,3.12049
1410,343.006,3.12044
1420,343.394,3.12051
1430,343.787,3.12061
1440,344.183,3.12036
1450,344.579,3.12031
1460,344.982,3.12026
1470,345.357,3.12033
1480,345.765,3.12035
1490,346.166,3.12035
1500,346.557,3.12026
1510,346.96,3.12012
1520,347.35,3.12016
1530,347.738,3.12027
1540,348.144,3.12039
1550,348.538,3.12025
1560,348.932,3.12
1570,349.335,3.12002
1580,349.74,3.12002
1590,350.129,3.12021
1600,350.534,3.12037
1610,350.937,3.1201
1620,351.321,3.11997
1630,351.723,3.11987
1640,352.116,3.12
1650,352.509,3.11995
1660,352.904,3.12002
1670,353.309,3.11988
1680,353.703,3.11994
1690,354.103,3.12011
1700,354.514,3.11989
1710,354.902,3.1196
1720,355.294,3.1198
1730,355.697,3.11983
1740,356.097,3.11973
1750,356.504,3.1197
1760,356.894,3.1194
1770,357.297,3.11971
1780,357.701,3.1196
1790,358.097,3.11943
1800,358.489,3.11917
1810,358.905,3.11923
1820,359.289,3.1191
1830,359.7,3.1191
1840,360.098,3.11914
1850,360.506,3.11919
1860,360.898,3.11891
1870,361.297,3.11884
1880,361.698,3.11901
1890,362.107,3.119
1900,362.509,3.11881
1910,362.909,3.11873
1920,363.301,3.1189
1930,363.702,3.11875
1940,364.114,3.11844
1950,364.513,3.11861
1960,364.915,3.11862
1970,365.322,3.11835
1980,365.712,3.11821
1990,366.114,3.11865
2000,366.523,3.11853
2010,366.924,3.11821
2020,367.335,3.11842
2030,367.737,3.11846
2040,368.131,3.11801
2050,368.543,3.11814
2060,368.941,3.11816
2070,369.345,3.11805
2080,369.749,3.11806
2090,370.151,3.11819
2100,370.554,3.11781
2110,370.961,3.11784
2120,371.355,3.1178
2130,371.775,3.11765
2140,372.171,3.11765
2150,372.585,3.11785
2160,372.977,3.11772
2170,373.376,3.11743
2180,373.792,3.11781
2190,374.184,3.11753
2200,374.595,3.11754
2210,375,3.11759
2220,375.412,3.11721
2230,375.818,3.11721
2240,376.227,3.11758
2250,376.626,3.11718
2260,377.025,3.11717
2270,377.44,3.11711
2280,377.85,3.11695
2290,378.256,3.11709
2300,378.655,3.11688
2310,379.059,3.11694
2320,379.473,3.11695
2330,379.878,3.11658
2340,380.277,3.11691
2350,380.685,3.11653
2360,381.095,3.1167
2370,381.507,3.11688
2380,381.904,3.11655
2390,382.313,3.11657
2400,382.72,3.11641
2410,383.113,3.11615
2420,383.523,3.11641
2430,383.935,3.11581
2440,384.356,3.11601
2450,384.753,3.1161
2460,385.167,3.11573
2470,385.568,3.11595
2480,385.981,3.1156
2490,386.386,3.11567
2500,386.795,3.11532
2510,387.196,3.1155
2520,387.61,3.1155
2530,388.021,3.11513
2540,388.423,3.11526
2550,388.835,3.11487
2560,389.24,3.11492
2570,389.647,3.11429
2580,390.049,3.11478
2590,390.465,3.11423
2600,390.873,3.11437
2610,391.291,3.11433
2620,391.684,3.11415
2630,392.104,3.1144
2640,392.497,3.11409
2650,392.913,3.11425
2660,393.319,3.11422
2670,393.732,3.11403
2680,394.139,3.1137
2690,394.545,3.11394
2700,394.955,3.11394
2710,395.367,3.11377
2720,395.776,3.11385
2730,396.179,3.11332
2740,396.587,3.11375
2750,397.006,3.11312
2760,397.423,3.11336
2770,397.833,3.113
2780,398.236,3.11291
2790,398.641,3.11286
2800,399.048,3.11289
2810,399.468,3.11226
2820,399.873,3.11263
2830,400.291,3.11212
2840,400.705,3.11244
2850,401.116,3.11205
2860,401.521,3.112
2870,401.93,3.11194
2880,402.344,3.11167
2890,402.755,3.11176
2900,403.171,3.11111
2910,403.57,3.11147
2920,404.002,3.11111
2930,404.404,3.1111
2940,404.811,3.11062
2950,405.229,3.11025
2960,405.639,3.1103
2970,406.047,3.11069
2980,406.453,3.11024
2990,406.872,3.11002
3000,407.284,3.11003
3010,407.685,3.10955
3020,408.097,3.10987
3030,408.513,3.10912
3040,408.93,3.10926
3050,409.345,3.10903
3060,409.747,3.10858
3070,410.167,3.10899
3080,410.579,3.10836
3090,410.991,3.10881
3100,411.404,3.10828
3110,411.8,3.10804
3120,412.233,3.10812
3130,412.642,3.10763
3140,413.055,3.10791
3150,413.465,3.1075
3160,413.874,3.10741
3170,414.288,3.10736
3180,414.702,3.10709
3190,415.112,3.10736
3200,415.52,3.107
3210,415.933,3.10673
3220,416.343,3.10682
3230,416.759,3.10609
3240,417.176,3.10622
3250,417.588,3.10604
3260,418.001,3.10558
3270,418.413,3.10597
3280,418.824,3.10536
3290,419.236,3.10546
3300,419.655,3.10523
3310,420.062,3.1049
3320,420.476,3.10493
3330,420.885,3.10469
3340,421.296,3.10405
3350,421.72,3.10425
3360,422.13,3.10398
3370,422.548,3.10324
3380,422.948,3.10389
3390,423.368,3.10316
3400,423.782,3.10306
3410,424.204,3.10314
3420,424.612,3.10254
3430,425.043,3.10289
3440,425.441,3.10238
3450,425.863,3.10201
3460,426.275,3.10214
3470,426.69,3.10194
3480,427.105,3.10121
3490,427.53,3.10192
3500,427.944,3.10123
3510,428.354,3.10132
3520,428.777,3.10117
3530,429.188,3.10094
3540,429.604,3.10083
3550,430.017,3.10071
3560,430.426,3.10006
3570,430.839,3.09982
3580,431.254,3.09993
3590,431.672,3.09959
3600,432.088,3.09895
3610,432.503,3.09923
3620,432.912,3.09904
3630,433.334,3.09885
3640,433.745,3.09823
3650,434.16,3.09873
3660,434.568,3.09809
3670,434.989,3.09783
3680,435.407,3.0979
3690,435.825,3.09785
3700,436.233,3.09711
3710,436.658,3.09713
3720,437.067,3.09706
3730,437.488,3.0968
3740,437.907,3.09608
3750,438.317,3.09609
3760,438.731,3.09615
3770,439.148,3.09599
3780,439.563,3.09514
3790,439.982,3.09541
3800,440.392,3.09512
3810,440.803,3.09469
3820,441.222,3.09397
3830,441.64,3.09452
3840,442.058,3.09412
3850,442.466,3.09394
3860,442.886,3.09315
3870,443.31,3.0936
3880,443.723,3.09346
3890,444.141,3.09306
3900,444.556,3.09219
3910,444.975,3.09225
3920,445.386,3.0923
3930,445.81,3.09202
3940,446.222,3.09177
3950,446.634,3.09124
3960,447.051,3.09145
3970,447.47,3.09103
3980,447.882,3.09056
3990,448.307,3.09002
4000,448.727,3.08954
4010,449.133,3.08999
4020,449.558,3.08966
4030,449.975,3.08903
4040,450.397,3.08856
4050,450.804,3.08882
4060,451.221,3.08866
4070,451.639,3.08797
4080,452.063,3.08773
4090,452.477,3.087
4100,452.894,3.08712
4110,453.314,3.08712
4120,453.739,3.08699
4130,454.144,3.08627
4140,454.567,3.086
4150,454.981,3.08536
4160,455.401,3.08501
4170,455.818,3.08458
4180,456.239,3.08402
4190,456.662,3.08441
4200,457.071,3.08403
4210,457.483,3.08394
4220,457.913,3.08317
4230,458.321,3.08296
4240,458.745,3.08219
4250,459.161,3.082
4260,459.578,3.08153
4270,459.995,3.08101
4280,460.412,3.08064
4290,460.831,3.08068
4300,461.248,3.08088
4310,461.67,3.0801
4320,462.086,3.07999
4330,462.505,3.07929
4340,462.92,3.07901
4350,463.344,3.07849
4360,463.752,3.07802
4370,464.186,3.07768
4380,464.597,3.07704
4390,465.016,3.0768
4400,465.43,3.07607
4410,465.851,3.07597
4420,466.262,3.07526
4430,466.687,3.07529
4440,467.1,3.07557
4450,467.526,3.07505
4460,467.941,3.07451
4470,468.364,3.07403
4480,468.779,3.0739
4490,469.192,3.07328
4500,469.608,3.07302
4510,470.035,3.07297
4520,470.447,3.07221
4530,470.87,3.07185
4540,471.291,3.07155
4550,471.704,3.07194
4560,472.117,3.07117
4570,472.537,3.07102
4580,472.952,3.07054
4590,473.366,3.07003
4600,473.787,3.07001
4610,474.211,3.06993
4620,474.631,3.06985
4630,475.054,3.06908
4640,475.459,3.0689
4650,475.887,3.06874
4660,476.301,3.06901
4670,476.718,3.06882
4680,477.147,3.06809
4690,477.567,3.06826
4700,477.978,3.06822
4710,478.386,3.06801
4720,478.808,3.06776
4730,479.219,3.06743
4740,479.648,3.06796
4750,480.065,3.06721
4760,480.49,3.06721
4770,480.905,3.06756
4780,481.329,3.06703
4790,481.748,3.06687
4800,482.157,3.06674
4810,482.576,3.06699
4820,482.995,3.0665
4830,483.418,3.06609
4840,483.844,3.06662
4850,484.262,3.06597
4860,484.67,3.06589
4870,485.091,3.06564
4880,485.521,3.06598
4890,485.938,3.06579
4900,486.346,3.06509
4910,486.767,3.06567
4920,487.189,3.06543
4930,487.61,3.06502
4940,488.028,3.06492
4950,488.437,3.06493
4960,488.858,3.06501
4970,489.281,3.06462
4980,489.696,3.06405
4990,490.113,3.06418
5000,490.543,3.06421
5010,490.962,3.06401
5020,491.372,3.06349
5030,491.79,3.06342
5040,492.205,3.06389
5050,492.627,3.06312
5060,493.05,3.06299
5070,493.461,3.06295
5080,493.882,3.0629
5090,494.307,3.06275
5100,494.72,3.062
5110,495.147,3.06202
5120,495.575,3.06212
5130,495.986,3.06202
5140,496.404,3.06197
5150,496.828,3.06123
5160,497.23,3.061
5170,497.652,3.0611
5180,498.078,3.06104
5190,498.5,3.06096
5200,498.916,3.0602
5210,499.327,3.06
5220,499.752,3.05969
5230,500.169,3.05917
5240,500.589,3.05953
5250,501.01,3.05942
5260,501.427,3.05902
5270,501.85,3.05874
5280,502.268,3.05805
5290,502.696,3.05799
5300,503.117,3.05751
5310,503.531,3.057
5320,503.953,3.05685
5330,504.367,3.05611
5340,504.789,3.05599
5350,505.201,3.05592
5360,505.623,3.05516
5370,506.047,3.05514
5380,506.456,3.05461
5390,506.879,3.05403
5400,507.302,3.05392
5410,507.721,3.05324
5420,508.141,3.05333
5430,508.561,3.05328
5440,508.982,3.05212
5450,509.398,3.05198
5460,509.82,3.05128
5470,510.245,3.05101
5480,510.662,3.05094
5490,511.077,3.05018
5500,511.49,3.05
5510,511.912,3.04989
5520,512.339,3.04916
5530,512.754,3.04854
5540,513.174,3.04794
5550,513.593,3.0471
5560,514.015,3.04699
5570,514.43,3.04673
5580,514.854,3.04615
5590,515.261,3.0461
5600,515.687,3.04502
5610,516.108,3.04403
5620,516.525,3.044
5630,516.934,3.04359
5640,517.359,3.0429
5650,517.784,3.04202
5660,518.206,3.04117
5670,518.611,3.04091
5680,519.042,3.04028
5690,519.464,3.03908
5700,519.88,3.039
5710,520.297,3.03848
5720,520.726,3.03709
5730,521.132,3.037
5740,521.563,3.03629
5750,521.976,3.03514
5760,522.405,3.03478
5770,522.817,3.03324
5780,523.243,3.033
5790,523.649,3.03253
5800,524.071,3.03106
5810,524.493,3.03099
5820,524.907,3.02947
5830,525.325,3.02892
5840,525.748,3.02808
5850,526.173,3.02724
5860,526.589,3.02607
5870,527.012,3.02595
5880,527.429,3.02461
5890,527.844,3.02369
5900,528.275,3.02301
5910,528.687,3.0219
5920,529.101,3.0207
5930,529.521,3.01996
5940,529.949,3.01866
5950,530.36,3.01715
5960,530.786,3.01635
5970,531.209,3.01521
5980,531.624,3.01384
5990,532.046,3.01299
6000,532.466,3.01126
6010,532.887,3.0101
6020,533.311,3.00922
6030,533.728,3.00748
6040,534.148,3.00625
6050,534.563,3.00512
6060,534.996,3.00332
6070,535.41,3.00205
6080,535.831,3.00078
6090,536.248,2.99889
6100,536.67,2.99729
6110,537.086,2.99614
6120,537.505,2.99406
6130,537.928,2.99277
6140,538.341,2.99136
6150,538.768,2.98946
6160,539.185,2.9877
6170,539.601,2.98628
6180,540.031,2.98419
6190,540.44,2.98236
6200,540.873,2.98082
6210,541.28,2.97926
6220,541.703,2.97695
6230,542.117,2.97495
6240,542.536,2.97335
6250,542.959,2.9708
6260,543.381,2.9688
6270,543.797,2.96701
6280,544.219,2.96449
6290,544.64,2.9625
6300,545.06,2.96043
6310,545.473,2.95785
6320,545.896,2.9554
6330,546.316,2.95341
6340,546.727,2.95074
6350,547.15,2.94811
6360,547.574,2.94609
6370,547.984,2.94315
6380,548.41,2.94085
6390,548.832,2.93845
6400,549.253,2.93533
6410,549.677,2.93275
6420,550.092,2.93036
6430,550.518,2.92776
6440,550.934,2.92446
6450,551.349,2.92181
6460,551.775,2.91884
6470,552.185,2.91572
6480,552.61,2.913
6490,553.029,2.9098
6500,553.455,2.90636
6510,553.875,2.90352
6520,554.296,2.90052
6530,554.719,2.89688
6540,555.129,2.8937
6550,555.553,2.89078
6560,555.971,2.88699
6570,556.388,2.88366
6580,556.809,2.8804
6590,557.232,2.87701
6600,557.65,2.873
6610,558.068,2.8696
6620,558.49,2.86609
6630,558.909,2.86186
6640,559.326,2.85823
6650,559.742,2.85465
6660,560.175,2.85042
6670,560.59,2.84635
6680,561.008,2.84261
6690,561.432,2.83819
6700,561.846,2.83382
6710,562.271,2.82979
6720,562.687,2.82545
6730,563.107,2.82066
6740,563.524,2.81635
6750,563.953,2.81213
6760,564.369,2.80698
6770,564.791,2.80242
6780,565.21,2.79777
6790,565.629,2.79242
6800,566.049,2.78766
6810,566.468,2.78289
6820,566.891,2.77727
6830,567.312,2.77213
6840,567.731,2.76708
6850,568.155,2.76138
6860,568.566,2.75598
6870,568.997,2.75064
6880,569.413,2.74482
6890,569.832,2.73855
6900,570.259,2.7329
6910,570.671,2.72719
6920,571.088,2.72065
6930,571.508,2.71457
6940,571.934,2.70854
6950,572.356,2.70191
6960,572.77,2.69517
6970,573.196,2.68877
6980,573.614,2.6821
6990,574.042,2.67488
7000,574.453,2.66814
7010,574.873,2.66121
7020,575.296,2.65355
7030,575.71,2.64631
7040,576.135,2.6391
7050,576.554,2.63119
7060,576.976,2.62352
7070,577.387,2.61589
7080,577.811,2.6077
7090,578.232,2.5995
7100,578.655,2.59158
7110,579.075,2.58325
7120,579.501,2.57446
7130,579.914,2.56609
7140,580.339,2.55769
7150,580.763,2.54857
7160,581.18,2.53955
7170,581.604,2.53062
7180,582.024,2.52132
7190,582.444,2.51151
7200,582.867,2.50213
7210,583.284,2.49272
7220,583.701,2.48275
7230,584.127,2.4726
7240,584.54,2.46276
7250,584.963,2.45251
7260,585.387,2.4419
7270,585.797,2.43151
7280,586.226,2.42116
7290,586.637,2.41029
7300,587.048,2.39898
7310,587.476,2.38815
7320,587.905,2.37717
7330,588.32,2.36533
7340,588.744,2.3539
7350,589.164,2.34252
7360,589.573,2.33091
7370,590.003,2.31843
7380,590.425,2.30645
7390,590.841,2.2945
7400,591.248,2.28209
7410,591.671,2.26926
7420,592.089,2.2568
7430,592.512,2.24419
7440,592.928,2.2308
7450,593.356,2.21768
7460,593.766,2.20456
7470,594.187,2.19109
7480,594.612,2.17707
7490,595.028,2.16347
7500,595.451,2.14979
7510,595.876,2.1357
7520,596.294,2.1211
7530,596.711,2.10697
7540,597.126,2.09264
7550,597.54,2.07767
7560,597.962,2.06277
7570,598.382,2.04814
7580,598.809,2.03284
7590,599.23,2.0172
7600,599.65,2.0019
7610,600.069,1.98667
7620,600.487,1.97075
7630,600.915,1.95472
7640,601.325,1.93902
7650,601.755,1.92315
7660,602.17,1.90646
7670,602.596,1.88999
7680,603.011,1.87362
7690,603.426,1.85712
7700,603.851,1.84018
7710,604.278,1.82297
7720,604.695,1.80597
7730,605.1,1.78899
7740,605.527,1.77125
7750,605.951,1.75354
7760,606.37,1.73606
7770,606.781,1.71851
7780,607.205,1.70029
7790,607.629,1.68202
7800,608.052,1.66405
7810,608.468,1.64613
7820,608.889,1.6273
7830,609.308,1.60887
7840,609.734,1.59046
7850,610.147,1.57193
7860,610.569,1.55321
7870,610.982,1.53461
7880,611.409,1.51573
7890,611.83,1.49629
7900,612.25,1.47724
7910,612.667,1.4585
7920,613.081,1.43938
7930,613.503,1.41958
7940,613.928,1.40035
7950,614.346,1.38108
7960,614.767,1.36144
7970,615.176,1.3412
7980,615.611,1.32133
7990,616.028,1.3025
8000,616.456,1.2833
8010,616.87,1.26257
8020,617.28,1.24271
8030,617.702,1.22294
8040,618.124,1.20272
8050,618.535,1.18277
8060,618.958,1.16347
8070,619.382,1.1435
8080,619.795,1.12361
8090,620.219,1.10355
8100,620.63,1.08421
8110,621.054,1.06453
8120,621.472,1.0449
8130,621.885,1.02531
8140,622.301,1.00597
8150,622.719,0.98691
8160,623.145,0.967117
8170,623.562,0.947887
8180,623.974,0.929136
8190,624.396,0.910303
8200,624.814,0.891637
8210,625.235,0.872447
8220,625.654,0.853949
8230,626.072,0.835755
8240,626.488,0.817194
8250,626.913,0.798596
8260,627.325,0.780661
8270,627.741,0.763064
8280,628.154,0.74546
8290,628.567,0.7273
8300,628.992,0.709989
8310,629.404,0.692995
8320,629.83,0.676014
8330,630.25,0.658438
8340,630.658,0.641653
8350,631.086,0.625372
8360,631.503,0.609065
8370,631.923,0.592326
8380,632.338,0.576508
8390,632.755,0.560881
8400,633.168,0.545491
8410,633.589,0.52971
8420,634.009,0.514482
8430,634.423,0.499821
8440,634.837,0.485232
8450,635.26,0.470276
8460,635.677,0.455938
8470,636.093,0.442193
8480,636.506,0.428692
8490,636.927,0.415301
8500,637.343,0.401626
8510,637.76,0.38883
8520,638.175,0.376442
8530,638.597,0.363889
8540,639.013,0.351585
8550,639.424,0.340074
8560,639.855,0.328834
8570,640.262,0.317471
8580,640.68,0.30636
8590,641.095,0.295911
8600,641.519,0.285863
8610,641.932,0.275907
8620,642.345,0.265682
8630,642.767,0.256179
8640,643.191,0.247155
8650,643.605,0.238434
8660,644.014,0.229143
8670,644.433,0.220694
8680,644.849,0.212657
8690,645.267,0.204725
8700,645.68,0.197022
8710,646.096,0.18896
8720,646.521,0.18168
8730,646.94,0.174773
8740,647.36,0.168099
8750,647.773,0.160899
8760,648.192,0.15459
8770,648.609,0.148597
8780,649.028,0.142628
8790,649.444,0.136576
8800,649.86,0.130978
8810,650.283,0.125936
8820,650.7,0.121009
8830,651.118,0.115723
8840,651.537,0.110756
8850,651.952,0.106328
8860,652.378,0.102169
8870,652.79,0.0978346
8880,653.207,0.0932344
8890,653.622,0.0895761
8900,654.035,0.0860607
8910,654.458,0.0826599
8920,654.868,0.0785415
8930,655.287,0.0752039
8940,655.703,0.0722405
8950,656.123,0.0693297
8960,656.541,0.0660706
8970,656.962,0.0632471
8980,657.383,0.0606085
8990,657.793,0.0584103
9000,658.22,0.0558998
9010,658.633,0.0529318
9020,659.054,0.050819
9030,659.464,0.0488645
9040,659.888,0.046984
9050,660.299,0.0450535
9060,660.723,0.042782
9070,661.14,0.0411039
9080,661.56,0.0394129
9090,661.979,0.0379592
9100,662.392,0.0359872
9110,662.822,0.034269
9120,663.231,0.033105
9130,663.65,0.0319472
9140,664.069,0.0305641
9150,664.485,0.0289805
9160,664.909,0.0277577
9170,665.327,0.026917
9180,665.742,0.0260215
9190,666.164,0.0246906
9200,666.576,0.0232128
9210,666.992,0.0228539
9220,667.41,0.0213271
9230,667.832,0.0209408
9240,668.245,0.0201598
9250,668.667,0.0190764
9260,669.079,0.0189862
9270,669.499,0.0180699
9280,669.912,0.0178088
9290,670.329,0.0162293
9300,670.752,0.0160054
9310,671.172,0.0159439
9320,671.589,0.0153191
9330,672.002,0.0146062
9340,672.427,0.0139577
9350,672.839,0.0130932
9360,673.248,0.0129944
9370,673.671,0.0129369
9380,674.092,0.0123356
9390,674.505,0.0118036
9400,674.92,0.0110182
9410,675.353,0.0109973
9420,675.762,0.0108764
9430,676.191,0.0100964
9440,676.607,0.010002
9450,677.028,0.00999869
9460,677.437,0.00999868
9470,677.851,0.00980766
9480,678.272,0.00908209
9490,678.691,0.00900139
9500,679.111,0.00900033
9510,679.529,0.00878266
9520,679.95,0.00807268
9530,680.373,0.00798904
9540,680.777,0.00798705
9550,681.202,0.00793721
9560,681.622,0.00718377
9570,682.038,0.00753161
9580,682.458,0.00777287
9590,682.867,0.0079804
9600,683.293,0.00783017
9610,683.708,0.00722902
9620,684.124,0.00699637
9630,684.539,0.00734052
9640,684.969,0.00797706
9650,685.386,0.00794896
9660,685.804,0.00726551
9670,686.218,0.00701536
9680,686.637,0.00700366
9690,687.058,0.0072713
9700,687.479,0.00785058
9710,687.895,0.00719722
9720,688.318,0.00700968
9730,688.735,0.00700366
9740,689.15,0.00700355
9750,689.567,0.00733906
9760,689.988,0.00734131
9770,690.4,0.00701649
9780,690.812,0.00700394
9790,691.233,0.00700355
9800,691.648,0.00662941
9810,692.059,0.00644403
9820,692.485,0.00688993
9830,692.904,0.00700321
9840,693.321,0.00700353
9850,693.735,0.00682983
9860,694.154,0.00615249
9870,694.574,0.00644374
9880,694.993,0.00699336
9890,695.407,0.00700347
9900,695.826,0.00671614
9910,696.238,0.00615944
9920,696.662,0.0060087
9930,697.075,0.00621734
9940,697.486,0.00695746
9950,697.899,0.00654622
9960,698.323,0.00601635
9970,698.741,0.00599111
9980,699.161,0.00599027
9990,699.583,0.00599027
10000,699.997,0.00666687
10010,700.413,0.00616237
10020,700.835,0.00609613
10030,701.249,0.0060946
10040,701.669,0.00601989
10050,702.083,0.00582517
10060,702.499,0.00597278
10070,702.914,0.00599021
10080,703.337,0.00599027
10090,703.754,0.00599027
10100,704.17,0.00641102
10110,704.595,0.00596355
10120,705.008,0.0059921
10130,705.43,0.00599028
10140,705.845,0.00598699
10150,706.26,0.00564535
10160,706.679,0.00589706
10170,707.092,0.00600514
10180,707.506,0.00600518
10190,707.926,0.00600517
10200,708.339,0.00598856
10210,708.75,0.00526552
10220,709.174,0.00575935
10230,709.596,0.00600069
10240,710.013,0.00600517
10250,710.433,0.00600517
10260,710.844,0.00585155
10270,711.273,0.00515075
10280,711.691,0.00577609
10290,712.106,0.00599904
10300,712.524,0.00600516
10310,712.936,0.00583048
10320,713.362,0.00517256
10330,713.769,0.00533857
10340,714.192,0.00603671
10350,714.607,0.00609379
10360,715.03,0.00603712
10370,715.445,0.00520704
10380,715.866,0.00501222
10390,716.286,0.00560086
10400,716.699,0.00599216
10410,717.125,0.00600515
10420,717.534,0.00547977
10430,717.951,0.0050334
10440,718.362,0.00499333
10450,718.784,0.00506955
10460,719.197,0.00594926
10470,719.622,0.00581654
10480,720.038,0.00509026
10490,720.452,0.00499424
10500,720.869,0.00499193
10510,721.286,0.0054927
10520,721.702,0.00551732
10530,722.117,0.00505091
10540,722.537,0.0049932
10550,722.951,0.0049919
10560,723.369,0.00499189
10570,723.785,0.00449363
10580,724.202,0.00458487
10590,724.624,0.00496759
10600,725.035,0.00499185
10610,725.451,0.00499189
10620,725.868,0.00483827
10630,726.286,0.00422921
10640,726.718,0.00452578
10650,727.129,0.004937
10660,727.549,0.00509435
10670,727.965,0.00509618
10680,728.387,0.00506047
10690,728.795,0.00425083
10700,729.207,0.00406746
10710,729.621,0.00495505
10720,730.046,0.00500634
10730,730.464,0.00494736
10740,730.879,0.00418711
10750,731.296,0.00401208
10760,731.707,0.00435793
10770,732.133,0.00499386
10780,732.555,0.00500647
10790,732.971,0.00490922
10800,733.382,0.00413979
10810,733.805,0.00401179
10820,734.223,0.0042822
10830,734.639,0.0042272
10840,735.062,0.00392469
10850,735.474,0.00390448
10860,735.884,0.0039041
10870,736.311,0.0039041
10880,736.718,0.0041614
10890,737.135,0.00497637
10900,737.553,0.00435872
10910,737.967,0.00401844
10920,738.394,0.00399376
10930,738.803,0.00399352
10940,739.216,0.00399351
10950,739.636,0.00408767
10960,740.058,0.00411326
10970,740.467,0.00410002
10980,740.879,0.00409786
10990,741.301,0.00409782
11000,741.713,0.00409782
11010,742.131,0.00383518
11020,742.558,0.0040465
11030,742.967,0.003997
11040,743.387,0.00399361
11050,743.804,0.00399351
11060,744.221,0.00400006
11070,744.646,0.00431868
11080,745.056,0.00407715
11090,745.473,0.00399465
11100,745.899,0.00399354
11110,746.312,0.00399351
11120,746.723,0.00398375
11130,747.147,0.00376948
11140,747.571,0.00399676
11150,747.984,0.00399362
11160,748.401,0.00399351
11170,748.82,0.00399351
11180,749.234,0.00367124
11190,749.656,0.00384336
11200,750.067,0.00390564
11210,750.486,0.00390414
11220,750.905,0.0039041
11230,751.315,0.0039041
11240,751.733,0.00374655
11250,752.148,0.00332301
11260,752.571,0.00380988
11270,752.98,0.00400341
11280,753.396,0.00400839
11290,753.812,0.00400616
11300,754.231,0.00351658
11310,754.64,0.00312466
11320,755.064,0.00382267
11330,755.49,0.00409324
11340,755.895,0.00408669
11350,756.321,0.00357041
11360,756.736,0.003049
11370,757.152,0.00301046
11380,757.571,0.00301005
11390,757.983,0.00393308
11400,758.399,0.0039782
11410,758.815,0.00329566
11420,759.236,0.00301153
11430,759.651,0.00299528
11440,760.056,0.00299514
11450,760.469,0.0031071
11460,760.887,0.00387685
11470,761.312,0.00335052
11480,761.726,0.00328496
11490,762.139,0.00333404
11500,762.555,0.00301503
11510,762.971,0.00300927
11520,763.394,0.00395243
11530,763.8,0.00388739
11540,764.22,0.00311701
11550,764.643,0.00299946
11560,765.062,0.00299516
11570,765.475,0.00302121
11580,765.896,0.00380001
11590,766.312,0.00361859
11600,766.731,0.00294883
11610,767.14,0.00289234
11620,767.57,0.00289084
11630,767.984,0.00333883
11640,768.402,0.00374034
11650,768.81,0.00378819
11660,769.229,0.00329678
11670,769.642,0.00310205
11680,770.056,0.00309955
11690,770.478,0.00309944
11700,770.898,0.00343732
11710,771.319,0.003932
11720,771.735,0.00335281
11730,772.152,0.00301064
11740,772.565,0.00299545
11750,772.98,0.00299514
11760,773.4,0.00300207
11770,773.817,0.00390961
11780,774.233,0.00344536
11790,774.653,0.00302799
11800,775.063,0.00299599
11810,775.484,0.00299514
11820,775.9,0.00317767
11830,776.323,0.00375224
11840,776.741,0.00310427
11850,777.153,0.00301332
11860,777.572,0.00301005
11870,777.988,0.00301004
11880,778.408,0.00301003
11890,778.833,0.00303218
11900,779.25,0.00307965
11910,779.664,0.00301275
11920,780.081,0.00301007
11930,780.495,0.00301003
11940,780.913,0.00301003
11950,781.328,0.00276913
11960,781.75,0.00229887
11970,782.172,0.00269924
11980,782.589,0.00288871
11990,783.005,0.0028908
12000,783.428,0.00288996
12010,783.841,0.00254363
12020,784.252,0.00204543
12030,784.672,0.0021199
12040,785.082,0.00265659
12050,785.508,0.00249281
12060,785.928,0.00308687
12070,786.343,0.00298576
12080,786.759,0.00213677
12090,787.179,0.00200028
12100,787.59,0.00199682
12110,788.006,0.00252326
12120,788.427,0.00295893
12130,788.847,0.00298713
12140,789.258,0.00255526
12150,789.673,0.00204342
12160,790.092,0.00199723
12170,790.515,0.00251983
12180,790.927,0.00297941
12190,791.345,0.00299477
12200,791.764,0.00293839
12210,792.181,0.00224387
12220,792.602,0.00211337
12230,793.021,0.00279532
12240,793.438,0.00299296
12250,793.816,0.00299511
12260,794.126,0.00211257
12270,794.376,0.0020011
12280,794.571,0.00226765
12290,794.749,0.00265382
12300,794.88,0.00265332
12310,795.004,0.00297576
12320,795.095,0.00249247
12330,795.176,0.00243468
12340,795.247,0.00217974
12350,795.307,0.00201764
12360,795.352,0.0019972
12370,795.387,0.00199676
12380,795.423,0.00199676
12390,795.448,0.00199676
12400,795.475,0.00199676
12410,795.498,0.00199676
12420,795.52,0.00199676
12430,795.532,0.00199676
12440,795.547,0.00199676
12450,795.562,0.00199676
12460,795.566,0.00199676
12470,795.572,0.00199676
12480,795.582,0.00199676
12490,795.581,0.00199676
12500,795.584,0.00199676
12510,795.589,0.00199676
12520,795.594,0.00199676
12530,795.602,0.00199676
12540,795.602,0.00199676
12550,795.599,0.00199676
12560,795.603,0.00199676
12570,795.611,0.00199676
12580,795.598,0.00199676
12590,795.597,0.00199676
12600,795.604,0.00199676