File: Non-charring/PMMA/DBI-Lund/DBI-Lund_Gasification_50kW_1.csv
Time,Mass
[s],[g]
0,68.6
1,68.62235
2,68.50784
3,68.4937
4,68.4398
5,68.4772
6,68.3432
7,68.3712
8,68.4813
9,68.3986
10,68.2468
11,68.2213
12,68.1927
13,68.411
14,68.4351
15,68.3095
16,68.1874
17,68.1642
18,68.2298
19,68.3309
20,68.2833
21,68.2482
22,68.1555
23,68.1449
24,68.2264
25,68.1949
26,68.0774
27,67.9767
28,68.12969
29,68.24834
30,68.0588
31,67.929
32,68.0048
33,67.9327
34,67.9747
35,67.7494
36,67.7035
37,67.8192
38,67.57268
39,67.4753
40,67.4957
41,67.3685
42,67.1802
43,67.3237
44,67.1427
45,66.9
46,66.81801
47,66.8727
48,66.6814
49,66.6434
50,66.3915
51,66.3226
52,66.2957
53,66.0341
54,66.04
55,65.80197
56,65.8
57,65.6463
58,65.473
59,65.5401
60,65.2901
61,65.219
62,65.0589
63,64.9404
64,64.6649
65,64.6816
66,64.3602
67,64.2071
68,64.2518
69,64.08382
70,63.8512
71,63.8691
72,63.8963
73,63.5511
74,63.4242
75,63.268
76,63.1741
77,62.8376
78,62.8045
79,62.6868
80,62.4829
81,62.2003
82,62.2819
83,62.1699
84,62.043
85,61.7124
86,61.7012
87,61.596
88,61.3898
89,61.0506
90,61.0279
91,60.9778
92,60.5623
93,60.5278
94,60.4942
95,60.2381
96,59.9772
97,60.0729
98,59.7611
99,59.6497
100,59.4712
101,59.3713
102,59.0579
103,58.8865
104,58.7752
105,58.7696
106,58.4485
107,58.3801
108,58.1745
109,58.13
110,57.7674
111,57.5014
112,57.5534
113,57.4635
114,57.0903
115,57.003
116,56.9652
117,56.5743
118,56.48236
119,56.3985
120,56.1476
121,55.8886
122,55.8385
123,55.6224
124,55.4409
125,55.2551
126,55.2763
127,54.8516
128,54.6011
129,54.6528
130,54.4765
131,54.1392
132,54.1355
133,53.97406
134,53.5688
135,53.5946
136,53.3786
137,53.0668
138,52.8496
139,52.9707
140,52.6654
141,52.364
142,52.2836
143,52.1643
144,51.7849
145,51.7533
146,51.56874
147,51.2583
148,51.12359
149,50.9713
150,50.6687
151,50.4489
152,50.4035
153,50.21697
154,50.04
155,49.6513
156,49.64287
157,49.3587
158,49.0695
159,48.9728
160,48.7977
161,48.4829
162,48.4534
163,48.2673
164,47.8602
165,47.719
166,47.5848
167,47.3209
168,47.1927
169,46.9377
170,46.6464
171,46.6693
172,46.1694
173,46.1553
174,45.8274
175,45.5878
176,45.4844
177,45.0722
178,45.08107
179,44.6002
180,44.5642
181,44.3553
182,44.0848
183,44.0334
184,43.7242
185,43.6661
186,43.1919
187,43.1525
188,42.7629
189,42.6651
190,42.4393
191,42.1158
192,42.109
193,41.7762
194,41.4299
195,41.4145
196,41.0933
197,40.8253
198,40.7275
199,40.3306
200,40.1468
201,39.9919
202,39.8558
203,39.23326
204,39.2679
205,39.1624
206,38.7808
207,38.4092
208,38.4014
209,38.2423
210,37.785
211,37.5871
212,37.39142
213,36.9761
214,36.9735
215,36.7706
216,36.2299
217,36.2575
218,35.7957
219,35.5826
220,35.4586
221,35.0905
222,34.9523
223,34.54294
224,34.4908
225,34.0502
226,34.073
227,33.7983
228,33.489
229,33.256
230,32.9269
231,32.74556
232,32.3823
233,32.0221
234,31.8509
235,31.6424
236,31.3747
237,31.1352
238,30.9005
239,30.4159
240,30.3506
241,30.15108
242,29.698
243,29.6335
244,29.2385
245,28.75822
246,28.8015
247,28.3345
248,28.0439
249,28.0593
250,27.6667
251,27.14287
252,26.9421
253,26.8736
254,26.402
255,26.1535
256,26.0518
257,25.4858
258,25.2919
259,25.1459
260,24.6453
261,24.3176
262,24.2459
263,23.8947
264,23.5863
265,23.2996
266,22.9267
267,22.5351
268,22.4291
269,22.1286
270,21.702
271,21.5802
272,21.0763
273,20.8542
274,20.5895
275,20.3584
276,19.9912
277,19.67301
278,19.3909
279,19.065
280,18.7007
281,18.3845
282,18.0153
283,17.8798
284,17.3829
285,17.1366
286,16.8192
287,16.478
288,16.1744
289,15.7186
290,15.558
291,15.04758
292,14.8341
293,14.365
294,14.1556
295,13.8281
296,13.4325
297,13.301
298,12.71181
299,12.65976
300,12.1468
301,11.8613
302,11.5227
303,11.1094
304,10.8718
305,10.3991
306,10.1943
307,9.912812
308,9.428215
309,9.358742
310,9.136618
311,8.64465
312,8.426748
313,8.126738
314,7.957148
315,7.59566
316,7.249951
317,7.091013
318,6.878339
319,6.705036
320,6.487753
321,6.139559
322,6.080676
323,5.768856
324,5.612216
325,5.584507
326,5.373336
327,5.179144
328,4.961907
329,4.750785
330,4.613969
331,4.524754
332,4.306239
333,4.194728
334,4.124284
335,3.809085
336,3.59954
337,3.628191
338,3.572349
339,3.478669
340,3.138129
341,3.091502
342,2.803187
343,2.72839
344,2.798439
345,2.553266
346,2.462569
347,2.373142
348,2.152897
349,2.189047
350,1.989826
351,2.022622
352,1.728961
353,1.874335
354,1.597358
355,1.561005
356,1.518344
357,1.398398
358,1.386737
359,1.282855
360,1.348649
361,0.987219
362,1.172756
363,0.906185
364,0.852774
365,0.854395
366,0.736022
367,0.606156
368,0.694289
369,0.560687
370,0.508322
371,0.397343
372,0.454039
373,0.069589
374,0.430702
375,0.103639
376,0.021929
377,0.060318
378,0.013025
379,0.037363
380,-0.093769
381,0.029529
382,-0.160611
383,-0.347323
384,-0.11316
385,-0.419066
386,-0.365541
387,-0.263012
388,-0.458547
389,-0.391834
390,-0.46992
391,-0.499345
392,-0.528158
393,-0.437797
394,-0.582855
395,-0.790412
396,-0.601887
397,-0.613015
398,-0.782821
399,-0.711294
400,-0.694289
401,-0.68176
402,-0.710797
403,-1.042717
404,-0.882072
405,-0.818485
406,-0.86966
407,-0.862749
408,-1.027933
409,-0.950859
410,-0.884485
411,-0.865682
412,-1.028654
413,-1.018267
414,-1.151505
415,-1.108026
416,-1.00862
417,-1.102737
418,-0.962032
419,-1.150753
420,-1.250583
421,-1.160849
422,-1.259798
423,-1.029447
424,-0.966131
425,-1.31479
426,-1.344805
427,-1.211771
428,-1.198379
429,-1.153343
430,-1.26639
431,-1.274138
432,-1.133286
433,-1.279026
434,-1.278397
435,-1.226267
436,-1.242284
437,-1.271118
438,-1.343731
439,-1.30985
440,-1.276375
441,-1.265923
442,-1.322868
443,-1.299378
444,-1.306156
445,-1.333142
446,-1.354211
447,-1.358769
448,-1.311272
449,-1.281893
450,-1.29676
451,-1.371305
452,-1.25671
453,-1.233181
454,-1.360871
455,-1.397916
456,-1.224886
457,-1.345406
458,-1.372422
459,-1.220556
460,-1.441966
461,-1.393691
462,-1.301416
463,-1.262905
464,-1.251501
465,-1.409477
466,-1.288956
467,-1.26219
468,-1.397166
469,-1.317213
470,-1.314537
471,-1.205365
472,-1.31959
473,-1.430504
474,-1.223166
475,-1.358103
476,-1.411941
477,-1.174882
478,-1.296671
479,-1.325938
480,-1.270041
481,-1.265356
482,-1.304995
483,-1.329358
484,-1.289175
485,-1.342842
486,-1.287713
487,-1.308192
488,-1.359112
489,-1.344977
490,-1.275822
491,-1.198307
492,-1.276476
493,-1.291657
494,-1.264238
495,-1.422967
496,-1.211943
497,-1.302593
498,-1.327198
499,-1.246093
500,-1.338153
501,-1.210467
502,-1.226382
503,-1.321599
504,-1.220996
505,-1.324502
506,-1.205152
507,-1.418307
508,-1.252902
509,-1.247243
510,-1.308992
511,-1.249463
512,-1.213708
513,-1.384179