File: Non-charring/PMMA/DBI-Lund/DBI-Lund_Gasification_25kW_2.csv
Time,Mass
[s],[g]
0,73.8
1,73.9021
2,73.7546
3,73.9941
4,73.953
5,73.86313
6,73.8669
7,73.98071
8,73.9206
9,73.9109
10,73.9807
11,73.9548
12,73.8835
13,73.8655
14,74.1166
15,73.8947
16,73.9061
17,73.9267
18,73.9407
19,73.8644
20,73.9169
21,73.8368
22,73.823
23,73.7432
24,73.8672
25,73.7062
26,73.7628
27,73.76909
28,73.8103
29,73.8687
30,73.9047
31,73.899
32,73.8413
33,73.844
34,73.7536
35,73.8819
36,73.7348
37,73.678
38,73.7192
39,73.7779
40,73.7301
41,73.8544
42,73.7742
43,73.8894
44,73.80393
45,73.8132
46,73.7016
47,73.7496
48,73.6398
49,73.7134
50,73.70085
51,73.7427
52,73.7748
53,73.786
54,73.7511
55,73.9036
56,73.8419
57,73.7186
58,73.7389
59,73.736
60,73.7543
61,73.6952
62,73.6574
63,73.6589
64,73.7573
65,73.6257
66,73.6537
67,73.681
68,73.8016
69,73.7648
70,73.8055
71,73.7214
72,73.6741
73,73.6752
74,73.74933
75,73.51817
76,73.6696
77,73.5741
78,73.6201
79,73.6905
80,73.7233
81,73.5206
82,73.5811
83,73.626
84,73.5775
85,73.5948
86,73.6289
87,73.5053
88,73.6394
89,73.6317
90,73.6176
91,73.6736
92,73.5783
93,73.61255
94,73.38607
95,73.6629
96,73.5082
97,73.49271
98,73.6404
99,73.6903
100,73.53658
101,73.65979
102,73.6537
103,73.6054
104,73.7629
105,73.6424
106,73.5701
107,73.5933
108,73.6239
109,73.5448
110,73.5921
111,73.4789
112,73.4109
113,73.3924
114,73.4689
115,73.5044
116,73.401
117,73.5705
118,73.4867
119,73.5365
120,73.594
121,73.4182
122,73.4154
123,73.4112
124,73.3631
125,73.2717
126,73.3891
127,73.4287
128,73.4115
129,73.3268
130,73.2408
131,73.42639
132,73.4189
133,73.3043
134,73.299
135,73.3005
136,73.2051
137,73.2716
138,73.2416
139,73.217
140,73.1378
141,73.1665
142,73.2443
143,73.2896
144,73.2207
145,73.1803
146,73.0453
147,73.0071
148,73.0537
149,72.9544
150,73.0621
151,72.8483
152,73.1604
153,72.8655
154,72.8948
155,72.8431
156,72.8595
157,72.7585
158,72.803
159,72.8073
160,72.7932
161,72.8019
162,72.6775
163,72.6192
164,72.5562
165,72.52611
166,72.4371
167,72.5009
168,72.4982
169,72.4158
170,72.5393
171,72.3791
172,72.3149
173,72.3169
174,72.2694
175,72.2116
176,72.3213
177,72.2198
178,72.0068
179,72.1685
180,72.0977
181,71.9937
182,71.967
183,72.0413
184,71.93775
185,72.0005
186,71.9085
187,71.887
188,71.8513
189,71.7841
190,71.6064
191,71.646
192,71.6268
193,71.4706
194,71.5307
195,71.5534
196,71.5279
197,71.3874
198,71.397
199,71.4167
200,71.2835
201,71.3054
202,71.164
203,71.2158
204,71.1415
205,71.1964
206,71.1434
207,71.0081
208,71.0062
209,70.9241
210,70.8679
211,70.8317
212,70.8988
213,70.7958
214,70.7508
215,70.8735
216,70.65
217,70.5494
218,70.5319
219,70.49768
220,70.43265
221,70.3438
222,70.3032
223,70.3845
224,70.369
225,70.2828
226,70.2195
227,70.004
228,70.01723
229,70.0697
230,69.87063
231,69.9539
232,69.7279
233,69.8062
234,69.8297
235,69.814
236,69.7298
237,69.6276
238,69.6466
239,69.4745
240,69.5234
241,69.3615
242,69.4573
243,69.3811
244,69.3942
245,69.2594
246,69.1839
247,69.1028
248,69.0456
249,68.9326
250,68.8284
251,68.7984
252,68.7659
253,68.8593
254,68.7341
255,68.6304
256,68.7014
257,68.5346
258,68.4426
259,68.38
260,68.3571
261,68.332
262,68.3477
263,68.1822
264,68.2174
265,68.2307
266,68.0743
267,67.9714
268,67.9101
269,67.7763
270,67.8084
271,67.7501
272,67.7686
273,67.5537
274,67.6205
275,67.51299
276,67.32251
277,67.2212
278,67.2676
279,67.1657
280,67.2814
281,67.1633
282,67.0123
283,66.88059
284,66.8758
285,66.6979
286,66.72006
287,66.7345
288,66.5926
289,66.5994
290,66.5497
291,66.465
292,66.4416
293,66.4735
294,66.3699
295,66.2538
296,66.2631
297,66.1417
298,65.9162
299,65.9976
300,65.8796
301,65.8334
302,65.7826
303,65.8033
304,65.82208
305,65.5356
306,65.69591
307,65.4967
308,65.4388
309,65.4333
310,65.448
311,65.2566
312,65.37
313,65.2666
314,65.0583
315,64.949
316,64.9317
317,64.7872
318,64.6635
319,64.7433
320,64.5885
321,64.6755
322,64.6448
323,64.4714
324,64.33442
325,64.229
326,64.2033
327,64.1343
328,64.0432
329,63.9715
330,64.0358
331,63.8426
332,63.6732
333,63.638
334,63.6655
335,63.636
336,63.4784
337,63.4298
338,63.27459
339,63.2341
340,63.3103
341,63.0404
342,63.0224
343,62.95614
344,62.9118
345,62.7124
346,62.6984
347,62.57465
348,62.6316
349,62.5661
350,62.6042
351,62.50758
352,62.3732
353,62.4158
354,62.2742
355,62.20073
356,61.9979
357,62.07282
358,61.88886
359,61.9236
360,61.8553
361,61.8042
362,61.6066
363,61.5882
364,61.4009
365,61.3529
366,61.30649
367,61.1736
368,61.0863
369,61.0224
370,60.9635
371,60.7422
372,60.7323
373,60.7618
374,60.6
375,60.5659
376,60.6027
377,60.398
378,60.26775
379,60.2409
380,60.1715
381,60.0625
382,60.0695
383,59.9133
384,59.7326
385,59.757
386,59.66317
387,59.5894
388,59.6075
389,59.5504
390,59.4073
391,59.5095
392,59.3129
393,59.1835
394,59.1862
395,59.0137
396,58.891
397,58.985
398,58.7921
399,58.7389
400,58.6455
401,58.4292
402,58.4319
403,58.2854
404,58.3517
405,58.0996
406,57.9664
407,57.9365
408,57.8181
409,57.67306
410,57.7683
411,57.65682
412,57.5719
413,57.5403
414,57.4462
415,57.33726
416,57.2964
417,57.14736
418,57.1131
419,56.9696
420,56.8661
421,56.8305
422,56.677
423,56.7561
424,56.4791
425,56.4725
426,56.2081
427,56.2096
428,56.0201
429,56.0094
430,55.86831
431,55.8306
432,55.7783
433,55.8709
434,55.7252
435,55.6065
436,55.4962
437,55.4155
438,55.2649
439,55.08653
440,55.0584
441,54.8308
442,54.8529
443,54.6912
444,54.7195
445,54.6549
446,54.5261
447,54.2944
448,54.4044
449,54.2503
450,54.1725
451,54.0561
452,54.0142
453,53.9281
454,53.859
455,53.7151
456,53.7863
457,53.5854
458,53.4517
459,53.4302
460,53.2833
461,53.2687
462,52.878
463,52.9967
464,52.7593
465,52.7454
466,52.6588
467,52.6648
468,52.4108
469,52.49328
470,52.3238
471,52.242
472,52.164
473,52.0929
474,51.9609
475,51.7571
476,51.7978
477,51.67676
478,51.5662
479,51.5097
480,51.34542
481,51.09375
482,51.2099
483,51.0676
484,50.8822
485,50.7996
486,50.8746
487,50.6789
488,50.6832
489,50.6214
490,50.4813
491,50.2799
492,50.2991
493,50.03155
494,49.9374
495,49.8267
496,49.7764
497,49.5545
498,49.5958
499,49.3818
500,49.32181
501,49.3857
502,49.1497
503,49.1121
504,49.1193
505,48.9955
506,48.9302
507,48.8404
508,48.6561
509,48.5424
510,48.39726
511,48.3631
512,48.2578
513,48.1704
514,48.0552
515,48.0201
516,47.8596
517,47.8149
518,47.6562
519,47.6428
520,47.4608
521,47.35102
522,47.3299
523,47.1792
524,47.1303
525,46.8924
526,46.7963
527,46.6614
528,46.4954
529,46.4981
530,46.3094
531,46.2601
532,46.2755
533,46.1508
534,45.9083
535,45.93837
536,45.7849
537,45.6767
538,45.6053
539,45.4781
540,45.4306
541,45.3742
542,45.2512
543,45.07899
544,45.0991
545,44.8792
546,44.8048
547,44.6499
548,44.5616
549,44.3515
550,44.137
551,44.3435
552,44.0582
553,43.9458
554,43.8204
555,43.926
556,43.754
557,43.5662
558,43.45275
559,43.4156
560,43.1649
561,43.2248
562,43.157
563,43.0945
564,43.0119
565,42.9306
566,42.6334
567,42.4945
568,42.4982
569,42.4053
570,42.3324
571,42.3182
572,42.1511
573,41.8607
574,41.8259
575,41.6584
576,41.665
577,41.7347
578,41.6681
579,41.4478
580,41.2699
581,41.0974
582,40.9843
583,40.8225
584,40.8535
585,40.63995
586,40.5463
587,40.5068
588,40.3484
589,40.2651
590,40.2369
591,40.0682
592,40.0211
593,40.0238
594,39.8136
595,39.6668
596,39.5258
597,39.4631
598,39.2833
599,39.1092
600,39.0758
601,38.9685
602,38.862
603,38.8099
604,38.6897
605,38.5337
606,38.322
607,38.2757
608,38.2134
609,38.13465
610,38.0321
611,37.9101
612,37.9034
613,37.6462
614,37.6633
615,37.4752
616,37.3929
617,37.3209
618,37.3139
619,37.2111
620,37.0373
621,36.8601
622,36.6562
623,36.67111
624,36.6524
625,36.4953
626,36.2522
627,36.1115
628,36.1395
629,35.9136
630,35.8502
631,35.7813
632,35.7392
633,35.6133
634,35.6068
635,35.3838
636,35.4937
637,35.1942
638,35.0469
639,34.9772
640,34.779
641,34.6718
642,34.496
643,34.5147
644,34.3794
645,34.139
646,34.15016
647,34.14966
648,33.8736
649,33.8831
650,33.7826
651,33.6698
652,33.494
653,33.4123
654,33.16823
655,33.1378
656,33.0447
657,33.0141
658,32.6479
659,32.6883
660,32.5713
661,32.41083
662,32.4205
663,32.2742
664,32.0957
665,32.0435
666,32.0126
667,31.7887
668,31.8708
669,31.78
670,31.6475
671,31.5203
672,31.4195
673,31.0758
674,31.0072
675,31.00053
676,30.89764
677,30.7794
678,30.8452
679,30.6382
680,30.5979
681,30.283
682,30.2018
683,30.0201
684,30.0431
685,29.9872
686,29.8398
687,29.6056
688,29.59981
689,29.4908
690,29.3539
691,29.1931
692,29.1094
693,28.9391
694,28.8846
695,28.7722
696,28.6488
697,28.4636
698,28.4734
699,28.4177
700,28.3143
701,28.147
702,27.9687
703,27.7733
704,27.649
705,27.5561
706,27.645
707,27.4252
708,27.3411
709,27.1562
710,27.1022
711,26.8473
712,26.9109
713,26.6132
714,26.5612
715,26.4496
716,26.4029
717,26.1116
718,26.1002
719,25.9792
720,25.8954
721,25.8258
722,25.7441
723,25.5676
724,25.5249
725,25.39836
726,25.219
727,25.0884
728,25.03761
729,24.9812
730,24.7976
731,24.8467
732,24.5274
733,24.4656
734,24.4378
735,24.2315
736,24.1694
737,23.999
738,23.8231
739,23.7622
740,23.64848
741,23.6172
742,23.386
743,23.3561
744,23.1985
745,23.0174
746,22.8367
747,22.8318
748,22.6973
749,22.7411
750,22.4881
751,22.315
752,22.21874
753,22.1933
754,22.0384
755,21.9722
756,21.9004
757,21.7699
758,21.538
759,21.5617
760,21.3862
761,21.0897
762,21.2178
763,21.1017
764,20.905
765,21.0446
766,20.8525
767,20.6586
768,20.5476
769,20.30936
770,20.1562
771,20.0519
772,20.0606
773,19.9286
774,19.9128
775,19.80354
776,19.6601
777,19.4125
778,19.3727
779,19.19323
780,19.0638
781,19.0257
782,19.0523
783,18.8152
784,18.8012
785,18.6265
786,18.5212
787,18.3598
788,18.2243
789,18.0623
790,18.091
791,17.8939
792,17.8549
793,17.6694
794,17.6958
795,17.4796
796,17.421
797,17.21254
798,17.1475
799,17.0139
800,16.8595
801,16.6631
802,16.6628
803,16.5334
804,16.37474
805,16.3116
806,16.2905
807,16.2104
808,16.0961
809,15.9541
810,15.7027
811,15.5848
812,15.4823
813,15.46938
814,15.5116
815,15.3481
816,15.138
817,15.0326
818,15.091
819,14.9849
820,14.853
821,14.7404
822,14.5068
823,14.459
824,14.6031
825,14.4588
826,14.2759
827,14.076
828,13.9955
829,13.9219
830,13.9504
831,13.8898
832,13.7656
833,13.7803
834,13.5785
835,13.3737
836,13.2869
837,13.25187
838,13.0423
839,13.1033
840,13.0715
841,12.9722
842,12.7788
843,12.9372
844,12.8594
845,12.7677
846,12.7151
847,12.62206
848,12.4129
849,12.5561
850,12.4505
851,12.3541
852,12.2828
853,12.23
854,12.06965
855,12.0897
856,12.0059
857,11.9099
858,11.9004
859,11.7579
860,11.6335
861,11.6636
862,11.621
863,11.4114
864,11.3734
865,11.17539
866,11.2083
867,11.1553
868,11.2441
869,10.9899
870,11.0904
871,10.8999
872,10.86579
873,10.786
874,10.8347
875,10.7078
876,10.7202
877,10.5814
878,10.4582
879,10.441
880,10.4775
881,10.3525
882,10.3457
883,10.0798
884,10.1536
885,10.0944
886,10.0193
887,9.936872
888,9.980921
889,9.988577
890,9.920587
891,9.669989
892,9.663153
893,9.723992
894,9.633822
895,9.414774
896,9.467951
897,9.421677
898,9.480097
899,9.309607
900,9.127592
901,9.106276
902,9.137804
903,9.185751
904,9.155304
905,9.113973
906,9.08229
907,9.046085
908,8.917671
909,8.811704
910,8.697397
911,8.719749
912,8.616353
913,8.669922
914,8.697313
915,8.521082
916,8.423154
917,8.31026
918,8.28541
919,8.29758
920,8.254599
921,8.22578
922,8.081417
923,8.20861
924,7.970982
925,7.83314
926,7.850476
927,7.758631
928,7.758816
929,7.859458
930,7.816291
931,7.695196
932,7.783751
933,7.630608
934,7.529555
935,7.513828
936,7.386449
937,7.433233
938,7.297457
939,7.276017
940,7.107216
941,7.102849
942,7.090987
943,7.214068
944,7.131674
945,7.048937
946,6.933457
947,6.783322
948,6.927575
949,6.861045
950,6.888292
951,6.893598
952,6.764919
953,6.575403
954,6.588936
955,6.66251
956,6.553196
957,6.664218
958,6.501328
959,6.37329
960,6.292401
961,6.274503
962,6.219961
963,6.270576
964,6.228486
965,6.141026
966,6.208822
967,6.319886
968,6.178662
969,6.022092
970,6.071533
971,5.90767
972,5.929932
973,5.920166
974,5.841596
975,5.691028
976,5.972183
977,5.768489
978,5.711151
979,5.692908
980,5.597079
981,5.555004
982,5.593302
983,5.632944
984,5.425965
985,5.585928
986,5.390575
987,5.390537
988,5.390698
989,5.377112
990,5.199428
991,5.352992
992,5.240819
993,5.155207
994,5.097107
995,5.172895
996,5.184748
997,5.196135
998,5.164426
999,5.036982
1000,5.095445
1001,4.99568
1002,4.863019
1003,4.807783
1004,4.844487
1005,4.69772
1006,4.647212
1007,4.758019
1008,4.794621
1009,4.881159
1010,4.681833
1011,4.665038
1012,4.599769
1013,4.547025
1014,4.505873
1015,4.614552
1016,4.561622
1017,4.433419
1018,4.403894
1019,4.316091
1020,4.367967
1021,4.415193
1022,4.317845
1023,4.264594
1024,4.310514
1025,4.301795
1026,4.294331
1027,4.238607
1028,4.108251
1029,4.095917
1030,3.926771
1031,3.936502
1032,3.897127
1033,3.990355
1034,4.037292
1035,4.07669
1036,3.916726
1037,3.867702
1038,3.827098
1039,3.862594
1040,3.842047
1041,3.791014
1042,3.671251
1043,3.741924
1044,3.697113
1045,3.685248
1046,3.551491
1047,3.784892
1048,3.523424
1049,3.38561
1050,3.500765
1051,3.62576
1052,3.621002
1053,3.447419
1054,3.361847
1055,3.278837
1056,3.315044
1057,3.424926
1058,3.344058
1059,3.43536
1060,3.303833
1061,3.301315
1062,3.146503
1063,3.325515
1064,3.234042
1065,3.062422
1066,3.121384
1067,3.183317
1068,3.188442
1069,3.160916
1070,3.174266
1071,2.958663
1072,2.972051
1073,3.061129
1074,3.116506
1075,2.958337
1076,2.914447
1077,2.903132
1078,2.784141
1079,3.001036
1080,2.95436
1081,2.871037
1082,2.920126
1083,2.792658
1084,2.706511
1085,2.647849
1086,2.793026
1087,2.596498
1088,2.661952
1089,2.615004
1090,2.618468
1091,2.554807
1092,2.731461
1093,2.635882
1094,2.613033
1095,2.563766
1096,2.504502
1097,2.417586
1098,2.464549
1099,2.412508
1100,2.343869
1101,2.373724
1102,2.319289
1103,2.279771
1104,2.32928
1105,2.36362
1106,2.253791
1107,2.265937
1108,2.26352
1109,2.290577
1110,2.224953
1111,2.330565
1112,2.124111
1113,2.17178
1114,2.0293
1115,2.158493
1116,2.259031
1117,2.197657
1118,2.245608
1119,2.269946
1120,2.19601
1121,2.023477
1122,2.119768
1123,2.044322
1124,2.031924
1125,1.921477
1126,1.981501
1127,1.955474
1128,1.92082
1129,2.054149
1130,1.959242
1131,1.986019
1132,1.99749
1133,1.941323
1134,1.875182
1135,1.834119
1136,1.845363
1137,1.819236
1138,1.837486
1139,1.729939
1140,1.654669
1141,1.725589
1142,1.830042
1143,1.700915
1144,1.881277
1145,1.791609
1146,1.511269
1147,1.742038
1148,1.652127
1149,1.609775
1150,1.628016
1151,1.736722
1152,1.553195
1153,1.389533
1154,1.540911
1155,1.657433
1156,1.600259
1157,1.628994
1158,1.603283
1159,1.359745
1160,1.459035
1161,1.557561
1162,1.516277
1163,1.669476
1164,1.499779
1165,1.54097
1166,1.45408
1167,1.608462
1168,1.437036
1169,1.515974
1170,1.349374
1171,1.461043
1172,1.41395
1173,1.473985
1174,1.425076
1175,1.461359
1176,1.547912
1177,1.362775
1178,1.480292
1179,1.462295
1180,1.398598
1181,1.233053
1182,1.448533
1183,1.217378
1184,1.254709
1185,1.150862
1186,1.176944
1187,1.191284
1188,1.133879
1189,1.312177
1190,1.228137
1191,1.325298
1192,1.183913
1193,1.195904
1194,1.00705
1195,1.090658
1196,1.102486
1197,1.118746
1198,1.210442
1199,1.128871
1200,1.026689
1201,0.957016
1202,1.052095
1203,1.066728
1204,0.987443
1205,0.921943
1206,1.0296
1207,1.037481
1208,1.070372
1209,0.977347
1210,0.856261
1211,0.902862
1212,1.060242
1213,0.926379
1214,1.113796
1215,0.946367
1216,0.900122
1217,0.846021
1218,0.854359
1219,0.889039
1220,0.878476
1221,0.855215
1222,0.910014
1223,0.940418
1224,0.923609
1225,0.992803
1226,0.877751
1227,0.821426
1228,0.654074
1229,0.688473
1230,0.849521
1231,0.827479
1232,0.852473
1233,0.827596
1234,0.888827
1235,0.755655
1236,0.785677
1237,0.722528
1238,0.668846
1239,0.622242
1240,0.566568
1241,0.764972
1242,0.679024
1243,0.72973
1244,0.79414
1245,0.735333
1246,0.650962
1247,0.693177
1248,0.455686
1249,0.538688
1250,0.639208
1251,0.487844
1252,0.645405
1253,0.623688
1254,0.739681
1255,0.595098
1256,0.774803
1257,0.653185
1258,0.514284
1259,0.502926
1260,0.512656
1261,0.603899
1262,0.482999
1263,0.575297
1264,0.602795
1265,0.708487
1266,0.547707
1267,0.482244
1268,0.420305
1269,0.406666
1270,0.53071
1271,0.51746
1272,0.722503
1273,0.514119
1274,0.510107
1275,0.442709
1276,0.393952
1277,0.452032
1278,0.696848
1279,0.616257
1280,0.471606
1281,0.627582
1282,0.447914
1283,0.445843
1284,0.456672
1285,0.430345
1286,0.505169
1287,0.53245
1288,0.502396
1289,0.390611
1290,0.452141
1291,0.335143
1292,0.377629
1293,0.501386
1294,0.466183
1295,0.538935
1296,0.388631
1297,0.467302
1298,0.347512
1299,0.456581
1300,0.445704
1301,0.473972
1302,0.39215
1303,0.388534
1304,0.391995
1305,0.260399
1306,0.294539
1307,0.28932
1308,0.292389
1309,0.312779
1310,0.463165
1311,0.388945
1312,0.368123
1313,0.384841
1314,0.302206
1315,0.300675
1316,0.286504
1317,0.311115
1318,0.377748
1319,0.452812
1320,0.332127
1321,0.166675
1322,0.367759
1323,0.248835
1324,0.345306
1325,0.224405
1326,0.119905
1327,0.238594
1328,0.162545
1329,0.221337
1330,0.138545
1331,0.370719
1332,0.337048
1333,0.226555
1334,0.165165
1335,0.265379
1336,0.286341
1337,0.095083
1338,0.132249
1339,0.249818