File: Non-charring/PMMA/DBI-Lund/DBI-Lund_DSC_N2_20K_1.csv
Time,Temperature,Heat Flow
[s],[K],[W/g]
0,299.357,-1.87E-02
1.9998,299.346,-1.67E-02
4.0002,299.342,-1.65E-02
6,299.339,-1.69E-02
7.9998,299.34,-1.65E-02
10.0002,299.351,-1.52E-02
12,299.37,-1.38E-02
13.9998,299.402,-1.48E-02
16.0002,299.447,-1.20E-02
18,299.514,-9.53E-03
19.9998,299.605,-6.35E-03
22.0002,299.719,-1.99E-03
24,299.862,4.50E-03
25.9998,300.0319,1.09E-02
28.0002,300.234,2.05E-02
30,300.466,3.06E-02
31.9998,300.733,4.20E-02
34.0002,301.038,5.64E-02
36,301.376,7.05E-02
37.9998,301.751,8.75E-02
40.0002,302.1607,0.10408
42,302.61,0.12269
43.9998,303.0933,0.14529
46.0002,303.61,0.16619
48,304.16,0.18791
49.9998,304.741,0.21151
52.0002,305.356,0.23434
54,305.996,0.25467
55.9998,306.665,0.27915
58.0002,307.355,0.30313
60,308.067,0.32541
61.9998,308.8038,0.34892
64.0002,309.56,0.37153
66,310.336,0.39243
67.9998,311.128,0.41391
70.0002,311.936,0.43514
72,312.757,0.45467
73.9998,313.589,0.47343
76.0002,314.427,0.48994
78,315.274,0.50821
79.9998,316.128,0.5233
82.0002,316.989,0.5384
84,317.855,0.55206
85.9998,318.7227,0.56412
88.0002,319.593,0.57553
90,320.463,0.58628
91.9998,321.332,0.59503
94.0002,322.199,0.60473
96,323.068,0.60932
97.9998,323.936,0.61608
100.0002,324.8,0.62243
102,325.66,0.62745
103.9998,326.515,0.63004
106.0002,327.366,0.63425
108,328.211,0.63576
109.9998,329.049,0.63903
112.0002,329.8822,0.63904
114,330.714,0.63892
115.9998,331.54,0.63962
118.0002,332.361,0.63922
120,333.177,0.63909
121.9998,333.989,0.63828
124.0002,334.795,0.63747
126,335.591,0.6342
127.9998,336.385,0.63256
130.0002,337.175,0.62969
132,337.9627,0.62873
133.9998,338.743,0.62584
136.0002,339.516,0.62418
138,340.284,0.62211
139.9998,341.048,0.61853
142.0002,341.813,0.61549
144,342.574,0.61217
145.9998,343.329,0.61021
148.0002,344.0748,0.60839
150,344.819,0.60478
151.9998,345.561,0.60404
154.0002,346.301,0.60207
156,347.038,0.59996
157.9998,347.772,0.59839
160.0002,348.506,0.59572
162,349.234,0.59579
163.9998,349.96,0.59559
166.0002,350.682,0.59402
168,351.404,0.5934
169.9998,352.124,0.59099
172.0002,352.843,0.59161
174,353.563,0.59099
175.9998,354.2821,0.58968
178.0002,355.0008,0.58753
180,355.716,0.58774
181.9998,356.433,0.58642
184.0002,357.15,0.58524
186,357.867,0.58337
187.9998,358.582,0.58246
190.0002,359.295,0.58002
192,360.01,0.578
193.9998,360.726,0.5764
196.0002,361.442,0.57521
198,362.1589,0.57429
199.9998,362.876,0.5731
202.0002,363.596,0.57205
204,364.313,0.57029
205.9998,365.029,0.56979
208.0002,365.741,0.56832
210,366.458,0.56781
211.9998,367.1729,0.56745
214.0002,367.892,0.56639
216,368.606,0.56658
217.9998,369.3212,0.5665
220.0002,370.034,0.56501
222,370.748,0.56618
223.9998,371.464,0.56554
226.0002,372.18,0.56545
228,372.894,0.56537
229.9998,373.605,0.56612
232.0002,374.312,0.56589
234,375.0222,0.56538
235.9998,375.731,0.56473
238.0002,376.44,0.56492
240,377.147,0.56497
241.9998,377.851,0.56573
244.0002,378.552,0.56577
246,379.252,0.56667
247.9998,379.952,0.56559
250.0002,380.652,0.56606
252,381.349,0.56738
253.9998,382.045,0.5687
256.0002,382.738,0.56733
258,383.429,0.56907
259.9998,384.117,0.56911
262.0002,384.806,0.56944
264,385.491,0.56977
265.9998,386.177,0.57137
268.0002,386.862,0.57227
270,387.55,0.57274
271.9998,388.238,0.57478
274.0002,388.923,0.57539
276,389.606,0.57743
277.9998,390.292,0.57776
280.0002,390.974,0.57923
282,391.656,0.58113
283.9998,392.332,0.58146
286.0002,393.007,0.58251
288,393.677,0.58398
289.9998,394.347,0.58545
292.0002,395.02,0.58921
294,395.696,0.58998
295.9998,396.3749,0.59175
298.0002,397.051,0.59337
300,397.725,0.59514
301.9998,398.395,0.59878
304.0002,399.069,0.60098
306,399.742,0.6029
307.9998,400.418,0.60554
310.0002,401.0903,0.60862
312,401.762,0.60925
313.9998,402.433,0.60989
316.0002,403.105,0.61239
318,403.777,0.6149
319.9998,404.449,0.61641
322.0002,405.1182,0.61632
324,405.786,0.61667
325.9998,406.457,0.61731
328.0002,407.129,0.61723
330,407.802,0.61831
331.9998,408.474,0.61996
334.0002,409.147,0.62017
336,409.818,0.61922
337.9998,410.485,0.61827
340.0002,411.152,0.61631
342,411.8182,0.61579
343.9998,412.489,0.61686
346.0002,413.162,0.61562
348,413.8328,0.61452
349.9998,414.503,0.61458
352.0002,415.172,0.61348
354,415.842,0.61223
355.9998,416.51,0.61214
358.0002,417.179,0.61162
360,417.849,0.61168
361.9998,418.52,0.61072
364.0002,419.19,0.61005
366,419.862,0.6104
367.9998,420.533,0.61017
370.0002,421.202,0.60935
372,421.869,0.60926
373.9998,422.539,0.60873
376.0002,423.2107,0.60981
378,423.882,0.60855
379.9998,424.551,0.60773
382.0002,425.22,0.60852
384,425.8872,0.6096
385.9998,426.555,0.60849
388.0002,427.222,0.60795
390,427.889,0.60801
391.9998,428.556,0.6085
394.0002,429.2232,0.609
396,429.891,0.60817
397.9998,430.562,0.60794
400.0002,431.23,0.60843
402,431.9002,0.60967
403.9998,432.564,0.60914
406.0002,433.233,0.60904
408,433.897,0.60851
409.9998,434.561,0.60974
412.0002,435.224,0.60995
414,435.888,0.60985
415.9998,436.5511,0.60931
418.0002,437.214,0.60996
420,437.879,0.61001
421.9998,438.544,0.61037
424.0002,439.208,0.60968
426,439.872,0.60958
427.9998,440.536,0.61157
430.0002,441.201,0.61162
432,441.865,0.61317
433.9998,442.529,0.61352
436.0002,443.192,0.61551
438,443.855,0.61497
439.9998,444.518,0.61503
442.0002,445.182,0.61658
444,445.848,0.61708
445.9998,446.514,0.61909
448.0002,447.177,0.62019
450,447.84,0.6201
451.9998,448.502,0.62225
454.0002,449.165,0.62216
456,449.829,0.62372
457.9998,450.492,0.62393
460.0002,451.156,0.62534
462,451.8201,0.62706
463.9998,452.484,0.62817
466.0002,453.1489,0.62989
468,453.815,0.63116
469.9998,454.482,0.63393
472.0002,455.147,0.634
474,455.812,0.63572
475.9998,456.477,0.63684
478.0002,457.142,0.63842
480,457.807,0.63925
481.9998,458.471,0.63947
484.0002,459.138,0.6412
486,459.806,0.64324
487.9998,460.474,0.64452
490.0002,461.141,0.64596
492,461.809,0.64603
493.9998,462.477,0.64671
496.0002,463.146,0.64755
498,463.814,0.64777
499.9998,464.483,0.64922
502.0002,465.1501,0.6496
504,465.818,0.65043
505.9998,466.488,0.65218
508.0002,467.157,0.65211
510,467.825,0.65189
511.9998,468.492,0.65272
514.0002,469.16,0.65097
516,469.828,0.65136
517.9998,470.494,0.65052
520.0002,471.162,0.64937
522,471.827,0.65036
523.9998,472.494,0.64922
526.0002,473.16,0.64991
528,473.8322,0.64983
529.9998,474.5011,0.64776
532.0002,475.169,0.64815
534,475.833,0.64684
535.9998,476.5,0.64569
538.0002,477.169,0.64622
540,477.835,0.64522
541.9998,478.4998,0.64636
544.0002,479.162,0.64444
546,479.83,0.64451
547.9998,480.498,0.64473
550.0002,481.168,0.64496
552,481.832,0.64534
553.9998,482.497,0.64618
556.0002,483.161,0.64564
558,483.826,0.64818
559.9998,484.494,0.64763
562.0002,485.162,0.64771
564,485.83,0.64886
565.9998,486.495,0.65002
568.0002,487.163,0.65149
570,487.83,0.65296
571.9998,488.498,0.65443
574.0002,489.166,0.65512
576,489.831,0.65706
577.9998,490.497,0.65776
580.0002,491.163,0.65737
582,491.829,0.65838
583.9998,492.498,0.65908
586.0002,493.165,0.6576
588,493.834,0.65706
589.9998,494.5,0.65527
592.0002,495.164,0.65519
594,495.828,0.6537
595.9998,496.4931,0.65096
598.0002,497.158,0.6501
600,497.824,0.64923
601.9998,498.491,0.64711
604.0002,499.155,0.64405
606,499.82,0.64334
607.9998,500.483,0.64184
610.0002,501.147,0.63814
612,501.813,0.63507
613.9998,502.478,0.63105
616.0002,503.144,0.62781
618,503.809,0.62583
619.9998,504.474,0.62258
622.0002,505.137,0.62106
624,505.801,0.61765
625.9998,506.466,0.61423
628.0002,507.132,0.61208
630,507.801,0.61181
631.9998,508.469,0.60855
634.0002,509.137,0.60512
636,509.802,0.60564
637.9998,510.467,0.6003
640.0002,511.13,0.59939
642,511.792,0.59642
643.9998,512.4589,0.59472
646.0002,513.125,0.59206
648,513.789,0.59115
649.9998,514.45,0.58912
652.0002,515.117,0.58835
654,515.784,0.58553
655.9998,516.454,0.58365
658.0002,517.12,0.58257
660,517.7878,0.58101
661.9998,518.4532,0.57865
664.0002,519.117,0.5774
666,519.782,0.57615
667.9998,520.4479,0.57489
670.0002,521.114,0.573
672,521.78,0.57111
673.9998,522.446,0.57081
676.0002,523.112,0.56875
678,523.7788,0.56733
679.9998,524.447,0.56543
682.0002,525.1143,0.56464
684,525.781,0.56274
685.9998,526.445,0.56243
688.0002,527.108,0.56164
690,527.773,0.55941
691.9998,528.44,0.55878
694.0002,529.1067,0.55734
696,529.772,0.55558
697.9998,530.438,0.55334
700.0002,531.106,0.55351
702,531.775,0.55126
703.9998,532.443,0.5495
706.0002,533.112,0.54821
708,533.779,0.54709
709.9998,534.444,0.54644
712.0002,535.108,0.54548
714,535.774,0.54467
715.9998,536.44,0.54322
718.0002,537.108,0.54306
720,537.777,0.54289
721.9998,538.447,0.54079
724.0002,539.116,0.5403
726,539.784,0.54046
727.9998,540.454,0.5429
730.0002,541.126,0.54842
732,541.7973,0.55428
733.9998,542.469,0.56519
736.0002,543.138,0.57643
738,543.808,0.59208
739.9998,544.482,0.60352
742.0002,545.156,0.61138
744,545.832,0.62073
745.9998,546.504,0.6304
748.0002,547.174,0.63748
750,547.844,0.64522
751.9998,548.514,0.65329
754.0002,549.185,0.6599
756,549.856,0.6675
757.9998,550.527,0.67691
760.0002,551.1979,0.68109
762,551.868,0.69003
763.9998,552.538,0.69504
766.0002,553.208,0.70203
768,553.878,0.70968
769.9998,554.5457,0.71849
772.0002,555.211,0.72698
774,555.877,0.73432
775.9998,556.544,0.74498
778.0002,557.212,0.75432
780,557.879,0.76599
781.9998,558.5461,0.77783
784.0002,559.213,0.79266
786,559.878,0.80751
787.9998,560.542,0.8189
790.0002,561.207,0.83295
792,561.872,0.84536
793.9998,562.539,0.85746
796.0002,563.205,0.86858
798,563.869,0.88186
799.9998,564.533,0.89201
802.0002,565.197,0.90466
804,565.862,0.91616
805.9998,566.525,0.928
808.0002,567.188,0.93604
810,567.847,0.94541
811.9998,568.508,0.95246
814.0002,569.169,0.96369
816,569.832,0.9741
817.9998,570.496,0.98185
820.0002,571.1572,0.98961
822,571.819,0.99721
823.9998,572.478,1.00415
826.0002,573.138,1.00825
828,573.799,1.01287
829.9998,574.462,1.01799
832.0002,575.123,1.02144
834,575.785,1.02808
835.9998,576.4488,1.03389
838.0002,577.112,1.03769
840,577.775,1.04217
841.9998,578.433,1.04699
844.0002,579.093,1.0513
846,579.755,1.0558
847.9998,580.419,1.0613
850.0002,581.081,1.06311
852,581.742,1.06593
853.9998,582.404,1.06994
856.0002,583.0662,1.07327
858,583.728,1.07661
859.9998,584.389,1.07944
862.0002,585.052,1.08144
864,585.713,1.08174
865.9998,586.378,1.08611
868.0002,587.041,1.08929
870,587.703,1.09113
871.9998,588.365,1.09347
874.0002,589.026,1.09598
876,589.687,1.09782
877.9998,590.348,1.1017
880.0002,591.012,1.10422
882,591.6778,1.10709
883.9998,592.343,1.11115
886.0002,593.008,1.11675
888,593.671,1.12031
889.9998,594.337,1.1237
892.0002,595.004,1.12966
894,595.671,1.13665
895.9998,596.336,1.14159
898.0002,597.001,1.14825
900,597.668,1.15458
901.9998,598.335,1.16638
904.0002,599.002,1.17358
906,599.672,1.18284
907.9998,600.339,1.19195
910.0002,601.005,1.20174
912,601.669,1.21412
913.9998,602.334,1.22342
916.0002,602.999,1.23463
918,603.664,1.24756
919.9998,604.332,1.26086
922.0002,604.998,1.27588
924,605.663,1.28938
925.9998,606.326,1.3053
928.0002,606.992,1.32056
930,607.658,1.33704
931.9998,608.325,1.35647
934.0002,608.99,1.3735
936,609.657,1.3928
937.9998,610.3238,1.41144
940.0002,610.991,1.43131
942,611.658,1.45639
943.9998,612.3227,1.47682
946.0002,612.988,1.4997
948,613.65,1.52347
949.9998,614.314,1.54675
952.0002,614.978,1.57249
954,615.646,1.60087
955.9998,616.3129,1.62719
958.0002,616.978,1.65668
960,617.6436,1.68672
961.9998,618.308,1.71574
964.0002,618.974,1.74516
966,619.638,1.77896
967.9998,620.303,1.81245
970.0002,620.967,1.84441
972,621.633,1.88113
973.9998,622.299,1.91806
976.0002,622.963,1.95136
978,623.624,1.98907
979.9998,624.2852,2.02717
982.0002,624.947,2.06514
984,625.609,2.10508
985.9998,626.272,2.1442
988.0002,626.935,2.18388
990,627.6,2.22485
991.9998,628.263,2.26814
994.0002,628.927,2.31043
996,629.591,2.35295
997.9998,630.255,2.39551
1000,630.92,2.44059
1002,631.582,2.48501
1004,632.249,2.5309
1006,632.909,2.57437
1008,633.5722,2.61912
1010,634.233,2.6641
1012,634.897,2.70666
1014,635.561,2.75104
1016,636.225,2.79141
1018,636.889,2.83111
1020,637.555,2.8659
1022,638.22,2.89967
1024,638.885,2.93117
1026,639.548,2.962
1028,640.211,2.98824
1030,640.877,3.00457
1032,641.542,3.01665
1034,642.21,3.02645
1036,642.874,3.04407
1038,643.54,3.05655
1040,644.207,3.07849
1042,644.8733,3.0976
1044,645.542,3.10979
1046,646.207,3.11698
1048,646.875,3.12668
1050,647.54,3.13496
1052,648.209,3.13843
1054,648.878,3.13761
1056,649.547,3.13875
1058,650.213,3.13595
1060,650.882,3.11809
1062,651.553,3.09897
1064,652.2253,3.08431
1066,652.895,3.06675
1068,653.564,3.05007
1070,654.234,3.03552
1072,654.9029,3.02005
1074,655.574,3.01465
1076,656.244,3.02454
1078,656.915,3.03678
1080,657.5868,3.03336
1082,658.257,3.02704
1084,658.928,3.02198
1086,659.597,3.01582
1088,660.269,3.02755
1090,660.9393,3.00728
1092,661.612,2.98085
1094,662.281,2.96523
1096,662.951,2.9592
1098,663.617,2.95061
1100,664.287,2.92479
1102,664.956,2.90402
1104,665.6252,2.87868
1106,666.2939,2.85313
1108,666.968,2.82356
1110,667.641,2.7834
1112,668.3131,2.74956
1114,668.984,2.71313
1116,669.652,2.66991
1118,670.322,2.6239
1120,670.991,2.57547
1122,671.661,2.52241
1124,672.332,2.46637
1126,673.002,2.40533
1128,673.673,2.34184
1130,674.344,2.27791
1132,675.015,2.21299
1134,675.687,2.15
1136,676.358,2.08108
1138,677.028,2.01206
1140,677.698,1.94389
1142,678.368,1.876
1144,679.037,1.80656
1146,679.705,1.73979
1148,680.375,1.66964
1150,681.044,1.60602
1152,681.711,1.53791
1154,682.379,1.47451
1156,683.046,1.41306
1158,683.716,1.35246
1160,684.386,1.29493
1162,685.058,1.24011
1164,685.7277,1.18706
1166,686.396,1.1382
1168,687.062,1.08799
1170,687.731,1.04383
1172,688.4,0.99869
1174,689.0669,0.95591
1176,689.732,0.91622
1178,690.398,0.88132
1180,691.063,0.84359
1182,691.726,0.80841
1184,692.388,0.77839
1186,693.05,0.7502
1188,693.715,0.72254
1190,694.382,0.69615
1192,695.0481,0.67383
1194,695.713,0.64924
1196,696.381,0.63153
1198,697.0497,0.62704
1200,697.723,0.62797
1202,698.395,0.62871
1204,699.067,0.62964
1206,699.735,0.62701
1208,700.403,0.62344
1210,701.07,0.62081
1212,701.7349,0.61817
1214,702.4,0.61365
1216,703.0639,0.61101
1218,703.728,0.59615
1220,704.392,0.58091
1222,705.057,0.57542
1224,705.718,0.56484
1226,706.378,0.55519
1228,707.037,0.54327
1230,707.697,0.52927
1232,708.353,0.51939
1234,709.013,0.5063
1236,709.672,0.49735
1238,710.332,0.4863
1240,710.989,0.47657
1242,711.6481,0.46304
1244,712.308,0.45291
1246,712.9661,0.44541
1248,713.626,0.43411
1250,714.285,0.40159
1252,714.946,0.39082
1254,715.606,0.38043
1256,716.267,0.37438
1258,716.9291,0.36263
1260,717.591,0.35239
1262,718.253,0.34176
1264,718.914,0.3353
1266,719.576,0.32616
1268,720.238,0.31835
1270,720.902,0.31148
1272,721.567,0.30347
1274,722.233,0.29811
1276,722.898,0.2937
1278,723.563,0.291
1280,724.225,0.28696
1282,724.891,0.28197
1284,725.558,0.27888
1286,726.226,0.27636
1288,726.893,0.27422
1290,727.559,0.2715
1292,728.226,0.27051
1294,728.894,0.26817
1296,729.56,0.2664
1298,730.229,0.26713
1300,730.895,0.26497
1302,731.5641,0.26474
1304,732.232,0.26566
1306,732.9,0.26389
1308,733.569,0.26269
1310,734.237,0.26226
1312,734.906,0.26164
1314,735.574,0.2616
1316,736.244,0.26252
1318,736.912,0.26344
1320,737.58,0.26359
1322,738.245,0.26239
1324,738.9122,0.26428
1326,739.581,0.26385
1328,740.25,0.26342
1330,740.919,0.26473
1332,741.588,0.26527
1334,742.257,0.26503
1336,742.926,0.26615
1338,743.595,0.26708
1340,744.267,0.26704
1342,744.935,0.26719
1344,745.603,0.26676
1346,746.269,0.26866
1348,746.937,0.26901
1350,747.604,0.27247
1352,748.271,0.27048
1354,748.939,0.27219
1356,749.6069,0.27079
1358,750.273,0.27309
1360,750.94,0.27187
1362,751.606,0.2732
1364,752.273,0.27335
1366,752.938,0.27429
1368,753.601,0.27405
1370,754.264,0.27401
1372,754.93,0.27553
1374,755.6001,0.2751
1376,756.268,0.27349
1378,756.935,0.27404
1380,757.6,0.27674
1382,758.268,0.27788
1384,758.936,0.27922
1386,759.603,0.27918
1388,760.269,0.27874
1390,760.938,0.28067
1392,761.606,0.27689
1394,762.273,0.27546
1396,762.934,0.27739
1398,763.599,0.27854
1400,764.2629,0.27968
1402,764.929,0.28162
1404,765.596,0.2794
1406,766.265,0.28153
1408,766.933,0.27912
1410,767.599,0.28145
1412,768.264,0.2826
1414,768.929,0.28395
1416,769.5941,0.28371
1418,770.258,0.28347
1420,770.9201,0.28422
1422,771.583,0.28179
1424,772.247,0.28195
1426,772.914,0.2827
1428,773.581,0.28246
1430,774.2482,0.28042
1432,774.914,0.28098
1434,775.58,0.28193
1436,776.247,0.27929
1438,776.913,0.28065
1440,777.578,0.2828
1442,778.246,0.28296
1444,778.913,0.28211
1446,779.58,0.28247
1448,780.246,0.28242
1450,780.91,0.28458
1452,781.575,0.28354
1454,782.243,0.28088
1456,782.912,0.28224
1458,783.579,0.283
1460,784.246,0.28376
1462,784.913,0.28613
1464,785.581,0.28347
1466,786.248,0.28363
1468,786.914,0.28519
1470,787.581,0.28495
1472,788.246,0.28611
1474,788.914,0.28768
1476,789.58,0.28562
1478,790.248,0.28678
1480,790.914,0.28694
1482,791.5849,0.28872
1484,792.254,0.28968
1486,792.9212,0.28883
1488,793.585,0.28899
1490,794.252,0.29016
1492,794.9178,0.29113
1494,795.587,0.29027
1496,796.254,0.29205
1498,796.921,0.29181
1500,797.588,0.29339
1502,798.254,0.2964
1504,798.9211,0.29554
1506,799.589,0.29651
1508,800.258,0.29708
1510,800.927,0.29725
1512,801.596,0.29904
1514,802.265,0.30022
1516,802.9339,0.29998
1518,803.601,0.30157
1520,804.266,0.30234
1522,804.93,0.30455
1524,805.5959,0.30472
1526,806.265,0.30591
1528,806.934,0.30689
1530,807.601,0.30747
1532,808.2676,0.30845
1534,808.933,0.3078
1536,809.6005,0.30961
1538,810.266,0.31224
1540,810.932,0.31528
1542,811.5976,0.31566
1544,812.266,0.31562
1546,812.933,0.31682
1548,813.602,0.3207
1550,814.268,0.32396
1552,814.935,0.32496
1554,815.599,0.32534
1556,816.266,0.32716
1558,816.93,0.32878
1560,817.5948,0.33247
1562,818.259,0.33636
1564,818.923,0.33592
1566,819.588,0.33858
1568,820.254,0.34083
1570,820.92,0.34164
1572,821.586,0.34368
1574,822.25,0.34656
1576,822.914,0.34882
1578,823.5789,0.34921
1580,824.244,0.35314
1582,824.9098,0.35478
1584,825.574,0.35476
1586,826.237,0.3564
1588,826.899,0.35763
1590,827.565,0.35803
1592,828.231,0.35801
1594,828.9,0.36049
1596,829.566,0.36194
1598,830.231,0.36296
1600,830.897,0.3642
1602,831.5661,0.36836
1604,832.234,0.36793
1606,832.899,0.37042
1608,833.562,0.37334
1610,834.229,0.37625
1612,834.8956,0.37687
1614,835.563,0.37665
1616,836.227,0.37937
1618,836.892,0.38187
1620,837.557,0.38333
1622,838.225,0.38353
1624,838.891,0.38605
1626,839.558,0.38814
1628,840.224,0.38982
1630,840.8926,0.39002
1632,841.561,0.39128
1634,842.2301,0.39401
1636,842.897,0.39717
1638,843.563,0.39822
1640,844.229,0.40096
1642,844.895,0.40413
1644,845.5612,0.40455
1646,846.228,0.40582
1648,846.895,0.4073
1650,847.565,0.40942
1652,848.234,0.41259
1654,848.901,0.41493
1656,849.5668,0.41811
1658,850.233,0.42129
1660,850.901,0.42194
1662,851.567,0.42555
1664,852.2331,0.42683
1666,852.901,0.42812
1668,853.571,0.42919
1670,854.239,0.43154
1672,854.906,0.43389
1674,855.572,0.4371
1676,856.24,0.43881
1678,856.907,0.43925
1680,857.574,0.44225
1682,858.2421,0.44568
1684,858.911,0.44719
1686,859.579,0.44999
1688,860.246,0.45257
1690,860.916,0.45708
1692,861.584,0.4571
1694,862.25,0.46012
1696,862.914,0.46421
1698,863.581,0.46594
1700,864.25,0.46918
1702,864.919,0.47093
1704,865.588,0.47417
1706,866.255,0.47442
1708,866.922,0.47981
1710,867.587,0.48178
1712,868.254,0.48632
1714,868.921,0.48808
1716,869.588,0.49069
1718,870.254,0.49547
1720,870.92,0.49593
1722,871.587,0.49834
1724,872.2549,0.49881
1726,872.924,0.50079
1728,873.591,0.50623
1730,874.259,0.50908
1732,874.925,0.51064
1734,875.593,0.51457
1736,876.259,0.5198
1738,876.927,0.52137
1740,877.594,0.52769
1742,878.262,0.52688
1744,878.93,0.53018
1746,879.597,0.53262
1748,880.262,0.53527
1750,880.926,0.54097
1752,881.589,0.54124
1754,882.255,0.54282
1756,882.9247,0.54244
1758,883.595,0.54533
1760,884.263,0.54887
1762,884.93,0.55241
1764,885.599,0.55334
1766,886.266,0.55842
1768,886.933,0.56219
1770,887.599,0.56531
1772,888.266,0.56603
1774,888.933,0.5685
1776,889.601,0.57097
1778,890.267,0.57322
1780,890.932,0.57657
1782,891.597,0.57948
1784,892.264,0.58349
1786,892.93,0.58423
1788,893.599,0.58583
1790,894.265,0.58854
1792,894.933,0.59212
1794,895.601,0.59374
1796,896.269,0.59557
1798,896.936,0.59894
1800,897.601,0.60144
1802,898.268,0.60504
1804,898.933,0.60886
1806,899.601,0.61114
1808,900.267,0.61277
1810,900.934,0.6155
1812,901.599,0.6169
1814,902.266,0.6214
1816,902.932,0.62436
1818,903.599,0.62621
1820,904.266,0.62917
1822,904.934,0.63059
1824,905.6003,0.63267
1826,906.263,0.63475
1828,906.927,0.63661
1830,907.59,0.63759
1832,908.255,0.63879
1834,908.9196,0.64221
1836,909.586,0.64297
1838,910.2519,0.64417
1840,910.92,0.64471
1842,911.587,0.64814
1844,912.255,0.65068
1846,912.92,0.65389
1848,913.588,0.65288
1850,914.255,0.65676
1852,914.924,0.65731
1854,915.592,0.65941
1856,916.262,0.66041
1858,916.93,0.66251
1860,917.598,0.66462
1862,918.266,0.67097
1864,918.937,0.67398
1866,919.604,0.67722
1868,920.269,0.68135
1870,920.936,0.68101
1872,921.605,0.68335
1874,922.2751,0.6866
1876,922.944,0.69074
1878,923.609,0.69802
1880,924.275,0.69814
1882,924.942,0.70027
1884,925.611,0.70353
1886,926.279,0.70567
1888,926.946,0.70803
1890,927.613,0.71332
1892,928.28,0.71726
1894,928.947,0.71806
1896,929.615,0.72066
1898,930.284,0.72281
1900,930.953,0.72969
1902,931.621,0.7332
1904,932.292,0.73513
1906,932.9591,0.73706
1908,933.627,0.7399
1910,934.292,0.74613
1912,934.962,0.74694
1914,935.637,0.75318
1916,936.308,0.75626
1918,936.979,0.75957
1920,937.643,0.76513
1922,938.31,0.76845
1924,938.974,0.77108
1926,939.638,0.7753
1928,940.302,0.77771
1930,940.9696,0.77876
1932,941.638,0.78277
1934,942.307,0.7861
1936,942.975,0.79124
1938,943.639,0.79321
1940,944.302,0.79723
1942,944.966,0.80375
1944,945.634,0.80481
1946,946.302,0.80793
1948,946.967,0.81424
1950,947.634,0.81371
1952,948.3,0.81707
1954,948.968,0.81882
1956,949.6348,0.82355
1958,950.302,0.82759
1960,950.9671,0.83187
1962,951.633,0.83409
1964,952.299,0.83792
1966,952.965,0.83854
1968,953.63,0.84123
1970,954.296,0.84506
1972,954.964,0.84706
1974,955.6312,0.84953
1976,956.298,0.85176
1978,956.963,0.85675
1980,957.627,0.85922
1982,958.292,0.86123
1984,958.959,0.86164
1986,959.626,0.86388
1988,960.292,0.8659
1990,960.959,0.86953
1992,961.624,0.86855
1994,962.289,0.87034
1996,962.9544,0.8719
1998,963.622,0.87346
2000,964.288,0.87779
2002,964.954,0.88166
2004,965.619,0.88115
2006,966.286,0.88226
2008,966.952,0.88452
2010,967.621,0.88586
2012,968.287,0.88743
2014,968.9558,0.88969
2016,969.622,0.89173
2018,970.289,0.89446
2020,970.955,0.89673
2022,971.623,0.90016
2024,972.2904,0.90243
2026,972.959,0.90448
2028,973.625,0.90884
2030,974.291,0.90973
2032,974.957,0.91201
2034,975.6253,0.91452
2036,976.293,0.91774
2038,976.962,0.92119
2040,977.628,0.92348
2042,978.2964,0.92437
2044,978.965,0.92783
2046,979.632,0.92942
2048,980.299,0.93475
2050,980.966,0.93401
2052,981.634,0.93888
2054,982.301,0.94071
2056,982.968,0.93928
2058,983.635,0.94392
2060,984.3013,0.94529
2062,984.969,0.94783
2064,985.639,0.94943
2066,986.307,0.95104
2068,986.974,0.95265
2070,987.639,0.95519
2072,988.308,0.95821
2074,988.977,0.96053
2076,989.646,0.96425
2078,990.312,0.9661
2080,990.98,0.96772
2082,991.649,0.96957
2084,992.319,0.97072
2086,992.986,0.97093
2088,993.651,0.97514
2090,994.315,0.97699
2092,994.983,0.98026
2094,995.65,0.98142
2096,996.319,0.98163
2098,996.987,0.98443
2100,997.655,0.98488
2102,998.322,0.98887
2104,998.9901,0.99121
2106,999.658,0.9952
2108,1000.33,0.99495
2110,1000.99,0.99705
2112,1001.66,0.99821
2114,1002.326,1.00079
2116,1002.99,1.00409
2118,1003.66,1.00407
2120,1004.33,1.00381
2122,1005,1.0064
2124,1005.66,1.00828
2126,1006.33,1.01039
2128,1007,1.01108
2130,1007.66,1.01154
2132,1008.33,1.01247
2134,1009,1.01316
2136,1009.66,1.01218
2138,1010.33,1.01026
2140,1011,1.01214
2142,1011.67,1.01426
2144,1012.34,1.0121
2146,1013,1.01589
2148,1013.67,1.01897
2150,1014.34,1.02085
2152,1015,1.02298
2154,1015.67,1.02368
2156,1016.34,1.02557
2158,1017,1.02339
2160,1017.67,1.02385
2162,1018.33,1.0267
2164,1019,1.02859
2166,1019.66,1.02713
2168,1020.33,1.02878
2170,1021,1.02924
2172,1021.67,1.0321
2174,1022.34,1.03088
2176,1023.01,1.03302
2178,1023.67,1.03251
2180,1024.34,1.03321
2182,1025,1.03655
2184,1025.67,1.03557
2186,1026.34,1.03627
2188,1027.01,1.03865
2190,1027.67,1.03814
2192,1028.34,1.04101
2194,1029.01,1.04051
2196,1029.67,1.04096
2198,1030.34,1.04094
2200,1031.01,1.04092
2202,1031.68,1.03872
2204,1032.34,1.04183
2206,1033.01,1.04157
2208,1033.68,1.04057
2210,1034.34,1.04224
2212,1035.01,1.04342
2214,1035.68,1.04316
2216,1036.35,1.04264
2218,1037.01,1.04383
2220,1037.68,1.04646
2222,1038.35,1.04692
2224,1039.02,1.04859
2226,1039.68,1.04954
2228,1040.35,1.05097
2230,1041.02,1.0541
2232,1041.69,1.05748
2234,1042.36,1.05502
2236,1043.022,1.05621
2238,1043.69,1.05983
2240,1044.35,1.06102
2242,1045.02,1.061
2244,1045.68,1.06073
2246,1046.35,1.06362
2248,1047.02,1.06238
2250,1047.68,1.06284
2252,1048.35,1.06379
2254,1049.02,1.06401
2256,1049.69,1.06544
2258,1050.35,1.0659
2260,1051.02,1.06637
2262,1051.69,1.06756
2264,1052.36,1.06753
2266,1053.02,1.06971
2268,1053.69,1.07139
2270,1054.35,1.07137
2272,1055.02,1.06815
2274,1055.69,1.06886
2276,1056.36,1.06981
2278,1057.03,1.07125
2280,1057.69,1.07147
2282,1058.36,1.07119
2284,1059.03,1.07288
2286,1059.696,1.07187
2288,1060.36,1.07381
2290,1061.03,1.0755
2292,1061.7,1.0762
2294,1062.36,1.0774
2296,1063.03,1.07565
2298,1063.7,1.07463
2300,1064.37,1.07682
2302,1065.04,1.07925
2304,1065.7,1.07947
2306,1066.37,1.07944
2308,1067.037,1.0799
2310,1067.71,1.08061
2312,1068.37,1.08181
2314,1069.04,1.08252
2316,1069.71,1.08595
2318,1070.37,1.08542
2320,1071.04,1.08613
2322,1071.7,1.08882
2324,1072.37,1.08953
2326,1073.04,1.09
2328,1073.71,1.08972
2330,1074.38,1.08968
2332,1075.04,1.09188
2334,1075.71,1.09309
2336,1076.38,1.09679
2338,1077.04,1.09427
2340,1077.71,1.09523
2342,1078.38,1.09569
2344,1079.05,1.09691
2346,1079.71,1.09538
2348,1080.38,1.09559
2350,1081.05,1.09705
2352,1081.72,1.09652
2354,1082.38,1.09598
2356,1083.05,1.09744
2358,1083.72,1.09641
2360,1084.38,1.09737
2362,1085.05,1.09508
2364,1085.72,1.0988
2366,1086.39,1.09751
2368,1087.05,1.09897
2370,1087.72,1.09843
2372,1088.39,1.1009
2374,1089.06,1.10036
2376,1089.72,1.09831
2378,1090.39,1.09677
2380,1091.06,1.09647
2382,1091.72,1.09744
2384,1092.39,1.09664
2386,1093.06,1.09836
2388,1093.72,1.10007
2390,1094.39,1.10279
2392,1095.06,1.10477
2394,1095.72,1.1085
2396,1096.39,1.10644
2398,1097.06,1.10464
2400,1097.72,1.10888
2402,1098.39,1.10833
2404,1099.06,1.11031
2406,1099.72,1.10749
2408,1100.39,1.1077
2410,1101.06,1.10615
2412,1101.73,1.10736
2414,1102.4,1.1101
2416,1103.06,1.10778
2418,1103.73,1.10875
2420,1104.4,1.10794
2422,1105.06,1.10815
2424,1105.73,1.10785
2426,1106.4,1.1078
2428,1107.07,1.10624
2430,1107.73,1.10695
2432,1108.4,1.10589
2434,1109.07,1.1066
2436,1109.74,1.10935
2438,1110.41,1.11006
2440,1111.07,1.11306
2442,1111.74,1.10895
2444,1112.41,1.11093
2446,1113.07,1.11113
2448,1113.74,1.11159
2450,1114.41,1.11256
2452,1115.08,1.11328
2454,1115.75,1.11552
2456,1116.41,1.11649
2458,1117.08,1.11338
2460,1117.75,1.11945
2462,1118.41,1.11838
2464,1119.08,1.12089
2466,1119.75,1.11828
2468,1120.42,1.119
2470,1121.08,1.11921
2472,1121.75,1.12018
2474,1122.42,1.12089
2476,1123.09,1.12315
2478,1123.76,1.12438
2480,1124.42,1.12433
2482,1125.09,1.12402
2484,1125.75,1.12268
2486,1126.42,1.12955
2488,1127.09,1.13053
2490,1127.76,1.13305
2492,1128.43,1.13249
2494,1129.1,1.13321
2496,1129.763,1.13727
2498,1130.43,1.13953
2500,1131.09,1.1418
2502,1131.76,1.14226
2504,1132.43,1.14299
2506,1133.1,1.14449
2508,1133.77,1.14264
2510,1134.43,1.14646
2512,1135.1,1.14693
2514,1135.77,1.15152
2516,1136.44,1.15535
2518,1137.11,1.15814
2520,1137.78,1.15784
2522,1138.44,1.15883
2524,1139.11,1.16033
2526,1139.78,1.16029
2528,1140.44,1.16283
2530,1141.11,1.16589
2532,1141.77,1.16844
2534,1142.44,1.17227
2536,1143.102,1.17405
2538,1143.77,1.17608
2540,1144.44,1.1737
2542,1145.1,1.17677
2544,1145.77,1.1827
2546,1146.44,1.18266
2548,1147.1,1.1847
2550,1147.77,1.18934
2552,1148.44,1.19112
2554,1149.1,1.19342
2556,1149.77,1.19494
2558,1150.44,1.19777
2560,1151.1,1.19877
2562,1151.77,1.20369
2564,1152.43,1.20391
2566,1153.1,1.21196
2568,1153.76,1.21219
2570,1154.43,1.21346
2572,1155.1,1.2176
2574,1155.76,1.22279
2576,1156.43,1.22694
2578,1157.09,1.23161
2580,1157.76,1.23603
2582,1158.42,1.23862
2584,1159.09,1.24069
2586,1159.75,1.24354
2588,1160.42,1.24614
2590,1161.08,1.25266
2592,1161.75,1.25448
2594,1162.41,1.25839
2596,1163.07,1.26545
2598,1163.74,1.26884
2600,1164.4,1.26935
2602,1165.07,1.27301
2604,1165.73,1.27825
2606,1166.4,1.28218
2608,1167.06,1.2869
2610,1167.73,1.29372
2612,1168.39,1.2945
2614,1169.05,1.29818
2616,1169.72,1.30712
2618,1170.38,1.30923
2620,1171.05,1.31608
2622,1171.71,1.32135
2624,1172.38,1.32531
2626,1173.05,1.33059
2628,1173.71,1.33402
2630,1174.38,1.33852
2632,1175.04,1.34381
2634,1175.71,1.34646
2636,1176.38,1.35519
2638,1177.04,1.35627
2640,1177.71,1.35972
2642,1178.37,1.36979
2644,1179.03,1.37298
2646,1179.7,1.37512
2648,1180.37,1.38335
2650,1181.03,1.38894
2652,1181.7,1.39348
2654,1182.37,1.40093
2656,1183.03,1.40574
2658,1183.7,1.41267
2660,1184.37,1.41961
2662,1185.04,1.42443
2664,1185.7,1.43298
2666,1186.36,1.43647
2668,1187.03,1.4413
2670,1187.7,1.44774
2672,1188.37,1.4555
2674,1189.03,1.46887
2676,1189.69,1.47451
2678,1190.36,1.48497
2680,1191.03,1.49276
2682,1191.69,1.50456
2684,1192.36,1.51503
2686,1193.02,1.52364
2688,1193.69,1.53013
2690,1194.36,1.54089
2692,1195.02,1.55247
2694,1195.69,1.56325
2696,1196.36,1.5735
2698,1197.02,1.58563
2700,1197.69,1.59483
2702,1198.35,1.6027
2704,1199.02,1.61619
2706,1199.68,1.62434
2708,1200.35,1.6333
2710,1201.02,1.64415
2712,1201.68,1.65527
2714,1202.35,1.66345
2716,1203.02,1.677
2718,1203.68,1.68734
2720,1204.35,1.69742
2722,1205.02,1.70832
2724,1205.69,1.71761
2726,1206.35,1.72744
2728,1207.02,1.73917
2730,1207.69,1.74875
2732,1208.35,1.76022
2734,1209.02,1.76443
2736,1209.68,1.77618
2738,1210.35,1.78148
2740,1211.02,1.78407
2744,1212.35,1.80278
2746,1213.01,1.81349
2748,1213.68,1.82529
2750,1214.34,1.83494
2752,1215.01,1.84406
2754,1215.68,1.85345
2756,1216.35,1.86258
2758,1217.01,1.87415
2760,1217.68,1.88438
2762,1218.35,1.89679
2764,1219.02,1.90541
2766,1219.68,1.9143
2768,1220.35,1.92565
2770,1221.01,1.9351
2772,1221.68,-0.59396
2774,1222.36,-0.55779