File: Non-charring/PMMA/DBI-Lund/DBI-Lund_Gasification_25kW_1.csv
Time,Mass
[s],[g]
0,69.1
1,69.2476
2,69.1054
3,69.082
4,69.1284
5,69.136
6,69.1878
7,69.0435
8,69.1734
9,69.294
10,69.2002
11,69.2313
12,69.1961
13,69.0538
14,69.175
15,69.1512
16,69.1234
17,69.19825
18,69.1919
19,68.9335
20,69.11565
21,69.2388
22,69.0453
23,69.1316
24,69.2182
25,69.1723
26,69.1585
27,68.9922
28,69.0636
29,69.1426
30,68.9555
31,69.1264
32,69.08655
33,69.0607
34,69.1666
35,69.0178
36,69.132
37,69.1399
38,68.9895
39,69.11693
40,69.1496
41,69.1648
42,69.0008
43,69.0462
44,69.0559
45,68.9513
46,69.0754
47,68.9635
48,68.9654
49,69.0675
50,69.0184
51,69.168
52,69.0078
53,69.0107
54,69.021
55,69.0051
56,69.02683
57,68.9656
58,69.0706
59,68.9608
60,68.8764
61,69.07702
62,68.8697
63,69.032
64,69.135
65,68.7671
66,68.9149
67,68.9654
68,68.7756
69,68.9554
70,68.9217
71,68.8089
72,68.8637
73,68.8993
74,69.0315
75,68.96127
76,68.90134
77,68.99439
78,68.9904
79,68.979
80,68.8663
81,68.8532
82,69.0741
83,68.8194
84,68.8326
85,69.06161
86,68.9242
87,68.9535
88,69.0475
89,68.9383
90,68.8737
91,68.7837
92,68.8194
93,68.8306
94,68.9893
95,69.0508
96,68.8683
97,68.80974
98,68.9254
99,68.7976
100,68.87044
101,69.0163
102,68.78223
103,68.8528
104,68.859
105,68.7394
106,68.9184
107,69.0543
108,68.8806
109,68.8833
110,68.8122
111,68.8789
112,68.76479
113,68.9247
114,68.8079
115,68.7145
116,68.8474
117,68.83316
118,68.9675
119,68.7983
120,68.7444
121,68.8001
122,68.7602
123,68.6761
124,68.6633
125,68.7354
126,68.5942
127,68.6497
128,68.7192
129,68.6437
130,68.6817
131,68.6164
132,68.5923
133,68.678
134,68.54556
135,68.6562
136,68.5324
137,68.6088
138,68.4406
139,68.4919
140,68.54304
141,68.5009
142,68.5364
143,68.3652
144,68.51131
145,68.3417
146,68.452
147,68.4358
148,68.2821
149,68.4627
150,68.4063
151,68.1982
152,68.155
153,68.2744
154,68.2434
155,68.1867
156,68.2215
157,68.3253
158,68.0653
159,68.103
160,68.1205
161,68.1299
162,68.23672
163,67.9965
164,68.0679
165,68.23277
166,68.0658
167,67.9519
168,67.9431
169,67.8704
170,67.7804
171,67.9178
172,67.8814
173,67.7245
174,67.8106
175,67.8181
176,67.6655
177,67.6502
178,67.72606
179,67.6261
180,67.6031
181,67.5979
182,67.4453
183,67.60133
184,67.4407
185,67.2533
186,67.4109
187,67.3628
188,67.3248
189,67.2397
190,67.3026
191,67.2931
192,67.2056
193,67.2281
194,67.1337
195,67.1023
196,67.1557
197,67.0566
198,66.8648
199,67.0652
200,66.87227
201,66.8692
202,66.7605
203,66.8399
204,66.7746
205,66.71773
206,66.7527
207,66.5706
208,66.6439
209,66.6923
210,66.4386
211,66.5449
212,66.4749
213,66.2527
214,66.5196
215,66.4459
216,66.2778
217,66.299
218,66.1217
219,66.0067
220,65.9783
221,66.1241
222,65.9877
223,65.928
224,65.9762
225,65.882
226,65.8419
227,65.7893
228,65.7603
229,65.6252
230,65.659
231,65.5471
232,65.6849
233,65.4109
234,65.3651
235,65.3222
236,65.3049
237,65.2267
238,65.2621
239,65.1372
240,65.1027
241,64.953
242,65.043
243,65.0352
244,64.9091
245,64.8475
246,64.7137
247,64.82
248,64.6636
249,64.7326
250,64.4496
251,64.5249
252,64.31438
253,64.41989
254,64.3833
255,64.4751
256,64.3134
257,64.2268
258,64.1467
259,64.0266
260,64.1118
261,63.8126
262,63.9456
263,63.8615
264,63.8256
265,63.6002
266,63.6718
267,63.7088
268,63.5204
269,63.4301
270,63.56524
271,63.4246
272,63.34891
273,63.2928
274,63.2664
275,63.2548
276,63.1182
277,63.00526
278,62.9332
279,62.8815
280,62.8079
281,62.9427
282,62.7435
283,62.6337
284,62.7567
285,62.44356
286,62.4659
287,62.5162
288,62.3115
289,62.3699
290,62.252
291,62.1855
292,62.1817
293,62.055
294,62.0731
295,61.9565
296,61.7775
297,61.7462
298,61.7313
299,61.6149
300,61.5931
301,61.5342
302,61.3584
303,61.4849
304,61.4461
305,61.1703
306,61.3922
307,61.1329
308,61.0358
309,61.0843
310,60.9087
311,60.8787
312,60.7723
313,60.85702
314,60.779
315,60.441
316,60.7286
317,60.4606
318,60.5207
319,60.5114
320,60.4698
321,60.2927
322,60.266
323,60.1991
324,60.058
325,60.0457
326,59.9043
327,59.9039
328,59.87987
329,59.6972
330,59.6139
331,59.6696
332,59.5548
333,59.41532
334,59.318
335,59.2727
336,59.2189
337,59.1897
338,59.1618
339,58.9687
340,58.9845
341,58.9221
342,58.7761
343,58.8137
344,58.7221
345,58.5729
346,58.4404
347,58.4099
348,58.3395
349,58.13099
350,58.21683
351,58.2069
352,58.0569
353,57.8827
354,57.9016
355,57.9497
356,57.6681
357,57.6085
358,57.58684
359,57.3889
360,57.4063
361,57.4144
362,57.2698
363,57.145
364,57.0672
365,57.0147
366,56.8167
367,56.87799
368,56.773
369,56.5871
370,56.6999
371,56.4426
372,56.4547
373,56.4277
374,56.2013
375,56.3018
376,56.0212
377,56.12693
378,56.009
379,55.8916
380,55.9112
381,55.64626
382,55.66989
383,55.4786
384,55.4477
385,55.449
386,55.2963
387,55.333
388,55.0374
389,55.1611
390,54.9825
391,54.9924
392,54.8624
393,54.7401
394,54.5956
395,54.55366
396,54.4326
397,54.3417
398,54.3282
399,54.27131
400,54.13986
401,54.1647
402,54.0543
403,53.7442
404,53.776
405,53.8055
406,53.5334
407,53.51953
408,53.4802
409,53.289
410,53.3302
411,53.261
412,53.1103
413,53.0478
414,53.02894
415,52.8327
416,52.6381
417,52.7437
418,52.6403
419,52.4798
420,52.4885
421,52.2935
422,52.33349
423,52.1893
424,52.2414
425,51.8729
426,52.0422
427,51.874
428,51.7203
429,51.7652
430,51.51616
431,51.5298
432,51.3541
433,51.4685
434,51.23244
435,51.05
436,51.245
437,51.0449
438,50.9787
439,50.773
440,50.7915
441,50.6447
442,50.49538
443,50.4382
444,50.21586
445,50.2623
446,50.1995
447,49.9871
448,50.0077
449,49.7619
450,49.83011
451,49.7637
452,49.6085
453,49.5779
454,49.3265
455,49.4381
456,49.2118
457,49.1842
458,49.17123
459,48.8767
460,48.9083
461,48.8341
462,48.8222
463,48.6588
464,48.5825
465,48.5218
466,48.4293
467,48.2561
468,48.0497
469,48.0153
470,48.1422
471,47.7767
472,47.8031
473,47.68142
474,47.709
475,47.3865
476,47.462
477,47.2507
478,47.2074
479,47.2268
480,47.05024
481,46.91257
482,46.77648
483,46.7922
484,46.713
485,46.3574
486,46.4829
487,46.25494
488,46.30147
489,46.1897
490,46.1761
491,46.0622
492,45.9236
493,45.9588
494,45.654
495,45.7672
496,45.5025
497,45.4146
498,45.2911
499,45.4101
500,45.1324
501,44.94081
502,45.0322
503,44.94302
504,44.68936
505,44.8257
506,44.6983
507,44.4305
508,44.3397
509,44.3252
510,44.22631
511,44.1099
512,43.9551
513,43.8791
514,43.8823
515,43.6199
516,43.6339
517,43.4974
518,43.512
519,43.3543
520,43.1405
521,43.2027
522,42.9164
523,42.9609
524,42.73
525,42.8708
526,42.5336
527,42.5596
528,42.3265
529,42.2955
530,42.3323
531,42.0889
532,42.1395
533,41.9602
534,41.7676
535,41.7378
536,41.5344
537,41.5932
538,41.3932
539,41.3333
540,41.3919
541,41.0845
542,41.1298
543,40.8827
544,40.8919
545,40.6507
546,40.6446
547,40.4693
548,40.3573
549,40.2744
550,40.0783
551,40.0927
552,40.0237
553,39.8688
554,39.8167
555,39.751
556,39.5033
557,39.5559
558,39.4205
559,39.24481
560,39.3064
561,39.075
562,38.93368
563,38.8565
564,38.7662
565,38.6462
566,38.5618
567,38.4629
568,38.3318
569,38.3335
570,38.1677
571,38.0868
572,37.9372
573,37.9058
574,37.7716
575,37.6213
576,37.6808
577,37.3868
578,37.1976
579,37.243
580,37.1957
581,36.9432
582,36.9211
583,36.8215
584,36.7628
585,36.6233
586,36.5726
587,36.3227
588,36.1862
589,36.28836
590,36.291
591,35.9601
592,36.0404
593,35.8392
594,35.7122
595,35.7565
596,35.38815
597,35.405
598,35.4057
599,35.1259
600,35.0768
601,35.1374
602,34.8859
603,34.8237
604,34.7546
605,34.6952
606,34.4509
607,34.4589
608,34.3034
609,34.0034
610,34.034
611,33.9216
612,33.8233
613,33.6725
614,33.5084
615,33.6273
616,33.52869
617,33.2894
618,33.1481
619,33.2016
620,32.9584
621,32.8365
622,32.968
623,32.6589
624,32.5864
625,32.6457
626,32.2984
627,32.2145
628,32.1524
629,32.1185
630,31.9474
631,31.7565
632,31.7824
633,31.5926
634,31.3416
635,31.4717
636,31.3327
637,31.1931
638,31.0796
639,30.9046
640,30.8682
641,30.7776
642,30.7053
643,30.47587
644,30.3816
645,30.29
646,30.1468
647,30.0034
648,29.8164
649,29.9399
650,29.8704
651,29.7856
652,29.6457
653,29.5293
654,29.2542
655,29.1921
656,29.0998
657,29.0046
658,28.9584
659,28.7771
660,28.6611
661,28.4124
662,28.55262
663,28.3194
664,28.2559
665,28.1393
666,28.0417
667,27.8724
668,27.7345
669,27.8599
670,27.5471
671,27.5788
672,27.2596
673,27.1991
674,27.15835
675,27.07
676,27.0095
677,26.683
678,26.7641
679,26.60299
680,26.4203
681,26.47156
682,26.0621
683,25.9509
684,26.1058
685,25.8342
686,25.7824
687,25.7071
688,25.6338
689,25.502
690,25.4738
691,25.333
692,25.1699
693,25.1649
694,25.0828
695,24.8048
696,24.784
697,24.7023
698,24.5448
699,24.47755
700,24.429
701,24.1043
702,24.1274
703,24.1098
704,23.9098
705,23.865
706,23.61127
707,23.6458
708,23.4652
709,23.3912
710,23.2686
711,23.155
712,23.1764
713,22.9735
714,22.83401
715,22.8704
716,22.6324
717,22.63357
718,22.4295
719,22.2146
720,22.2975
721,22.1726
722,21.8899
723,21.8463
724,21.7271
725,21.6335
726,21.403
727,21.2738
728,21.361
729,21.1696
730,21.0156
731,21.1235
732,20.8377
733,20.7171
734,20.5804
735,20.3682
736,20.4416
737,20.3389
738,20.2338
739,20.1602
740,19.842
741,19.79316
742,19.8812
743,19.7129
744,19.5197
745,19.448
746,19.2588
747,19.2473
748,19.0732
749,18.7746
750,18.87299
751,18.7425
752,18.7703
753,18.48438
754,18.2629
755,18.4464
756,18.2761
757,18.0032
758,17.981
759,17.8434
760,17.7425
761,17.6892
762,17.6673
763,17.559
764,17.3226
765,17.2729
766,17.1772
767,17.2039
768,17.0335
769,16.7522
770,16.9112
771,16.6462
772,16.6137
773,16.6511
774,16.2735
775,16.3688
776,16.2215
777,15.987
778,16.08818
779,15.8387
780,15.6164
781,15.759
782,15.6585
783,15.5327
784,15.32126
785,15.4025
786,15.1977
787,15.171
788,15.2601
789,14.8579
790,14.7376
791,14.8523
792,14.5362
793,14.5746
794,14.6467
795,14.5206
796,14.195
797,14.3354
798,14.2122
799,14.0141
800,14.123
801,13.9133
802,13.8569
803,13.8747
804,13.6162
805,13.7565
806,13.5772
807,13.4961
808,13.5025
809,13.2682
810,13.3019
811,13.2962
812,13.0742
813,13.1172
814,12.9587
815,12.90177
816,12.9864
817,12.9602
818,12.8189
819,12.73669
820,12.7676
821,12.56189
822,12.3611
823,12.4487
824,12.3967
825,12.276
826,12.1448
827,12.09209
828,12.2307
829,12.1293
830,12.0677
831,11.96966
832,11.7517
833,11.8491
834,11.7794
835,11.5675
836,11.6636
837,11.5745
838,11.4944
839,11.4896
840,11.4089
841,11.256
842,11.2158
843,11.2096
844,11.0427
845,11.0617
846,11.1748
847,10.8869
848,10.86
849,10.978
850,10.81752
851,10.6809
852,10.6191
853,10.6129
854,10.5534
855,10.5325
856,10.617
857,10.2832
858,10.3306
859,10.3548
860,10.1884
861,10.1144
862,10.1061
863,10.0686
864,10.0702
865,9.931582
866,10.0726
867,9.922248
868,9.783636
869,9.819583
870,9.710775
871,9.603466
872,9.612678
873,9.503691
874,9.511202
875,9.33877
876,9.358817
877,9.379857
878,9.33423
879,9.369902
880,9.095265
881,9.087712
882,9.208864
883,9.086601
884,8.953655
885,9.012908
886,8.855633
887,8.765393
888,8.824948
889,8.827906
890,8.784714
891,8.608326
892,8.756814
893,8.571568
894,8.655726
895,8.633519
896,8.271149
897,8.517242
898,8.263963
899,8.397395
900,8.267135
901,8.260191
902,8.205228
903,8.181642
904,8.104023
905,8.111146
906,8.057367
907,8.07488
908,7.90058
909,7.973852
910,7.798265
911,7.755868
912,7.853378
913,7.739714
914,7.796277
915,7.726479
916,7.813153
917,7.679288
918,7.59935
919,7.722559
920,7.522675
921,7.591163
922,7.638279
923,7.488862
924,7.346375
925,7.373295
926,7.361316
927,7.199816
928,7.321646
929,7.226953
930,7.072459
931,7.130268
932,7.024565
933,6.950278
934,7.155882
935,7.117839
936,6.861222
937,6.842082
938,6.776236
939,6.865464
940,6.864698
941,6.771112
942,6.717115
943,6.647829
944,6.692321
945,6.744091
946,6.542758
947,6.590126
948,6.65286
949,6.475677
950,6.458813
951,6.412499
952,6.448131
953,6.33926
954,6.206203
955,6.40727
956,6.155404
957,6.214852
958,6.314876
959,6.068941
960,6.19607
961,6.056575
962,6.001818
963,6.090061
964,5.881456
965,6.059214
966,6.009042
967,5.860481
968,5.872306
969,5.773724
970,5.770681
971,5.626116
972,5.806317
973,5.665174
974,5.63621
975,5.547164
976,5.545977
977,5.603817
978,5.484375
979,5.521898
980,5.544186
981,5.440487
982,5.409657
983,5.310368
984,5.427859
985,5.236629
986,5.281072
987,5.288156
988,5.053399
989,5.172763
990,5.139884
991,5.059659
992,5.001127
993,5.019455
994,5.070042
995,5.006422
996,4.97995
997,4.933922
998,4.882883
999,4.97887
1000,4.704224
1001,4.787186
1002,4.942082
1003,4.809283
1004,4.715414
1005,4.641811
1006,4.597241
1007,4.727059
1008,4.604673
1009,4.572966
1010,4.648737
1011,4.499957
1012,4.501848
1013,4.545604
1014,4.563573
1015,4.438927
1016,4.29887
1017,4.521726
1018,4.315739
1019,4.146243
1020,4.418077
1021,4.256039
1022,4.176088
1023,4.435926
1024,4.23404
1025,4.180332
1026,4.221719
1027,4.082869
1028,4.09255
1029,4.126002
1030,4.157661
1031,4.058065
1032,3.963349
1033,3.899119
1034,3.987319
1035,3.987323
1036,3.979056
1037,4.010696
1038,3.77593
1039,3.878503
1040,3.912325
1041,3.701859
1042,3.900951
1043,3.70689
1044,3.669494
1045,3.804403
1046,3.706424
1047,3.693073
1048,3.747005
1049,3.732973
1050,3.654907
1051,3.584594
1052,3.640174
1053,3.631335
1054,3.519873
1055,3.426622
1056,3.47734
1057,3.589094
1058,3.503479
1059,3.251628
1060,3.401853
1061,3.521835
1062,3.285987
1063,3.31086
1064,3.429886
1065,3.382935
1066,3.280132
1067,3.209748
1068,3.313938
1069,3.151544
1070,3.199986
1071,3.234528
1072,3.179952
1073,3.149511
1074,2.91957
1075,3.157103
1076,3.170585
1077,2.952696
1078,3.161488
1079,2.848167
1080,3.039581
1081,2.942482
1082,2.916095
1083,3.033555
1084,2.871425
1085,3.009195
1086,2.802723
1087,2.908658
1088,2.798449
1089,2.831702
1090,2.920586
1091,2.727591
1092,2.705758
1093,2.791689
1094,2.665695
1095,2.79029
1096,2.701689
1097,2.812663
1098,2.522069
1099,2.708292
1100,2.515624
1101,2.642869
1102,2.604478
1103,2.621859
1104,2.524359
1105,2.539775
1106,2.547383
1107,2.312265
1108,2.574211
1109,2.538673
1110,2.292948
1111,2.5731
1112,2.371664
1113,2.367027
1114,2.47356
1115,2.282578
1116,2.421737
1117,2.370068
1118,2.42486
1119,2.34445
1120,2.301512
1121,2.400973
1122,2.23407
1123,2.239869
1124,2.454974
1125,2.33293
1126,2.248094
1127,2.25383
1128,2.11692
1129,2.101278
1130,2.210976
1131,2.216376
1132,2.15795
1133,2.294531
1134,2.039218
1135,2.019812
1136,2.280928
1137,2.015204
1138,2.033942
1139,2.263069
1140,2.029424
1141,1.948335
1142,2.101841
1143,1.985423
1144,1.904334
1145,2.113395
1146,2.083556
1147,1.853067
1148,2.046628
1149,2.042026
1150,1.851026
1151,2.063001
1152,1.872594
1153,1.982358
1154,1.981177
1155,1.816714
1156,2.05837
1157,1.836898
1158,1.805891
1159,1.850383
1160,1.73883
1161,1.913769
1162,1.621782
1163,1.857844
1164,1.71157
1165,1.753091
1166,1.700402
1167,1.629755
1168,1.845404
1169,1.667999
1170,1.771484
1171,1.592326
1172,1.698867
1173,1.673942
1174,1.605572
1175,1.62713
1176,1.657324
1177,1.650882
1178,1.540867
1179,1.540192
1180,1.59635
1181,1.510679
1182,1.411542
1183,1.476165
1184,1.393112
1185,1.61137
1186,1.508087
1187,1.507984
1188,1.396034
1189,1.476838
1190,1.348771
1191,1.493637
1192,1.339877
1193,1.402513
1194,1.453336
1195,1.321252
1196,1.374387
1197,1.307466
1198,1.457691
1199,1.324916
1200,1.365348
1201,1.418067
1202,1.117439
1203,1.357327
1204,1.372662
1205,1.10174
1206,1.399619
1207,1.320241
1208,1.082907
1209,1.224912
1210,1.220465
1211,1.190823
1212,1.143122
1213,1.239373
1214,1.198689
1215,0.977586
1216,1.171191
1217,1.202324
1218,1.12567
1219,1.221099
1220,1.204799
1221,1.165205
1222,1.211392
1223,0.891516
1224,1.099613
1225,1.176532
1226,0.965315
1227,1.119196
1228,1.135701
1229,1.027953
1230,1.057779
1231,1.119379
1232,1.105358
1233,1.043032
1234,0.993317
1235,1.12931
1236,0.968142
1237,1.04174
1238,1.091592
1239,0.869572
1240,0.987112
1241,0.934446
1242,1.060723
1243,0.850635
1244,0.966409
1245,0.807941
1246,1.088257
1247,0.925144
1248,1.042712
1249,0.804803
1250,0.928178
1251,0.816206
1252,0.902315
1253,0.898673
1254,0.980277
1255,0.843159
1256,0.785493
1257,0.833913
1258,0.865491
1259,0.692963
1260,0.805518
1261,0.770257
1262,0.912485
1263,0.696745
1264,0.805021
1265,0.694215
1266,0.725067
1267,0.769203
1268,0.725309
1269,0.699266
1270,0.708041
1271,0.775561
1272,0.733963
1273,0.668342
1274,0.789095
1275,0.701484
1276,0.66605
1277,0.618519
1278,0.602037
1279,0.660004
1280,0.539759
1281,0.662431
1282,0.577614
1283,0.564797
1284,0.560136
1285,0.548255
1286,0.54334
1287,0.519265
1288,0.566251
1289,0.687196
1290,0.610997
1291,0.593617
1292,0.457583
1293,0.631224
1294,0.411156
1295,0.590498
1296,0.540581
1297,0.502387
1298,0.492654
1299,0.404947
1300,0.56301
1301,0.421384
1302,0.463586
1303,0.424673
1304,0.357397
1305,0.494261
1306,0.329335
1307,0.429669
1308,0.516664
1309,0.454506
1310,0.433293
1311,0.528949
1312,0.407807
1313,0.292392
1314,0.329731
1315,0.50655
1316,0.414188
1317,0.488559
1318,0.493757
1319,0.319807
1320,0.397148
1321,0.418853
1322,0.379656
1323,0.414085
1324,0.399781
1325,0.435789
1326,0.331685
1327,0.414396
1328,0.459715
1329,0.188006
1330,0.474534
1331,0.383725
1332,0.359085
1333,0.480046
1334,0.230682
1335,0.383413
1336,0.224656
1337,0.275264
1338,0.29004
1339,0.228926
1340,0.329996
1341,0.207388
1342,0.264127
1343,0.276651
1344,0.124979
1345,0.197579
1346,0.120376
1347,0.195415
1348,0.184656
1349,0.122202
1350,0.366437
1351,0.117766
1352,0.310022
1353,0.132672
1354,0.336325
1355,0.086646
1356,0.321281
1357,0.127676
1358,0.18996
1359,0.226534
1360,0.071138
1361,0.219099
1362,-0.023605
1363,0.213585
1364,0.058307
1365,0.153264
1366,0.174008
1367,0.005836
1368,0.145624
1369,0.043004
1370,0.185299
1371,0.067185
1372,0.072621
1373,0.16547
1374,-0.027705
1375,0.051334
1376,-0.014775
1377,-0.0156
1378,0.067279
1379,0.05879
1380,0.029428
1381,-0.062373
1382,0.070101
1383,0.012807
1384,0.08133
1385,0.001533
1386,0.016901
1387,0.053741
1388,0.047322
1389,0.073008
1390,-0.064872
1391,0.021532
1392,-0.062987
1393,-0.095067
1394,0.001267
1395,-0.068849
1396,-0.009059
1397,-0.076892
1398,-0.034502
1399,-0.098934
1400,-0.053085
1401,0.098203
1402,-0.090931
1403,0.056854
1404,-0.004344
1405,-0.131973
1406,-0.037428
1407,-0.162876
1408,-0.150571
1409,-0.028436
1410,-0.228084
1411,-0.12031
1412,0.052955
1413,-0.06534
1414,-0.231613
1415,-0.105205
1416,-0.142565
1417,-0.073466
1418,-0.089346
1419,-0.23601
1420,-0.164963
1421,-0.289278
1422,0.004945
1423,-0.125299
1424,-0.253313
1425,-0.058867
1426,-0.157544
1427,-0.113397
1428,-0.196275
1429,-0.074422
1430,-0.175379
1431,-0.155356
1432,-0.236307
1433,-0.101737
1434,-0.197948
1435,-0.120214
1436,-0.316758
1437,-0.144662
1438,-0.267106
1439,-0.128238
1440,-0.218547
1441,-0.15497
1442,-0.207171
1443,-0.205451
1444,-0.084583
1445,-0.39078
1446,-0.117217
1447,-0.29135
1448,-0.099738
1449,-0.330996
1450,-0.134838
1451,-0.33164
1452,-0.230382
1453,-0.301013
1454,-0.243941
1455,-0.281728
1456,-0.204648
1457,-0.267353
1458,-0.214774
1459,-0.438953
1460,-0.263739
1461,-0.298913
1462,-0.255933
1463,-0.294217
1464,-0.321633
1465,-0.190512
1466,-0.295528
1467,-0.22789
1468,-0.247597
1469,-0.358866
1470,-0.343178
1471,-0.357149
1472,-0.383324
1473,-0.383643