File: Non-charring/PMMA/DBI-Lund/DBI-Lund_Cone_25kW_2.csv
Time,Mass,HRR,Back Surface Temperature 1
[s],[g],[kW/m2],[K]
0,73.21,2.47389,0
1,73.2008,1.42149,0
2,73.1836,0.990775,0
3,73.17,0.924005,0
4,73.152,0.131944,0
5,73.13431,-0.280763,0
6,73.1399,-0.531252,0
7,73.1569,-1.01582,0
8,73.1758,-1.21542,0
9,73.1849,-1.2145,0
10,73.1686,-1.32642,0
11,73.1433,-1.97331,0
12,73.12,-2.31387,0
13,73.123,-2.43026,0
14,73.1591,-1.91618,0
15,73.1896,-1.59325,0
16,73.1944,-1.58407,0
17,73.2083,-1.51966,0
18,73.2196,-1.45849,0
19,73.2081,-1.88944,0
20,73.1933,-1.52921,0
21,73.1801,-1.10991,0
22,73.1782,-1.20781,0
23,73.18901,-0.890419,0
24,73.1866,-0.647,0
25,73.1766,-0.654191,0
26,73.1731,-1.0779,0
27,73.17426,-1.44235,0
28,73.1806,-1.51849,0
29,73.17429,-1.46076,0
30,73.1677,-1.3378,0
31,73.1696,-1.28909,0
32,73.17669,-1.1146,0
33,73.1774,-0.578546,0
34,73.1729,-0.345021,0
35,73.1506,-0.417652,0
36,73.12387,-1.08478,0
37,73.125,-1.42958,0
38,73.1344,-1.4925,0
39,73.1432,-1.52009,0
40,73.1566,-1.47736,0
41,73.1597,-1.4226,0
42,73.15861,-1.24272,0
43,73.1416,-1.14779,0
44,73.1135,-1.14203,0
45,73.1376,-1.2473,0
46,73.1717,-1.39252,0
47,73.1762,-1.47439,0
48,73.1668,-1.50699,0
49,73.1445,-0.944551,0
50,73.13656,-0.575176,0
51,73.12376,-0.4864571,0
52,73.119,-0.25465,0
53,73.1434,-0.1494,0
54,73.1585,-0.205358,0
55,73.1603,-0.371119,0
56,73.1667,-0.457647,0
57,73.1725,-0.526541,0
58,73.1632,-0.57886,0
59,73.1439,-0.58831,0
60,73.1313,-1.11349,0
61,73.1436,-1.28142,0
62,73.1611,-1.02638,0
63,73.1608,-0.935899,0
64,73.1568,-1.04585,0
65,73.1506,-1.32391,0
66,73.1564,-1.43673,0
67,73.1639,-1.03368,0
68,73.1543,-0.602548,0
69,73.1354,-0.50468,0
70,73.1179,-0.418817,0
71,73.1056,-0.22135,0
72,73.10632,-0.13376,0
73,73.125,-0.074463,0
74,73.1383,-0.274894,0
75,73.1288,-0.412276,0
76,73.1195,-0.445744,0
77,73.1149,-0.497665,0
78,73.1168,-0.500304,0
79,73.1151,-0.499299,0
80,73.1111,-0.384248,0
81,73.1148,-0.159975,0
82,73.11594,-0.0741807,0
83,73.098,-0.0780188,0
84,73.0855,-0.208384,0
85,73.0946,-0.298202,0
86,73.1104,-0.387679,0
87,73.101,-0.485938,0
88,73.0819,-0.50988,0
89,73.0894,-0.558408,0
90,73.0993,-0.57098,0
91,73.0929,-0.565235,0
92,73.1021,-0.479798,0
93,73.108,-0.341422,0
94,73.089,-0.223535,0
95,73.0603,-0.181187,0
96,73.0357,-0.319281,0
97,73.0492,0.0266965,0
98,73.0743,0.325111,0
99,73.0764,0.230121,0
100,73.0604,-0.491161,0
101,73.0392,-0.892722,0
102,73.0203,-0.253607,0
103,73.0259,6.27316,0
104,73.0242,9.60997,0
105,73.0143,17.9746,0
106,73.0145,35.2662,0
107,73.0077,43.8604,0
108,72.9727,59.2207,0
109,72.9197,89.1409,0
110,72.8639,101.799,0
111,72.815,126.221,0
112,72.7528,161.272,0
113,72.647,199.986,0
114,72.5611,210.159,0
115,72.4828,234.4,0
116,72.3826,274.231,0
117,72.2683,287.414,0
118,72.1396,305.028,0
119,72.0068,328.035,0
120,71.8485,325.77,0
121,71.71027,328.039,0
122,71.5988,342.235,0
123,71.4719,350.189,0
124,71.3306,347.262,0
125,71.184,348.866,0
126,71.0295,352.007,0
127,70.87581,360.928,0
128,70.742,371.291,0
129,70.6005,378.913,0
130,70.4489,382.636,0
131,70.2926,378.963,0
132,70.1465,377.576,0
133,69.99608,377.575,0
134,69.8408,379.616,0
135,69.6947,382.068,0
136,69.556,384.326,0
137,69.393,384.625,0
138,69.24233,387.356,0
139,69.0917,382.383,0
140,68.9304,388.33,0
141,68.7712,398.95,0
142,68.5983,397.974,0
143,68.4349,403.214,0
144,68.27375,399.877,0
145,68.108,396.02,0
146,67.9544,396.605,0
147,67.8042,411.203,0
148,67.6526,420.018,0
149,67.4815,418.095,0
150,67.3224,414.945,0
151,67.1537,415.675,0
152,66.9754,410.459,0
153,66.8277,422.246,0
154,66.6738,434.071,0
155,66.4947,410.066,0
156,66.3183,413.21,0
157,66.1444,430.063,0
158,65.9829,423.082,0
159,65.8061,424.61,0
160,65.6144,430.726,0
161,65.4388,432.236,0
162,65.2585,428.876,0
163,65.0809,432.37,0
164,64.9192,437.134,0
165,64.7464,440.874,0
166,64.5594,445.325,0
167,64.3973,447.489,0
168,64.2238,444.951,0
169,64.0284,446.621,0
170,63.856,448.527,0
171,63.702,438.55,0
172,63.5417,433.584,0
173,63.3736,432.58,0
174,63.1994,424.177,0
175,63.0187,427.158,0
176,62.8485,420.394,0
177,62.6686,412.035,0
178,62.47608,423.846,0
179,62.3078,452.315,0
180,62.1343,469.298,0
181,61.9438,458.804,0
182,61.7661,438.967,0
183,61.5732,428.489,0
184,61.3667,437.861,0
185,61.1821,458.143,0
186,61.0205,469.284,0
187,60.8421,457.819,0
188,60.664,452.365,0
189,60.4862,461.32,0
190,60.2853,466.954,0
191,60.0912,461.481,0
192,59.9027,458.5,0
193,59.7074,467.061,0
194,59.4937,481.319,0
195,59.3125,476.733,0
196,59.14805,465.418,0
197,58.9539,468.33,0
198,58.7859,467.331,0
199,58.6044,463.584,0
200,58.3991,455.531,0
201,58.1984,461.785,0
202,57.99,472.134,0
203,57.7921,482.341,0
204,57.5778,470.143,0
205,57.3902,460.88,0
206,57.2455,466.701,0
207,57.0712,478.601,0
208,56.8703,488.142,0
209,56.6673,481.516,0
210,56.475,472.996,0
211,56.2999,474.971,0
212,56.0834,477.673,0
213,55.8614,473.658,0
214,55.6922,475.159,0
215,55.5235,478.841,0
216,55.3237,485.906,0
217,55.1222,484.584,0
218,54.9215,480.627,0
219,54.7168,483.692,0
220,54.5113,488.706,0
221,54.3069,491.256,0
222,54.1101,492.587,0
223,53.918,499.704,0
224,53.733,504.697,0
225,53.5414,489.396,0
226,53.3398,485.986,0
227,53.1343,505.4111,0
228,52.9176,516.924,0
229,52.6934,491.825,0
230,52.5018,481.993,0
231,52.3237,491.392,0
232,52.1453,496.538,0
233,51.94821,495.817,0
234,51.7248,490.145,0
235,51.5199,495.127,0
236,51.3363,501.771,0
237,51.15718,503.205,0
238,50.9641,497.52,0
239,50.7837,485.722,0
240,50.5944,482.081,0
241,50.3783,473.327,0
242,50.15565,469.271,0
243,49.9368,487.686,0
244,49.7145,499.44,0
245,49.5048,497.445,0
246,49.3251,500.073,0
247,49.15322,504.993,0
248,48.9347,504.278,0
249,48.7136,490.129,0
250,48.5145,481.193,0
251,48.303,498.145,0
252,48.0818,509.273,0
253,47.8629,510.16,0
254,47.6724,511.235,0
255,47.49103,518.136,0
256,47.292,524.729,0
257,47.083,530.776,0
258,46.8735,524.051,0
259,46.6571,515.468,0
260,46.44113,519.749,0
261,46.2216,527.711,0
262,46.0112,520.124,0
263,45.8125,513.006,0
264,45.6078,523.851,0
265,45.38531,524.734,0
266,45.1638,523.214,0
267,44.959,536.264,0
268,44.7529,536.523,0
269,44.5366,530.628,0
270,44.2956,534.903,0
271,44.0496,535.252,0
272,43.8556,536.116,0
273,43.6757,541.274,0
274,43.443,540.779,0
275,43.2128,540.968,0
276,42.9991,541.811,0
277,42.7797,546.979,0
278,42.5607,549.461,0
279,42.3378,548.282,0
280,42.10782,535.533,0
281,41.8693,536.181,0
282,41.6507,546.107,0
283,41.4442,547.786,0
284,41.2415,551.426,0
285,41.0268,554.41,0
286,40.79677,548.358,0
287,40.5814,548.681,0
288,40.3667,552.769,0
289,40.1338,545.936,0
290,39.9121,542.954,0
291,39.6935,545.583,0
292,39.4581,556.913,0
293,39.2332,552.269,0
294,39.0083,556.169,0
295,38.76175,567.366,0
296,38.5285,553.646,0
297,38.2997,554.804,0
298,38.0684,568.524,0
299,37.8472,578.615,0
300,37.6275,562.64,0
301,37.4048,546.442,0
302,37.1569,550.408,0
303,36.92749,553.779,0
304,36.7022,556.93,0
305,36.4598,563.356,0
306,36.2295,561.638,0
307,36.0099,559.529,0
308,35.7644,580.984,0
309,35.513,579.774,0
310,35.2885,567.106,0
311,35.05662,574.592,0
312,34.8027,582.127,0
313,34.5437,589.121,0
314,34.3173,593.712,0
315,34.1047,591.196,0
316,33.8665,581.171,0
317,33.6197,576.465,0
318,33.375,583.736,0
319,33.1267,570.264,0
320,32.88881,554.393,0
321,32.6544,563.809,0
322,32.4085,570.223,0
323,32.15811,568.889,0
324,31.9303,582.309,0
325,31.71521,582.642,0
326,31.4897,577.379,0
327,31.2605,582.916,0
328,31.0252,593.5669,0
329,30.7914,595.108,0
330,30.5479,588.494,0
331,30.2909,594.667,0
332,30.039,598.428,0
333,29.80954,594.638,0
334,29.5887,593.878,0
335,29.3525,598.453,0
336,29.1086,603.888,0
337,28.8651,591.365,0
338,28.613,582.052,0
339,28.359,586.599,0
340,28.1163,596.646,0
341,27.884,605.981,0
342,27.6465,609.874,0
343,27.40145,601.205,0
344,27.1614,591.219,0
345,26.9093,595.615,0
346,26.6457,606.499,0
347,26.3963,609.943,0
348,26.1446,596.379,0
349,25.8932,583.281,0
350,25.6632,595.938,0
351,25.4221,616.664,0
352,25.1622,626.872,0
353,24.905,623.26,0
354,24.6436,626.575,0
355,24.3756,634.82,0
356,24.1155,618.992,0
357,23.8763,631.681,0
358,23.6335,657.804,0
359,23.4026,649.921,0
360,23.1901,631.342,0
361,22.84108,641.23,0
362,22.5956,631.077,0
363,22.3511,617.08,0
364,22.1027,619.315,0
365,21.8459,623.408,0
366,21.6044,638.545,0
367,21.3375,630.7,0
368,21.0745,615.805,0
369,20.8201,624.936,0
370,20.5408,631.96,0
371,20.2873,635.714,0
372,20.0473,639.402,0
373,19.78041,651.438,0
374,19.5111,659.682,0
375,19.2417,632.738,0
376,18.9748,612.07,0
377,18.7055,617.796,0
378,18.4352,625.662,0
379,18.1405,669.156,0
380,17.8798,679.438,0
381,17.64857,665.701,0
382,17.3849,659.092,0
383,17.1192,659.046,0
384,16.8571,666.45,0
385,16.573,669.182,0
386,16.2963,669.246,0
387,16.0115,670.533,0
388,15.6963,688.244,0
389,15.4379,658.726,0
390,15.1743,635.781,0
391,14.9089,663.155,0
392,14.6361,713.123,0
393,14.3324,746.757,0
394,14.018,748.781,0
395,13.7245,744.76,0
396,13.4366,733.482,0
397,13.141,725.876,0
398,12.8655,708.875,0
399,12.5912,690.383,0
400,12.3043,681.349,0
401,12.0132,696.771,0
402,11.7293,702.019,0
403,11.4535,697.169,0
404,11.16225,706.539,0
405,10.8576,700.83,0
406,10.5718,686.458,0
407,10.28035,707.255,0
408,9.974294,701.381,0
409,9.673324,679.375,0
410,9.393096,689.158,0
411,9.16095,708.99,0
412,8.914456,699.734,0
413,8.638507,686.013,0
414,8.354954,694.007,0
415,8.080436,680.345,0
416,7.818815,664.844,0
417,7.526716,649.51,0
418,7.248224,646.386,0
419,7.008178,645.525,0
420,6.744099,631.612,0
421,6.461314,625.91,0
422,6.19127,624.957,0
423,5.927889,621.482,0
424,5.681749,618.702,0
425,5.451279,611.288,0
426,5.208713,610.542,0
427,4.944586,620.161,0
428,4.690872,599.479,0
429,4.446278,579.473,0
430,4.189611,587.518,0
431,3.932617,596.302,0
432,3.706359,588.11,0
433,3.500484,558.179,0
434,3.287452,545.511,0
435,3.05793,538.101,0
436,2.834262,526.078,0
437,2.619281,523.264,0
438,2.397577,510.929,0
439,2.18708,488.677,0
440,1.985483,481.433,0
441,1.808533,468.408,0
442,1.637289,452.485,0
443,1.456302,437.382,0
444,1.282921,406.517,0
445,1.125308,388.18,0
446,0.97344,375.751,0
447,0.824047,337.583,0
448,0.681462,290.217,0
449,0.562394,271.861,0
450,0.45614,254.945,0
451,0.375873,216.624,0
452,0.319673,198.874,0
453,0.259982,178.483,0
454,0.188684,144.509,0
455,0.123684,132.847,0
456,0.07488,123.377,0
457,0.039216,102.165,0
458,0.01492,93.274,0
459,-0.002164,85.1943,0
460,-0.009089,69.8135,0
461,-0.027233,63.4958,0
462,-0.049128,57.9762,0
463,-0.06158,50.5471,0
464,-0.084922,44.1319,0
465,-0.085283,40.3775,0
466,-0.072453,35.8836,0
467,-0.091731,28.4443,0
468,-0.11526,25.2082,0
469,-0.126582,22.8151,0
470,-0.135355,18.8142,0
471,-0.137408,17.1635,0
472,-0.130581,15.6175,0
473,-0.115725,13.3239,0
474,-0.107,12.4578,0
475,-0.114086,11.4511,0
476,-0.117812,10.3293,0
477,-0.112709,10.1575,0
478,-0.11,9.89836,0
479,-0.108345,9.27885,0
480,-0.11451,9.05693,0
481,-0.127917,8.68484,0
482,-0.134,7.99091,0
483,-0.149627,7.29195,0
484,-0.159286,6.99301,0
485,-0.154847,6.37769,0
486,-0.152453,5.02907,0
487,-0.158589,4.40322,0
488,-0.168955,3.98638,0
489,-0.187672,3.17473,0
490,-0.188162,2.87255,0
491,-0.156738,2.56526,0
492,-0.132125,2.0857,0
493,-0.126457,1.93391,0
494,-0.130901,1.77595,0
495,-0.148652,1.35784,0
496,-0.174784,1.11843,0
497,-0.183705,1.14644,0
498,-0.151792,1.05867,0
499,-0.126367,0.912416,0
500,-0.138135,0.879984,0
501,-0.147358,0.869893,0
502,-0.148668,0.851646,0
503,-0.156361,0.846172,0
504,-0.176263,0.908954,0
505,-0.180802,1.00934,0
506,-0.160298,1.04021,0
507,-0.152297,1.10755,0
508,-0.162164,1.25603,0
509,-0.164189,1.32887,0
510,-0.16693,1.29966,0
511,-0.18024,1.17645,0
512,-0.178079,1.10881,0
513,-0.164396,1.52177,0
514,-0.155729,1.82057,0
515,-0.144923,1.80178,0
516,-0.148283,1.79521,0
517,-0.166494,1.78163,0
518,-0.188513,1.77795,0
519,-0.190201,1.80639,0
520,-0.173511,1.87226,0
521,-0.163291,1.97039,0
522,-0.154504,2.03131,0
523,-0.146851,2.14965,0
524,-0.149364,2.21125,0
525,-0.162301,2.17441,0
526,-0.197455,1.63812,0
527,-0.218899,1.1324,0
528,-0.220208,1.11024,0
529,-0.211799,0.68121,0
530,-0.172141,-0.173867,0
531,-0.14665,-0.637322,0
532,-0.155704,-0.667492,0
533,-0.165219,-0.6484629,0
534,-0.170157,-0.569546,0
535,-0.172,-0.512321,0
536,-0.179687,-0.453995,0
537,-0.186551,-0.291162,0
538,-0.17829,-0.184973,0
539,-0.161845,-0.276009,0
540,-0.162905,-0.358458,0
541,-0.176795,-0.354899,0
542,-0.183086,-0.411343,0
543,-0.175824,-0.547282,0
544,-0.163535,-0.606139,0
545,-0.162837,-0.606223,0
546,-0.167099,-0.333115,0
547,-0.170204,0.110554,0
548,-0.168734,0.281432,0
549,-0.176946,0.362356,0
550,-0.175053,0.547336,0
551,-0.15887,0.636798,0
552,-0.149217,0.602625,0
553,-0.147959,0.517428,0
554,-0.156205,0.46326,0