File: Non-charring/PMMA/DBI-Lund/DBI-Lund_DSC_N2_20K_3.csv
Time,Temperature,Heat Flow
[s],[K],[W/g]
0,298.33,-1.44E-02
1.9998,298.33,-1.31E-02
4.0002,298.338,-1.35E-02
6,298.347,-1.35E-02
7.9998,298.358,-1.38E-02
10.0002,298.3747,-1.34E-02
12,298.401,-1.16E-02
13.9998,298.437,-1.25E-02
16.0002,298.492,-1.00E-02
18,298.5673,-6.83E-03
19.9998,298.6668,-3.90E-03
22.0002,298.7912,1.26E-03
24,298.9429,8.09E-03
25.9998,299.1249,1.31E-02
28.0002,299.34,2.30E-02
30,299.5878,3.28E-02
31.9998,299.874,4.44E-02
34.0002,300.195,5.71E-02
36,300.556,7.01E-02
37.9998,300.951,8.48E-02
40.0002,301.3823,9.99E-02
42,301.852,0.11673
43.9998,302.363,0.13411
46.0002,302.905,0.15236
48,303.481,0.17034
49.9998,304.087,0.1896
52.0002,304.722,0.21015
54,305.385,0.22722
55.9998,306.0729,0.24796
58.0002,306.789,0.26718
60,307.529,0.28545
61.9998,308.289,0.30458
64.0002,309.073,0.32332
66,309.871,0.33787
67.9998,310.686,0.35821
70.0002,311.515,0.37366
72,312.359,0.39011
73.9998,313.214,0.40476
76.0002,314.0768,0.419
78,314.948,0.43101
79.9998,315.824,0.44487
82.0002,316.705,0.45621
84,317.5912,0.46672
85.9998,318.48,0.47469
88.0002,319.369,0.48522
90,320.259,0.49138
91.9998,321.146,0.49939
94.0002,322.034,0.50769
96,322.915,0.50989
97.9998,323.797,0.51607
100.0002,324.673,0.51857
102,325.546,0.52263
103.9998,326.413,0.52683
106.0002,327.278,0.52805
108,328.137,0.52927
109.9998,328.99,0.53134
112.0002,329.835,0.53327
114,330.675,0.53162
115.9998,331.509,0.53169
118.0002,332.339,0.5329
120,333.1669,0.5334
121.9998,333.9851,0.53059
124.0002,334.796,0.53051
126,335.599,0.52913
127.9998,336.403,0.52774
130.0002,337.201,0.52578
132,337.994,0.52453
133.9998,338.781,0.52328
136.0002,339.563,0.52174
138,340.339,0.51961
139.9998,341.112,0.51633
142.0002,341.879,0.51405
144,342.638,0.5109
145.9998,343.393,0.51049
148.0002,344.144,0.50907
150,344.893,0.50807
151.9998,345.641,0.5065
154.0002,346.382,0.50405
156,347.121,0.50073
157.9998,347.857,0.50132
160.0002,348.59,0.49973
162,349.3192,0.49901
163.9998,350.0472,0.49843
166.0002,350.772,0.49757
168,351.497,0.49699
169.9998,352.218,0.49553
172.0002,352.9388,0.49553
174,353.659,0.49509
175.9998,354.376,0.49407
178.0002,355.096,0.49144
180,355.813,0.48998
181.9998,356.5308,0.48852
184.0002,357.247,0.48544
186,357.96,0.48456
187.9998,358.675,0.48323
190.0002,359.389,0.48103
192,360.1049,0.47648
193.9998,360.8218,0.47383
196.0002,361.54,0.47147
198,362.258,0.46896
199.9998,362.972,0.4663
202.0002,363.684,0.46334
204,364.4,0.46111
205.9998,365.115,0.46006
208.0002,365.8261,0.4568
210,366.5381,0.4556
211.9998,367.253,0.4538
214.0002,367.968,0.45097
216,368.681,0.44918
217.9998,369.3942,0.44723
220.0002,370.11,0.44734
222,370.827,0.44584
223.9998,371.54,0.44462
226.0002,372.253,0.44296
228,372.962,0.4413
229.9998,373.671,0.44185
232.0002,374.379,0.44004
234,375.09,0.4397
235.9998,375.8,0.43848
238.0002,376.505,0.43814
240,377.208,0.43781
241.9998,377.9101,0.43791
244.0002,378.6112,0.43757
246,379.311,0.43679
247.9998,380.011,0.43704
250.0002,380.712,0.43715
252,381.407,0.438
253.9998,382.1,0.43646
256.0002,382.795,0.43612
258,383.489,0.43547
259.9998,384.182,0.43662
262.0002,384.872,0.43418
264,385.561,0.43414
265.9998,386.248,0.43528
268.0002,386.932,0.43389
270,387.6141,0.43503
271.9998,388.297,0.43738
274.0002,388.981,0.43778
276,389.667,0.44028
277.9998,390.3498,0.44039
280.0002,391.03,0.44349
282,391.706,0.44465
283.9998,392.382,0.4467
286.0002,393.056,0.44906
288,393.7317,0.45068
289.9998,394.407,0.4544
292.0002,395.082,0.45692
294,395.757,0.45929
295.9998,396.432,0.46393
298.0002,397.109,0.46646
300,397.783,0.46884
301.9998,398.456,0.47273
304.0002,399.1272,0.47693
306,399.8,0.48023
307.9998,400.473,0.48429
310.0002,401.145,0.48881
312,401.814,0.49121
313.9998,402.482,0.4924
316.0002,403.151,0.49526
318,403.823,0.49842
319.9998,404.495,0.50038
322.0002,405.167,0.50067
324,405.839,0.50247
325.9998,406.509,0.50352
328.0002,407.179,0.5032
330,407.849,0.50546
331.9998,408.519,0.50408
334.0002,409.188,0.50345
336,409.859,0.5016
337.9998,410.5279,0.49913
340.0002,411.196,0.49667
342,411.864,0.49557
343.9998,412.534,0.49418
346.0002,413.204,0.49201
348,413.875,0.49015
349.9998,414.544,0.48843
352.0002,415.213,0.48687
354,415.884,0.48378
355.9998,416.555,0.48083
358.0002,417.224,0.47957
360,417.892,0.47907
361.9998,418.558,0.47627
364.0002,419.226,0.47516
366,419.894,0.47343
367.9998,420.564,0.47293
370.0002,421.232,0.46981
372,421.902,0.46962
373.9998,422.57,0.46819
376.0002,423.24,0.46645
378,423.91,0.46549
379.9998,424.58,0.46452
382.0002,425.252,0.46386
384,425.92,0.46258
385.9998,426.587,0.46083
388.0002,427.253,0.45985
390,427.92,0.45826
391.9998,428.586,0.45806
394.0002,429.252,0.45677
396,429.921,0.45672
397.9998,430.587,0.45543
400.0002,431.2552,0.45445
402,431.919,0.45409
403.9998,432.5849,0.45388
406.0002,433.252,0.45321
408,433.919,0.4516
409.9998,434.586,0.45139
412.0002,435.249,0.45103
414,435.914,0.45113
415.9998,436.579,0.45014
418.0002,437.244,0.45009
420,437.908,0.45034
421.9998,438.57,0.45154
424.0002,439.232,0.44867
426,439.894,0.44908
427.9998,440.5562,0.45012
430.0002,441.217,0.45085
432,441.88,0.45158
433.9998,442.544,0.45184
436.0002,443.207,0.45415
438,443.869,0.45488
439.9998,444.529,0.45483
442.0002,445.192,0.45572
444,445.857,0.45677
445.9998,446.521,0.45892
448.0002,447.184,0.4595
450,447.848,0.46056
451.9998,448.512,0.46193
454.0002,449.178,0.46235
456,449.843,0.46483
457.9998,450.506,0.46573
460.0002,451.1678,0.46838
462,451.832,0.47023
463.9998,452.4972,0.47003
466.0002,453.164,0.47236
468,453.831,0.47454
469.9998,454.498,0.47624
472.0002,455.165,0.477
474,455.829,0.47823
475.9998,456.494,0.48073
478.0002,457.16,0.48101
480,457.826,0.48225
481.9998,458.494,0.48332
484.0002,459.163,0.48504
486,459.832,0.48564
487.9998,460.4997,0.48656
490.0002,461.1661,0.48733
492,461.834,0.48681
493.9998,462.502,0.48774
496.0002,463.171,0.48659
498,463.841,0.48735
499.9998,464.511,0.48476
502.0002,465.18,0.4852
504,465.848,0.48581
505.9998,466.514,0.48561
508.0002,467.181,0.48349
510,467.849,0.48185
511.9998,468.518,0.47876
514.0002,469.188,0.47663
516,469.856,0.47675
517.9998,470.5221,0.47413
520.0002,471.186,0.47087
522,471.851,0.47001
523.9998,472.5182,0.46723
526.0002,473.187,0.46541
528,473.858,0.46262
529.9998,474.525,0.45869
532.0002,475.194,0.45573
534,475.861,0.45373
535.9998,476.528,0.45206
538.0002,477.197,0.44812
540,477.865,0.44628
541.9998,478.534,0.44589
544.0002,479.2,0.44275
546,479.865,0.44107
547.9998,480.531,0.44019
550.0002,481.2,0.43899
552,481.8679,0.4386
553.9998,482.534,0.43804
556.0002,483.199,0.43667
558,483.864,0.43677
559.9998,484.5301,0.43605
562.0002,485.192,0.43532
564,485.856,0.43493
565.9998,486.521,0.43665
568.0002,487.188,0.4374
570,487.852,0.43913
571.9998,488.517,0.43857
574.0002,489.184,0.4385
576,489.8532,0.43925
577.9998,490.519,0.44065
580.0002,491.185,0.43878
582,491.85,0.43954
583.9998,492.517,0.44062
586.0002,493.182,0.43891
588,493.847,0.43604
589.9998,494.51,0.43581
592.0002,495.1768,0.43574
594,495.84,0.43369
595.9998,496.504,0.43164
598.0002,497.1657,0.43008
600,497.831,0.42655
601.9998,498.497,0.42416
604.0002,499.1653,0.42045
606,499.832,0.41657
607.9998,500.496,0.41368
610.0002,501.161,0.4088
612,501.826,0.40391
613.9998,502.495,0.40051
616.0002,503.16,0.39429
618,503.827,0.38922
619.9998,504.492,0.38564
622.0002,505.157,0.38073
624,505.826,0.3773
625.9998,506.491,0.37088
628.0002,507.158,0.36695
630,507.824,0.36384
631.9998,508.489,0.35806
634.0002,509.154,0.35245
636,509.817,0.35082
637.9998,510.484,0.3452
640.0002,511.149,0.34207
642,511.8153,0.33643
643.9998,512.481,0.33446
646.0002,513.148,0.32914
648,513.813,0.32549
649.9998,514.478,0.32184
652.0002,515.1438,0.31969
654,515.8089,0.31619
655.9998,516.4737,0.31403
658.0002,517.139,0.31187
660,517.8039,0.30837
661.9998,518.47,0.30788
664.0002,519.135,0.30403
666,519.8013,0.3027
667.9998,520.467,0.30086
670.0002,521.135,0.29717
672,521.803,0.29684
673.9998,522.472,0.29668
676.0002,523.139,0.29568
678,523.805,0.29417
679.9998,524.473,0.29367
682.0002,525.142,0.29317
684,525.813,0.29132
685.9998,526.476,0.29234
688.0002,527.141,0.29116
690,527.805,0.29065
691.9998,528.475,0.29167
694.0002,529.143,0.29219
696,529.809,0.29151
697.9998,530.474,0.29101
700.0002,531.14,0.29305
702,531.807,0.2939
703.9998,532.478,0.29408
706.0002,533.148,0.29579
708,533.817,0.29698
709.9998,534.482,0.29784
712.0002,535.15,0.30006
714,535.818,0.30314
715.9998,536.49,0.30247
718.0002,537.159,0.30607
720,537.827,0.30728
721.9998,538.495,0.30934
724.0002,539.159,0.31158
726,539.826,0.31108
727.9998,540.494,0.31383
730.0002,541.163,0.31573
732,541.831,0.31575
733.9998,542.498,0.318
736.0002,543.165,0.31887
738,543.832,0.31958
739.9998,544.497,0.32303
742.0002,545.161,0.32391
744,545.828,0.32462
745.9998,546.4939,0.32792
748.0002,547.1639,0.32897
750,547.832,0.33038
751.9998,548.4991,0.33161
754.0002,549.161,0.33405
756,549.824,0.33528
757.9998,550.4871,0.33738
760.0002,551.152,0.33862
762,551.817,0.33986
763.9998,552.484,0.34249
766.0002,553.151,0.34321
768,553.8167,0.34584
769.9998,554.482,0.34778
772.0002,555.147,0.34868
774,555.813,0.3515
775.9998,556.478,0.35431
778.0002,557.145,0.35661
780,557.809,0.35839
781.9998,558.474,0.36243
784.0002,559.139,0.36421
786,559.803,0.36634
787.9998,560.467,0.3697
790.0002,561.131,0.37201
792,561.795,0.3759
793.9998,562.46,0.3777
796.0002,563.124,0.38159
798,563.79,0.38357
799.9998,564.454,0.38694
802.0002,565.12,0.39085
804,565.783,0.39354
805.9998,566.449,0.39692
808.0002,567.112,0.39856
810,567.777,0.40442
811.9998,568.443,0.40659
814.0002,569.107,0.40929
816,569.769,0.41322
817.9998,570.4301,0.41488
820.0002,571.096,0.4197
822,571.762,0.42347
823.9998,572.426,0.42619
826.0002,573.091,0.42874
828,573.7562,0.4304
829.9998,574.4238,0.43313
832.0002,575.09,0.43657
834,575.753,0.43913
835.9998,576.416,0.44186
838.0002,577.079,0.44425
840,577.744,0.44788
841.9998,578.4101,0.45187
844.0002,579.077,0.45285
846,579.745,0.45525
847.9998,580.413,0.45818
850.0002,581.079,0.45916
852,581.745,0.46246
853.9998,582.407,0.46398
856.0002,583.075,0.46799
858,583.74,0.47058
859.9998,584.406,0.47318
862.0002,585.071,0.47524
864,585.737,0.47696
865.9998,586.403,0.48063
868.0002,587.0701,0.48449
870,587.736,0.48817
871.9998,588.401,0.49096
874.0002,589.065,0.4968
876,589.73,0.50014
877.9998,590.397,0.50491
880.0002,591.063,0.50934
882,591.73,0.51448
883.9998,592.397,0.52107
886.0002,593.0653,0.52784
888,593.733,0.53426
889.9998,594.4,0.54087
892.0002,595.065,0.54928
894,595.7302,0.55969
895.9998,596.396,0.5665
898.0002,597.062,0.57783
900,597.727,0.58808
901.9998,598.394,0.60124
904.0002,599.06,0.61278
906,599.7282,0.62434
907.9998,600.396,0.63791
910.0002,601.063,0.65076
912,601.728,0.66688
913.9998,602.39,0.68248
916.0002,603.052,0.69991
918,603.718,0.71682
919.9998,604.387,0.73411
922.0002,605.056,0.75432
924,605.722,0.77474
925.9998,606.386,0.79391
928.0002,607.0488,0.81673
930,607.713,0.83995
931.9998,608.379,0.86392
934.0002,609.044,0.88847
936,609.708,0.91085
937.9998,610.371,0.93728
940.0002,611.039,0.96684
942,611.705,0.99588
943.9998,612.369,1.02441
946.0002,613.031,1.05498
948,613.697,1.08907
949.9998,614.364,1.12137
952.0002,615.033,1.15498
954,615.698,1.19285
955.9998,616.363,1.22838
958.0002,617.025,1.26944
960,617.689,1.30964
961.9998,618.3519,1.35007
964.0002,619.017,1.39166
966,619.683,1.43715
967.9998,620.347,1.48122
970.0002,621.012,1.52718
972,621.676,1.57559
973.9998,622.342,1.62536
976.0002,623.01,1.67389
978,623.674,1.72542
979.9998,624.338,1.77738
982.0002,625.001,1.83088
984,625.663,1.88574
985.9998,626.326,1.94158
988.0002,626.99,1.99916
990,627.654,2.05606
991.9998,628.3202,2.11563
994.0002,628.986,2.17526
996,629.652,2.23627
997.9998,630.315,2.29492
1000,630.98,2.35792
1002,631.643,2.41858
1004,632.309,2.48172
1006,632.9713,2.54345
1008,633.638,2.60879
1010,634.3007,2.66992
1012,634.9658,2.7315
1014,635.631,2.7911
1016,636.298,2.84928
1018,636.963,2.9064
1020,637.63,2.95724
1022,638.296,3.01113
1024,638.963,3.06042
1026,639.628,3.09983
1028,640.294,3.13555
1030,640.959,3.1685
1032,641.623,3.18874
1034,642.288,3.20825
1036,642.954,3.22253
1038,643.62,3.24528
1040,644.287,3.27238
1042,644.955,3.29631
1044,645.624,3.30786
1046,646.291,3.31867
1048,646.958,3.34832
1050,647.625,3.36763
1052,648.2939,3.36605
1054,648.963,3.40464
1056,649.6312,3.43705
1058,650.3,3.46327
1060,650.9679,3.47155
1062,651.635,3.46396
1064,652.299,3.46411
1066,652.965,3.4404
1068,653.634,3.42066
1070,654.304,3.39577
1072,654.974,3.3699
1074,655.643,3.34495
1076,656.31,3.28654
1078,656.98,3.26037
1080,657.65,3.25926
1082,658.321,3.29448
1084,658.991,3.27835
1086,659.662,3.19916
1088,660.331,3.14808
1090,660.997,3.16137
1092,661.665,3.17163
1094,662.335,3.17713
1096,663.006,3.14884
1098,663.675,3.09145
1100,664.343,3.04049
1102,665.013,2.98928
1104,665.682,2.91848
1106,666.351,2.84683
1108,667.019,2.78371
1110,667.689,2.7025
1112,668.36,2.62349
1114,669.032,2.54881
1116,669.703,2.46712
1118,670.374,2.38552
1120,671.045,2.3019
1122,671.7129,2.21221
1124,672.382,2.12318
1126,673.053,2.03444
1128,673.725,1.95119
1130,674.396,1.86532
1132,675.067,1.78109
1134,675.7371,1.69889
1136,676.407,1.61755
1138,677.077,1.54095
1140,677.747,1.4631
1142,678.418,1.38961
1144,679.0869,1.31681
1146,679.755,1.24411
1148,680.422,1.17385
1150,681.09,1.10545
1152,681.76,1.03794
1154,682.428,0.97384
1156,683.097,0.9122
1158,683.7651,0.85087
1160,684.433,0.79337
1162,685.098,0.74027
1164,685.765,0.68692
1166,686.433,0.63623
1168,687.1,0.58822
1170,687.765,0.5421
1172,688.43,0.50023
1174,689.095,0.45772
1176,689.76,0.41809
1178,690.425,0.38096
1180,691.09,0.34594
1182,691.754,0.31264
1184,692.4192,0.28009
1186,693.086,0.25162
1188,693.752,0.2239
1190,694.418,0.19694
1192,695.081,0.17151
1194,695.745,0.14841
1196,696.408,0.12824
1198,697.072,0.10745
1200,697.735,8.80E-02
1202,698.398,6.84E-02
1204,699.062,5.38E-02
1206,699.727,3.53E-02
1208,700.393,2.05E-02
1210,701.06,5.92E-03
1212,701.723,-5.73E-03
1214,702.387,-1.70E-02
1216,703.048,-2.83E-02
1218,703.7108,-3.98E-02
1220,704.373,-4.79E-02
1222,705.037,-5.79E-02
1224,705.702,-6.58E-02
1226,706.366,-7.26E-02
1228,707.029,-8.12E-02
1230,707.69,-8.56E-02
1232,708.351,-9.00E-02
1234,709.011,-9.49E-02
1236,709.673,-9.93E-02
1238,710.339,-0.10292
1240,711.005,-0.10278
1242,711.671,-0.10324
1244,712.337,-0.10191
1246,713.004,-0.10077
1248,713.667,-0.10003
1250,714.332,-0.10288
1252,714.997,-0.10294
1254,715.662,-0.1038
1256,716.328,-0.10366
1258,716.993,-0.10152
1260,717.659,-0.10077
1262,718.324,-0.10223
1264,718.989,-0.1037
1266,719.659,-0.10777
1268,720.322,-0.11365
1270,720.9841,-0.11894
1272,721.643,-0.12383
1274,722.307,-0.12873
1276,722.973,-0.13162
1278,723.639,-0.13754
1280,724.305,-0.14447
1282,724.968,-0.14959
1284,725.632,-0.15311
1286,726.2961,-0.15703
1288,726.962,-0.15994
1290,727.628,-0.16307
1292,728.295,-0.16579
1294,728.961,-0.16831
1296,729.6271,-0.17286
1298,730.292,-0.17377
1300,730.958,-0.1763
1302,731.623,-0.1764
1304,732.288,-0.17731
1306,732.9549,-0.17964
1308,733.621,-0.18096
1310,734.287,-0.1833
1312,734.954,-0.18625
1314,735.624,-0.18656
1316,736.293,-0.18586
1318,736.961,-0.18637
1320,737.628,-0.18627
1322,738.296,-0.18903
1324,738.966,-0.1871
1326,739.634,-0.18659
1328,740.301,-0.18751
1330,740.967,-0.18762
1332,741.632,-0.1867
1334,742.299,-0.18763
1336,742.966,-0.18835
1338,743.633,-0.18927
1340,744.301,-0.18713
1342,744.967,-0.18826
1344,745.635,-0.18836
1346,746.302,-0.18847
1348,746.97,-0.18652
1350,747.638,-0.18457
1352,748.304,-0.18673
1354,748.97,-0.18519
1356,749.638,-0.18571
1358,750.305,-0.18561
1360,750.971,-0.1853
1362,751.635,-0.1854
1364,752.301,-0.18468
1366,752.967,-0.18355
1368,753.6321,-0.18468
1370,754.2981,-0.18396
1372,754.966,-0.18365
1374,755.633,-0.18499
1376,756.2991,-0.18593
1378,756.965,-0.18437
1380,757.632,-0.18303
1382,758.298,-0.1823
1384,758.964,-0.18365
1386,759.629,-0.18333
1388,760.296,-0.18406
1390,760.963,-0.18312
1392,761.631,-0.18489
1394,762.298,-0.18728
1396,762.965,-0.18406
1398,763.629,-0.18416
1400,764.2972,-0.18301
1402,764.963,-0.18144
1404,765.6311,-0.18217
1406,766.2932,-0.17977
1408,766.959,-0.17799
1410,767.623,-0.17746
1412,768.289,-0.17609
1414,768.954,-0.17661
1416,769.618,-0.17713
1418,770.284,-0.17513
1420,770.95,-0.17439
1422,771.617,-0.17511
1424,772.281,-0.17647
1426,772.946,-0.17699
1428,773.613,-0.1752
1430,774.281,-0.17634
1432,774.95,-0.17686
1434,775.615,-0.1757
1436,776.282,-0.17664
1438,776.949,-0.17547
1440,777.614,-0.17536
1442,778.279,-0.17461
1444,778.9436,-0.17513
1446,779.608,-0.17396
1448,780.2729,-0.17511
1450,780.938,-0.17309
1452,781.606,-0.17425
1454,782.274,-0.17646
1456,782.941,-0.1755
1458,783.606,-0.17496
1460,784.271,-0.17569
1462,784.936,-0.17579
1464,785.605,-0.17525
1466,786.272,-0.17683
1468,786.94,-0.17629
1470,787.608,-0.17617
1472,788.2757,-0.17648
1474,788.945,-0.17509
1476,789.611,-0.17455
1478,790.278,-0.17592
1480,790.941,-0.17431
1482,791.605,-0.17334
1484,792.27,-0.17173
1486,792.9359,-0.17481
1488,793.604,-0.17512
1490,794.272,-0.175
1492,794.9387,-0.17275
1494,795.603,-0.17327
1496,796.271,-0.17358
1498,796.94,-0.1756
1500,797.61,-0.1742
1502,798.279,-0.17086
1504,798.949,-0.17374
1506,799.617,-0.17384
1508,800.284,-0.17179
1510,800.951,-0.17188
1512,801.617,-0.16875
1514,802.285,-0.16863
1516,802.951,-0.16893
1518,803.615,-0.16902
1520,804.28,-0.16998
1522,804.945,-0.16727
1524,805.612,-0.16844
1526,806.281,-0.16723
1528,806.95,-0.16689
1530,807.618,-0.16698
1532,808.284,-0.16556
1534,808.951,-0.16716
1536,809.619,-0.1679
1538,810.288,-0.16258
1540,810.957,-0.16245
1542,811.625,-0.16254
1544,812.296,-0.16284
1546,812.965,-0.16163
1548,813.632,-0.15846
1550,814.298,-0.15768
1552,814.963,-0.15646
1554,815.6285,-0.15676
1556,816.296,-0.15641
1558,816.961,-0.15345
1560,817.626,-0.15266
1562,818.292,-0.15121
1564,818.958,-0.15064
1566,819.626,-0.14919
1568,820.292,-0.14796
1570,820.958,-0.14935
1572,821.621,-0.14834
1574,822.288,-0.14776
1576,822.954,-0.14675
1578,823.621,-0.14639
1580,824.288,-0.14406
1582,824.954,-0.14414
1584,825.621,-0.14465
1586,826.288,-0.14298
1588,826.955,-0.14393
1590,827.62,-0.14203
1592,828.285,-0.1421
1594,828.95,-0.13976
1596,829.618,-0.13742
1598,830.284,-0.13727
1600,830.952,-0.13889
1602,831.616,-0.13742
1604,832.283,-0.13617
1606,832.948,-0.13337
1608,833.6157,-0.13146
1610,834.2827,-0.1291
1612,834.948,-0.12917
1614,835.611,-0.12902
1616,836.273,-0.12555
1618,836.936,-0.12583
1620,837.6032,-0.12568
1622,838.27,-0.12508
1624,838.938,-0.12471
1626,839.605,-0.12388
1628,840.273,-0.1255
1630,840.941,-0.12557
1632,841.607,-0.12586
1634,842.274,-0.12748
1636,842.939,-0.12621
1638,843.61,-0.12539
1640,844.279,-0.12545
1642,844.948,-0.12418
1644,845.609,-0.12514
1646,846.272,-0.12275
1648,846.937,-0.12193
1650,847.604,-0.11954
1652,848.27,-0.11871
1654,848.937,-0.11698
1656,849.606,-0.11414
1658,850.276,-0.11398
1660,850.945,-0.11404
1662,851.612,-0.11298
1664,852.278,-0.1099
1666,852.944,-0.10884
1668,853.61,-0.10822
1670,854.2767,-0.10783
1672,854.944,-0.10587
1674,855.614,-0.10346
1676,856.2811,-0.10329
1678,856.947,-0.10379
1680,857.612,-9.96E-02
1682,858.279,-9.80E-02
1684,858.947,-9.97E-02
1686,859.613,-9.50E-02
1688,860.28,-9.62E-02
1690,860.9471,-9.26E-02
1692,861.614,-9.36E-02
1694,862.28,-9.14E-02
1696,862.946,-8.94E-02
1698,863.613,-8.78E-02
1700,864.28,-8.63E-02
1702,864.947,-8.52E-02
1704,865.613,-8.35E-02
1706,866.279,-8.37E-02
1708,866.947,-7.90E-02
1710,867.614,-8.06E-02
1712,868.283,-7.68E-02
1714,868.95,-7.62E-02
1716,869.616,-7.40E-02
1718,870.28,-7.17E-02
1720,870.945,-7.11E-02
1722,871.612,-6.79E-02
1724,872.279,-6.64E-02
1726,872.946,-6.62E-02
1728,873.612,-6.62E-02
1730,874.279,-6.17E-02
1732,874.947,-6.22E-02
1734,875.615,-5.93E-02
1736,876.282,-5.70E-02
1738,876.949,-5.52E-02
1740,877.6157,-5.14E-02
1742,878.282,-5.28E-02
1744,878.948,-4.98E-02
1746,879.614,-4.82E-02
1748,880.282,-4.71E-02
1750,880.951,-4.35E-02
1752,881.62,-4.08E-02
1754,882.288,-4.01E-02
1756,882.957,-3.99E-02
1758,883.625,-3.58E-02
1760,884.293,-3.23E-02
1762,884.96,-2.96E-02
1764,885.627,-2.92E-02
1766,886.292,-2.34E-02
1768,886.958,-2.18E-02
1770,887.625,-1.95E-02
1772,888.293,-2.00E-02
1774,888.96,-1.80E-02
1776,889.6268,-1.36E-02
1778,890.294,-1.36E-02
1780,890.961,-1.22E-02
1782,891.629,-8.07E-03
1784,892.296,-6.00E-03
1786,892.963,-5.08E-03
1788,893.63,-4.16E-03
1790,894.297,-1.16E-03
1792,894.965,2.08E-03
1794,895.634,2.08E-03
1796,896.301,6.25E-03
1798,896.968,1.02E-02
1800,897.635,1.34E-02
1802,898.304,1.51E-02
1804,898.971,1.88E-02
1806,899.638,2.27E-02
1808,900.304,2.72E-02
1810,900.972,2.88E-02
1812,901.635,3.02E-02
1814,902.3,3.49E-02
1816,902.966,3.68E-02
1818,903.635,3.93E-02
1820,904.304,4.10E-02
1822,904.97,4.26E-02
1824,905.639,4.62E-02
1826,906.308,4.97E-02
1828,906.976,4.99E-02
1830,907.645,5.39E-02
1832,908.31,5.47E-02
1834,908.976,6.03E-02
1836,909.641,6.50E-02
1838,910.306,6.78E-02
1840,910.971,6.90E-02
1842,911.638,7.40E-02
1844,912.305,7.38E-02
1846,912.973,7.64E-02
1848,913.638,7.72E-02
1850,914.303,8.24E-02
1852,914.97,8.50E-02
1854,915.637,8.64E-02
1856,916.306,8.88E-02
1858,916.973,9.29E-02
1860,917.641,9.64E-02
1862,918.305,0.10095
1864,918.971,0.10335
1866,919.636,0.10929
1868,920.304,0.10982
1870,920.972,0.11223
1872,921.639,0.11795
1874,922.307,0.12084
1876,922.974,0.12632
1878,923.64,0.12898
1880,924.3058,0.13307
1882,924.976,0.13644
1884,925.644,0.14195
1886,926.312,0.14462
1888,926.975,0.14777
1890,927.64,0.15329
1892,928.306,0.15763
1894,928.972,0.15937
1896,929.64,0.16253
1898,930.306,0.16593
1900,930.972,0.17243
1902,931.637,0.17275
1904,932.303,0.1783
1906,932.969,0.17862
1908,933.636,0.18156
1910,934.302,0.18665
1912,934.969,0.18984
1914,935.636,0.19446
1916,936.305,0.19741
1918,936.974,0.20204
1920,937.642,0.20333
1922,938.308,0.21035
1924,938.975,0.21308
1926,939.642,0.21796
1928,940.308,0.22213
1930,940.975,0.22367
1932,941.642,0.23
1934,942.311,0.2337
1936,942.979,0.23789
1938,943.647,0.24064
1940,944.313,0.24483
1942,944.981,0.25094
1944,945.646,0.25442
1946,946.314,0.25911
1948,946.98,0.26764
1950,947.649,0.27113
1952,948.316,0.27463
1954,948.983,0.27813
1956,949.648,0.28259
1958,950.314,0.28971
1960,950.982,0.29226
1962,951.6479,0.29987
1964,952.3145,0.30628
1966,952.9792,0.30884
1968,953.646,0.31285
1970,954.313,0.31517
1972,954.981,0.32353
1974,955.648,0.32586
1976,956.316,0.33134
1978,956.981,0.33802
1980,957.65,0.34448
1982,958.318,0.34634
1984,958.987,0.35183
1986,959.652,0.35733
1988,960.319,0.36429
1990,960.986,0.36858
1992,961.654,0.3741
1994,962.32,0.37767
1996,962.9877,0.3815
1998,963.6548,0.388
2000,964.323,0.39304
2002,964.99,0.40028
2004,965.657,0.40437
2006,966.326,0.4087
2008,966.994,0.41327
2010,967.6632,0.41639
2012,968.33,0.42366
2014,968.999,0.43045
2016,969.666,0.43431
2018,970.332,0.44184
2020,971,0.44718
2022,971.668,0.45325
2024,972.3349,0.45884
2026,973.001,0.46517
2028,973.668,0.47053
2030,974.338,0.47981
2032,975.005,0.48543
2034,975.67,0.49301
2036,976.3358,0.50157
2038,977.004,0.50671
2040,977.674,0.51554
2042,978.3432,0.52315
2044,979.009,0.5283
2046,979.672,0.53445
2048,980.336,0.54256
2050,981.002,0.54798
2052,981.67,0.55389
2054,982.337,0.5608
2056,983.006,0.56549
2058,983.674,0.57093
2060,984.343,0.57539
2062,985.01,0.58305
2064,985.678,0.59097
2066,986.345,0.59717
2068,987.012,0.60263
2070,987.6776,0.60983
2072,988.344,0.61679
2074,989.009,0.62424
2076,989.6769,0.62651
2078,990.342,0.63373
2080,991.008,0.6417
2082,991.674,0.64645
2084,992.34,0.64972
2086,993.0062,0.65473
2088,993.672,0.66099
2090,994.34,0.66601
2092,995.008,0.67029
2094,995.6756,0.67805
2096,996.341,0.6791
2098,997.008,0.68662
2100,997.674,0.68893
2102,998.3412,0.69596
2104,999.006,0.70126
2106,999.673,0.70631
2108,1000.34,0.70987
2110,1001.01,0.71543
2112,1001.68,0.72075
2114,1002.34,0.72806
2116,1003.01,0.73114
2118,1003.68,0.73847
2120,1004.34,0.7433
2122,1005.01,0.74664
2124,1005.68,0.75148
2126,1006.34,0.75257
2128,1007.01,0.75816
2130,1007.67,0.76276
2132,1008.34,0.76286
2134,1009.01,0.76721
2136,1009.68,0.76906
2138,1010.34,0.76891
2140,1011.01,0.77402
2142,1011.68,0.77939
2144,1012.34,0.78075
2146,1013.01,0.78487
2148,1013.68,0.78925
2150,1014.34,0.79287
2152,1015.01,0.79801
2154,1015.68,0.8029
2156,1016.34,0.80805
2158,1017.01,0.81042
2160,1017.68,0.81381
2162,1018.34,0.81897
2164,1019.01,0.8206
2166,1019.68,0.82324
2168,1020.35,0.82841
2170,1021.02,0.8313
2172,1021.68,0.83648
2174,1022.35,0.83432
2176,1023.02,0.83975
2178,1023.69,0.84316
2180,1024.35,0.84759
2182,1025.02,0.8505
2184,1025.69,0.85265
2186,1026.36,0.8581
2188,1027.02,0.85975
2190,1027.69,0.86293
2192,1028.36,0.86763
2194,1029.03,0.8703
2196,1029.7,0.87373
2198,1030.36,0.87615
2200,1031.03,0.88239
2202,1031.7,0.88787
2204,1032.36,0.89106
2206,1033.03,0.89604
2208,1033.7,0.89771
2210,1034.37,0.89989
2212,1035.03,0.90386
2214,1035.7,0.90732
2216,1036.37,0.90874
2218,1037.04,0.9117
2220,1037.71,0.91644
2222,1038.37,0.91966
2224,1039.04,0.92492
2226,1039.71,0.92814
2228,1040.38,0.93085
2230,1041.05,0.93715
2232,1041.71,0.9414
2234,1042.38,0.94053
2236,1043.05,0.94479
2238,1043.72,0.94649
2240,1044.39,0.95024
2242,1045.05,0.95424
2244,1045.72,0.95594
2246,1046.38,0.9615
2248,1047.05,0.96372
2250,1047.72,0.96697
2252,1048.39,0.96739
2254,1049.05,0.9709
2256,1049.72,0.97338
2258,1050.39,0.97535
2260,1051.06,0.97525
2262,1051.72,0.98006
2264,1052.39,0.98358
2266,1053.06,0.98478
2268,1053.73,0.98676
2270,1054.4,0.98873
2272,1055.06,0.98994
2274,1055.73,0.99166
2276,1056.39,0.99286
2278,1057.06,0.99639
2280,1057.73,0.99864
2282,1058.4,1.00036
2284,1059.07,1.00442
2286,1059.73,1.00667
2288,1060.4,1.0097
2290,1061.07,1.01298
2292,1061.74,1.0155
2294,1062.4,1.01723
2296,1063.07,1.01844
2298,1063.74,1.01888
2300,1064.4,1.02192
2302,1065.07,1.02366
2304,1065.74,1.028
2306,1066.41,1.03078
2308,1067.08,1.03279
2310,1067.74,1.03583
2312,1068.4,1.03758
2314,1069.07,1.03984
2316,1069.73,1.04029
2318,1070.405,1.04439
2320,1071.07,1.04797
2322,1071.74,1.0492
2324,1072.41,1.05095
2326,1073.07,1.05663
2328,1073.74,1.05917
2330,1074.41,1.06093
2332,1075.07,1.06321
2334,1075.74,1.06523
2336,1076.41,1.07093
2338,1077.07,1.07191
2340,1077.74,1.07472
2342,1078.41,1.07518
2344,1079.07,1.07694
2346,1079.74,1.07792
2348,1080.41,1.07917
2350,1081.07,1.08304
2352,1081.74,1.08376
2354,1082.41,1.08527
2356,1083.08,1.08731
2358,1083.74,1.08514
2360,1084.41,1.08796
2362,1085.08,1.08816
2364,1085.75,1.09152
2366,1086.41,1.08987
2368,1087.08,1.09455
2370,1087.75,1.09527
2372,1088.42,1.09547
2374,1089.08,1.09857
2376,1089.75,1.09824
2378,1090.42,1.10002
2380,1091.08,1.09943
2382,1091.75,1.09936
2384,1092.42,1.10088
2386,1093.09,1.09949
2388,1093.76,1.10154
2390,1094.43,1.10333
2392,1095.09,1.10432
2394,1095.76,1.10637
2396,1096.43,1.1071
2398,1097.09,1.10677
2400,1097.76,1.11015
2402,1098.43,1.10849
2404,1099.09,1.11081
2406,1099.76,1.10968
2408,1100.43,1.10934
2410,1101.1,1.11034
2412,1101.76,1.1116
2414,1102.43,1.11366
2416,1103.1,1.11386
2418,1103.76,1.11458
2420,1104.43,1.11558
2422,1105.09,1.11471
2424,1105.76,1.11544
2426,1106.42,1.1167
2428,1107.09,1.11609
2430,1107.76,1.11469
2432,1108.42,1.11568
2434,1109.09,1.11722
2436,1109.76,1.1158
2438,1110.42,1.11707
2440,1111.09,1.12235
2442,1111.75,1.11799
2444,1112.42,1.11845
2446,1113.08,1.11757
2448,1113.75,1.1167
2450,1114.42,1.11716
2452,1115.09,1.11547
2454,1115.75,1.11781
2456,1116.42,1.118
2458,1117.08,1.11604
2460,1117.749,1.11865
2462,1118.41,1.1218
2464,1119.08,1.11876
2466,1119.75,1.11519
2468,1120.41,1.11618
2470,1121.08,1.11799
2472,1121.75,1.11656
2474,1122.41,1.11729
2476,1123.08,1.11748
2478,1123.75,1.11956
2480,1124.41,1.11759
2482,1125.08,1.11696
2484,1125.75,1.11688
2486,1126.42,1.11734
2488,1127.09,1.11564
2490,1127.75,1.11826
2492,1128.42,1.11439
2494,1129.09,1.11701
2496,1129.76,1.11747
2498,1130.42,1.12037
2500,1131.09,1.12299
2502,1131.76,1.12291
2504,1132.42,1.12473
2506,1133.09,1.12519
2508,1133.76,1.12456
2510,1134.42,1.12475
2512,1135.09,1.12466
2514,1135.76,1.12594
2516,1136.42,1.12721
2518,1137.09,1.12821
2520,1137.76,1.13004
2522,1138.43,1.12696
2524,1139.09,1.12714
2526,1139.76,1.12978
2528,1140.43,1.13106
2530,1141.09,1.13125
2532,1141.76,1.13062
2534,1142.43,1.13162
2536,1143.09,1.13399
2538,1143.76,1.13446
2540,1144.43,1.13382
2542,1145.09,1.13401
2544,1145.76,1.13611
2546,1146.43,1.13603
2548,1147.1,1.13841
2550,1147.77,1.13997
2552,1148.44,1.14372
2554,1149.1,1.14555
2556,1149.77,1.14547
2558,1150.44,1.14922
2560,1151.1,1.1464
2562,1151.77,1.14988
2564,1152.44,1.14952
2566,1153.1,1.15219
2568,1153.77,1.15457
2570,1154.44,1.15669
2572,1155.1,1.15936
2574,1155.77,1.16038
2576,1156.44,1.16223
2578,1157.11,1.166
2580,1157.77,1.16509
2582,1158.44,1.16694
2584,1159.1,1.16879
2586,1159.77,1.17037
2588,1160.44,1.17195
2590,1161.11,1.17463
2592,1161.77,1.17869
2594,1162.44,1.17944
2596,1163.1,1.1849
2598,1163.77,1.18399
2600,1164.43,1.18419
2602,1165.1,1.18826
2604,1165.76,1.18819
2606,1166.43,1.18867
2608,1167.1,1.19524
2610,1167.76,1.19544
2612,1168.43,1.1962
2614,1169.1,1.19668
2616,1169.76,1.19994
2618,1170.42,1.20514
2620,1171.09,1.20896
2622,1171.76,1.21056
2624,1172.43,1.21216
2626,1173.1,1.21543
2628,1173.76,1.21758
2630,1174.43,1.22392
2632,1175.09,1.22274
2634,1175.76,1.22406
2636,1176.42,1.22678
2638,1177.09,1.22978
2640,1177.75,1.23306
2642,1178.42,1.23579
2644,1179.08,1.23768
2646,1179.75,1.24069
2648,1180.42,1.24705
2650,1181.08,1.24811
2652,1181.75,1.25141
2654,1182.42,1.25751
2656,1183.08,1.26193
2658,1183.75,1.26159
2660,1184.41,1.26629
2662,1185.08,1.26904
2664,1185.74,1.27459
2666,1186.41,1.27566
2668,1187.08,1.27926
2670,1187.74,1.2837
2672,1188.4,1.28898
2674,1189.07,1.29427
2676,1189.73,1.29535
2678,1190.4,1.29924
2680,1191.06,1.30341
2682,1191.73,1.30956
2684,1192.39,1.31542
2686,1193.06,1.31848
2688,1193.73,1.32408
2690,1194.39,1.32714
2692,1195.06,1.33162
2694,1195.73,1.33779
2696,1196.39,1.34086
2698,1197.05,1.3476
2700,1197.72,1.35209
2702,1198.39,1.35545
2704,1199.05,1.36334
2706,1199.72,1.36671
2708,1200.384,1.3715
2710,1201.05,1.37742
2712,1201.71,1.38419
2714,1202.38,1.38588
2716,1203.05,1.38869
2718,1203.72,1.3969
2720,1204.38,1.40029
2722,1205.05,1.40879
2724,1205.72,1.41332
2726,1206.39,1.41928
2728,1207.05,1.4241
2730,1207.72,1.42978
2732,1208.39,1.43632
2734,1209.05,1.442
2736,1209.72,1.44628
2738,1210.39,1.44998
2740,1211.05,1.4571
2742,1211.72,1.46253
2744,1212.39,1.46909
2746,1213.06,1.47594
2748,1213.72,1.48252
2750,1214.39,1.48596
2752,1215.06,1.49339
2754,1215.72,1.4977
2756,1216.39,1.50287
2758,1217.06,1.5086
2760,1217.73,1.51492
2762,1218.39,1.52381
2764,1219.06,1.52756
2766,1219.72,1.53446
2768,1220.39,1.54108
2770,1221.05,1.54512
2772,1221.72,1.54975
2774,1222.39,1.55753