File: Non-charring/PMMA/GIDAZE+/GIDAZE+_Cone_25_2.csv
Time,Mass,HRR,T_1,T_3,T_4
[s],[g],[kW/m2],[K],[K],[K]
0,67,0.650939,315.111,300.725,301.148
1,67.00038,0.7411,325.538,300.723,301.135
2,67.0001,0.569697,335.575,300.732,301.16
3,67.2114,0.714056,345.522,300.771,301.171
4,67.2967,0.57986,354.478,300.8,301.198
5,67.2154,0.714112,362.252,300.819,301.198
6,67.0297,1.02129,370.447,300.831,301.206
7,67.09053,0.851228,378.314,300.863,301.241
8,67.0149,0.965393,386.157,300.925,301.254
9,66.9166,0.654645,394.016,300.944,301.277
10,67.0801,0.754364,401.807,300.992,301.277
11,67.1494,0.666001,408.539,301.069,301.293
12,67.1138,0.632052,414.551,301.15,301.31
13,67.2754,0.749302,420.155,301.223,301.323
14,67.3054,1.02365,425.869,301.349,301.318
15,67.21722,1.34339,431.148,301.479,301.335
16,67.11926,1.72507,436.667,301.67,301.337
17,67.1057,1.92961,442.198,301.857,301.362
18,66.9331,1.89891,446.125,302.086,301.366
19,67.0468,1.65561,450.511,302.365,301.381
20,67.1016,1.77592,455.147,302.648,301.401
21,67.1052,1.6612,459.289,302.974,301.439
22,67.1887,2.12263,463.06,303.384,301.447
23,67.2023,1.86802,466.436,303.754,301.451
24,67.1191,2.07512,468.847,304.218,301.487
25,67.0145,1.94949,472.332,304.666,301.518
26,67.0012,1.8433,475.5,305.156,301.547
27,66.9987,1.54353,479.415,305.677,301.568
28,67.0011,1.82098,483.305,306.197,301.603
29,67.0017,1.57232,485.205,306.756,301.635
30,67.0909,1.85219,487.864,307.366,301.672
31,67.1882,2.4249,489.42,307.973,301.72
32,67.2025,3.0098,490.603,308.615,301.755
33,67.2917,2.60166,493.408,309.297,301.807
34,67.1345,2.99249,497.741,309.963,301.861
35,67.1065,2.66122,501.029,310.69,301.899
36,67.015,2.87141,504.065,311.404,301.944
37,66.9181,2.66193,507.55,312.155,302.015
38,66.989,3.66712,509.328,312.922,302.049
39,67.09127,3.52469,511.548,313.709,302.109
40,67.1055,3.86884,512.807,314.508,302.165
41,67.18882,3.45671,514.355,315.334,302.246
42,67.2027,3.80939,515.978,316.183,302.298
43,67.1192,3.54686,516.593,317.045,302.369
44,67.01561,4.01256,517.687,317.879,302.446
45,67.0016,3.46861,518.555,318.756,302.514
46,67.0024,3.95473,519.458,319.622,302.591
47,66.9193,3.50526,520.633,320.547,302.66
48,66.9057,3.61139,521.126,321.434,302.766
49,67.078,3.3499,522.572,322.334,302.816
50,67.1065,3.62672,521.862,323.241,302.937
51,67.1903,3.5543,523.588,324.163,303.007
52,67.2938,3.77359,525.566,325.089,303.128
53,67.13454,3.50829,525.026,326.006,303.218
54,67.1066,3.78307,523.025,326.911,303.313
55,67.0174,3.40334,523.352,327.827,303.417
56,66.9196,3.68476,524.243,328.763,303.54
57,66.9053,2.44707,525.544,329.662,303.667
58,66.9897,2.81028,525.447,330.605,303.765
59,67.0926,2.3803,525.473,331.533,303.888
60,67.1072,2.85817,528.711,332.469,304.008
61,67.1897,2.39853,531.503,333.421,304.164
62,67.29234,2.75971,532.654,334.385,304.297
63,67.3071,2.41605,534.625,335.323,304.428
64,67.1328,2.57364,534.87,336.288,304.561
65,67.0162,2.3282,536.482,337.243,304.693
66,67.0028,2.60646,535.658,338.215,304.826
67,66.9201,1.45491,536.155,339.155,304.98
68,66.9057,1.68554,536.669,340.08,305.102
69,66.9895,1.46084,537.039,341.033,305.254
70,67.09247,1.73653,538.281,341.985,305.377
71,67.1903,1.50183,537.396,342.919,305.545
72,67.2037,1.37491,538.938,343.859,305.664
73,67.2044,1.31751,539.589,344.807,305.839
74,67.12117,1.4615,541.44,345.768,306.003
75,67.0159,1.26013,542.788,346.715,306.157
76,67.0022,1.46107,543.801,347.656,306.33
77,66.9197,1.66581,545.936,348.616,306.529
78,66.9059,1.50292,547.022,349.542,306.708
79,67.0784,1.7234,548.635,350.476,306.931
80,67.1071,1.62982,550.588,351.401,307.174
81,67.1894,1.53473,551.79,352.35,307.447
82,67.2028,1.4318,552.865,353.255,307.717
83,67.1194,0.554702,554.109,354.14,307.977
84,67.1065,0.451586,553.572,355.042,308.162
85,67.0162,0.891835,550.111,355.925,308.366
86,67.0029,0.630489,551.346,356.822,308.56
87,66.9204,0.728242,550.037,357.699,308.754
88,66.9891,0.582041,549.064,358.562,308.937
89,67.0926,0.681826,550.113,359.458,309.135
90,67.1905,0.427035,550.639,360.328,309.333
91,67.2925,0.434197,552.605,361.197,309.525
92,67.2193,0.39055,550.977,362.038,309.736
93,67.12098,0.900053,552.736,362.92,309.953
94,67.1072,0.527267,553.412,363.74,310.145
95,67.018,0.925812,552.607,364.578,310.357
96,67.0032,0.748401,554.353,365.415,310.57
97,67.0038,0.903181,555.653,366.25,310.775
98,67.0031,0.42704,556.506,367.057,311.021
99,67.0928,0.95722,555.001,367.865,311.253
100,67.1071,0.502546,555.65,368.649,311.487
101,67.1908,0.894143,555.835,369.415,311.733
102,67.121,0.455157,556.489,370.188,311.984
103,67.0176,0.710046,557.371,370.934,312.277
104,67.0033,0.475388,557.67,371.683,312.624
105,66.9201,0.710108,557.653,372.436,313.444
106,66.90612,0.669144,557.929,373.185,314.007
107,66.8157,0.850784,557.266,373.887,314.462
108,66.97482,0.625702,556.372,374.607,314.93
109,67.094,0.859023,558.649,375.296,315.302
110,67.1909,0.607149,560.254,375.988,315.743
111,67.2042,0.551006,561.437,376.691,316.126
112,67.2047,1.42384,562.93,377.344,316.537
113,66.94845,1.37426,563.357,377.955,317.011
114,66.9069,16.1438,562.063,378.543,317.464
115,66.7223,64.8055,560.354,379.101,318.022
116,66.70013,93.9477,559.715,379.57,318.547
117,66.7009,118.96,571.641,380.224,319.099
118,66.7012,149.151,596.602,380.85,319.618
119,66.7008,148.845,638.434,381.499,320.148
120,66.6158,197.578,675.975,382.091,320.732
121,66.5135,219.721,706.224,382.686,321.353
122,66.3285,254.013,723.056,383.199,321.953
123,66.0572,267.4,725.36,383.339,322.485
124,65.6563,284.478,726.19,383.636,322.671
125,65.2498,291.25,728.528,384.16,322.79
126,65.3704,307.487,727.904,384.662,323.275
127,65.4872,305.748,724.741,385.125,323.969
128,65.4129,330.114,722.166,385.643,324.576
129,65.3981,327.44,719.494,386.178,325.351
130,65.3168,326.544,718.115,387.132,326.347
131,64.8578,339.29,716.962,388.081,327.66
132,64.7982,339.117,716.773,388.911,329.506
133,64.7131,352.226,715.318,389.599,331.022
134,64.52611,347.875,714.366,390.218,332.282
135,64.4967,350.693,713.644,390.833,333.319
136,64.4156,350.169,713.175,391.488,334.16
137,64.3141,348.228,711.72,392.067,334.858
138,64.2151,366.562,710.175,392.669,335.502
139,63.6091,381.272,708.852,393.292,336.143
140,63.5024,381.525,708.054,393.961,336.796
141,63.32963,377.096,707.257,394.625,337.427
142,63.3023,378.626,705.982,395.319,337.911
143,63.3869,379.894,705.1,395.989,338.155
144,63.2238,386.449,705.16,396.679,338.286
145,63.1994,374.535,703.665,397.292,338.311
146,63.0293,387.8,702.319,397.942,337.391
147,62.4964,387.938,701.08,398.637,336.239
148,62.4047,385.459,700.425,399.284,335.274
149,62.2297,376.414,699.854,399.946,334.143
150,62.1131,377.878,698.973,400.502,333.095
151,62.1866,374.522,697.612,400.714,332.103
152,62.02501,380.703,696.39,401.104,331.15
153,61.9122,371.852,695.12,402.105,330.186
154,61.89868,373.078,694.187,403.587,329.313
155,61.5209,370.825,693.508,404.93,328.459
156,61.3224,378.785,692.864,406.129,327.716
157,60.5249,375.188,691.678,407.274,327.078
158,60.4796,379.789,691.117,408.333,326.569
159,60.5856,387.73,690.784,409.337,326.175
160,60.5085,382.269,690.447,410.303,325.873
161,60.4946,382.838,689.636,411.259,325.626
162,60.4948,379.695,689.007,412.198,325.577
163,60.1933,370.053,688.514,413.168,325.839
164,60.0105,391.513,688.011,414.096,325.95
165,59.6475,379.103,687.496,414.995,325.969
166,59.5074,389.316,687.443,415.914,326.052
167,59.57783,389.237,687.205,416.847,326.094
168,59.5074,395.74,686.773,417.761,326.186
169,59.4022,387.96,686.436,418.659,326.175
170,59.21749,394.177,686.224,419.596,326.226
171,59.05622,395.409,685.824,420.514,326.301
172,58.9064,396.357,685.903,421.439,326.385
173,58.0134,394.768,685.63,422.341,326.481
174,57.7983,392.377,685.52,423.261,326.607
175,58.1338,403.575,685.446,424.15,326.702
176,58.0995,406.552,685.228,425.032,326.79
177,58.08675,403.315,685.322,425.991,326.877
178,57.9147,382.269,685.409,426.902,326.966
179,57.8282,391.217,685.538,427.823,327.007
180,57.7056,399.322,685.831,428.718,327.188
181,56.8357,386.782,685.798,429.635,327.38
182,56.682,385.564,685.75,430.529,327.546
183,56.5102,392.855,684.761,431.436,327.772
184,56.4812,394.859,684.577,432.335,328.002
185,56.5656,384.605,684.689,433.236,328.249
186,56.496,391.594,684.608,434.143,328.447
187,56.4202,394.767,684.33,435.015,328.685
188,56.3832,383.873,684.213,435.913,328.915
189,56.0342,399.16,683.555,436.819,329.156
190,55.2916,407.518,683.391,437.723,329.349
191,55.2622,401.472,684.003,438.619,329.577
192,55.1923,395.435,683.767,439.491,329.782
193,55.1792,407.978,683.526,440.391,329.982
194,54.7458,413.278,683.098,441.289,330.201
195,54.75758,407.525,682.792,442.168,330.412
196,54.7702,406.18,682.27,443.055,330.635
197,54.7707,411.068,682.456,443.981,330.799
198,54.7716,389.171,681.985,444.868,330.988
199,54.5989,410.293,681.66,445.775,331.194
200,54.4891,389.604,681.489,446.657,331.367
201,54.3027,396.635,681.759,447.543,331.608
202,53.6697,397.037,682.159,448.442,331.812
203,53.494,394.49,682.561,449.356,332.055
204,53.4701,389.364,682.388,450.206,332.319
205,53.2109,403.524,682.01,451.072,332.572
206,52.8116,397.303,681.954,451.961,332.813
207,53.1952,400.597,682.583,452.839,333.06
208,53.0045,399.873,682.711,453.713,333.279
209,52.9618,391.007,682.829,454.6,333.539
210,52.78726,416.448,682.519,455.517,333.773
211,52.24577,407.929,682.231,456.392,334.005
212,51.8096,425.111,681.984,457.249,334.238
213,51.7582,415.155,682.119,458.156,334.489
214,51.6689,440.281,681.98,459.035,334.724
215,51.4812,422.849,681.742,459.896,334.951
216,51.4565,408.778,680.892,460.725,335.199
217,51.4562,426.112,680.241,461.613,335.437
218,51.3727,417.295,680.354,462.484,335.687
219,51.2731,416.771,680.188,463.372,335.951
220,50.9922,402.217,680.179,464.238,336.192
221,50.954,418.5,679.958,465.083,336.392
222,50.8713,424.111,679.797,466.006,336.625
223,50.3379,419.036,680.085,466.869,336.856
224,50.1708,406.768,680.251,467.758,337.07
225,50.1569,426.646,680.326,468.63,337.291
226,49.896,432.308,680.286,469.494,337.526
227,49.8533,431.836,679.952,470.398,337.736
228,49.6001,417.979,679.854,471.241,338.023
229,49.4696,423.514,680.33,472.103,338.22
230,49.2855,422.248,680.592,472.999,338.411
231,48.3126,437.393,680.114,473.847,338.657
232,48.49916,453.492,680.253,474.741,338.873
233,48.6453,422.216,680.037,475.577,339.063
234,48.4807,447.627,680.19,476.43,339.237
235,48.4294,436.813,680,477.289,339.485
236,48.2774,427.173,679.286,478.122,339.678
237,48.0815,413.533,679.078,479.002,339.872
238,47.6297,444.919,679.12,479.915,340.076
239,47.3823,444.06,679.327,480.762,340.271
240,47.3543,423.322,679.113,481.644,340.5
241,47.354,424.575,678.671,482.512,340.701
242,47.1851,420.546,678.152,483.383,340.889
243,47.1382,434.555,677.843,484.247,341.093
244,46.9772,430.345,678.281,485.082,341.247
245,46.7808,443.048,678.239,485.948,341.438
246,46.3177,442.369,677.869,486.78,341.564
247,46.0045,443.3,676.954,487.63,341.72
248,45.8726,419.955,677.012,488.539,342.005
249,45.85819,429.245,676.723,489.381,342.2
250,45.7687,441.684,677.093,490.25,342.379
251,45.6675,426.704,677.171,491.072,342.553
252,45.5673,434.123,676.812,491.97,342.729
253,45.3834,431.979,676.452,492.83,342.863
254,45.0136,433.075,676.28,493.683,342.966
255,44.783,436.963,675.945,494.589,343.062
256,44.6643,450.217,675.805,495.44,343.178
257,44.481,439.302,676.186,496.329,343.313
258,44.3696,430.49,675.692,497.298,343.435
259,44.2707,437.462,675.576,498.171,343.559
260,44.1702,449.986,675.221,499.06,343.722
261,43.8918,449.109,674.983,499.983,343.884
262,43.2404,453.752,674.782,500.842,344.049
263,42.9805,445.868,674.693,501.712,344.261
264,42.7786,430.348,674.483,502.571,344.445
265,42.58306,453.299,674.498,503.433,344.663
266,42.6356,465.657,675.248,504.257,344.854
267,42.568,466.768,675.185,505.132,345.07
268,42.5555,465.944,675.367,506.029,345.252
269,42.4647,478.764,675.083,506.901,345.475
270,42.1137,462.717,674.558,507.745,345.673
271,41.8797,482.035,674.27,508.653,345.914
272,41.1471,475.797,673.898,509.562,346.126
273,40.8713,459.189,673.604,510.376,346.308
274,40.9329,482.202,673.272,511.257,346.545
275,40.856,472.083,672.865,512.12,346.75
276,40.8435,456.599,672.788,512.941,346.925
277,40.8446,464.948,672.711,513.848,347.167
278,40.5928,485.796,671.766,514.698,347.347
279,40.3764,476.358,671.578,515.506,347.557
280,40.259,473.414,671.565,516.355,347.81
281,39.8137,470.961,672.036,517.24,347.987
282,39.1364,500.273,671.8,518.127,348.159
283,39.3876,463.066,671.844,519.034,348.36
284,39.4456,480.314,671.85,519.93,348.551
285,39.26939,478.794,671.421,520.687,348.78
286,39.1563,467.31,671.068,521.474,348.995
287,39.0512,493.198,671.119,522.347,349.233
288,38.8627,481.635,671.361,523.278,349.454
289,37.8847,478.582,671.428,524.014,349.63
290,37.7309,475.771,671.844,524.836,349.859
291,37.3856,482.239,671.367,525.689,350.056
292,37.33,489.149,671.265,526.597,350.233
293,37.4139,500.631,671.141,527.576,350.407
294,37.252,504.07,670.388,528.495,350.632
295,37.2239,480.419,670.247,529.33,350.806
296,37.0495,489.165,670.205,530.114,351.033
297,36.6785,483.797,669.831,530.953,351.253
298,36.3585,516.64,669.334,532.557,351.483
299,36.14659,509.43,669.693,535.189,351.682
300,35.949,529.157,670.046,536.287,351.885
301,35.4817,520.539,669.375,537.118,352.087
302,35.5048,522.928,668.952,537.498,352.327
303,35.5207,519.632,668.922,537.312,352.561
304,35.3493,482.396,668.798,537.677,352.82
305,35.3209,507.76,668.924,537.526,353.056
306,35.2299,512.614,669.123,538.382,353.227
307,34.7898,515.522,669.495,539.228,353.435
308,34.5406,502.635,670.02,540.1,353.684
309,33.6416,510.563,670.833,540.965,353.951
310,33.3439,509.921,671.28,541.831,354.181
311,33.316,505.379,670.636,542.67,354.427
312,33.3986,505.36,670.537,543.383,354.666
313,33.3289,499.647,670.404,544.262,354.974
314,33.228,506.554,670.615,544.881,355.199
315,33.0457,513.132,670.471,545.7,355.496
316,33.0156,521.748,670.173,546.451,355.82
317,32.5773,508.258,669.828,547.288,356.156
318,31.9984,524.153,669.931,548.099,356.529
319,31.9151,515.905,669.852,548.878,356.719
320,31.5728,505.507,670.153,549.705,357.049
321,30.9172,509.82,669.538,550.563,357.341
322,31.0709,525.865,668.767,551.41,357.555
323,31.0296,491.809,668.026,552.256,357.827
324,31.09847,483.743,667.424,553.089,358.061
325,30.9421,509.845,667.282,553.922,358.283
326,30.8315,523.084,667.261,554.778,358.5
327,30.7291,501.706,667.328,555.635,358.706
328,30.0273,506.532,667.592,556.474,358.986
329,29.39586,528.478,667.609,557.326,359.263
330,29.1135,538.064,667.786,558.166,359.505
331,29.10435,516.12,667.522,559.01,359.744
332,29.1086,509.277,667.1,559.833,359.996
333,28.8576,519.111,666.912,560.678,360.276
334,28.5537,499.247,666.749,561.536,360.522
335,28.5102,506.71,666.729,562.396,360.827
336,28.50918,515.873,666.792,563.225,361.126
337,28.4218,523.904,666.799,564.05,361.423
338,28.3115,528.491,666.888,564.902,361.7
339,28.2195,492.443,667.027,565.724,362.006
340,28.1236,472.759,667.195,566.531,362.326
341,27.2464,507.905,667.5,567.339,362.651
342,26.8503,495.998,667.592,568.161,362.986
343,26.8948,504.531,667.729,569.147,363.339
344,26.6445,516.608,667.747,570.676,363.659
345,26.4311,507.503,667.714,570.508,363.99
346,26.39109,489.347,667.69,571.261,364.338
347,26.3179,497.489,667.925,572.01,364.688
348,25.9638,512.846,668.305,572.737,365.013
349,25.9075,510.584,668.562,573.49,365.304
350,25.8178,490.415,668.817,574.209,365.649
351,25.4602,526.675,669.213,574.916,366.04
352,24.9713,510.138,669.482,575.617,366.382
353,24.90036,497.422,669.859,576.247,366.711
354,24.575,485.034,670.532,576.863,367.089
355,24.4164,490.669,672.164,577.474,367.497
356,23.7857,506.414,674.008,578.037,367.913
357,24.0512,513.557,676.222,578.409,368.238
358,24.0108,500.59,679.267,578.931,368.635
359,23.9145,520.492,682.324,579.814,369.037
360,23.72345,517.501,685.815,580.011,369.434
361,23.6122,478.866,690.042,580.377,369.84
362,22.6432,506.948,693.54,580.761,370.214
363,22.4914,499.791,696.106,581.132,370.619
364,22.4916,497.653,698.344,581.601,371.017
365,22.2328,521.309,700.357,582.012,371.433
366,21.8442,507.459,704.554,582.404,371.898
367,21.8714,500.107,710.546,583.056,372.476
368,21.8028,512.936,717.447,583.692,373.17
369,21.70058,529.712,724.738,583.653,373.929
370,21.6586,520.674,730.152,584.026,374.721
371,21.5085,527.588,735.424,584.542,375.559
372,20.96955,558.025,739.176,584.973,376.213
373,20.3725,605.861,742.624,585.961,376.731
374,19.9331,555.362,746.845,585.157,377.853
375,19.7089,569.099,749.916,584.298,381.822
376,19.597,518.667,752.361,583.396,386.116
377,19.6682,515.066,754.772,582.764,390.826
378,19.6763,517.824,757.059,581.31,396.041
379,19.5973,485.1,758.803,584.682,402.841
380,19.49801,480.148,760.982,585.133,408.549
381,19.4821,470.807,762.413,585.369,413.445
382,19.3107,443.69,763.362,585.251,418.206
383,18.41936,448.214,764.421,586.021,423.063
384,18.1055,443.943,765.561,585.609,426.155
385,18.0774,448.767,766.39,585.611,428.792
386,17.8993,442.997,767.054,586.076,430.862
387,17.8784,423.517,767.897,586.517,432.5
388,17.8793,420.456,768.695,587.244,433.387
389,17.7963,420.495,769.465,588.109,433.803
390,17.7829,417.089,770.102,589.202,433.428
391,17.612,415.726,770.396,589.527,433.259
392,17.40638,436.241,770.239,589.949,433.107
393,16.5346,419.91,770.584,590.288,432.725
394,16.2896,410.14,770.782,590.245,432.026
395,16.367,425.131,771.294,591.079,431.261
396,16.2095,410.309,771.755,591.699,430.921
397,16.0932,409.179,772.367,592.35,430.892
398,16.0785,393.81,772.752,593.061,430.954
399,15.9966,396.135,773.016,593.809,430.993
400,15.9823,392.334,773.281,594.691,430.983
401,15.893,394.422,773.243,595.654,431.21
402,15.8769,393.073,773.25,596.739,431.443
403,15.7966,401.181,773.12,597.763,431.282
404,15.1814,404.094,772.591,598.708,431.272
405,14.9104,388.389,772.549,599.8,431.435
406,14.7025,388.033,773.186,600.763,432.329
407,14.4196,401.692,773.445,601.466,433.985
408,14.2879,380.543,774.051,602.448,434.952
409,14.2752,402.993,774.683,603.295,435.5
410,14.27385,392.964,775.269,604.069,435.745
411,14.1034,396.487,775.823,604.812,435.828
412,13.9919,399.199,776.252,605.545,435.766
413,13.9775,387.002,776.327,606.321,435.756
414,13.7189,382.959,776.384,607.446,435.832
415,13.16,381.594,776.594,608.149,435.883
416,12.9863,372.138,776.897,609.045,435.914
417,12.88215,371.776,777.16,609.815,435.951
418,12.695,370.494,776.99,610.656,435.885
419,12.3213,381.881,777.028,611.47,435.815
420,12.5296,383.725,777.23,611.791,435.71
421,12.5725,374.401,777.83,613.897,435.844
422,12.4013,387.024,777.968,616.091,436.613
423,12.374,387.583,778.079,617.537,437.736
424,12.2847,369.476,778.006,618.587,438.556
425,12.098,377.733,778.131,619.513,439.359
426,11.89546,366.358,778.978,620.392,440.047
427,11.3549,381.546,779.011,620.894,440.486
428,11.1816,378.549,778.657,621.094,440.782
429,11.0769,392.264,779.455,621.598,441.045
430,10.8097,374.189,779.556,625.08,441.505
431,10.7679,365.39,779.859,627.102,442.107
432,10.85249,363.929,781.641,627.868,442.559
433,10.7817,365.784,783.78,627.047,442.85
434,10.6785,357.117,785.214,628.456,443.123
435,10.665,366.367,786.467,630.742,443.485
436,10.5817,356.918,787.23,632.327,443.908
437,10.5678,375.515,788.259,633.654,444.261
438,9.189502,351.509,788.564,636.447,444.504
439,9.136815,366.874,790.076,638.417,444.912
440,9.164241,369.366,791.281,640.123,445.42
441,9.164464,360.189,791.948,641.895,445.863
442,9.075543,350.223,792.186,643.902,446.243
443,8.889454,345.98,793.451,645.8,446.518
444,8.861685,335.493,793.876,647.08,446.81
445,8.861273,348.482,794.676,648.317,446.929
446,8.86148,372.509,796.332,650.033,446.97
447,8.779195,355.971,797.43,651.335,446.611
448,8.676429,369.76,797.82,652.725,446.354
449,8.502055,363.125,797.848,654.126,446.186
450,8.465138,368.08,797.87,655.306,446.182
451,8.113159,373.389,798.08,656.726,446.342
452,7.89041,364.521,798.241,658.206,446.746
453,7.598569,363.552,798.48,659.322,447.098
454,7.38689,364.076,799.506,660.248,447.529
455,7.269244,357.549,799.854,661.605,447.954
456,7.172296,362.001,800.464,662.859,448.525
457,7.13599,350.423,800.717,664.538,448.712
458,7.067014,358.371,801.308,668.823,449.305
459,6.972932,360.593,802.054,668.926,449.477
460,6.959167,356.645,802.683,670.29,449.89
461,6.866906,345.697,802.892,671.936,450.326
462,6.164815,341.064,803.315,673.128,450.628
463,5.789057,330.261,803.37,674.462,451.134
464,5.750146,331.082,804.739,676.648,451.581
465,5.659381,323.032,805.263,677.578,451.87
466,5.561354,322.523,804.805,678.293,452.543
467,5.550091,318.304,804.395,675.876,455.505
468,5.550324,316.951,804.404,675.687,456.711
469,5.460898,304.714,804.434,675.824,457.527
470,5.363699,285.349,804.871,677.229,457.347
471,5.349395,277.015,806.113,676.586,456.836
472,5.34965,270.949,807.026,677.443,456.855
473,5.317749,274.944,807.848,678.132,456.961
474,5.17235,268.218,808.855,678.381,457.332
475,4.620089,257.934,808.655,678.673,457.726
476,4.635798,245.556,810.146,678.949,458.214
477,4.472187,240.819,811.987,678.973,458.969
478,4.10337,235.588,813.036,679.042,459.307
479,4.131946,228.685,814.173,678.951,459.498
480,4.234313,229.24,814.794,679.634,459.629
481,4.243353,224.356,817.367,680.613,460.002
482,4.157723,214.923,819.822,680.7,460.523
483,4.145298,207.953,820.093,680.257,460.849
484,4.144334,203.705,820.412,680.108,461.22
485,4.060713,195.349,821.245,680.618,461.995
486,3.875622,193.492,821.881,681.072,463.162
487,3.670028,189.231,823.53,680.925,464.251
488,3.557907,183.401,826.502,680.665,465.404
489,3.543335,180.028,828.869,680.527,466.477
490,3.369774,173.191,831.153,680.202,468.555
491,3.345016,173.159,835.503,681.161,470.064
492,3.427515,168.753,842.791,681.115,471.396
493,3.44057,165.135,844.44,680.602,472.542
494,3.359208,164.851,846.461,679.787,473.445
495,3.345094,161.541,845.703,678.459,474.309
496,3.345077,161.87,847.541,678.695,475.046
497,3.25622,158.3,847.305,678.647,475.422
498,2.990228,156.592,848.851,678.23,475.677
499,2.856684,155.478,851.503,677.001,475.609
500,2.840973,154.205,853.927,676.789,475.594
501,2.668225,150.817,856.042,676.316,475.681
502,2.551348,151.936,864.843,676.572,475.407
503,2.536343,147.072,869.845,676.051,474.541
504,2.625201,145.151,885.322,676.075,473.458
505,2.639813,141.449,882.945,675.637,472.908
506,2.55127,141.264,930.385,675.148,471.741
507,2.625508,141.983,954.129,674.281,470.639
508,2.639606,135.977,968.625,674.089,470.166
509,2.381255,134.88,975.7,675.277,471.682
510,2.254731,132.375,1029.372,676.172,472.976
511,2.151385,126.446,1054.277,675.761,474.539
512,2.05436,122.363,1083.093,675.974,475.171
513,1.951974,119.335,1073.749,675.455,473.235
514,2.026164,116.837,1099.736,674.886,472.332
515,2.123064,114.809,1127.966,675.597,471.255
516,2.053301,109.512,1163.461,675.549,470.719
517,2.039917,106.61,1194.493,675.049,470.887
518,2.04006,101.479,1186.267,673.774,471.222
519,2.040074,98.0712,1189.56,672.837,471.845
520,1.95177,96.2121,1204.498,673.125,472.844
521,1.849351,95.3516,1227.982,672.304,474.237
522,1.751832,92.9863,1232.699,670.479,476.019
523,1.737245,89.9874,1230.928,670.959,478.071
524,1.646193,87.1561,1133.402,671.721,480.06
525,1.549008,84.5854,1009.71,671.73,481.76
526,1.536724,82.0811,920.905,671.127,483.078
527,1.710228,80.2303,863.362,671.828,484.441
528,1.737909,79.4884,812.687,672.212,485.116
529,1.738147,74.2581,773.807,672.713,485.217
530,1.737814,72.5637,753.305,674.328,485.624
531,1.737077,71.1113,731.687,675.272,486.048
532,1.737945,66.9355,710.039,676.804,486.218
533,1.64784,67.1008,687.084,676.915,486.043
534,1.548956,63.2082,681.476,676.821,485.889
535,1.366846,61.0782,670.639,681.712,485.899
536,1.248898,57.668,657.808,686.654,486.144
537,1.233838,55.4975,646.403,692.955,486.121
538,1.23381,51.9332,642.531,696.071,485.92
539,1.150438,49.3958,630.919,699.329,485.727
540,1.049303,46.764,622.234,703.506,485.667
541,1.122967,48.4989,619.016,713.246,485.328
542,1.221071,46.1554,619.856,731.924,485.134
543,1.323961,44.6263,608.379,740.662,485.18
544,1.338782,42.9507,596.414,739.404,485.081
545,1.338046,40.1838,592.73,763.806,485.064
546,1.420664,39.0309,587.376,820.176,485.112
547,1.433995,35.7481,581.489,892.109,485.237
548,1.261876,34.3737,583.997,955.042,485.321
549,1.15058,32.5537,578.772,1002.454,485.329
550,1.136769,30.5009,572.403,994.916,485.054
551,1.049588,28.6925,570.447,992.256,484.893
552,1.010904,28.3961,572.301,973.371,484.994
553,1.030046,26.7228,568.565,872.001,485.249
554,1.122528,24.9522,567.562,764.724,485.364
555,1.137085,24.5664,566.039,690.336,485.374
556,1.137369,23.0914,565.447,655.12,485.288
557,1.222431,23.1091,566.431,631.137,485.325
558,1.23403,22.3138,570.289,624.074,485.302
559,1.061421,21.2123,575.415,614.783,485.111
560,1.033908,20.0969,571.727,618.846,484.839
561,0.944216,19.6862,572.081,615.006,484.774
562,0.930586,19.5141,568.891,619.709,484.87
563,0.848451,18.4839,567.746,626.705,484.797
564,0.917312,18.6094,564.568,619.676,485.016
565,1.020078,17.2873,556.197,621.702,485.045
566,1.034246,16.3648,552.198,602.6,485.056
567,1.123659,14.9918,544.404,591.229,485.16
568,1.136276,13.7991,546.621,589.805,485.191
569,0.962528,12.7855,545.059,580.188,485.413
570,0.930542,12.7518,541.091,576.613,485.387
571,0.931844,10.2287,540.675,573.895,485.625
572,0.75897,9.49148,534.134,568.094,485.769
573,0.730797,8.06509,534.934,576.724,485.837
574,0.819813,6.69431,539.984,576.499,485.987
575,0.917709,4.57833,541.851,571.191,486.275
576,0.931088,4.23464,538.578,577.27,486.481
577,1.020814,3.2263,535.459,587.633,486.655
578,1.12273,2.61728,534.163,582.892,486.587
579,1.136699,1.50634,530.085,591.65,486.709
580,0.960435,1.32294,529.405,573.086,487.027
581,0.931661,1.43993,532.43,553.594,487.383
582,0.848322,2.16555,535.012,560.936,487.607
583,0.745686,3.00293,533.899,571.392,487.868
584,0.729331,1.88077,531.793,571.022,488.174
585,0.818468,2.18735,533.004,554.638,488.539
586,0.915464,1.09667,537.144,543.63,488.793
587,0.931332,1.3696,541.001,535.95,489.144
588,0.931583,0.970287,536.185,540.372,489.513
589,1.020661,0.88818,538.762,546.973,489.78
590,1.034427,0.153947,535.047,558.713,490.087
591,0.86356,0.20091,534.073,573.572,490.267
592,0.834765,0.216877,531.835,572.853,490.504
593,0.835318,0.490791,530.143,585.374,490.725
594,0.834856,0.0201554,537.633,583.093,491.014
595,0.743482,-1.04828,543.877,575.543,491.423
596,0.729637,-1.3221,541.335,574.718,492.04
597,0.819401,-1.60487,544.439,573.785,492.277
598,0.917803,-2.10122,544.929,576.815,492.818
599,0.931488,-2.34829,546.939,581.332,493.233
600,1.019602,-3.13626,549.509,572.475,493.607
601,1.122369,-3.2855,548.604,560.036,494.09
602,1.049224,-3.96223,550.17,554.933,494.372
603,0.947483,-4.06897,550.964,557.216,494.884
604,0.931816,-3.64197,546.608,559.252,495.107
605,0.847642,-3.99262,545.636,561.607,495.462
606,0.744421,-3.70773,546.327,563.743,495.72
607,0.819293,-4.12678,547.814,571.87,496.156
608,0.917741,-3.79996,546.373,575.595,496.515
609,0.931488,-4.2076,544.673,582.795,496.734
610,0.931488,-4.0989,541.565,582.36,497.052
611,0.932152,-4.21439,540.606,585.95,497.477
612,0.932166,-3.82536,538.129,585.989,497.898
613,0.849538,-4.08996,540.18,585.561,498.348
614,0.917196,-3.82335,543.922,575.23,498.775
615,0.849175,-4.19146,547.13,553.151,499.256
616,0.745684,-3.87999,544.131,550.872,499.68
617,0.820793,-4.07389,547.643,551.716,500.127
618,0.835536,-3.6113,550.838,558.057,500.611
619,0.835726,-4.10907,543.983,566.894,501.077
620,0.918085,-4.15504,539.314,573.811,501.345
621,0.930935,-4.1703,535.011,583.242,501.596
622,0.848118,-3.91528,530.483,584.421,501.934
623,0.744721,-4.1103,533.516,578.321,502.262
624,0.729881,-3.95201,535.75,576.222,502.575
625,0.730446,-3.67067,534.852,577.792,502.913
626,0.647703,-3.79803,538.112,588.823,503.268
627,0.80698,-3.62735,536.14,589.537,503.598
628,0.8356,-4.09166,531.159,587.171,503.899
629,0.918069,-3.54961,532.171,585.196,504.115
630,0.932167,-4.55283,532.339,591.791,504.484
631,1.020185,-4.43156,538.729,590.46,504.982
632,0.863511,-4.91366,546.64,582.93,505.521
633,0.835805,-4.62271,548.534,564.684,505.944
634,0.835675,-4.83278,547.176,562.153,506.293
635,0.745498,-4.48743,546.787,557.475,506.478
636,0.730779,-4.78491,548.266,553.636,506.699
637,0.904486,-4.50261,551.026,559.998,507.322
638,0.849395,-4.45372,549.549,566.826,507.565
639,0.919809,-4.34086,545.85,564.89,508.033
640,1.020382,-4.30495,548.614,558.8,508.442
641,0.946504,-4.57977,547.45,557.577,508.824
642,0.847988,-4.49542,550.054,557.466,509.251
643,0.746179,-4.49852,543.01,576.062,509.525
644,0.730973,-4.39121,545.134,581.362,509.88
645,0.647559,-4.37868,545.018,577.483,510.334
646,0.63423,-3.86432,547.258,578.864,510.89
647,0.715838,-4.22507,545.839,582.568,511.357
648,0.902251,-3.78218,544.967,585.708,511.664
649,0.931221,-4.17906,542.701,588.251,512.046
650,1.02033,-3.74397,539.837,594.319,512.359
651,1.122873,-4.07133,537.788,595.521,512.6
652,0.960888,-3.64726,538.956,592.221,513.041
653,0.758263,-3.94773,539.069,577.395,513.604
654,0.820147,-3.90811,542.716,563.773,514.025
655,0.83432,-3.95142,549.626,563.089,514.49
656,0.745244,-3.57882,551.809,553.311,515.001
657,0.64697,-3.9561,549.605,567.92,515.267
658,0.80654,-3.60595,546.16,579.356,515.521
659,0.91864,-3.6655,541.911,579.134,515.763
660,0.932372,-3.49581,537.156,585.466,515.847
661,0.932182,-3.58045,532.442,594.362,515.999
662,1.021505,-3.64063,531.172,588.388,516.27
663,1.033637,-3.72399,532.123,591.183,516.715
664,0.946598,-3.52094,532.119,588.703,517.234
665,0.850161,-3.59973,537.295,592.082,517.702
666,0.835283,-3.2904,536.22,591.551,518.104
667,0.745684,-3.24391,542.209,589.046,518.501
668,0.646533,-3.22464,546.796,585.77,518.902
669,0.717548,-3.39068,546.825,588.78,519.204
670,0.820128,-3.37174,552.09,579.592,519.707
671,0.834953,-3.347,552.943,577.088,519.978
672,0.917042,-3.27989,549.966,565.056,520.212
673,0.93204,-3.35853,551.055,569.435,520.554
674,0.849618,-3.16147,545.955,568.196,520.951
675,0.835614,-2.96866,542.389,582.248,521.086
676,0.746094,-2.83965,544.162,589.157,521.333
677,0.731128,-3.74682,551.674,585.254,521.708
678,0.731366,-3.80524,554.723,579.637,522.29
679,0.648326,-4.02419,549.588,570.374,522.562
680,0.806552,-4.08486,544.255,584.322,522.664
681,0.835427,-3.96091,537.201,584.68,522.802
682,0.834967,-3.88024,534.44,594.137,523.094
683,0.917296,-3.53933,532.307,595.876,523.309
684,1.021047,-3.86573,531.778,585.374,523.626
685,0.772479,-3.51119,533.617,594.216,523.889
686,0.820794,-3.70411,532.671,581.597,524.246
687,0.745921,-3.62917,532.885,575.117,524.605
688,0.6482,-3.97172,529.727,587.534,524.88
689,0.634862,-3.66579,532.209,579.744,525.204
690,0.806678,-4.02595,534.616,575.785,525.469
691,0.835443,-3.56946,538.479,586.437,525.792
692,0.919299,-3.85089,536.655,588.821,526.126
693,0.931869,-3.4589,541.134,595.757,526.501
694,0.932119,-3.84732,544.355,583.688,526.952
695,0.848874,-3.49693,541.785,592.653,527.222
696,0.746048,-3.56392,538.452,600.467,527.521
697,0.82095,-3.45736,537.031,608.126,527.874
698,0.745921,-3.47897,538.664,612.673,528.256
699,0.648106,-3.49129,541.01,595.048,528.659
700,0.716795,-4.28399,542.482,600.048,529.008
701,0.820889,-4.75567,543.303,591.396,529.32
702,0.835949,-4.44943,547.453,582.833,529.639
703,0.835122,-4.5879,545.911,578.343,529.851
704,0.835363,-4.1575,541.643,587.491,530.044
705,0.918892,-4.4922,539.375,597.26,530.271
706,0.932498,-4.12209,537.282,599.208,530.51
707,0.932292,-4.48849,532.836,598.019,530.76
708,0.849649,-4.2522,530.605,604.721,530.912
709,0.835804,-4.61557,529.923,609.794,531.208
710,0.804141,-4.21918,525.921,611.195,531.428
711,0.740202,-4.64359,526.278,612.824,531.65
712,0.647363,-4.27551,527.408,608.673,532.051
713,0.808546,-4.54132,531.252,607.156,532.391
714,0.83399,-4.24375,535.486,596.437,532.822
715,0.834568,-4.50413,533.844,588.858,533.181
716,0.91788,-4.20053,539.906,592.069,533.609
717,0.93234,-4.45726,544.929,586.167,534.043
718,1.021229,-4.2496,538.162,593.501,534.289
719,0.863008,-4.3618,535.336,592.729,534.532
720,0.744144,-4.12873,532.515,581.357,534.824
721,0.647084,-4.45839,529.902,593.18,535.162