File: Non-charring/PMMA/GIDAZE+/GIDAZE+_Cone_65kW_1.csv
Time,Mass,HRR,Back Surface Temperature 1,Back Surface Temperature 3,Back Surface Temperature 4
[s],[g],[kW/m2],[K],[K],[K]
0,71.3,-0.787434,338.453,305.852,303.711
1,71.2996,-0.79166,361.891,305.966,303.705
2,71.212,-0.662397,385.574,306.043,303.693
3,71.28213,-0.954034,407.378,306.135,303.67
4,71.3007,-0.954844,427.041,306.27,303.668
5,71.2114,-1.05785,445.145,306.428,303.653
6,71.195,-0.943874,464.663,306.663,303.628
7,71.1093,-0.893532,482.465,306.956,303.638
8,71.0107,-0.673274,496.068,307.4,303.63
9,71.1606,-0.922799,508.828,307.899,303.638
10,71.1095,-0.659609,523.455,308.535,303.636
11,71.1779,-0.885298,537.936,309.306,303.645
12,71.19529,-1.00627,550.937,310.204,303.649
13,71.1954,-0.996412,561.049,311.178,303.672
14,71.1088,-1.00042,578.399,312.307,303.663
15,71.0913,-1.04497,596.207,313.533,303.659
16,71.0117,-1.03015,632.358,314.799,303.692
17,71.0753,-0.581909,672.843,316.22,303.736
18,71.0921,0.686942,709.279,317.694,303.744
19,71.0912,14.347,724.965,319.232,303.784
20,71.09126,49.5458,726.991,320.808,303.84
21,71.0918,150.311,726.468,322.471,303.888
22,70.9318,185.225,725.345,324.153,303.934
23,70.6488,285.477,724.348,325.901,304
24,70.3451,345.129,723.996,327.697,304.086
25,70.2071,350.399,723.599,329.505,304.171
26,70.10858,388.712,722.457,331.374,304.258
27,69.9279,433.867,720.776,333.234,304.341
28,69.8948,425.187,719.352,335.175,304.46
29,69.5714,487.28,718.57,337.088,304.581
30,69.4097,495.926,716.958,339.014,304.695
31,68.72593,561.012,715.875,340.952,304.812
32,68.4167,561.06,715.135,342.896,304.945
33,68.3008,565.798,714.817,344.853,305.099
34,68.0333,584.996,714.217,346.772,305.267
35,67.8999,646.544,713.55,348.708,305.442
36,67.7958,649.059,713.188,350.641,305.627
37,67.4535,643.569,713.304,352.552,305.854
38,67.3786,646.588,712.808,354.457,306.074
39,67.1224,638.376,712.716,356.338,306.286
40,66.0919,642.782,712.89,358.233,306.528
41,65.7892,625.64,712.58,360.099,306.788
42,65.607,647.351,712.765,361.934,306.989
43,65.57402,690.383,713.116,363.751,307.222
44,65.4864,697.483,713.287,365.546,307.497
45,65.385,659.58,713.144,367.293,307.824
46,65.2855,661.971,713.476,369.053,308.152
47,65.1897,677.345,713.383,370.913,308.415
48,64.1752,672.301,713.658,372.799,308.657
49,63.2123,673.548,713.68,374.68,308.748
50,63.1576,679.731,713.597,376.594,308.978
51,63.0872,725.616,714.083,378.512,309.155
52,63.1566,689.941,714.759,380.422,309.441
53,63.0071,685.658,714.141,382.355,309.772
54,62.889,726.169,714.053,384.275,310.158
55,62.87116,720.899,714.347,386.237,310.697
56,62.5401,666.894,714.463,388.162,310.956
57,61.9704,726.399,714.533,390.088,311.207
58,61.204,731.707,715.047,391.964,311.443
59,60.9827,737.307,716.132,393.848,311.723
60,60.7156,707.29,716.672,395.712,311.978
61,60.2494,697.227,717.522,397.568,312.258
62,60.2489,712.075,718.069,399.444,312.648
63,60.0967,728.387,718.531,401.315,313.072
64,60.062,717.944,718.421,403.13,313.474
65,59.7301,692.718,718.043,404.968,313.914
66,59.1646,692.718,718.315,406.732,314.357
67,58.8085,680.257,718.608,408.51,314.821
68,58.2599,710.288,719.078,410.278,315.259
69,58.0744,744.494,719.604,412.034,315.718
70,58.05379,731.79,720.061,413.774,316.179
71,57.3896,765.919,720.685,415.557,316.657
72,57.33562,704.447,721.32,417.321,317.11
73,57.272,742.42,721.922,419.104,317.585
74,57.0049,747.46,722.522,420.923,318.124
75,56.9526,698.123,723.055,422.774,318.676
76,56.78774,687.596,723.532,424.632,319.249
77,56.1706,713.171,723.888,426.489,319.992
78,55.6302,727.239,723.967,428.359,320.73
79,54.88443,701.483,724.272,430.262,321.496
80,54.7487,667.365,724.733,432.192,322.395
81,54.4904,749.455,725.728,434.138,323.374
82,54.3635,753.137,727.254,436.092,324.54
83,54.347,741.073,727.639,438.051,325.843
84,54.0982,744.445,728.171,440.087,327.989
85,53.5455,743.71,727.815,442.144,329.558
86,53.4342,731.507,727.21,444.205,330.773
87,53.2736,705.155,726.764,446.31,331.833
88,52.9026,767.03,725.859,448.446,332.495
89,52.33278,707.529,724.688,450.61,333.117
90,52.06386,722.43,723.541,452.859,332.903
91,51.7777,695.874,722.113,455.137,332.803
92,50.8991,727.267,720.186,457.497,332.735
93,50.9742,762.848,718.611,459.939,332.399
94,51.1,728.8911,717.542,462.473,331.839
95,50.7102,745.413,715.369,465.138,330.926
96,50.54586,731.551,714.216,468.073,330.002
97,50.18862,809.305,713.168,471.113,329.186
98,49.6289,720.094,712.237,473.985,328.401
99,49.1969,744.496,711.186,476.655,327.673
100,48.8775,740.106,710.407,479.067,327.022
101,48.582,807.255,709.798,481.51,326.496
102,48.4281,784.706,709.201,483.878,326.065
103,48.2576,735.91,708.165,486.247,325.703
104,48.06048,742.859,708.059,488.656,325.457
105,47.7778,742.476,707.662,491.119,325.242
106,47.2326,794.392,708.112,493.657,325.131
107,46.2173,759.971,708.604,496.252,325.059
108,46.02985,725.315,708.531,498.785,325.074
109,45.9445,749.958,708.544,501.38,325.082
110,45.9133,755.918,708.437,503.998,325.129
111,45.67,751.357,707.706,506.723,325.245
112,45.376,745.606,707.329,509.526,325.371
113,45.1637,785.66,706.96,512.31,325.509
114,45.0458,790.872,706.683,515.228,325.697
115,44.6101,834.824,706.48,518.158,325.899
116,44.1116,786.091,706.295,521.104,326.108
117,43.7765,771.507,705.856,524.199,326.34
118,43.622,776.18,705.733,527.275,326.557
119,42.9578,752.176,705.635,530.39,326.834
120,42.4893,821.01,705.325,533.62,327.081
121,42.3386,806.983,705.527,536.857,327.344
122,42.3208,816.988,705.433,540.221,327.615
123,42.0724,773.705,705.395,543.69,327.892
124,41.5216,746.568,704.95,547.333,328.219
125,41.4189,816.411,705.058,551.052,328.513
126,40.9211,824.157,705.137,554.951,328.822
127,40.40115,847.398,704.518,558.797,329.167
128,39.9787,837.672,703.983,562.668,329.443
129,39.5835,828.866,703.634,566.422,329.782
130,39.2645,815.896,703.756,570.629,330.105
131,38.5371,764.22,703.811,574.676,330.416
132,38.74388,833.533,703.941,578.729,330.753
133,38.8113,838.444,703.831,582.599,331.085
134,38.5594,805.87,703.513,586.611,331.389
135,38.3411,814.053,703.397,590.926,331.73
136,37.8816,839.741,703.342,595.619,332.058
137,37.3019,855.851,702.849,600.932,332.377
138,37.0324,873.059,702.078,606.87,332.698
139,36.0698,871.87,702.52,613.185,333.005
140,35.646,823.71,703.019,619.822,333.341
141,35.58994,827.015,703.498,628.575,333.684
142,35.5044,827.75,703.478,637.557,334.016
143,35.2452,859.041,702.825,657.128,334.356
144,35.1034,822.319,702.735,677.333,334.673
145,34.4228,882.623,702.831,701.867,334.999
146,34.2007,920.319,703.309,722.431,335.341
147,33.68645,912.234,703.259,740.083,335.682
148,32.9287,905.963,703.054,750.599,336.05
149,32.61443,927.711,702.076,755.885,336.394
150,32.17279,873.502,702.128,758.787,336.7
151,32.0044,955.006,701.968,761.072,337.071
152,31.9867,1015.31,702.505,765.059,337.42
153,31.6568,915.427,702.424,766.529,337.762
154,31.007,976.818,702.257,767.542,338.111
155,29.6232,923.462,702.465,768.104,338.462
156,29.5535,933.677,702.649,771.606,338.799
157,29.4998,888.216,702.314,772.482,339.115
158,29.1514,976.498,702.601,772.124,339.499
159,28.91771,935.988,702.373,772.924,339.829
160,28.8837,984.549,701.902,776.678,340.192
161,28.6321,971.24,702.067,775.22,340.541
162,28.0763,1019.39,701.464,775.984,340.869
163,27.3113,979.576,701.086,777.564,341.269
164,26.8461,989.476,701.147,779.872,341.631
165,26.5207,1040.38,700.853,781.218,341.991
166,25.8946,1023.48,700.726,781.759,342.299
167,25.3536,993.232,699.997,782.983,342.605
168,25.1056,997.582,700.963,785.008,342.954
169,25.0748,1048,701.946,786.301,343.383
170,24.82341,981.414,701.529,786.892,343.998
171,24.1113,1093.23,701.47,787.307,344.597
172,23.5577,1086.95,703.106,787.353,345.21
173,22.1143,1041.52,703.095,787.553,345.766
174,22.3592,969.683,703.88,785.986,346.325
175,22.1239,1095.41,703.154,785.357,346.869
176,21.3089,1085.36,703.797,785.807,347.427
177,21.2418,1025.9,705.017,785.365,348.102
178,21.1734,1064.43,707.411,784.545,348.843
179,20.7398,1069.76,706.489,785.33,349.708
180,20.4042,1008.59,709.076,786.524,350.625
181,19.1898,1016.59,711.696,786.592,351.746
182,18.7886,1076.58,714.375,787.232,353.169
183,18.6694,1058.11,716.629,787.224,354.817
184,18.316,1137.7,717.159,789.555,356.775
185,17.9161,1085.22,718.141,791.21,358.789
186,17.184,994.538,719.67,789.416,360.633
187,16.8839,1068.35,719.197,789.259,362.316
188,16.7677,1099,716.807,791.087,363.909
189,15.90226,1035.16,717.012,788.643,365.451
190,15.5854,1044.01,716.506,789.534,367.025
191,15.1357,1096.87,715.146,789.481,368.494
192,14.2194,1076.52,715.528,789.503,369.995
193,13.883,980.873,715.388,790.979,371.465
194,13.5061,1164.96,716.313,793.035,372.828
195,13.3609,1143.19,718.283,793.271,374.339
196,13.2591,1030.86,719.068,793.052,375.89
197,12.5772,1056.95,719.505,795.776,377.49
198,12.27595,1109.23,719.568,798.038,378.988
199,12.0746,1100.37,719.328,799.075,380.578
200,10.62218,1038.76,718.97,802.453,382.224
201,10.42,1010.29,718.81,803.543,384.108
202,10.1874,1029.64,718.582,804.411,385.895
203,9.464067,1132.84,718.048,804.224,387.79
204,9.417907,1109.56,717.545,802.45,390.002
205,9.267012,1031.81,716.542,801.65,392.528
206,8.982353,1025.09,715.302,799.673,394.651
207,8.763288,1008.18,714.224,801.274,396.554
208,8.400909,941.514,712.864,801.61,398.232
209,7.826657,951.639,712.785,801.464,399.754
210,7.14727,952.733,713.284,804.731,401.234
211,6.862639,904.005,715.03,804.101,402.763
212,6.490198,875.12,718.887,803.53,404.3
213,6.338709,851.886,722.965,802.839,405.794
214,6.237791,853.621,726.991,797.965,407.31
215,6.139714,760.639,730.288,799.352,408.803
216,5.958349,712.344,734.007,798.264,410.217
217,5.672864,694.849,737.738,796.45,411.595
218,4.455122,731.936,741.05,797.236,413.047
219,4.46223,671.4,743.713,795.884,414.645
220,4.351766,647.945,745.22,794.734,416.414
221,4.151747,632.511,747.61,791.923,418.265
222,3.951566,581.776,750.139,793.658,420.047
223,3.998797,571.31,753.454,795.287,421.865
224,3.932683,566.53,756.792,798.667,423.728
225,3.751352,513.749,760.552,798.814,425.779
226,3.465483,514.406,764.426,801.842,428.071
227,3.082747,508.832,768.577,806.426,430.795
228,2.92606,476.953,773.344,811.695,434.341
229,2.829717,450.702,777.711,817.997,439.021
230,2.643131,435.954,783.384,825.351,445.259
231,2.102714,435.296,781.934,833.856,454.219
232,2.175381,417.903,789.891,841.646,467.841
233,2.209001,390.59,824.427,860.185,483.942
234,2.12755,377,854.847,893.598,498.052
235,2.112623,369.194,879.76,930.126,511.789
236,2.024923,330.464,900.675,956.016,542.59
237,1.841587,323.825,921.315,970.22,562.634
238,1.722413,300.313,939.53,999.15,570.001
239,1.537912,292.909,961.697,997.824,593.239
240,1.338983,281.442,966.404,983.646,610.129
241,1.224298,266.358,974.469,1074.859,621.204
242,1.209009,245.536,995.825,1081.514,633.132
243,1.209081,231.107,1007.348,1113.704,640.329
244,0.867627,217.201,1035.461,1046,644.589
245,0.886941,216.059,1050.186,1050.923,646.051
246,0.905059,196.758,1067.636,1116.335,657.488
247,0.819754,186.792,1089.729,1124.346,666.763
248,0.722342,174.818,1101.518,1156.453,665.815
249,0.618862,151.999,1088.337,1180.697,659.875
250,0.435612,145.392,1060.611,1228.587,650.655
251,0.401512,141.186,1022.213,1147.183,643.778
252,0.401241,125.273,978.214,1177.016,635.5
253,0.486115,123.714,937.062,1220.474,627.064
254,0.585571,118.754,903.565,1131.214,619.845
255,0.601018,105.793,881.492,1060.812,613.301
256,0.601035,98.2235,863.832,1180.088,608.672
257,0.600669,90.7059,860.041,1000.048,605.284
258,0.356102,83.5354,859.933,856.212,603.852
259,0.305945,76.3511,857.069,786.294,599.292
260,0.218585,71.102,855.082,775.556,593.78
261,0.120551,66.4746,854.365,749.472,590.154
262,0.104235,59.6214,855.91,682.659,587.472
263,0.10381,57.0636,857.998,653.951,584.603
264,0.18264,52.5538,854.56,634.307,582.324
265,0.289285,47.8879,853.061,676.05,579.663
266,0.306241,44.2917,849.762,688.516,577.138
267,0.305943,39.5188,849.605,720.802,575.045
268,0.306626,36.4826,850.379,699.774,573.748
269,0.219541,33.0426,848.73,696.348,571.595
270,0.121362,28.9319,849.356,692.534,570.65
271,0.018504,27.5975,848.477,676.819,569.528
272,0.000973,26.1701,847.091,636.963,568.937
273,-0.163551,22.0537,846.901,631.299,568.459
274,-0.197865,19.7719,842.069,665.86,567.274
275,-0.19822,18.1882,837.271,706.233,566.283
276,0.053851,17.9686,837.012,669.249,565.713
277,0.105024,16.6431,833.93,686.17,565.391
278,0.186327,14.2553,831.201,713.254,565.173
279,0.289137,14.4907,823.324,730.217,564.379
280,0.219926,10.5474,825.163,686.548,564.515
281,0.120614,8.98683,824.79,673.22,564.544
282,0.017968,8.06905,820.932,700.393,564.166
283,0.000715,6.47092,821.271,687.38,564.215
284,0.001181,5.1008,818.727,700.477,564.389
285,-0.167147,3.27732,818.687,686.246,564.434
286,-0.198639,1.39185,816.13,707.863,564.192
287,-0.119719,0.875077,816.831,667.277,564.555
288,-0.1026,-1.05242,816.176,646.023,565.012
289,-0.181609,-2.3593,811.371,646.313,564.978
290,-0.11858,-2.49997,808.977,646.352,564.143
291,-0.015878,-3.4578,808.58,660.578,563.824
292,0.086949,-3.31081,804.664,672.44,563.336
293,0.017166,-4.06793,807.196,663.08,563.306
294,-0.086806,-4.26572,807.022,643.454,563.739
295,-0.102248,-4.43185,805.118,686.486,563.331
296,-0.183506,-4.89019,802.556,695.268,563.367
297,-0.198732,-4.91862,802.269,710.426,563.453
298,-0.118987,-5.1671,801.137,690.183,563.852
299,-0.102262,-5.34093,801.826,686.384,564.051
300,-0.102577,-5.74688,806.196,683.203,564.739
301,-0.015855,-5.10464,811.835,659.487,565.802
302,0.000845,-5.12589,811.561,691.269,566.371
303,-0.084483,-5.52995,806.863,717.844,566.168
304,-0.102099,-5.07178,802.465,711.836,565.932
305,-0.102191,-5.2441,801.125,694.994,565.753
306,-0.181754,-5.02303,802.165,703.273,566.066
307,-0.198161,-5.00041,801.643,675.037,566.275
308,-0.119075,-5.44094,802.61,606.817,566.472
309,0.068227,-5.62172,799.575,571.293,566.615
310,0.104137,-5.34488,796.48,584.093,566.589
311,0.103446,-5.15857,796.002,592.552,566.372
312,0.104192,-5.8464,795.441,561.444,566.596
313,0.018337,-5.90606,794.921,570.814,566.073
314,-0.087137,-5.77518,799.351,580.785,565.763
315,-0.172414,-5.78561,799.369,626.148,565.501
316,-0.196325,-6.02804,798.948,641.571,565.047
317,-0.287873,-5.74384,795.988,696.586,564.518
318,-0.218121,-5.89097,793.355,687.263,563.879
319,-0.119201,-5.47117,797.07,669.591,564.082
320,-0.102888,-6.43829,794.409,682.263,563.794
321,-0.017763,-5.71723,791.228,678.909,563.509
322,0.00064,-6.1338,793.571,681.24,563.787
323,0.032756,-6.22597,795.993,684.72,564.104
324,-0.079102,-6.55406,796.475,685.937,564.482
325,-0.102528,-5.48754,794.958,680.493,564.394
326,-0.102595,-6.25114,795.138,689.987,564.605
327,-0.18247,-6.18731,797.919,697.028,565.28
328,-0.287496,-6.40331,802.176,698.546,565.989
329,-0.135774,-6.32713,804.284,676.173,566.761
330,-0.102482,-6.44981,806.733,700.399,567.487
331,-0.102652,-6.10453,805.283,727.574,567.901
332,-0.102285,-6.18483,806.473,676.59,568.543
333,-0.015878,-5.84571,802.883,679.416,568.756
334,0.000276,-6.19863,803.861,649.123,569.234
335,-0.164232,-5.81434,804.044,643.227,569.532
336,-0.197796,-6.17109,806.133,646.327,570.109
337,-0.198361,-5.9686,808.471,684.639,570.795
338,-0.286962,-6.13146,811.517,647.097,571.452
339,-0.217649,-5.80803,813.683,627.017,572.235
340,-0.198603,-6.03375,813.571,660.878,572.477
341,-0.119425,-5.75154,816.077,667.428,573.095
342,-0.017782,-6.05302,816.423,650.2,574.013
343,-0.000463,-6.33258,815.592,624.626,574.55
344,0.00051,-7.17299,809.926,618.61,574.587
345,-0.085423,-6.9977,801.243,627.972,574.382
346,-0.102323,-7.06533,798.758,656.369,574.158
347,-0.181479,-6.89494,800.255,677.72,574.476
348,-0.286578,-6.60743,803.627,695.291,575.171
349,-0.303652,-6.79703,803.284,663.491,575.818
350,-0.136985,-6.63923,801.345,665.076,576.231
351,-0.102924,-6.76231,801.008,644.425,576.773
352,-0.102964,-6.80106,803.898,659.352,577.497
353,-0.017305,-6.95282,806.259,647.399,578.107
354,0.00055,-7.05701,804.45,641.611,578.349
355,-0.096805,-6.96182,807.625,682.376,578.875
356,-0.184448,-7.03875,805.798,662.091,579.31
357,-0.199481,-7.03931,805.337,653.843,579.522
358,-0.286758,-6.55925,807.374,652.991,579.938
359,-0.304256,-7.0425,807.478,674.926,580.065
360,-0.303982,-6.56514,809.855,704.268,580.39
361,-0.216362,-6.95669,805.932,691.803,580.532
362,-0.119037,-6.64845,808.456,713.768,580.772
363,-0.102579,-6.8011,810.036,690.463,581.172
364,-0.015745,-6.73437,810.726,703.439,581.487
365,0.086527,-6.84304,811.557,679.778,581.982
366,-0.067507,-6.53503,814.589,678.824,582.654
367,-0.181867,-6.89091,810.675,702.536,583.027
368,-0.19807,-6.62748,805.137,702.47,583.004
369,-0.285285,-6.8822,800.688,702.31,582.978
370,-0.384871,-6.49312,799.451,666.602,583.259
371,-0.39995,-6.92556,797.694,682.559,583.447
372,-0.233115,-6.65864,795.814,647.483,583.567
373,-0.0334,-6.84475,794.349,639.265,583.723
374,-0.084154,-6.54835,797.87,641.763,584.27
375,-0.016987,-6.85865,799.832,632.77,584.846
376,-0.000345,-6.47084,804.886,670.456,585.718
377,-0.084637,-6.78365,808.676,670.8,586.53
378,-0.349775,-6.46709,808.257,682.747,586.92
379,-0.401436,-6.77481,810.309,690.619,587.357
380,-0.319808,-6.36171,811.213,718.314,587.813
381,-0.38223,-6.75466,812.077,692.664,588.516
382,-0.400114,-6.69498,811.61,683.269,589.163
383,-0.318801,-6.94623,809.6,641.568,589.48
384,-0.135295,-6.64565,803.18,651.393,589.435
385,-0.180409,-6.79879,800.032,661.643,589.253
386,-0.198181,-6.29807,797.804,665.979,589.394
387,-0.119441,-6.82185,793.68,672.565,589.448
388,-0.103204,-6.41177,795.188,656.302,589.833
389,-0.182072,-6.70948,795.492,632.025,590.161
390,-0.285376,-6.68402,796.285,654.48,590.594
391,-0.214734,-6.84081,800.973,655.519,591.359
392,-0.198235,-6.67441,801.338,622.155,591.93
393,-0.28633,-6.79456,800.427,627.434,592.451