File: PMMA/Calibration_Data/UClan/UClan_Cone_65kW_1.csv
Time,Mass,HRR,Back Surface Temperature 1
[s],[g],[kW/m2],[K]
0,71.12,1.61E-07,323.65
1,71.1799,0.15849,0
2,71.2,0.263535,0
3,71.1699,0.331634,0
4,71.1699,0.368965,0
5,71.1699,0.402006,0
6,71.1599,0.421286,0
7,71.1699,0.42417,0
8,71.1699,0.442209,0
9,71.1599,0.450741,0
10,71.1699,0.348698,0
11,71.11,0.483793,0
12,71.0399,2.36251,0
13,70.9301,8.78663,0
14,70.8201,25.4142,0
15,70.6901,50.8058,0
16,70.5002,85.805,0
17,70.3102,131.751,0
18,70.0303,178.858,0
19,69.9003,212.2,0
20,69.7603,251.669,0
21,69.5504,282.232,0
22,69.3805,336.47,0
23,69.2006,370.754,0
24,68.9005,389.826,0
25,68.6307,417.742,0
26,68.5007,452.738,0
27,68.2408,499.726,0
28,68.0109,497.036,0
29,67.7809,527.828,0
30,67.571,547.367,332.15
31,67.3411,556.01,0
32,67.1012,590.839,0
33,66.8312,586.298,0
34,66.6013,598.454,0
35,66.3613,601.577,0
36,66.1514,604.082,0
37,65.8915,627.231,0
38,65.6316,599.624,0
39,65.3717,615.573,0
40,65.1516,650.939,0
41,64.8618,652.468,0
42,64.6119,650.458,0
43,64.382,657.187,0
44,64.142,651.585,0
45,63.8821,664.181,0
46,63.6821,673.944,0
47,63.4321,621.82,0
48,63.1823,657.029,0
49,62.9124,645.043,0
50,62.6624,667.466,0
51,62.4125,647.949,0
52,62.1625,673.102,0
53,61.8827,660.827,0
54,61.6328,656.541,0
55,61.3927,666.226,0
56,61.1729,643.808,0
57,60.9128,650.74,0
58,60.623,649.501,0
59,60.4131,672.854,0
60,60.1631,685.364,342.15
61,59.9132,669.081,0
62,59.6632,667.844,0
63,59.4434,661.395,0
64,59.1934,682.464,0
65,58.8535,660.211,0
66,58.5836,705.161,0
67,58.2737,666.007,0
68,58.0337,674.426,0
69,57.8739,667.51,0
70,57.5939,703.115,0
71,57.324,673.545,0
72,57.104,693.238,0
73,56.8341,661.142,0
74,56.5942,723.4,0
75,56.3342,693.497,0
76,56.0243,687.476,0
77,55.7445,683.962,0
78,55.4945,681.39,0
79,55.2546,703.89,0
80,55.0046,678.501,0
81,54.7646,690.26,0
82,54.4648,707.562,0
83,54.1948,677.373,0
84,53.8949,728.713,0
85,53.655,704.528,0
86,53.415,695,0
87,53.1752,690.739,0
88,52.8452,730.603,0
89,52.6053,708.839,0
90,52.3354,704.746,353.65
91,52.0754,694.969,0
92,51.8256,720.755,0
93,51.4757,711.318,0
94,51.1957,744.396,0
95,50.9658,744.882,0
96,50.7258,715.978,0
97,50.4659,728.877,0
98,50.196,717.156,0
99,49.936,730.13,0
100,49.6661,727.549,0
101,49.4163,745.429,0
102,49.1663,718.26,0
103,48.8765,722.791,0
104,48.6066,725.355,0
105,48.2965,731.144,0
106,48.0266,741.872,0
107,47.7468,747.416,0
108,47.4368,706.048,0
109,47.1969,728.245,0
110,46.917,717.468,0
111,46.6271,733.478,0
112,46.3271,760.341,0
113,46.0672,742.333,0
114,45.8073,756.631,0
115,45.5074,754.299,0
116,45.2175,722.909,0
117,44.9375,746.654,0
118,44.6476,778.474,0
119,44.3477,757.877,0
120,44.0778,751.889,378.15
121,43.7979,763.34,0
122,43.528,786.043,0
123,43.1581,787.646,0
124,42.8881,770.293,0
125,42.5982,764.125,0
126,42.3383,801.318,0
127,41.9984,793.975,0
128,41.6785,768.203,0
129,41.4385,796.085,0
130,41.1087,771.104,0
131,40.8187,746.8,0
132,40.5588,806.716,0
133,40.1889,822.858,0
134,39.8491,817.668,0
135,39.3292,804.028,0
136,42.8781,783.906,0
137,47.3768,843.202,0
138,47.4568,856.056,0
139,47.0269,857.988,0
140,46.817,818.977,0
141,46.4071,885.772,0
142,45.9872,822.432,0
143,45.6074,854.83,0
144,45.3174,831.113,0
145,45.0175,852.331,0
146,44.3477,853.789,0
147,45.1075,851.147,0
148,43.0981,890.895,0
149,34.8405,861.885,0
150,34.4406,849.217,405.65
151,34.0607,831.346,0
152,33.7308,932.891,0
153,33.3909,897.844,0
154,33.061,916.76,0
155,32.761,928.662,0
156,32.3712,869.504,0
157,32.0313,875.714,0
158,31.7214,922.599,0
159,31.3515,893.384,0
160,30.9716,938.182,0
161,30.6017,897.065,0
162,30.2618,905.803,0
163,29.9019,947.051,0
164,29.5519,966.044,0
165,29.2021,979.619,0
166,28.8222,908.992,0
167,28.4922,938.303,0
168,28.1524,979.641,0
169,27.7825,948.43,0
170,27.4626,933.696,0
171,27.1027,1015.41,0
172,26.7628,976.716,0
173,26.3829,990.239,0
174,26.063,954.405,0
175,25.6931,930.265,0
176,25.3832,964.168,0
177,25.0233,988.81,0
178,24.6635,977.809,0
179,24.3035,949.262,0
180,23.9436,965.672,436.15
181,23.5837,956.862,0
182,23.2138,901.461,0
183,22.8539,971.848,0
184,22.4741,926.436,0
185,22.0842,929.17,0
186,21.7343,965.08,0
187,21.3243,996.618,0
188,20.9545,1010.53,0
189,20.5646,1039.73,0
190,20.2247,1018.57,0
191,19.8348,971.523,0
192,19.4349,996.065,0
193,19.065,1072.76,0
194,18.6851,963.049,0
195,18.3152,983.04,0
196,17.9254,1027.79,0
197,17.4954,984.813,0
198,17.0856,1088.4,0
199,16.6957,1082.33,0
200,16.3358,1006.51,0
201,15.9959,1034.59,0
202,15.5361,1065.99,0
203,15.2061,1052.18,0
204,14.8262,1099.51,0
205,14.4963,1128.87,0
206,14.1964,1111.42,0
207,13.8666,1087.07,0
208,13.5966,1112.96,0
209,13.3267,1105.08,0
210,13.0867,1108.24,469.65
211,12.8568,1089.62,0
212,12.5869,1052.17,0
213,12.387,983.7,0
214,12.227,991.749,0
215,12.017,906.53,0
216,11.8571,867.47,0
217,11.6371,809.172,0
218,11.4772,787.474,0
219,11.2973,729.598,0
220,11.0974,711.933,0
221,10.9474,659.119,0
222,10.8274,654.565,0
223,10.6274,641.25,0
224,10.4975,619.445,0
225,10.3176,573.841,0
226,10.1576,545.147,0
227,9.96765,530.138,0
228,9.83771,530.725,0
229,9.6778,517.397,0
230,9.51776,517.059,0
231,9.35785,498.264,0
232,9.17792,482.716,0
233,9.05786,487.667,0
234,8.89795,477.426,0
235,8.74799,476.18,0
236,8.6181,466.768,0
237,8.50806,464.683,0
238,8.34814,461.789,0
239,8.22815,447.982,0
240,8.0882,456.385,530.15
241,8.00818,455.063,0
242,7.82825,438.744,0
243,7.73834,432.79,0
244,7.55835,447.297,0
245,7.40839,430.509,0
246,7.32843,438.623,0
247,7.18842,422.865,0
248,7.05847,414.432,0
249,6.94849,408.749,0
250,6.90857,406.416,0
251,6.79858,402.712,0
252,6.70862,395.112,0
253,6.57861,378.348,0
254,6.49866,373.449,0
255,6.4187,365.401,0
256,6.30872,359.545,0
257,6.20874,346.576,0
258,6.14874,336.452,0
259,6.04883,324.67,0
260,5.9588,320.61,0
261,5.82886,312.82,0
262,5.77887,307.401,0
263,5.63892,297.367,0
264,5.60895,297.404,0
265,5.53894,289.503,0
266,5.45898,287.664,0
267,5.39899,279.359,0
268,5.33899,279.617,0
269,5.24902,273.858,0
270,5.12903,270.278,703.65
271,5.06903,267.722,0
272,4.98914,259.91,0
273,4.93909,269.549,0
274,4.82916,259.325,0
275,4.80914,258.406,0
276,4.70917,261.724,0
277,4.61926,254.342,0
278,4.5592,250.603,0
279,4.49921,251.518,0
280,4.43921,258.576,0
281,4.33929,251.335,0
282,4.28931,248.292,0
283,4.23932,247.925,0
284,4.109375,244.226,0
285,4.06934,246.548,0
286,3.98944,243.23,0
287,3.91943,242.579,0
288,3.84943,241.505,0
289,3.75946,240.611,0
290,3.6795,237.787,0
291,3.59949,237.9252,0
292,3.53955,233.559,0
293,3.46954,227.272,0
294,3.43951,231.929,0
295,3.37952,233.749,0
296,3.26959,232.02,0
297,3.20959,231.457,0
298,3.16962,231.062,0
299,3.11969,225.698,0
300,3.03967,226.203,1003.15
301,2.95966,224.802,0
302,2.92975,228.95,0
303,2.80969,224.381,0
304,2.71979,222.295,0
305,2.71979,223.849,0
306,2.67981,217.45,0
307,2.59979,219.653,0
308,1.61011,212.262,0
309,2.6098,212.95,0
310,2.55975,208.357,0
311,2.51978,207.179,0
312,2.45984,206.883,0
313,2.40985,202.658,0
314,2.36987,199.396,0
315,2.31982,197.491,0
316,2.25989,194.465,0
317,2.21991,193.522,0
318,2.16992,192.52,0
319,2.09991,191.364,0
320,2.05994,189.577,0
321,1.98999,187.58,0
322,1.94995,184.376,0
323,1.91998,185.731,0
324,1.86005,184.542,0
325,1.83002,185.414,0
326,1.78003,184.496,0
327,1.69,181.159,0
328,1.69,183.108,0
329,1.64008,180.328,0
330,1.57007,182.428,1087.15
331,1.49011,178.002,0
332,1.4801,178.95,0
333,1.44012,180.582,0
334,1.41016,177.745,0
335,1.35016,176.321,0
336,1.32013,173.878,0
337,1.29016,172.967,0
338,1.24023,171.61,0
339,1.16022,173.232,0
340,1.11023,170.943,0
341,1.09021,169.324,0
342,1.03027,167.104,0
343,0.940247,164.569,0
344,0.940247,164.074,0
345,0.920288,161.397,0
346,0.860291,160.614,0
347,0.8203125,157.387,0
348,0.780334,155.788,0
349,0.760315,154.575,0
350,0.700317,151.855,0
351,0.620361,152.791,0
352,0.660339,149.542,0
353,0.63031,149.381,0
354,0.600403,148.681,0
355,0.570374,148.558,0
356,0.530396,146.729,0
357,0.500366,144.94,0
358,0.470398,144.898,0
359,0.440369,142.356,0
360,0.400452,145.876,1060.65
361,0.380432,140.487,0
362,0.330444,139.167,0
363,0.270447,137.924,0
364,0.250427,138.592,0
365,0.220459,136.258,0
366,0.220459,130.484,0
367,0.160522,131.877,0
368,0.140503,129.577,0
369,0.130493,129.321,0
370,0.110535,127.437,0
371,0.06048584,124.921,0
372,0.0305176,125.233,0
373,0.010498,124.952,0
374,-0.01940918,119.6,0
375,-0.01940918,119.2,0
376,-0.109436,116.801,0
377,-0.0894165,117.652,0
378,-0.109436,114.784,0
379,-0.109436,114.09,0
380,-0.159424,109.948,0
381,-0.129395,108.251,0
382,-0.109436,106.402,0
383,-0.119446,103.188,0
384,-0.149414,99.0463,0
385,-0.159424,97.6685,0
386,-0.159424,95.11,0
387,-0.179443,94.7218,0
388,-0.339355,91.9117,0
389,-0.289368,89.7955,0
390,-0.289368,88.0049,994.15
391,-0.23938,87.0218,0
392,-0.259338,85.4649,0
393,-0.269348,81.7751,0
394,-0.23938,82.0794,0
395,-0.299377,79.7544,0
396,-0.329346,79.0201,0
397,-0.309387,78.4464,0
398,-0.349365,76.2777,0
399,-0.329346,75.538,0
400,-0.299377,75.1683,0
401,-0.339355,74.0005,0
402,-0.359375,72.9593,0
403,-0.349365,70.7422,0
404,-0.359375,71.2198,0
405,-0.419373,69.5045,0
406,-0.419373,69.0395,0
407,-0.399353,67.6,0
408,-0.419373,66.306,0
409,-0.379333,66.1959,0
410,-0.399353,64.7549,0
411,-0.409363,64.1328,0
412,-0.479309,63.7455,0
413,-0.489319,62.6178,0
414,-0.399353,61.7481,0
415,-0.419373,60.249,0
416,-0.439331,59.0129,0
417,-0.44928,58.3057,0
418,-0.479309,58.5152,0
419,-0.489319,58.0733,0
420,-0.479309,56.5315,983.15
421,-0.45929,56.6812,0
422,-0.44928,56.5411,0
423,-0.45929,54.8717,0
424,-0.45929,54.9136,0
425,-0.469299,54.7873,0
426,-0.45929,53.2912,0
427,-0.489319,53.2525,0
428,-0.479309,51.238,0
429,-0.479309,50.7618,0
430,-0.489319,48.943,0
431,-0.499329,49.4568,0
432,-0.509277,49.0494,0
433,-0.509277,49.4912,0
434,-0.499329,48.9522,0
435,-0.499329,47.5378,0
436,-0.519287,47.7486,0
437,-0.499329,46.8198,0
438,-0.489319,46.7651,0
439,-0.519287,46.7151,0
440,-0.549316,45.3312,0
441,-0.539307,44.4872,0
442,-0.539307,44.1705,0
443,-0.559326,44.7614,0
444,-0.559326,43.2682,0
445,-0.579285,42.3711,0
446,-0.589294,41.9397,0
447,-0.549316,41.2934,0
448,-0.559326,40.5017,0
449,-0.539307,40.1585,0
450,-0.619324,39.7803,927.65
451,-0.609314,39.5568,0
452,-0.559326,39.0142,0
453,-0.539307,38.6636,0
454,-0.529297,38.2501,0
455,-0.539307,37.408,0
456,-0.559326,37.2516,0
457,-0.529297,36.7437,0
458,-0.529297,37.0197,0
459,-0.589294,36.8529,0
460,-0.569275,36.9257,0
461,-0.559326,36.3532,0
462,-0.519287,36.662,0
463,-0.539307,36.9969,0
464,-0.549316,35.0708,0
465,-0.579285,33.7842,0
466,-0.579285,33.871,0
467,-0.579285,33.6722,0
468,-0.559326,33.1995,0
469,-0.549316,32.7471,0
470,-0.539307,32.5378,0
471,-0.579285,32.59071,0
472,-0.559326,32.1259,0
473,-0.559326,31.7011,0
474,-0.559326,32.3322,0
475,-0.559326,31.2637,0
476,-0.569275,31.7425,0
477,-0.659241,31.4816,0
478,-0.629272,31.2585,0
479,-0.599304,30.3447,0
480,-0.589294,30.0114,898.65
481,-0.569275,30.1352,0
482,-0.549316,29.9931,0
483,-0.559326,30.3466,0
484,-0.569275,29.7078,0
485,-0.559326,29.4062,0
486,-0.569275,29.1883,0
487,-0.549316,28.7256,0
488,-0.549316,28.981,0
489,-0.539307,28.9921,0