File: PMMA/Calibration_Data/UClan/UClan_Cone_25kW.csv
Time,Sample Mass,HRR,Back Surface Temperature
[s],[g],[kW m-2],[K]
0,74.12,1.74E-07,314.15
1,74.1899,0.123782,314.65
2,74.23,0.207307,315.15
3,74.23,0.25703,315.65
4,74.2,0.292643,316.15
5,74.1799,0.312857,315.65
6,74.2,0.742327,315.15
7,74.2,1.11127,315.9
8,74.1899,1.39694,316.65
9,74.1899,1.54752,316.65
10,74.23,1.67154,316.65
11,74.21,1.71235,316.65
12,74.1699,1.4378,316.65
13,74.1799,1.27628,316.9
14,74.1799,1.14327,317.15
15,74.2,1.0721,317.4
16,74.1899,1.00922,317.65
17,74.21,0.971756,318.15
18,74.21,0.948865,318.65
19,74.1899,1.45759,318.65
20,74.1899,1.81061,318.65
21,74.1699,2.32583,318.65
22,74.1799,2.58875,318.65
23,74.1699,2.56946,319.15
24,74.16,2.47148,319.65
25,74.1799,2.47615,319.9
26,74.16,2.40599,320.15
27,74.15,2.43091,320.15
28,74.14,2.40772,320.15
29,74.14,2.161,320.65
30,74.15,1.6892,321.15
31,74.14,1.44294,321.15
32,74.15,0.966314,321.15
33,74.13,0.418536,321.15
34,74.14,0.0729286,321.15
35,74.14,-0.274859,321.65
36,74.14,-0.533265,322.15
37,74.13,-0.416116,322.4
38,74.13,-0.103822,322.65
39,74.12,0.102555,322.65
40,74.14,0.237404,322.65
41,74.15,0.322426,323.15
42,74.14,0.381694,323.65
43,74.13,0.418482,323.65
44,74.14,0.032279,323.65
45,74.13,-0.325257,323.65
46,74.14,-0.56915,323.65
47,74.15,-0.731387,324.4
48,74.14,-0.976785,325.15
49,74.13,-1.17681,325.15
50,74.15,-1.31815,325.15
51,74.15,-1.39241,326.15
52,74.13,-1.45822,327.15
53,74.13,-1.49663,327.15
54,74.11,-1.51726,327.15
55,74.12,-1.53342,326.65
56,74.13,-1.704225,326.15
57,74.13,-2.1579,326.9
58,74.13,-1.76394,327.65
59,74.11,-1.10258,327.9
60,74.12,-0.56418,328.15
61,74.14,-0.201677,328.15
62,74.1,0.0339984,328.15
63,74.09,0.186123,328.4
64,74.12,0.289177,328.65
65,74.11,0.357396,328.65
66,74.11,0.402444,328.65
67,74.12,0.429627,328.9
68,74.12,0.4464,329.15
69,74.12,0.467303,329.65
70,74.12,0.467668,330.15
71,74.11,0.474993,330.15
72,74.12,0.474529,330.15
73,74.13,0.475626,330.4
74,74.11,0.486571,330.65
75,74.09,0.478328,330.9
76,74.0699,0.879315,331.15
77,74.0699,1.26626,331.4
78,74.1,1.4973,331.65
79,74.09,1.6991,331.65
80,74.0699,1.80646,331.65
81,74.1,1.33862,331.65
82,74.08,0.9003225,331.65
83,74.09,0.681257,331.9
84,74.08,0.4685,332.15
85,74.0699,0.333901,332.4
86,74.0599,0.246656,332.65
87,74.0699,0.187722,333.15
88,74.1,0.145652,333.65
89,74.08,0.119846,333.9
90,74.09,0.104915,334.15
91,74.09,0.0927682,334.4
92,74.0499,0.0857227,334.65
93,74.04,0.0820447,335.4
94,74.0499,0.0793781,336.15
95,74.0599,0.0776873,336.15
96,74.0699,0.0789865,336.15
97,74.08,0.07832875,336.4
98,74.09,0.0777674,336.65
99,74.0599,-0.112216,337.15
100,74.0699,-0.238705,337.65
101,74.0499,-0.3209,338.15
102,74.0599,-0.332598,338.65
103,74.04,-0.336156,338.65
104,74.04,-0.34292,338.65
105,74.02,-0.338396,339.15
106,74.02,-0.349783,339.65
107,74,-0.340816,340.4
108,74.01,-0.344106,341.15
109,74,-0.344998,341.65
110,74,-0.154737,342.15
111,73.99,-0.0326223,342.4
112,73.97,0.457201,342.65
113,73.97,0.368346,343.15
114,73.97,0.598438,343.65
115,73.95,1.002255,344.15
116,73.9399,1.25644,344.65
117,73.9299,1.7128,345.15
118,73.9102,2.7259,345.65
119,73.8801,3.92157,345.9
120,73.8201,7.4409,346.15
121,73.8,11.7618,346.9
122,73.7701,19.8079,347.65
123,73.7001,28.2788,347.9
124,73.6501,39.1775,348.15
125,73.5701,54.7304,348.65
126,73.4802,75.9001,349.15
127,73.4003,93.8053,349.65
128,73.3102,113.133,350.15
129,73.2402,129.82,350.65
130,73.1403,142.901,351.15
131,73.0503,160.735,351.65
132,72.9503,180.89,352.15
133,72.8403,194.001,352.9
134,72.7303,208.634,353.65
135,72.6205,220.134,354.15
136,72.5105,234.495,354.65
137,72.4204,238.446,355.4
138,72.3004,245.949,356.15
139,72.2006,253.368,356.9
140,72.0605,262.663,357.65
141,71.9406,266.601,358.15
142,71.8506,272.981,358.65
143,71.7607,275.596,359.4
144,71.6407,279.806,360.15
145,71.5607,289.861,360.4
146,71.4507,280.993,360.65
147,71.3008,286.955,361.65
148,71.1509,295.022,362.65
149,71.0409,290.314,362.9
150,70.9609,294.083,363.15
151,70.851,293.272,363.65
152,70.751,288.225,364.15
153,70.641,288.687,365.15
154,70.5011,297.739,366.15
155,70.4011,307.948,366.65
156,70.2811,303.299,367.15
157,70.1611,303.743,367.4
158,70.0511,307.028,367.65
159,69.9412,311.197,368.4
160,69.8312,304.418,369.15
161,69.7312,307.84,369.65
162,69.6113,308.271,370.15
163,69.4913,302.482,370.65
164,69.3713,303.559,371.15
165,69.2615,309.345,372.4
166,69.1215,307.662,373.65
167,69.0115,305.31,374.15
168,68.9015,304.795,374.65
169,68.7716,301.877,374.65
170,68.6316,314.305,374.65
171,68.5416,308.902,375.4
172,68.4117,316.745,376.15
173,68.3116,316.85,376.65
174,68.1917,310.157,377.15
175,68.0417,312.262,377.65
176,67.9218,321.177,378.15
177,67.7919,326.238,378.4
178,67.6818,315.427,378.65
179,67.5519,322.629,379.4
180,67.412,319.07,380.15
181,67.292,328.128,380.65
182,67.1819,321.342,381.15
183,67.092,330.527,381.4
184,66.9821,322.544,381.65
185,66.8521,313.692,382.15
186,66.7522,323.814,382.65
187,66.6222,324.23,383.15
188,66.4822,327.42,383.65
189,66.3622,328.814,384.15
190,66.2223,323.473,384.65
191,66.1023,324.055,384.9
192,65.9923,312.803,385.15
193,65.8724,327.284,385.9
194,65.7524,325.308,386.65
195,65.6324,321.553,386.65
196,65.5024,332.145,386.65
197,65.3525,327.487,387.15
198,65.2225,339.362,387.65
199,65.0925,335.212,388.65
200,64.9626,338.888,389.65
201,64.8226,329.748,389.65
202,64.7026,333.568,389.65
203,64.5828,336.027,390.65
204,64.4628,339.585,391.65
205,64.3428,344.183,391.65
206,64.2129,342.019,391.65
207,64.0829,337.036,392.15
208,63.9629,335.154,392.65
209,63.8329,341.631,393.4
210,63.693,339.453,394.15
211,63.563,355.369,394.65
212,63.4131,339.696,395.15
213,63.3031,337.492,395.4
214,63.1532,338.393,395.65
215,63.0032,353.722,396.65
216,62.8633,338.056,397.65
217,62.7633,352.797,398.15
218,62.6533,345.318,398.65
219,62.5334,354.385,398.9
220,62.3934,347.455,399.15
221,62.2434,354.27,399.9
222,62.1135,362.581,400.65
223,61.9935,361.059,400.9
224,61.8535,357.034,401.15
225,61.7435,357.148,401.4
226,61.6136,357.912,401.65
227,61.4937,351.718,402.65
228,61.3436,355.056,403.65
229,61.2238,344.389,403.9
230,61.09375,354.342,404.15
231,60.9237,350.57,404.65
232,60.8138,356.298,405.15
233,60.6639,353.328,405.65
234,60.4939,358.762,406.15
235,60.374,359.131,406.9
236,60.234,361.221,407.65
237,60.104,359.089,407.9
238,59.9441,358.971,408.15
239,59.8241,373.161,408.65
240,59.6642,376.501,409.15
241,59.4943,369.846,409.9
242,59.3943,373.654,410.65
243,59.2543,373.695,411.15
244,59.1244,382.408,411.65
245,58.9744,383.138,411.65
246,58.8243,380.122,411.65
247,58.6945,376.003,411.9
248,58.5645,375.183,412.15
249,58.4045,377.41,412.9
250,58.2847,382.333,413.65
251,58.1346,382.546,414.65
252,57.9746,385.16,415.65
253,57.8147,389.908,415.65
254,57.6747,383.755,415.65
255,57.2048,376.815,416.4
256,58.5745,377.418,417.15
257,58.0447,380.485,417.15
258,58.0846,389.515,417.15
259,58.0046,389.87,418.15
260,57.8748,383.319,419.15
261,58.3845,384.208,419.15
262,55.1455,387.525,419.15
263,57.5048,381.599,419.65
264,57.3749,386.323,420.15
265,57.2749,392.794,420.9
266,57.1249,391.537,421.65
267,56.9449,385.159,421.9
268,56.795,398.155,422.15
269,56.6251,399.883,422.4
270,56.5352,394.73,422.65
271,56.3551,402.02,423.4
272,56.1952,403.434,424.15
273,56.0453,409.872,424.65
274,55.8953,403.84,425.15
275,55.7354,427.58,425.65
276,55.6154,412.521,426.15
277,55.4553,412.772,426.65
278,55.2755,420.148,427.15
279,55.1355,401.803,427.4
280,54.9855,423.722,427.65
281,54.8256,424.678,428.15
282,54.6956,418.998,428.65
283,54.5555,412.841,429.15
284,54.3857,405.98,429.65
285,54.2457,427.554,429.9
286,54.0658,404.495,430.15
287,53.9258,414.251,430.9
288,53.7759,412.867,431.65
289,53.606,416.165,431.9
290,53.4559,407.005,432.15
291,53.286,414.51,432.65
292,53.1561,412.467,433.15
293,52.936,411.644,433.65
294,52.7762,420.78,434.15
295,52.5662,430.676,435.15
296,52.4762,423.764,436.15
297,52.3263,432.788,436.15
298,52.1364,420.116,436.15
299,52.0063,420.017,436.9
300,51.8164,435.982,437.65
301,51.6064,435.793,438.15
302,51.4166,430.577,438.65
303,51.2866,433.037,439.15
304,51.0967,443.23,439.65
305,51.0468,437.672,439.9
306,50.8367,438.86,440.15
307,50.6868,444.844,440.65
308,50.5369,430.935,441.15
309,50.3468,439.776,441.65
310,50.1769,435.225,442.15
311,50.027,432.833,442.9
312,49.887,432.188,443.65
313,49.7471,437.988,443.9
314,49.577,428.502,444.15
315,49.4271,444.544,445.15
316,49.2772,434.872,446.15
317,49.0571,433.423,446.4
318,48.9174,443.231,446.65
319,48.7673,434.53,446.9
320,48.5874,440.203,447.15
321,48.4075,446.269,447.65
322,48.2775,441.339,448.15
323,48.0775,441.319,448.9
324,47.9275,433.902,449.65
325,47.7477,445.308,449.65
326,47.5876,448.869,449.65
327,47.4177,448.34,450.15
328,47.2178,450.511,450.65
329,47.0878,451.047,451.15
330,46.908,455.188,451.65
331,46.798,449.827,452.65
332,46.6079,445.98,453.65
333,46.428,452.755,453.9
334,46.2781,446.716,454.15
335,46.1381,437.403,454.4
336,45.9581,447.508,454.65
337,45.7482,452.906,455.4
338,45.6083,433.425,456.15
339,45.4482,444.739,456.4
340,45.2584,452.985,456.65
341,45.1084,443.435,457.15
342,44.8984,453.593,457.65
343,44.7485,453.53,458.4
344,44.5985,454.647,459.15
345,44.4586,448.527,459.65
346,44.2786,456.08,460.15
347,44.1486,449.194,460.65
348,43.9487,440.742,461.15
349,43.7988,452.989,461.65
350,43.6288,454.775,462.15
351,43.4289,462.912,462.65
352,43.2889,452.481,463.15
353,43.059,457.105,463.65
354,42.919,456.331,464.15
355,42.7691,458.976,464.9
356,42.5692,457.825,465.65
357,42.4191,459.187,466.15
358,42.2792,443.291,466.65
359,42.1093,450.644,466.9
360,41.9293,456.436,467.15
361,41.7494,457.729,468.15
362,41.5294,462.648,469.15
363,41.3394,462.355,469.9
364,41.1895,452.233,470.65
365,40.9896,459.568,470.9
366,40.8496,460.301,471.15
367,40.6897,465.656,471.4
368,40.5797,450.624,471.65
369,40.4197,454.166,472.15
370,40.2798,453.922,472.65
371,40.0998,469.473,473.9
372,39.8699,465.533,475.15
373,39.7099,469.761,475.15
374,39.62,460.704,475.15
375,39.42,468.161,476.4
376,39.2501,461.636,477.65
377,39.1301,463.798,478.4
378,38.9202,449.941,479.15
379,38.7703,453.352,479.4
380,38.6202,454.707,479.65
381,38.4303,459.35,480.4
382,38.2404,467.912,481.15
383,38.0804,461.597,481.65
384,37.9405,479.738,482.15
385,37.8105,471.024,482.65
386,37.5905,462.462,483.15
387,37.3506,475.361,483.65
388,37.2007,486.282,484.15
389,37.0007,473.229,484.9
390,36.7908,488.303,485.65
391,36.6309,483.192,486.4
392,36.4609,488.173,487.15
393,36.191,478.782,487.9
394,36.061,496.22,488.65
395,35.871,511.638,489.15
396,35.7711,491.083,489.65
397,35.5511,488.774,490.4
398,35.3512,491.505,491.15
399,35.2112,488.143,491.9
400,35.03125,487.235,492.65
401,34.8813,486.36,493.4
402,34.6414,496.034,494.15
403,34.4915,495.56,494.65
404,34.3015,506.576,495.15
405,34.1516,491.181,496.15
406,33.9615,495.434,497.15
407,33.7717,498.361,497.9
408,33.5917,498.574,498.65
409,33.4017,486.962,499.4
410,33.2318,502.868,500.15
411,33.0619,505.871,501.15
412,32.882,507.317,502.15
413,32.692,506.048,503.15
414,32.482,507.617,504.15
415,32.342,503.198,504.9
416,32.2021,502.334,505.65
417,32.0422,497.096,506.4
418,31.8522,504.285,507.15
419,31.6823,503.338,508.15
420,31.5323,500.718,509.15
421,31.3524,479.28,509.9
422,31.1924,486.405,510.65
423,30.9825,467.812,511.65
424,30.8525,475.27,512.65
425,30.6826,468.602,514.4
426,30.5126,471.561,516.15
427,30.3627,466.868,516.65
428,30.1927,467.787,517.15
429,30.0027,476.938,517.9
430,29.8128,472.505,518.65
431,29.6628,472.204,519.65
432,29.4629,493.577,520.65
433,29.273,473.755,521.9
434,29.103,478.867,523.15
435,28.923,484.976,524.15
436,28.7131,480.189,525.15
437,28.5632,488.127,526.4
438,28.3532,485.217,527.65
439,28.1333,494.272,528.4
440,27.9733,498.176,529.15
441,27.9434,486.304,530.15
442,28.2832,508,531.15
443,26.7037,499.389,532.4
444,25.9439,478.882,533.65
445,25.604,476.67,534.65
446,25.1342,495.128,535.65
447,26.2538,492.113,536.9
448,26.6537,496.198,538.15
449,26.4238,504.038,539.4
450,26.2338,496.671,540.65
451,26.0839,506.961,541.65
452,25.8439,499.12,542.65
453,25.694,499.213,543.9
454,25.534,495.729,545.15
455,25.2742,500.166,546.65
456,25.1241,499.967,548.15
457,24.9742,502.67,549.4
458,24.7643,488.809,550.65
459,24.6043,494.295,552.65
460,24.4244,503.248,554.65
461,24.2244,509.188,555.9
462,24.0045,513.342,557.15
463,23.8146,513.712,559.15
464,23.6646,531.526,561.15
465,23.5046,527.995,562.9
466,23.0048,537.011,564.65
467,22.6548,531.979,566.65
468,22.095,529.729,568.65
469,21.8951,511.72,570.4
470,21.7551,509.555,572.15
471,21.5752,509.111,573.4
472,21.3752,518.959,574.65
473,21.2053,503.037,576.9
474,21.1053,500.867,579.15
475,20.8754,493.396,580.65
476,20.7454,486.947,582.15
477,20.5655,506.674,583.4
478,20.4155,509.057,584.65
479,20.1956,506.705,585.9
480,20.0556,497.491,587.15
481,19.9156,486.472,588.9
482,19.7357,489.494,590.65
483,19.5858,488.09,591.9
484,19.4558,475.121,593.15
485,19.2659,473.987,594.9
486,19.1359,466.65,596.65
487,19.0459,453.925,597.4
488,18.856,453.536,598.15
489,18.736,458.221,599.65
490,18.616,446.238,601.15
491,18.4761,438.564,602.65
492,18.3661,430.176,604.15
493,18.2361,431.333,604.9
494,18.0862,428.79,605.65
495,17.9462,419.827,606.9
496,17.8163,418.2,608.15
497,17.6863,417.152,609.4
498,17.5663,415.805,610.65
499,17.3164,408.578,611.65
500,17.2765,406.959,612.65
501,17.1765,393.81,613.9
502,17.0165,382.656,615.15
503,16.9465,376.807,616.4
504,16.8166,373.956,617.65
505,16.7266,361.044,618.4
506,16.5867,362.819,619.15
507,16.5167,361.526,620.15
508,16.4167,349.935,621.15
509,16.3367,357.869,621.9
510,16.2467,345.478,622.65
511,16.1368,344.646,623.9
512,15.9968,338.76,625.15
513,15.9168,341.68,626.4
514,15.8268,332.46,627.65
515,15.6869,327.727,628.9
516,15.587,332.09,630.15
517,15.447,329.202,632.15
518,15.387,322.835,634.15
519,15.297,318.753,636.4
520,15.197,319.981,638.65
521,15.1071,318.263,640.65
522,14.9871,309.621,642.65
523,14.9271,301.511,645.15
524,14.8671,298.612,647.65
525,14.7772,297.524,649.9
526,14.6972,289.305,652.15
527,14.5972,293.209,655.15
528,14.5073,288.955,658.15
529,14.4272,286.075,661.9
530,14.3373,285.788,665.65
531,14.2373,288.775,670.15
532,14.1273,281.034,674.65
533,14.0774,277.196,679.9
534,14.0174,277.386,685.15
535,13.9074,269.527,692.65
536,13.8474,266.086,700.15
537,13.7574,263.696,708.4
538,13.6475,267.331,716.65
539,13.5975,263.642,725.65
540,13.5375,256.116,734.65
541,13.4576,260.342,745.9
542,13.3676,262.011,757.15
543,13.2576,255.182,767.15
544,13.1876,255.308,777.15
545,13.0876,253.965,785.9
546,13.0077,252.318,794.65
547,12.9577,257.847,801.4
548,12.9077,256.615,808.15
549,12.8177,250.668,814.4
550,12.7877,244.112,820.65
551,12.7277,242.591,827.9
552,12.6677,238.754,835.15
553,12.5578,243.821,840.4
554,12.4578,236.842,845.65
555,12.3979,236.858,849.4
556,12.3879,230.9,853.15
557,12.3179,233.291,860.15
558,12.1979,230.642,867.15
559,12.1779,226.908,873.9
560,12.1179,225.789,880.65
561,12.0579,229.633,882.15
562,11.958,231.191,883.65
563,11.888,223.968,885.9
564,11.828,224.124,888.15
565,11.748,216.292,890.4
566,11.6981,220.633,892.65
567,11.608,217.487,894.15
568,11.618,216.785,895.65
569,11.5481,209.015,898.4
570,11.5181,207.293,901.15
571,11.4481,206.957,903.4
572,11.3881,204.168,905.65
573,11.3481,201.188,907.4
574,11.2482,201.872,909.15
575,11.1882,203.03,912.65
576,11.1582,202.394,916.15
577,11.1182,201.248,918.15
578,11.0582,194.33,920.15
579,10.9882,191.16,922.15
580,10.9383,197.015,924.15
581,10.8983,192.707,925.9
582,10.8283,190.324,927.65
583,10.7883,187.966,931.4
584,10.7583,184.204,935.15
585,10.7484,185.848,940.15
586,10.6783,185.5,945.15
587,10.6083,181.387,946.9
588,10.5084,177.583,948.65
589,10.4784,180.619,949.4
590,10.4584,180.625,950.15
591,10.4384,178.006,947.65
592,10.3684,174.419,945.15
593,10.3085,175.26,943.4
594,10.2485,172.485,941.65
595,10.1985,173.932,938.65
596,10.1785,172.644,935.65
597,10.1285,171.147,933.4
598,10.0786,168.913,931.15
599,9.97852,169.061,931.15
600,10.0186,171.002,931.15
601,9.92853,167.324,930.15
602,9.90851,167.32,929.15
603,9.88861,168.73,927.65
604,9.79858,164.69,926.15
605,9.73859,165.334,924.15
606,9.70862,166.8,922.15
607,9.67865,165.391,920.9
608,9.56866,166.502,919.65
609,9.51868,165.191,920.65
610,9.46869,161.885,921.65
611,9.4787,158.604,920.65
612,9.43872,162.068,919.65
613,9.45874,160.905,918.9
614,9.38873,158.659,918.15
615,9.3587,160.827,916.65
616,9.29871,159.622,915.15
617,9.2887,159.694,912.9
618,9.2088,160.026,910.65
619,9.15875,157.571,908.15
620,9.12878,157.468,905.65
621,9.06879,157.123,902.15
622,9.00885,158.461,898.65
623,8.99884,157.695,894.65
624,8.90881,151.424,890.65
625,8.83893,155.984,886.65
626,8.84888,152.878,882.65
627,8.82892,153.117,878.4
628,8.79889,153.153,874.15
629,8.79889,154.809,870.15
630,8.72888,152.674,866.15
631,8.58899,152.218,861.9
632,8.59894,153.442,857.65
633,8.59894,156.115,853.9
634,8.50897,155.009,850.15
635,8.409,154.338,846.9
636,8.43896,152.639,843.65
637,8.43896,152.106,840.4
638,8.42896,148.741,837.15
639,8.35901,152.295,834.15
640,8.289,147.654,831.15
641,8.26904,145.724,828.15
642,8.25903,148.046,825.15
643,8.229,144.983,821.15
644,8.14911,148.486,817.15
645,8.08911,146.442,813.65
646,8.06909,149.313,810.15
647,8.0191,146.993,807.9
648,7.99915,147.902,805.65
649,7.98914,145.945,803.9
650,7.94916,145.414,802.15
651,7.85913,145.519,800.15
652,7.83917,143.964,798.15
653,7.83917,145.009,795.4
654,7.75922,144.746,792.65
655,7.72919,141.565,792.65
656,7.72919,142.287,792.65
657,7.72919,140.891,789.65
658,7.66919,139.613,786.65
659,7.6192,139.232,783.15
660,7.53925,144.033,779.65
661,7.50928,140.918,776.65
662,7.46924,140.984,773.65
663,7.40924,141.669,771.15
664,7.39929,141.479,768.65
665,7.40924,140.375,766.65
666,7.36932,140.207,764.65
667,7.32935,137.126,763.9
668,7.26935,139.547,763.15
669,7.20935,141.808,760.15
670,7.15936,140.064,757.15
671,7.0694,143.525,755.4
672,7.01941,141.588,753.65
673,7.05939,138.818,751.15
674,7.04938,139.368,748.65
675,7.01941,141.622,747.65
676,6.89948,139.14,746.65
677,6.88947,140.319,744.4
678,6.86945,137.984,742.15
679,6.82947,136.42,740.4
680,6.80945,138.254,738.65
681,6.78943,136.617,737.15
682,6.75946,137.588,735.65
683,6.69952,134.065,734.4
684,6.68951,135.615,733.15
685,6.5296,133.091,733.15
686,6.5495,134.659,733.15
687,6.55951,134.961,731.65
688,6.48956,133.65,730.15
689,6.45959,134.634,728.9
690,6.43958,136.363,727.65
691,6.3996,134.333,726.9
692,6.38959,135.046,726.15
693,6.24963,131.846,725.65
694,6.26965,135.961,725.15
695,6.28961,135.377,724.65
696,6.22961,135.907,724.15
697,6.14966,133.219,722.4
698,6.16962,132.953,720.65
699,6.13965,130.01,717.9
700,6.09967,130.186,715.15
701,6.10962,128.65,713.4
702,6.02972,126.966,711.65
703,6.0097,128.642,710.65
704,5.99969,130.154,709.65
705,5.94971,128.022,708.65
706,5.9397,126.9,707.65
707,5.84973,127.423,707.4
708,5.83978,126.8,707.15
709,5.78973,127.19,707.15
710,5.78973,126.167,707.15
711,5.74976,127.078,705.9
712,5.74976,125.46,704.65
713,5.73975,124.156,704.65
714,5.69977,123.663,704.65
715,5.6098,123.48,703.65
716,5.59979,125.262,702.65
717,5.52985,123.552,703.15
718,5.51984,124.089,703.65
719,5.50983,121.777,702.65
720,5.42987,122.25,701.65
721,5.3999,122.554,701.4
722,5.36987,123.302,701.15
723,5.38989,122.5,700.15
724,5.36987,123.007,699.15
725,5.2699,121.709,699.15
726,5.24994,119.307,699.15
727,5.24994,119.661,699.65
728,5.19995,121.789,700.15
729,5.18994,120.297,700.15
730,5.15991,117.942,700.15
731,5.16992,117.926,698.9
732,5.13995,117.134,697.65
733,5.10992,117.535,696.4
734,5.05994,118.314,695.15
735,5.02002,116.726,694.65
736,5.01001,114.029,694.15
737,4.97998,115.337,692.4
738,4.96002,115.552,690.65
739,4.92999,114.783,689.9
740,4.92999,115.273,689.15
741,4.87,115.915,688.4
742,4.84998,113.952,687.65
743,4.82007,114.727,686.15
744,4.78009,116.569,684.65
745,4.74005,114.59,683.4
746,4.68005,116.556,682.15
747,4.62012,114.208,682.4
748,4.62012,115.561,682.65
749,4.57013,111.185,683.4
750,4.6001,113.241,684.15
751,4.6001,114.273,684.15
752,4.52014,114.257,684.15
753,4.43011,112.129,682.65
754,4.43011,111.82,681.15
755,4.46014,112.988,679.9
756,4.3902,112.024,678.65
757,4.38019,112.833,678.4
758,4.35016,108.775,678.15
759,4.36017,108.335,676.9
760,4.3302,108.123,675.65
761,4.29016,107.672,674.65
762,4.29016,109.238,673.65
763,4.29016,108.063,672.4
764,4.21021,107.077,671.15
765,4.20026,107.2,671.4
766,4.16022,106.165,671.65
767,4.13025,105.374,671.4
768,4.10022,106.296,671.15
769,4.09027,106.511,671.4
770,4.07025,106.13,671.65
771,4.04022,107.481,670.9
772,3.9903,105.822,670.15
773,3.96033,107.942,669.4
774,3.96033,104.599,668.65
775,3.95032,104.129,667.4
776,3.91028,103.175,666.15
777,3.8703,103.761,665.15
778,3.83032,102.571,664.15
779,3.8103,101.193,663.65
780,3.70038,100.831,663.15
781,3.73035,102.494,661.65
782,3.75037,103.923,660.15
783,3.67035,99.054,659.9
784,3.60034,100.438,659.65
785,3.64038,98.9499,659.4
786,3.64038,98.6283,659.15
787,3.56042,99.4146,657.9
788,3.59039,97.9185,656.65
789,3.57043,96.463,655.65
790,3.54041,96.7034,654.65
791,3.55042,97.3759,654.4
792,3.51044,96.8222,654.15
793,3.49042,96.9327,654.4
794,3.50043,98.4455,654.65
795,3.45044,96.5619,654.15
796,3.4104,97.0955,653.65
797,3.38043,96.5092,653.15
798,3.36047,95.7179,652.65
799,3.37042,95.0802,652.4
800,3.3205,93.6705,652.15
801,3.29047,93.3406,651.4
802,3.28052,93.5369,650.65
803,3.24048,92.1048,650.4
804,3.24048,91.843,650.15
805,3.22046,91.1485,649.65
806,3.17047,89.814,649.15
807,3.15057,91.1464,649.15
808,3.10052,89.1037,649.15
809,3.09058,89.6079,648.4
810,3.10052,90.059,647.65
811,3.06055,88.1958,647.4
812,3.02057,87.0635,647.15
813,3.05054,87.5119,646.65
814,2.99054,86.7447,646.15
815,3.01056,86.3477,646.15
816,3.01056,84.7563,646.15
817,2.96057,83.4619,646.15
818,2.96057,82.9543,646.15
819,2.94061,81.1336,646.4
820,2.90063,82.5007,646.65
821,2.9306,81.1171,646.4
822,2.87061,81.2951,646.15
823,2.88062,80.5626,646.15
824,2.87061,80.3125,646.15
825,2.8606,80.6026,646.15
826,2.83063,78.6932,646.15
827,2.8006,78.9127,646.4
828,2.71069,79.2018,646.65
829,2.77063,75.792,646.15
830,2.7406,77.7375,645.65
831,2.75061,75.521,645.15
832,2.70068,75.3604,644.65
833,2.71069,75.136,644.15
834,2.67065,74.9676,643.65
835,2.6507,75.7392,643.4
836,2.66064,76.0677,643.15
837,2.5907,74.9649,642.65
838,2.60065,75.5823,642.15
839,2.5907,74.0222,642.15
840,2.62067,74.4935,642.15
841,2.5907,75.0124,641.65
842,2.60065,74.3771,641.15
843,2.57068,72.996,640.9
844,-0.12854,73.6833,640.65
845,-0.178528,73.9523,640.4
846,2.99054,72.7103,640.15
847,3.31049,73.998,640.15
848,3.2605,72.9999,640.15
849,3.22046,71.4212,639.9
850,3.19049,73.218,639.65
851,3.22046,71.3279,639.15
852,3.2605,70.8541,638.65
853,3.22046,72.42,638.65
854,3.2005,71.6695,638.65
855,3.19049,71.6064,638.15
856,3.19049,71.5484,637.65
857,3.19049,72.1657,637.4
858,3.12054,71.9455,637.15
859,3.13055,72.0549,636.65
860,3.10052,71.4577,636.15
861,3.13055,70.9445,636.15
862,3.12054,71.2872,636.15
863,3.04053,70.6642,635.4
864,3.05054,69.8358,634.65
865,3.07056,69.7734,634.4
866,3.07056,70.3042,634.15
867,3.02057,69.1983,633.4
868,2.98053,69.3763,632.65
869,3.00055,67.8767,632.65
870,2.98053,68.1232,632.65
871,2.97052,67.1646,632.65
872,2.96057,67.3641,632.65
873,2.95056,67.2544,632.15
874,2.890625,65.5415,631.65
875,2.90063,68.2366,630.9
876,2.90063,66.9631,630.15
877,2.88062,66.5986,630.15
878,2.8606,66.18,630.15
879,2.8606,65.77,630.15
880,2.84064,64.437,630.15
881,2.82062,64.1169,630.15
882,2.81061,64.0364,630.15
883,2.78064,63.0738,629.65
884,2.81061,63.8717,629.15
885,2.71069,64.3908,628.65
886,2.67065,64.8855,628.15
887,2.77063,63.3753,627.4
888,2.70068,64.1401,626.65
889,2.72064,63.3943,626.65
890,2.73065,63.8814,626.65
891,2.70068,64.0242,626.15
892,2.68066,63.2379,625.65
893,2.69067,63.4466,626.15
894,2.66064,63.3576,626.65
895,2.63068,63.8567,627.15
896,2.64069,64.1841,627.65
897,2.6507,64.2584,628.15
898,2.5907,62.7652,628.65
899,2.56067,63.8841,628.4
900,2.52075,63.3655,628.15
901,2.51074,63.1235,627.9
902,2.52075,63.5321,627.65
903,2.52075,64.1069,627.15
904,2.51074,63.0643,626.65
905,2.50073,63.2428,626.15
906,2.44073,63.3414,625.65
907,2.52075,62.7935,625.4
908,2.52075,63.0305,625.15
909,2.45074,62.4957,624.65
910,2.45074,61.7225,624.15
911,2.39075,60.9445,624.15
912,2.42072,62.5539,624.15
913,2.41071,62.009,624.15
914,2.44073,61.0289,624.15
915,2.40076,61.0112,623.4
916,2.41071,59.6955,622.65
917,2.41071,60.3577,622.9
918,2.31079,59.3471,623.15
919,2.34076,59.1581,623.65
920,2.32074,58.8273,624.15
921,2.32074,58.6446,624.4
922,2.27081,58.5091,624.65
923,2.29077,58.7248,623.9
924,2.28082,58.6187,623.15
925,2.24078,57.5934,623.65
926,2.2608,57.9941,624.15
927,2.2608,56.7783,624.15
928,2.24078,56.39459,624.15
929,2.21082,57.3619,623.4
930,2.18079,56.0033,622.65
931,2.21082,56.00654,622.4
932,2.17078,55.7074,622.15
933,2.21082,55.8543,621.65
934,2.21082,55.8689,621.15
935,2.1908,54.9664,620.65
936,2.18079,54.2936,620.15
937,2.15082,54.6502,620.15
938,2.20081,54.0056,620.15
939,2.15082,53.4644,619.65
940,2.15082,52.97386,619.15
941,2.15082,52.8184,618.9
942,2.15082,52.0845,618.65
943,2.1308,52.0905,618.4
944,2.09088,51.8374,618.15
945,2.08087,51.5516,618.15
946,2.04083,52.0343,618.15
947,2.07086,50.0905,618.15
948,2.06085,50.8423,618.15
949,2.06085,50.3,618.15
950,2.04083,49.8421,618.15
951,1.92084,50.4475,618.15
952,2.01086,50.4055,618.15
953,1.97083,50.70203,618.15
954,1.95087,50.3343,618.15
955,1.97083,49.2769,617.9
956,1.95087,49.3128,617.65
957,1.97083,48.3783,617.9
958,1.92084,47.4416,618.15
959,1.97083,46.7667,618.4
960,1.92084,47.543,618.65
961,1.99084,46.9947,618.65
962,1.97083,45.9775,618.65
963,1.89087,45.4348,618.65
964,1.89087,46.0293,618.65
965,1.8609,45.6721,618.65
966,1.89087,45.9763,618.65
967,1.91083,45.3032,618.9
968,1.92084,45.9506,619.15
969,1.92084,45.3642,619.4
970,1.92084,45.6929,619.65
971,1.88092,45.8198,619.65
972,1.82092,45.1985,619.65
973,1.87091,45.5447,619.4
974,1.85089,45.11124,619.15
975,1.87091,44.0434,618.65
976,1.85089,44.1091,618.15
977,1.88092,44.3929,617.9
978,1.84094,44.5737,617.65
979,1.78094,45.127,617.65
980,1.81091,45.8325,617.65
981,1.81091,45.2267,617.15
982,1.79089,44.7119,616.65
983,1.78094,44.5253,616.15
984,1.71094,45.1205,615.65
985,1.75092,44.3152,614.9
986,1.76093,44.8884,614.15
987,1.77094,45.2348,614.15
988,1.75092,45.203,614.15
989,1.75092,44.5793,614.65
990,1.75092,44.842,615.15
991,1.74091,45.0249,615.4
992,1.74091,44.8211,615.65
993,1.70093,44.4631,615.4
994,1.72089,44.8793,615.15
995,1.7309,44.261,615.4
996,1.64099,43.5209,615.65
997,1.651,43.7391,615.65
998,1.61096,42.4936,615.65
999,1.64099,43.1139,615.4
1000,1.67096,42.0296,615.15
1001,1.66095,41.0111,614.65
1002,1.66095,40.8614,614.15
1003,1.68091,39.7624,614.15
1004,1.68091,39.4609,614.15
1005,1.68091,38.6396,613.65
1006,1.651,38.5597,613.15
1007,1.64099,37.3122,613.15
1008,1.62097,36.6491,613.15
1009,1.651,37.3551,612.65
1010,1.62097,37.368,612.15
1011,1.63098,36.7999,611.4
1012,1.63098,36.7938,610.65
1013,1.62097,36.5018,610.4
1014,1.62097,36.7235,610.15
1015,1.62097,35.9859,610.4
1016,1.62097,36.0984,610.65
1017,1.591,36.1047,610.65
1018,1.61096,35.3992,610.65
1019,1.53101,34.7191,610.4
1020,1.56097,34.9045,610.15
1021,1.591,33.8986,609.65
1022,1.55096,34.4683,609.15
1023,1.55096,34.4174,608.65
1024,1.521,34.5697,608.15
1025,1.62097,34.4127,609.15
1026,1.57098,34.0778,610.15
1027,1.521,34.6895,610.15
1028,1.47095,34.3671,610.15
1029,1.521,34.2232,609.9
1030,1.53101,34.8989,609.65
1031,1.55096,35.2232,610.65
1032,1.521,34.7428,611.65
1033,1.50098,34.2607,612.15
1034,1.54095,35.0664,612.65
1035,1.53101,34.5049,612.65
1036,1.53101,34.685,612.65
1037,1.53101,34.6847,612.4
1038,1.49097,34.5905,612.15
1039,1.49097,34.2991,611.9
1040,1.51099,33.757,611.65
1041,1.49097,33.8028,611.65
1042,1.50098,33.5054,611.65
1043,1.48096,33.6475,611.65
1044,1.45105,33.5782,611.65
1045,1.48096,33.6182,611.65
1046,1.43103,33.7246,611.65
1047,1.48096,33.0514,611.15
1048,1.49097,32.5339,610.65
1049,1.49097,32.2835,610.65
1050,1.46106,31.5484,610.65
1051,1.47095,31.3767,610.15
1052,1.47095,31.3813,609.65
1053,1.43103,31.2848,609.65
1054,1.45105,31.4987,609.65
1055,1.45105,30.8621,609.65
1056,1.43103,30.0278,609.65
1057,1.40106,30.383,609.9
1058,1.41101,30.0258,610.15
1059,1.44104,30.4181,609.65
1060,1.43103,30.3999,609.15
1061,1.43103,30.1479,609.15
1062,1.45105,31.2798,609.15
1063,1.37103,29.7371,608.65
1064,1.39105,30.2017,608.15
1065,1.39105,30.0086,608.15
1066,1.45105,30.0009,608.15
1067,1.43103,30.2477,607.65
1068,1.41101,30.484,607.15
1069,1.35101,29.2855,607.65
1070,1.36102,29.283,608.15
1071,1.37103,28.845,608.15
1072,1.40106,28.9728,608.15
1073,1.38104,28.6342,608.9
1074,1.38104,28.3461,609.65
1075,1.38104,28.8671,609.65
1076,1.42102,28.773,609.65
1077,1.39105,28.6929,609.9
1078,1.38104,28.2801,610.15
1079,1.36102,28.3766,610.15
1080,1.35101,28.5791,610.15
1081,1.37103,28.2606,610.9
1082,1.36102,27.8776,611.65
1083,1.35101,28.3642,610.65
1084,1.36102,28.4413,609.65
1085,1.34106,27.9775,609.9
1086,1.36102,27.9373,610.15
1087,1.33105,27.545,610.4
1088,1.32104,26.9782,610.65
1089,1.32104,27.14891,610.4
1090,1.32104,26.8091,610.15
1091,1.32104,26.5541,610.15
1092,1.30103,26.7618,610.15
1093,1.33105,26.716,609.9
1094,1.33105,27.7507,609.65
1095,1.29102,28.3992,608.9
1096,1.30103,28.4518,608.15
1097,1.34106,28.6732,608.15
1098,1.28107,28.8059,608.15
1099,1.2511,28.8616,608.65
1100,1.30103,29.335,609.15
1101,1.32104,28.5711,608.65
1102,1.29102,28.5398,608.15
1103,1.27106,28.4299,607.65
1104,1.2511,28.4274,607.15
1105,1.27106,29.1209,607.65
1106,1.26105,27.9337,608.15
1107,1.27106,28.1755,608.15
1108,1.2511,27.8744,608.15
1109,1.21112,27.3687,608.15
1110,1.17108,27.265,608.15
1111,1.20111,27.8282,608.15
1112,1.22107,27.4869,608.15
1113,1.27106,27.828,608.15
1114,1.21112,27.4744,608.15
1115,1.17108,27.0868,608.15
1116,1.1311,27.16,608.15
1117,1.20111,27.1496,607.65
1118,1.30103,26.8795,607.15
1119,1.28107,27.0784,607.15
1120,1.26105,26.7651,607.15
1121,1.21112,26.7569,607.15
1122,1.22107,26.6889,607.15