File: PMMA/Validation_Results/Aalto-II/Aalto-II_Gasification_q25_MLR.csv
Time,MLR
s,[g/m2/s]
0,0.102959
1.1,0.04374759
2,-0.002259692
3,-0.036092
4,-0.0587791
5.1,-0.0713504
6.1,-0.0748358
7.1,-0.0702648
8.1,-0.058667
9.1,-0.0410722
10.1,-0.0185099
11.1,0.007990123
12.1,0.0373983
13.1,0.068685
14.1,0.100821
15.1,0.132775
16.1,0.148617
17.1,0.161814
18.1,0.145696
19,0.136459
20,0.133446
21,0.135999
22,0.170133
23,0.198995
24,0.195914
25,0.197086
26,0.201855
27,0.209562
28,0.246223
29,0.248313
30,0.252029
31,0.256713
32,0.261709
33,0.266359
34,0.270008
35,0.271997
36,0.309467
37,0.354137
38,0.406689
39,0.467124
40,0.49859
41,0.527099
42,0.551996
43,0.572623
44,0.588323
45,0.598439
46,0.602315
47,0.599293
48,0.562047
49,0.589637
50,0.61854
51,0.648758
52,0.680289
53,0.676282
54,0.66275
55,0.649218
56,0.671881
57,0.693887
58,0.715237
59,0.699727
60,0.709342
61,0.7174269
62,0.723998
63,0.72842
64,0.731592
65,0.733515
66,0.707517
67,0.716466
68,0.723507
69,0.728642
70,0.731871
71,0.733193
72,0.732608
73,0.703446
74,0.708573
75,0.711137
76.1,0.684466
77.1,0.691428
78.1,0.695169
79.1,0.732542
80.1,0.740681
81.1,0.746257
82.1,0.749269
83.1,0.723047
84.1,0.730458
85.1,0.734647
86.1,0.745799
87.1,0.763912
88.1,0.778804
89.1,0.763806
90.1,0.780884
91.1,0.79382
92.1,0.775928
93.1,0.790058
94.1,0.80024
95.1,0.779153
96.1,0.789664
97.1,0.831771
98.1,0.81594
99.1,0.831706
100.1,0.815546
101.1,0.803656
102.1,0.822049
103.1,0.807203
104.1,0.858836
105.1,0.877229
106.1,0.862383
107.1,0.914016
108.1,0.905739
109.1,0.900418
110.1,0.897396
111.1,0.896017
112.1,0.895622
113.1,0.895557
114.1,0.958685
115.1,0.958619
116.1,0.984896
117.1,1.01084
118.1,1.00979
119.1,1.00776
120.1,1.04093
121.1,1.04579
122.1,1.04835
123.1,1.08481
124.1,1.09164
125.1,1.09486
126.1,1.10399
127.1,1.11838
128.1,1.10051
129.1,1.14945
130.1,1.16482
131.1,1.18282
132.1,1.23964
133.1,1.23491
134.1,1.29436
135.1,1.31762
136.1,1.30402
137.1,1.35263
138.1,1.3364
139.1,1.3544
140.1,1.40597
141.1,1.42758
142.1,1.45544
143.1,1.51554
144.1,1.54438
145.1,1.54129
146.1,1.56849
147.1,1.56179
148.1,1.5834
149.1,1.606
150.1,1.62892
151.1,1.62485
152.1,1.65599
153.1,1.68483
154.1,1.71071
155.1,1.73298
156.1,1.72431
157.1,1.75709
158.1,1.76714
159.1,1.84334
160.1,1.88531
161.1,1.91908
162.1,1.98083
163.1,1.98037
164.1,2.01676
165.1,2.02583
166.1,2.03292
167.1,2.07358
168.1,2.08363
169.1,2.12528
170.1,2.1712
171.1,2.18388
172.1,2.22552
173.1,2.26881
174.1,2.27624
175.1,2.31
176.1,2.34278
177.1,2.37392
178.1,2.40276
179.1,2.42864
180.1,2.42424
181.1,2.42509
182.1,2.46674
183.1,2.485
184.1,2.5319
185.1,2.56994
186.1,2.57178
187.1,2.60981
188.1,2.65672
189.1,2.71183
190.1,2.76432
191.1,2.77667
192.1,2.78442
193.1,2.78626
194.1,2.81772
195.1,2.85149
196.1,2.88689
197.1,2.92329
198.1,2.93334
199.1,2.97926
200.1,3.02353
201.1,3.03884
202.1,3.08738
203.1,3.13166
204.1,3.14433
205.1,3.18762
206.1,3.22402
207.1,3.22619
208.1,3.25634
209.1,3.25029
210.1,3.24359
211.1,3.27177
212.1,3.30751
213.1,3.35014
214.1,3.39902
215.1,3.41662
216.1,3.42831
217.1,3.46963
218.1,3.51325
219.1,3.55851
220.1,3.60476
221.1,3.61448
222.1,3.64989
223.1,3.68365
224.1,3.71512
225.1,3.74363
226.1,3.74185
227.1,3.77201
228.1,3.7699
229.1,3.83461
230.1,3.86575
231.1,3.86266
232.1,3.92441
233.1,3.92395
234.1,3.92349
235.1,3.98524
236.1,3.98215
237.1,3.97643
238.1,4.0303
239.1,4.0167
240.1,4.0347
241.1,4.05697
242.1,4.08285
243.1,4.11169
244.1,4.14283
245.1,4.17561
246.1,4.20937
247.1,4.24347
248.1,4.27723
249.1,4.31001
250.1,4.31448
251.1,4.35284
252.1,4.38759
253.1,4.41807
254.1,4.44362
255.1,4.43692
256.1,4.43351
257.1,4.49559
258.1,4.52278
259.1,4.57796
260.1,4.5976
261.1,4.58105
262.1,4.60069
263.1,4.59235
264.1,4.61823
265.1,4.67768
266.1,4.69699
267.1,4.73903
268.1,4.77713
269.1,4.74777
270.1,4.75
271.1,4.75651
272.1,4.76662
273.1,4.7797
274.1,4.79507
275.1,4.81208
276.1,4.83008
277.1,4.84841
278.1,4.86641
279.1,4.88342
280.1,4.89879
281.1,4.94872
282.1,4.96967
283.1,4.98767
284.1,5.00206
285.1,5.0067
286.1,5.04523
287.1,5.09083
288.1,5.10651
289.1,5.12364
290.1,5.13398
291.1,5.13689
292.1,5.16855
293.1,5.20231
294.1,5.23815
295.1,5.27608
296.1,5.27925
297.1,5.247
298.1,5.21487
299.1,5.18154
300.1,5.18255
301.1,5.21725
302,5.24878
303,5.27714
304,5.30234
305,5.32437
306,5.34324
307,5.33227
308,5.32765
309,5.32874
310,5.33487
311,5.37206
312,5.40346
313,5.42906
314,5.4222
315,5.41907
316,5.42657
317,5.43871
318,5.48165
319,5.51865
320,5.51563
321,5.51425
322,5.51385
323,5.51379
324,5.54006
325,5.52916
326,5.51727
327,5.50374
328,5.52476
329,5.58033
330,5.60759
331,5.64339
332,5.65088
333,5.65607
334,5.68498
335,5.67407
336,5.65955
337,5.64077
338,5.6539
339,5.6723
340,5.69595
341,5.72485
342,5.72216
343,5.71388
344,5.69936
345,5.7148
346,5.70685
347,5.73838
348,5.77254
349,5.77248
350,5.7642
351,5.78391
352,5.80493
353,5.80059
354,5.83376
355,5.83074
356,5.85439
357,5.87804
358,5.90169
359,5.92534
360,5.88546
361,5.9078
362,5.92882
363,5.92185
364,5.94977
365,5.93887
366,5.92534
367,5.94537
368,5.93545
369,5.93177
370,5.96035
371,5.95766
372,5.98656
373,5.98354
374,5.98479
375,6.01632
376,6.01461
377,6.07938
378,6.08424
379,6.09206
380,6.12885
381,6.13108
382,6.16162
383,6.15696
384,6.19013
385,6.19762
386,6.20544
387,6.21293
388,6.21943
389,6.22429
390,6.22686
391,6.26331
392,6.27015
393,6.27336
394,6.30917
395,6.31403
396,6.31396
397,6.34516
398,6.34411
399,6.37367
400,6.40718
401,6.40777
402,6.43831
403,6.43529
404,6.46157
405,6.49047
406,6.45848
407,6.49132
408,6.46196
409,6.49612
410,6.53028
411,6.50092
412,6.53376
413,6.50177
414,6.53067
415,6.55695
416,6.55393
417,6.58447
418,6.58506
419,6.5919
420,6.63098
421,6.6388
422,6.65154
423,6.69523
424,6.70633
425,6.72104
426,6.76538
427,6.77583
428,6.78857
429,6.82963
430,6.83548
431,6.84231
432,6.87614
433,6.87345
434,6.87042
435,6.86642
436,6.86077
437,6.88967
438,6.88961
439,6.92344
440,6.92764
441,6.92823
442,6.9614
443,6.96364
444,6.97113
445,6.98321
446,6.98906
447,7.02486
448,7.0271
449,7.03196
450,7.07564
451,7.08444
452,7.12123
453,7.15933
454,7.13522
455,7.17464
456,7.21405
457,7.21661
458,7.24519
459,7.24644
460,7.2197
461,7.22719
462,7.26824
463,7.26916
464,7.29281
465,7.31252
466,7.30162
467,7.29629
468,7.2959
469,7.29978
470,7.30726
471,7.31771
472,7.35712
473,7.38866
474,7.4123
475,7.46492
476,7.45697
477,7.45132
478,7.44732
479,7.44429
480,7.47845
481,7.48627
482,7.49376
483,7.50026
484,7.50512
485,7.54454
486,7.55498
487,7.56247
488,7.56635
489,7.56595
490,7.59748
491,7.63427
492,7.67631
493,7.68676
494,7.69162
495,7.69024
496,7.68196
497,7.70298
498,7.72663
499,7.75291
500,7.78181
501,7.81334
502,7.8475
503,7.84744
504,7.83916
505,7.79534
506,7.75153
507,7.74325
508,7.74319
509,7.77734
510,7.80888
511,7.83778
512,7.86406
513,7.8877
514,7.90873
515,7.90045
516,7.89907
517,7.90393
518,7.91438
519,7.95642
520,7.9932
521,8.02473
522,8.05101
523,8.04536
524,8.04398
525,8.04622
526,8.05141
527,8.08556
528,8.11184
529,8.10356
530,8.09693
531,8.09128
532,8.08596
533,8.10698
534,8.11749
535,8.09082
536,8.10002
537,8.11841
538,8.146
539,8.20946
540,8.20906
541,8.20768
542,8.20466
543,8.19934
544,8.21773
545,8.19632
546,8.20814
547,8.22654
548,8.2515
549,8.28303
550,8.28428
551,8.28126
552,8.27331
553,8.25978
554,8.27685
555,8.29788
556,8.32284
557,8.35174
558,8.34773
559,8.33683
560,8.32855
561,8.3591
562,8.39162
563,8.4261
564,8.42571
565,8.41645
566,8.43451
567,8.42656
568,8.45547
569,8.48437
570,8.44975
571,8.47734
572,8.50362
573,8.52858
574,8.55223
575,8.53771
576,8.54789
577,8.52943
578,8.5452
579,8.55834
580,8.54218
581,8.55959
582,8.57371
583,8.55788
584,8.57496
585,8.56143
586,8.55348
587,8.57713
588,8.56885
589,8.59151
590,8.60826
591,8.62928
592,8.65457
593,8.67395
594,8.66075
595,8.67783
596,8.66167
597,8.64846
598,8.70108
599,8.69313
600,8.71416
601,8.73748
602,8.73642
603,8.76369
604,8.75574
605,8.77544
606,8.75928
607,8.74345
608,8.79082
609,8.77498
610,8.7855
611,8.79568
612,8.77886
613,8.76106
614,8.77847
615,8.79423
616,8.80836
617,8.85769
618,8.84251
619,8.86255
620,8.85427
621,8.8437
622,8.86702
623,8.86071
624,8.87746
625,8.8906
626,8.90012
627,8.90604
628,8.91852
629,8.90072
630,8.9155
631,8.89934
632,8.9151
633,8.93612
634,8.92555
635,8.94624
636,8.93468
637,8.95373
638,8.97672
639,8.9668
640,8.98684
641,8.99997
642,9.00621
643,9.04241
644,9.04569
645,9.05292
646,9.02724
647,9.03151
648,9.00221
649,9.00221
650,9.00484
651,8.98342
652,9.00083
653,8.99354
654,9.02441
655,9.01975
656,9.04241
657,9.02888
658,9.04202
659,9.05515
660,9.06829
661,9.08143
662,9.09457
663,9.10771
664,9.12084
665,9.13398
666,9.14712
667,9.16026
668,9.1734
669,9.18653
670,9.173
671,9.19567
672,9.15415
673,9.17418
674,9.1554
675,9.16065
676,9.16328
677,9.16328
678,9.16065
679,9.12873
680,9.13037
681,9.10206
682,9.14351
683,9.155
684,9.20007
685,9.21583
686,9.22897
687,9.23948
688,9.22069
689,9.23547
690,9.2203
691,9.23804
692,9.25183
693,9.23501
694,9.25045
695,9.23462
696,9.25039
697,9.2609
698,9.26615
699,9.26615
700,9.23423
701,9.27009
702,9.24736
703,9.29243
704,9.30557
705,9.28678
706,9.29893
707,9.2785
708,9.28835
709,9.29164
710,9.29854
711,9.30905
712,9.32317
713,9.34091
714,9.35207
715,9.33
716,9.33756
717,9.31121
718,9.28717
719,9.32829
720,9.30819
721,9.35326
722,9.36377
723,9.33972
724,9.38085
725,9.36075
726,9.37914
727,9.39917
728,9.384
729,9.39648
730,9.39977
731,9.40404
732,9.40929
733,9.41553
734,9.39609
735,9.40364
736,9.41152
737,9.41974
738,9.45495
739,9.42762
740,9.42729
741,9.42729
742,9.40095
743,9.4378
744,9.41146
745,9.38479
746,9.42066
747,9.39267
748,9.40055
749,9.4443
750,9.4242
751,9.43997
752,9.45475
753,9.43169
754,9.44384
755,9.45435
756,9.46322
757,9.48063
758,9.4964
759,9.51052
760,9.49633
761,9.50651
762,9.5144
763,9.49331
764,9.53279
765,9.5433
766,9.52484
767,9.56695
768,9.54323
769,9.51656
770,9.5498
771,9.51656
772,9.51656
773,9.5498
774,9.51656
775,9.51656
776,9.5498
777,9.51656
778,9.51656
779,9.52313
780,9.49942
781,9.50829
782,9.52307
783,9.53358
784,9.53982
785,9.55197
786,9.55985
787,9.56347
788,9.57299
789,9.55158
790,9.56209
791,9.57785
792,9.56202
793,9.60413
794,9.61464
795,9.59355
796,9.60373
797,9.61851
798,9.60104
799,9.61418
800,9.65793
801,9.63257
802,9.63783
803,9.64702
804,9.62331
805,9.62955
806,9.63908
807,9.6417
808,9.63743
809,9.63645
810,9.63875
811,9.64433
812,9.6532
813,9.66535
814,9.67061
815,9.66896
816,9.67061
817,9.63868
818,9.63605
819,9.63605
820,9.63868
821,9.64394
822,9.65182
823,9.66233
824,9.63862
825,9.64354
826,9.65044
827,9.65931
828,9.67015
829,9.68296
830,9.69774
831,9.67764
832,9.68552
833,9.72139
834,9.72237
835,9.72533
836,9.73025
837,9.73715
838,9.70917
839,9.70917
840,9.71048
841,9.68644
842,9.6999
843,9.71403
844,9.72881
845,9.70739
846,9.71265
847,9.7179
848,9.72316
849,9.72841
850,9.73367
851,9.73892
852,9.74418
853,9.74944
854,9.75469
855,9.75995
856,9.7652
857,9.77046
858,9.77571
859,9.78097
860,9.78622
861,9.79148
862,9.77006
863,9.78484
864,9.76211
865,9.76474
866,9.76606
867,9.76606
868,9.76474
869,9.76211
870,9.75817
871,9.75292
872,9.7832
873,9.78616
874,9.78846
875,9.76343
876,9.77394
877,9.78313
878,9.79102
879,9.79759
880,9.77617
881,9.78964
882,9.80113
883,9.81066
884,9.81821
885,9.8238
886,9.82741
887,9.82905
888,9.82872
889,9.79975
890,9.80501
891,9.80764
892,9.80764
893,9.84186
894,9.82078
895,9.83391
896,9.84442
897,9.85231
898,9.85756
899,9.86019
900,9.86019
901,9.85756
902,9.85231
903,9.81775
904,9.81677
905,9.8125
906,9.8418
907,9.8418
908,9.8125
909,9.81677
910,9.81775
911,9.85231
912,9.85756
913,9.83352
914,9.84304
915,9.84928
916,9.85224
917,9.85191
918,9.8483
919,9.8414
920,9.86807
921,9.86544
922,9.83352
923,9.83516
924,9.83352
925,9.86544
926,9.86807
927,9.8414
928,9.8483
929,9.85191
930,9.85224
931,9.84928
932,9.84304
933,9.83352
934,9.85756
935,9.85231
936,9.81775
937,9.81677
938,9.8125
939,9.8418
940,9.8418
941,9.8125
942,9.81677
943,9.81775
944,9.85231
945,9.85756
946,9.86019
947,9.86019
948,9.85756
949,9.85231
950,9.84442
951,9.83391
952,9.82078
953,9.84186
954,9.83431
955,9.82478
956,9.81329
957,9.79982
958,9.82123
959,9.81467
960,9.80678
961,9.79759
962,9.78708
963,9.77525
964,9.76211
965,9.74766
966,9.7319
967,9.75167
968,9.74411
969,9.76257
970,9.74418
971,9.72579
972,9.74425
973,9.73669
974,9.72979
975,9.72355
976,9.74464
977,9.73019
978,9.71705
979,9.7319
980,9.71186
981,9.6938
982,9.70437
983,9.68072
984,9.68637
985,9.68512
986,9.65097
987,9.64742
988,9.61162
989,9.58041
990,9.58048
991,9.54895
992,9.54934
993,9.54547
994,9.53798
995,9.52753
996,9.51479
997,9.5004
998,9.48503
999,9.46933
1000,9.41711
1001,9.39188
1002,9.36764
1003,9.34505
1004,9.32475
1005,9.33408
1006,9.31082
1007,9.28231
1008,9.27587
1009,9.23948
1010,9.20046
1011,9.18614
1012,9.14449
1013,9.10285
1014,9.08852
1015,9.03932
1016,9.00924
1017,8.99958
1018,8.9488
1019,8.92174
1020,8.89369
1021,8.82977
1022,8.79482
1023,8.72729
1024,8.65517
1025,8.57975
1026,8.52904
1027,8.46814
1028,8.42571
1029,8.36751
1030,8.29617
1031,8.24099
1032,8.14173
1033,8.06454
1034,7.97586
1035,7.90564
1036,7.81078
1037,7.74857
1038,7.62389
1039,7.46801
1040,7.34904
1041,7.1992
1042,7.04089
1043,6.90734
1044,6.70607
1045,6.47096
1046,6.23592
1047,5.93512
1048,5.62914
1049,5.28899
1050,4.92257
1051,4.53776
1052,4.14243
1053,3.74448
1054,3.35179
1055,2.97223
1056,2.61369
1057,2.2472
1058,1.90666
1059,1.56245
1060,1.24779
1061,0.969261
1062,0.696581
1063,0.499181
1064,0.320109
1065,0.191947
1066,0.0837552
1067,-0.009393722
1068,-0.0930832
1069,-0.136702
1070,-0.136308
1071,-0.124812
1072,-0.109112
1073,-0.0967619
1074,-0.0959736
1075,-0.0787627
1076,-0.0438155
1077,-0.0266703
1078,0
1079,0
1080,-0.0266703
1081,-0.0438155
1082,-0.0520925
1083,-0.0521581
1084,-0.01799916
1085,0.0135322
1086,0.042436
1087,0.0687121
1088,0.0923607
1089,0.113382
1090,0.131775
1091,0.147541
1092,0.160679
1093,0.171189
1094,0.179072
1095,0.184327
1096,0.186955
1097,0.186955
1098,0.184327
1099,0.179072
1100,0.171189
1101,0.160679
1102,0.147541
1103,0.131775
1104,0.113382
1105,0.0923607
1106,0.0687121
1107,0.042436
1108,0.0135322
1109,-0.01799916
1110,-0.0521581
1111,-0.0520925
1112,-0.0438155
1113,-0.0266703
1114,0
1115,0
1116,0
1117,0
1118,0
1119,0
1120,0
1121,0
1122,0
1123,0
1124,0
1125,0
1126,0
1127,0
1128,0
1129,0
1130,0
1131,0
1132,0
1133,0
1134,0
1135,0
1136,0
1137,0
1138,0
1139,0
1140,0
1141,0
1142,0
1143,0
1144,0
1145,0
1146,0
1147,0
1148,0
1149,0
1150,0
1151,0
1152,0
1153,0
1154,0
1155,0
1156,0
1157,0
1158,0
1159,0
1160,0
1161,0
1162,-0.0266703
1163,-0.0438155
1164,-0.0520925
1165,-0.0521581
1166,-0.01799916
1167,0.0135322
1168,0.042436
1169,0.0687121
1170,0.0923607
1171,0.113382
1172,0.131775
1173,0.147541
1174,0.160679
1175,0.171189
1176,0.179072
1177,0.184327
1178,0.186955
1179,0.186955
1180,0.184327
1181,0.179072
1182,0.171189
1183,0.160679
1184,0.147541
1185,0.131775
1186,0.100005
1187,0.0680605
1188,0.0369639
1189,0.007738905
1190,-0.0185909
1191,-0.0410019
1192,-0.0584707
1193,-0.0699738
1194,-0.07448756
1195,-0.0709886
1196,-0.0584533
1197,-0.0358582
1198,-0.002179857
1199,0.04360536
1200,0.102521