File: PMMA/Validation_Results/Aalto-II/Aalto-II_Gasification_q50_MLR.csv
Time,MLR
s,[g/m2/s]
0,0
1.1,0
2,0
3,0
4,0
5.1,0
6.1,0
7.1,0
8.1,0.649612
9.1,0.649612
10.1,0.649612
11.1,0.649612
12.1,0.649612
13.1,0.649612
14.1,1.29922
15.1,1.29922
16.1,1.29922
17.1,1.33254
18.1,1.33254
19,1.99881
20,1.33254
21,1.94884
22,1.94884
23,1.29922
24,1.94884
25,1.94884
26,1.94884
27,2.59845
28,2.59845
29,3.24806
30,3.24806
31,3.89767
32,4.54728
33,4.54728
34,5.1969
35,5.1969
36,5.84651
37,5.84651
38,6.49612
39,7.14573
40,7.14573
41,7.79534
42,7.79534
43,7.79534
44,8.44496
45,8.44496
46,9.09457
47,9.74418
48,9.09457
49,9.74418
50,9.74418
51,10.3938
52,11.0434
53,11.0434
54,11.0434
55,11.0434
56,11.0434
57,11.693
58,11.693
59,11.693
60,12.3426
61,12.3426
62,12.9922
63,12.3426
64,12.3426
65,12.3426
66,12.3426
67,12.9922
68,13.6419
69,13.6419
70,13.6419
71,13.6419
72,13.6419
73,13.6419
74,13.9429
75,13.9429
76.1,13.9429
77.1,13.9429
78.1,14.2915
79.1,14.2915
80.1,14.2915
81.1,14.2915
82.1,14.2915
83.1,14.9411
84.1,14.9411
85.1,14.9411
86.1,14.9411
87.1,14.9411
88.1,14.9411
89.1,15.5907
90.1,14.9411
91.1,14.9411
92.1,14.9411
93.1,14.9411
94.1,15.5907
95.1,15.5907
96.1,15.5907
97.1,15.5907
98.1,15.5907
99.1,16.2403
100.1,16.2403
101.1,16.2403
102.1,16.2403
103.1,15.5907
104.1,15.5907
105.1,16.2403
106.1,16.2403
107.1,16.2403
108.1,16.8899
109.1,16.2403
110.1,16.2403
111.1,16.8899
112.1,16.2403
113.1,16.8899
114.1,16.8899
115.1,16.2403
116.1,16.8899
117.1,16.2403
118.1,16.8899
119.1,17.5395
120.1,16.8899
121.1,17.5395
122.1,16.8899
123.1,16.8899
124.1,17.5395
125.1,16.8899
126.1,17.5395
127.1,17.5395
128.1,17.5395
129.1,17.5395
130.1,17.5395
131.1,17.5395
132.1,17.5395
133.1,18.1891
134.1,17.5395
135.1,17.5395
136.1,17.5395
137.1,17.5395
138.1,18.1891
139.1,18.1891
140.1,18.1891
141.1,18.1891
142.1,18.1891
143.1,18.1891
144.1,18.1891
145.1,18.1891
146.1,18.1891
147.1,18.1891
148.1,18.8387
149.1,18.8387
150.1,18.8387
151.1,18.8387
152.1,18.1891
153.1,18.8387
154.1,18.8387
155.1,18.8387
156.1,18.8387
157.1,18.8387
158.1,18.8387
159.1,18.8387
160.1,19.4884
161.1,18.8387
162.1,19.4884
163.1,19.4884
164.1,18.8387
165.1,19.4884
166.1,18.8387
167.1,19.4884
168.1,19.4884
169.1,19.4884
170.1,20.138
171.1,19.4884
172.1,20.138
173.1,19.4884
174.1,19.4884
175.1,20.138
176.1,19.4884
177.1,20.138
178.1,20.138
179.1,20.138
180.1,20.138
181.1,20.138
182.1,20.138
183.1,20.138
184.1,20.7876
185.1,20.138
186.1,20.138
187.1,20.138
188.1,20.138
189.1,20.7876
190.1,20.7876
191.1,20.7876
192.1,20.7876
193.1,20.7876
194.1,20.7876
195.1,20.7876
196.1,20.7876
197.1,20.7876
198.1,20.7876
199.1,20.7876
200.1,20.7876
201.1,20.7876
202.1,21.4372
203.1,21.4372
204.1,21.4372
205.1,21.4372
206.1,20.7876
207.1,20.7876
208.1,21.4372
209.1,21.4372
210.1,21.4372
211.1,21.4372
212.1,21.4372
213.1,21.4372
214.1,21.4372
215.1,22.0868
216.1,21.4372
217.1,21.4372
218.1,22.0868
219.1,21.4372
220.1,21.4372
221.1,22.0868
222.1,21.4372
223.1,22.0868
224.1,22.0868
225.1,22.0868
226.1,22.0868
227.1,21.4372
228.1,22.0868
229.1,21.4372
230.1,22.0868
231.1,22.7364
232.1,22.0868
233.1,22.7364
234.1,22.0868
235.1,22.0868
236.1,22.0868
237.1,22.0868
238.1,22.7364
239.1,22.0868
240.1,22.7364
241.1,22.7364
242.1,22.7364
243.1,22.7364
244.1,22.7364
245.1,22.7364
246.1,22.7364
247.1,23.386
248.1,22.7364
249.1,22.7364
250.1,22.7364
251.1,22.7364
252.1,23.386
253.1,23.386
254.1,23.386
255.1,23.386
256.1,24.0356
257.1,24.0356
258.1,24.0356
259.1,24.0356
260.1,23.386
261.1,24.0356
262.1,24.0356
263.1,24.0356
264.1,24.6853
265.1,24.0356
266.1,24.0356
267.1,24.6853
268.1,24.0356
269.1,24.6853
270.1,25.3349
271.1,24.6853
272.1,25.3349
273.1,25.3349
274.1,24.6853
275.1,25.3349
276.1,25.3349
277.1,25.3349
278.1,25.9845
279.1,25.3349
280.1,25.3349
281.1,25.3349
282.1,25.3349
283.1,26.6341
284.1,26.6341
285.1,26.6341
286.1,26.6341
287.1,25.9845
288.1,25.9845
289.1,26.6341
290.1,26.6341
291.1,26.6341
292.1,27.2837
293.1,26.6341
294.1,27.2837
295.1,27.2837
296.1,27.2837
297.1,27.2837
298.1,27.2837
299.1,27.9333
300.1,27.9833
301.1,27.9833
302,27.9833
303,27.317
304,27.2837
305,27.9333
306,27.9333
307,28.5829
308,28.5829
309,28.5829
310,28.5829
311,28.5829
312,28.5829
313,28.5829
314,29.2325
315,29.2325
316,29.2325
317,29.2325
318,29.2325
319,29.2325
320,29.2325
321,29.8822
322,29.2325
323,29.8822
324,29.8822
325,29.8822
326,29.8822
327,29.8822
328,30.5318
329,29.8822
330,30.5318
331,30.5318
332,30.5318
333,30.5318
334,30.5318
335,30.5318
336,30.5318
337,31.1814
338,31.1814
339,31.1814
340,31.1814
341,31.1814
342,31.1814
343,31.1814
344,31.831
345,31.831
346,31.831
347,31.831
348,31.831
349,31.831
350,31.831
351,32.4806
352,31.831
353,31.831
354,32.4806
355,31.831
356,31.831
357,31.831
358,31.1814
359,30.5318
360,29.2325
361,26.6341
362,20.138
363,13.6419
364,7.14573
365,1.94884
366,0.649612
367,0
368,0
369,0
370,0
371,0
372,0
373,0
374,0
375,0
376,0
377,0
378,0
379,0
380,0
381,0
382,0
383,0
384,0.649612
385,0.649612
386,0.649612
387,0.649612
388,0
389,0
390,0
391,0
392,0
393,0
394,0
395,0
396,0
397,0
398,0
399,0
400,0
401,0
402,0
403,0
404,0
405,0
406,0.649612
407,0.649612
408,0.649612
409,0.649612
410,0
411,0
412,0
413,0
414,0
415,0
416,0
417,0
418,0
419,0
420,0
421,0
422,0
423,0
424,0
425,0
426,0
427,0
428,0
429,0.649612
430,0.649612
431,0.649612
432,0.649612
433,0
434,0
435,0
436,0
437,0
438,0
439,0
440,0
441,0
442,0
443,0
444,0
445,0
446,0
447,0
448,0
449,0
450,0
451,0
452,0
453,0
454,0.649612
455,0.649612
456,0.649612
457,0.649612
458,0
459,0
460,0
461,0
462,0
463,0
464,0
465,0
466,0
467,0
468,0
469,0
470,0
471,0
472,0
473,0
474,0
475,0
476,0
477,0
478,0
479,0
480,0.649612
481,0.649612
482,0.649612
483,0.649612
484,0
485,0
486,0
487,0
488,0
489,0
490,0
491,0
492,0
493,0
494,0
495,0
496,0
497,0
498,0
499,0
500,0