File: PMMA/Validation_Results/Aalto-I/Aalto-I_Gasification_q50_MLR.csv
Time,MLR
s,[g/m2/s]
0,0
1.1,0
2,0
3,0
4,0
5.1,0
6.1,0
7.1,0
8.1,0
9.1,0
10.1,0
11.1,0
12.1,0.649612
13.1,0.649612
14.1,1.29922
15.1,1.29922
16.1,1.29922
17.1,1.33254
18.1,1.33254
19,1.99881
20,1.99881
21,2.59845
22,2.59845
23,2.59845
24,2.59845
25,2.59845
26,2.59845
27,3.24806
28,3.24806
29,3.24806
30,3.89767
31,3.89767
32,4.54728
33,5.1969
34,5.1969
35,5.1969
36,5.84651
37,6.49612
38,6.49612
39,7.79534
40,7.79534
41,7.79534
42,8.44496
43,8.44496
44,9.09457
45,9.09457
46,9.74418
47,9.74418
48,9.74418
49,10.3938
50,11.0434
51,11.0434
52,11.0434
53,11.693
54,11.0434
55,11.693
56,11.693
57,11.693
58,12.3426
59,12.3426
60,12.9922
61,12.9922
62,12.9922
63,12.9922
64,12.9922
65,12.9922
66,12.9922
67,12.9922
68,13.6419
69,13.6419
70,13.6419
71,14.2915
72,13.6419
73,14.2915
74,13.9429
75,13.9429
76.1,14.5767
77.1,14.5767
78.1,14.9411
79.1,14.9411
80.1,14.9411
81.1,14.2915
82.1,14.9411
83.1,14.9411
84.1,14.9411
85.1,15.5907
86.1,15.5907
87.1,15.5907
88.1,15.5907
89.1,15.5907
90.1,15.5907
91.1,15.5907
92.1,15.5907
93.1,15.5907
94.1,15.5907
95.1,16.2403
96.1,16.2403
97.1,16.2403
98.1,16.2403
99.1,16.2403
100.1,16.2403
101.1,16.8899
102.1,16.8899
103.1,16.2403
104.1,16.8899
105.1,16.2403
106.1,16.8899
107.1,16.8899
108.1,16.8899
109.1,17.5395
110.1,16.8899
111.1,17.5395
112.1,16.8899
113.1,16.8899
114.1,17.5395
115.1,17.5395
116.1,17.5395
117.1,17.5395
118.1,17.5395
119.1,17.5395
120.1,18.1891
121.1,18.1891
122.1,18.1891
123.1,18.1891
124.1,18.1891
125.1,18.1891
126.1,18.1891
127.1,18.1891
128.1,18.1891
129.1,18.1891
130.1,18.1891
131.1,18.1891
132.1,18.8387
133.1,18.8387
134.1,18.8387
135.1,18.8387
136.1,18.8387
137.1,18.8387
138.1,18.8387
139.1,19.4884
140.1,18.8387
141.1,19.4884
142.1,19.4884
143.1,19.4884
144.1,19.4884
145.1,19.4884
146.1,19.4884
147.1,19.4884
148.1,20.138
149.1,19.4884
150.1,20.138
151.1,20.138
152.1,19.4884
153.1,20.138
154.1,20.138
155.1,20.138
156.1,20.7876
157.1,20.7876
158.1,20.138
159.1,20.138
160.1,20.138
161.1,20.138
162.1,20.7876
163.1,20.7876
164.1,20.7876
165.1,21.4372
166.1,21.4372
167.1,21.4372
168.1,21.4372
169.1,20.7876
170.1,20.7876
171.1,21.4372
172.1,21.4372
173.1,21.4372
174.1,21.4372
175.1,21.4372
176.1,21.4372
177.1,21.4372
178.1,22.0868
179.1,21.4372
180.1,22.0868
181.1,22.0868
182.1,22.0868
183.1,22.0868
184.1,22.0868
185.1,22.0868
186.1,22.0868
187.1,22.0868
188.1,22.0868
189.1,22.7364
190.1,22.0868
191.1,22.7364
192.1,22.7364
193.1,22.0868
194.1,22.7364
195.1,22.7364
196.1,22.0868
197.1,22.7364
198.1,22.7364
199.1,22.7364
200.1,23.386
201.1,22.7364
202.1,22.7364
203.1,22.7364
204.1,22.7364
205.1,23.386
206.1,23.386
207.1,23.386
208.1,23.386
209.1,22.7364
210.1,22.7364
211.1,22.7364
212.1,22.7364
213.1,23.386
214.1,23.386
215.1,23.386
216.1,23.386
217.1,23.386
218.1,23.386
219.1,23.386
220.1,24.0356
221.1,24.0356
222.1,24.0356
223.1,24.0356
224.1,23.386
225.1,23.386
226.1,23.386
227.1,24.0356
228.1,24.0356
229.1,24.0356
230.1,24.0356
231.1,24.0356
232.1,24.0356
233.1,24.6853
234.1,24.6853
235.1,24.0356
236.1,24.6853
237.1,24.0356
238.1,24.6853
239.1,24.6853
240.1,24.6853
241.1,24.6853
242.1,24.6853
243.1,25.3349
244.1,24.6853
245.1,25.3349
246.1,25.3349
247.1,25.3349
248.1,25.3349
249.1,25.3349
250.1,25.3349
251.1,25.3349
252.1,25.9845
253.1,25.9845
254.1,25.9845
255.1,25.9845
256.1,25.9845
257.1,25.9845
258.1,25.9845
259.1,25.9845
260.1,25.9845
261.1,25.9845
262.1,25.9845
263.1,25.9845
264.1,25.9845
265.1,26.6341
266.1,26.6341
267.1,26.6341
268.1,26.6341
269.1,25.9845
270.1,26.6341
271.1,26.6341
272.1,26.6341
273.1,26.6341
274.1,26.6341
275.1,26.6341
276.1,26.6341
277.1,27.2837
278.1,26.6341
279.1,26.6341
280.1,27.2837
281.1,26.6341
282.1,27.2837
283.1,27.2837
284.1,26.6341
285.1,27.2837
286.1,26.6341
287.1,27.2837
288.1,27.2837
289.1,27.2837
290.1,27.2837
291.1,27.2837
292.1,27.2837
293.1,27.2837
294.1,27.2837
295.1,27.2837
296.1,27.2837
297.1,27.2837
298.1,27.2837
299.1,27.2837
300.1,27.9833
301.1,27.317
302,27.317
303,27.317
304,26.6341
305,27.2837
306,27.9333
307,27.2837
308,27.9333
309,27.2837
310,27.2837
311,27.9333
312,27.2837
313,27.9333
314,27.2837
315,27.2837
316,27.9333
317,27.2837
318,27.9333
319,27.2837
320,27.2837
321,27.2837
322,27.2837
323,27.9333
324,27.2837
325,27.9333
326,27.2837
327,26.6341
328,27.2837
329,26.6341
330,26.6341
331,27.2837
332,26.6341
333,26.6341
334,26.6341
335,25.9845
336,25.9845
337,25.3349
338,25.3349
339,24.6853
340,24.0356
341,24.0356
342,23.386
343,22.7364
344,21.4372
345,20.7876
346,18.8387
347,15.5907
348,11.693
349,6.49612
350,2.59845
351,0.649612
352,0
353,0
354,0
355,0
356,0
357,0
358,0
359,0
360,0
361,0
362,0
363,0
364,0
365,0
366,0
367,0
368,0
369,0
370,0
371,0
372,0
373,0
374,0
375,0
376,0
377,0
378,0
379,0
380,0
381,0
382,0
383,0
384,0
385,0
386,0
387,0
388,0
389,0
390,0
391,0
392,0
393,0
394,0
395,0
396,0
397,0
398,0
399,0
400,0
401,0
402,0
403,0
404,0
405,0
406,0
407,0
408,0
409,0
410,0
411,0
412,0
413,0
414,0
415,0
416,0
417,0
418,0
419,0
420,0
421,0
422,0
423,0
424,0
425,0
426,0
427,0
428,0
429,0
430,0
431,0
432,0
433,0
434,0
435,0
436,0
437,0
438,0
439,0
440,0
441,0
442,0
443,0
444,0
445,0
446,0
447,0
448,0
449,0
450,0
451,0
452,0
453,0
454,0
455,0
456,0
457,0
458,0
459,0
460,0
461,0
462,0
463,0
464,0
465,0
466,0
467,0
468,0
469,0
470,0
471,0
472,0
473,0
474,0
475,0
476,0
477,0
478,0
479,0
480,0
481,0
482,0
483,0
484,0
485,0
486,0
487,0
488,0
489,0
490,0
491,0
492,0
493,0
494,0
495,0
496,0
497,0
498,0
499,0
500,0