File: PMMA/Validation_Results/Aalto-I/Aalto-I_Gasification_q25_MLR.csv
Time,MLR
s,[g/m2/s]
0,0.00410223
1.1,0.005062653
2,0.005193342
3,0.004632786
4,0.003513974
5.1,0.0019644
6.1,0.000106056
7.1,-0.001944562
8.1,-0.004076458
9.1,-0.006184135
10.1,-0.008167593
11.1,-0.009932331
12.1,-0.0113893
13.1,-0.0124551
14.1,-0.0130517
15.1,-0.0131065
16.1,-0.0125526
17.1,-0.0113284
18.1,-0.009377997
19,-0.006650785
20,-0.003101782
21,0.001308525
22,0.006614152
23,0.0128436
24,0.0200199
25,0.0281606
26,0.04149966
27,0.0530467
28,0.0637111
29,0.0561561
30,0.0777233
31,0.0977901
32,0.116959
33,0.13571
34,0.154409
35,0.17332
36,0.192614
37,0.230476
38,0.240192
39,0.252822
40,0.286118
41,0.292982
42,0.304127
43,0.337005
44,0.344259
45,0.356387
46,0.39067
47,0.39962
48,0.413651
49,0.449117
50,0.460369
51,0.494695
52,0.523334
53,0.530807
54,0.564092
55,0.575701
56,0.596172
57,0.642992
58,0.669055
59,0.705324
60,0.769755
61,0.78439
62,0.795848
63,0.819403
64,0.805528
65,0.831994
66,0.852051
67,0.850361
68,0.876482
69,0.884148
70,0.905291
71,0.927607
72,0.920825
73,0.914543
74,0.925228
75,0.93602
76.1,0.930207
77.1,0.942793
78.1,0.926027
79.1,0.910144
80.1,0.943644
81.1,0.932552
82.1,0.94382
83.1,0.948404
84.1,0.930463
85.1,0.938916
86.1,0.92671
87.1,0.924839
88.1,0.919889
89.1,0.911667
90.1,0.931286
91.1,0.918726
92.1,0.90501
93.1,0.921126
94.1,0.888842
95.1,0.9039
96.1,0.919359
97.1,0.88825
98.1,0.906229
99.1,0.90819
100.1,0.913453
101.1,0.938288
102.1,0.936918
103.1,0.926543
104.1,0.936275
105.1,0.919408
106.1,0.906177
107.1,0.926824
108.1,0.902415
109.1,0.928038
110.1,0.956142
111.1,0.957281
112.1,0.979857
113.1,1.00747
114.1,1.0286
115.1,1.04473
116.1,1.05717
117.1,1.03563
118.1,1.04075
119.1,1.02377
120.1,1.03193
121.1,1.04777
122.1,1.04063
123.1,1.07588
124.1,1.08936
125.1,1.09968
126.1,1.12533
127.1,1.13312
128.1,1.14131
129.1,1.16809
130.1,1.18001
131.1,1.19512
132.1,1.23144
133.1,1.22403
134.1,1.23731
135.1,1.27087
136.1,1.27758
137.1,1.30622
138.1,1.34078
139.1,1.35206
140.1,1.38873
141.1,1.40337
142.1,1.4132
143.1,1.44859
144.1,1.46191
145.1,1.5197
146.1,1.54574
147.1,1.54155
148.1,1.56831
149.1,1.57799
150.1,1.6187
151.1,1.66072
152.1,1.69243
153.1,1.71524
154.1,1.7303
155.1,1.7386
156.1,1.74091
157.1,1.76922
158.1,1.77757
159.1,1.81604
160.1,1.83876
161.1,1.86458
162.1,1.89427
163.1,1.92857
164.1,1.96824
165.1,1.9827
166.1,2.01924
167.1,2.02906
168.1,2.05932
169.1,2.09247
170.1,2.12917
171.1,2.17022
172.1,2.23467
173.1,2.29501
174.1,2.32368
175.1,2.37091
176.1,2.37266
177.1,2.39428
178.1,2.43633
179.1,2.4527
180.1,2.46193
181.1,2.49566
182.1,2.50756
183.1,2.51604
184.1,2.55267
185.1,2.57117
186.1,2.59
187.1,2.60957
188.1,2.64835
189.1,2.66006
190.1,2.67627
191.1,2.71537
192.1,2.73106
193.1,2.75496
194.1,2.80561
195.1,2.83691
196.1,2.86751
197.1,2.88467
198.1,2.91998
199.1,2.95832
200.1,3.00267
201.1,3.05612
202.1,3.09046
203.1,3.12411
204.1,3.15725
205.1,3.18999
206.1,3.22234
207.1,3.25428
208.1,3.28574
209.1,3.31664
210.1,3.34693
211.1,3.37657
212.1,3.40558
213.1,3.45215
214.1,3.46975
215.1,3.50787
216.1,3.51997
217.1,3.53753
218.1,3.57896
219.1,3.59804
220.1,3.64477
221.1,3.69129
222.1,3.74116
223.1,3.76666
224.1,3.78661
225.1,3.80159
226.1,3.79397
227.1,3.8422
228.1,3.86899
229.1,3.89316
230.1,3.91541
231.1,3.93641
232.1,3.95684
233.1,3.97739
234.1,4.01688
235.1,4.02939
236.1,4.04691
237.1,4.07017
238.1,4.10005
239.1,4.12434
240.1,4.16207
241.1,4.18067
242.1,4.18098
243.1,4.21056
244.1,4.25242
245.1,4.29469
246.1,4.35686
247.1,4.39371
248.1,4.42461
249.1,4.45072
250.1,4.47303
251.1,4.47434
252.1,4.48407
253.1,4.50049
254.1,4.52204
255.1,4.5655
256.1,4.60109
257.1,4.63039
258.1,4.65496
259.1,4.67638
260.1,4.69625
261.1,4.71622
262.1,4.73803
263.1,4.7635
264.1,4.76324
265.1,4.78577
266.1,4.78362
267.1,4.80539
268.1,4.83501
269.1,4.8434
270.1,4.87948
271.1,4.91432
272.1,4.93708
273.1,4.94991
274.1,4.95472
275.1,4.93881
276.1,4.92642
277.1,4.94824
278.1,4.95721
279.1,4.96742
280.1,4.98454
281.1,5.00796
282.1,5.0372
283.1,5.07197
284.1,5.13024
285.1,5.15206
286.1,5.1866
287.1,5.21816
288.1,5.231
289.1,5.25609
290.1,5.26196
291.1,5.28198
292.1,5.31606
293.1,5.34875
294.1,5.38274
295.1,5.40269
296.1,5.4087
297.1,5.43447
298.1,5.44893
299.1,5.45222
300.1,5.44431
301.1,5.40697
302,5.41796
303,5.43066
304,5.44807
305,5.47334
306,5.46039
307,5.47465
308,5.48558
309,5.49396
310,5.50056
311,5.48802
312,5.5038
313,5.51754
314,5.53024
315,5.54293
316,5.55663
317,5.57243
318,5.59144
319,5.61485
320,5.64391
321,5.67993
322,5.69299
323,5.69968
324,5.69837
325,5.68724
326,5.6892
327,5.69009
328,5.69017
329,5.68975
330,5.69567
331,5.70529
332,5.71983
333,5.74069
334,5.7694
335,5.79443
336,5.78607
337,5.77423
338,5.75743
339,5.76544
340,5.78152
341,5.80721
342,5.83102
343,5.82331
344,5.81415
345,5.8203
346,5.82502
347,5.84292
348,5.86232
349,5.85347
350,5.84634
351,5.85765
352,5.87067
353,5.86868
354,5.88655
355,5.87629
356,5.86774
357,5.90888
358,5.90511
359,5.90453
360,5.92392
361,5.91534
362,5.94007
363,5.9684
364,5.97069
365,5.97714
366,6.00476
367,6.00585
368,6.02873
369,6.0437
370,6.03422
371,6.04839
372,6.03828
373,6.052
374,6.05971
375,6.04471
376,6.05501
377,6.04261
378,6.05558
379,6.06407
380,6.0695
381,6.07321
382,6.05838
383,6.07296
384,6.06892
385,6.09437
386,6.0882
387,6.09842
388,6.10821
389,6.11879
390,6.13137
391,6.14716
392,6.16736
393,6.16185
394,6.17833
395,6.19973
396,6.19572
397,6.21386
398,6.23692
399,6.23448
400,6.25397
401,6.27812
402,6.27642
403,6.2963
404,6.32045
405,6.31839
406,6.33758
407,6.36075
408,6.35752
409,6.37543
410,6.41543
411,6.40052
412,6.42761
413,6.43276
414,6.41676
415,6.42706
416,6.44651
417,6.46294
418,6.47745
419,6.49107
420,6.47343
421,6.48525
422,6.49612
423,6.50699
424,6.51881
425,6.50117
426,6.51479
427,6.5293
428,6.54573
429,6.56518
430,6.57548
431,6.55948
432,6.56463
433,6.59172
434,6.57681
435,6.61681
436,6.63472
437,6.63149
438,6.65466
439,6.67385
440,6.67179
441,6.69594
442,6.71582
443,6.71412
444,6.73827
445,6.75776
446,6.75532
447,6.77838
448,6.79652
449,6.79251
450,6.81391
451,6.83039
452,6.84297
453,6.85262
454,6.86031
455,6.86699
456,6.87363
457,6.8812
458,6.89072
459,6.90323
460,6.91981
461,6.91027
462,6.92228
463,6.9074
464,6.91321
465,6.9225
466,6.93627
467,6.95563
468,6.95042
469,6.96844
470,6.96142
471,6.97713
472,6.99867
473,6.996
474,7.01706
475,7.01376
476,7.03408
477,7.07945
478,7.07337
479,7.09518
480,7.09689
481,7.09524
482,7.13829
483,7.13138
484,7.12246
485,7.14133
486,7.13995
487,7.15315
488,7.16417
489,7.15623
490,7.14601
491,7.16345
492,7.17873
493,7.18015
494,7.18226
495,7.16828
496,7.15495
497,7.17227
498,7.19057
499,7.19831
500,7.21026
501,7.20991
502,7.21427
503,7.22236
504,7.25133
505,7.27171
506,7.26708
507,7.2676
508,7.27215
509,7.27971
510,7.30747
511,7.32594
512,7.33686
513,7.32371
514,7.31655
515,7.31424
516,7.31572
517,7.33819
518,7.35224
519,7.35966
520,7.36215
521,7.34318
522,7.33286
523,7.33013
524,7.33407
525,7.36205
526,7.38486
527,7.40457
528,7.3918
529,7.37684
530,7.37182
531,7.37578
532,7.388
533,7.39467
534,7.41328
535,7.42778
536,7.44016
537,7.45236
538,7.43491
539,7.41806
540,7.41392
541,7.42161
542,7.44047
543,7.45683
544,7.45699
545,7.47157
546,7.48445
547,7.49756
548,7.51284
549,7.4828
550,7.45311
551,7.45141
552,7.45884
553,7.49301
554,7.52504
555,7.52609
556,7.51377
557,7.5187
558,7.5248
559,7.5341
560,7.54866
561,7.53924
562,7.50502
563,7.47361
564,7.47266
565,7.48342
566,7.52362
567,7.56456
568,7.5776
569,7.58062
570,7.57318
571,7.55465
572,7.55551
573,7.5596
574,7.5689
575,7.58547
576,7.58012
577,7.55211
578,7.52918
579,7.5078
580,7.51589
581,7.55305
582,7.5906
583,7.6313
584,7.64663
585,7.65464
586,7.65511
587,7.64765
588,7.63171
589,7.60656
590,7.60265
591,7.6038
592,7.61205
593,7.62954
594,7.62721
595,7.62258
596,7.59687
597,7.57792
598,7.56231
599,7.54678
600,7.57761
601,7.608
602,7.64071
603,7.67862
604,7.69338
605,7.70327
606,7.70832
607,7.70846
608,7.70345
609,7.69297
610,7.67653
611,7.65353
612,7.62325
613,7.61618
614,7.61622
615,7.62555
616,7.64649
617,7.65017
618,7.65438
619,7.65874
620,7.66278
621,7.66593
622,7.66754
623,7.6669
624,7.66318
625,7.63738
626,7.61716
627,7.59899
628,7.61087
629,7.65259
630,7.6957
631,7.74332
632,7.76736
633,7.78639
634,7.80078
635,7.81085
636,7.8168
637,7.81877
638,7.8168
639,7.81085
640,7.80078
641,7.78639
642,7.76736
643,7.74332
644,7.71379
645,7.67821
646,7.63594
647,7.6176
648,7.60728
649,7.60734
650,7.62038
651,7.61783
652,7.61783
653,7.62038
654,7.62543
655,7.6329
656,7.64267
657,7.65455
658,7.66833
659,7.68375
660,7.70052
661,7.71829
662,7.73667
663,7.75523
664,7.7735
665,7.79097
666,7.80706
667,7.82118
668,7.83269
669,7.84089
670,7.84506
671,7.84442
672,7.83814
673,7.82538
674,7.80523
675,7.77674
676,7.77028
677,7.76972
678,7.77725
679,7.79534
680,7.79534
681,7.79534
682,7.79534
683,7.79534
684,7.79534
685,7.79534
686,7.79534
687,7.79534
688,7.79534
689,7.79534
690,7.79534
691,7.79534
692,7.79534
693,7.79534
694,7.79534
695,7.79534
696,7.79534
697,7.79534
698,7.79534
699,7.79534
700,7.79534
701,7.79534
702,7.79534
703,7.79534
704,7.79534
705,7.79534
706,7.79534
707,7.79534
708,7.79534
709,7.79534
710,7.79534
711,7.79534
712,7.79534
713,7.79534
714,7.79534
715,7.79534
716,7.79534
717,7.79534
718,7.79534
719,7.79534
720,7.79534
721,7.79534
722,7.79534
723,7.79534
724,7.79534
725,7.79534
726,7.79534
727,7.81343
728,7.82097
729,7.82041
730,7.81395
731,7.78546
732,7.76531
733,7.75254
734,7.74627
735,7.74563
736,7.7498
737,7.758
738,7.76951
739,7.78363
740,7.79972
741,7.81718
742,7.83545
743,7.85402
744,7.8724
745,7.89016
746,7.90693
747,7.92236
748,7.93614
749,7.94802
750,7.95778
751,7.96526
752,7.97031
753,7.97286
754,7.97286
755,7.97031
756,7.96526
757,7.95778
758,7.94802
759,7.93614
760,7.92236
761,7.90693
762,7.89016
763,7.8724
764,7.85402
765,7.83545
766,7.83527
767,7.82535
768,7.8087
769,7.78811
770,7.74811
771,7.71976
772,7.70283
773,7.6972
774,7.70283
775,7.71976
776,7.74811
777,7.78811
778,7.8087
779,7.82535
780,7.83527
781,7.83545
782,7.85402
783,7.8724
784,7.89016
785,7.90693
786,7.92236
787,7.93614
788,7.94802
789,7.95778
790,7.96526
791,7.97031
792,7.97286
793,7.97286
794,7.9884
795,7.99088
796,7.98285
797,7.96663
798,7.92626
799,7.89232
800,7.86413
801,7.84109
802,7.82268
803,7.80847
804,7.79811
805,7.79135
806,7.78801
807,7.78801
808,7.79135
809,7.79811
810,7.80847
811,7.82268
812,7.84109
813,7.86413
814,7.89232
815,7.92626
816,7.96663
817,7.98285
818,7.99088
819,8.00649
820,7.99849
821,7.99792
822,7.98892
823,7.95537
824,7.92775
825,7.90522
826,7.88707
827,7.87265
828,7.86139
829,7.85282
830,7.84656
831,7.8423
832,7.83983
833,7.83902
834,7.83983
835,7.8423
836,7.84656
837,7.85282
838,7.86139
839,7.87265
840,7.88707
841,7.90522
842,7.92775
843,7.97346
844,8.01454
845,8.02299
846,8.01709
847,7.97851
848,7.93522
849,7.91499
850,7.89895
851,7.88643
852,7.87681
853,7.86959
854,7.86433
855,7.86068
856,7.85839
857,7.85729
858,7.85729
859,7.85839
860,7.86068
861,7.86433
862,7.86959
863,7.87681
864,7.88643
865,7.89895
866,7.91499
867,7.93522
868,7.97851
869,8.01709
870,8.02299
871,8.01454
872,7.97346
873,7.92775
874,7.90522
875,7.88707
876,7.87265
877,7.86139
878,7.85282
879,7.84656
880,7.8423
881,7.83983
882,7.83902
883,7.83983
884,7.8423
885,7.84656
886,7.85282
887,7.86139
888,7.87265
889,7.88707
890,7.90522
891,7.92775
892,7.95537
893,7.98892
894,7.99792
895,7.99849
896,7.9884
897,7.96526
898,7.97588
899,7.97365
900,7.96121
901,7.94097
902,7.89705
903,7.86013
904,7.8296
905,7.80494
906,7.78574
907,7.77164
908,7.76238
909,7.75779
910,7.75779
911,7.76238
912,7.77164
913,7.78574
914,7.80494
915,7.8296
916,7.86013
917,7.89705
918,7.94097
919,7.96121
920,7.97365
921,7.97588
922,7.96526
923,7.97031
924,7.97286
925,7.97286
926,7.97031
927,7.96526
928,7.95778
929,7.94802
930,7.93614
931,7.92236
932,7.90693
933,7.89016
934,7.8724
935,7.85402
936,7.83545
937,7.81718
938,7.79972
939,7.78363
940,7.76951
941,7.758
942,7.7498
943,7.74563
944,7.74627
945,7.75254
946,7.76531
947,7.78546
948,7.81395
949,7.82041
950,7.82097
951,7.81343
952,7.79534
953,7.79534
954,7.79534
955,7.79534
956,7.79534
957,7.79534
958,7.79534
959,7.77725
960,7.76972
961,7.77028
962,7.77674
963,7.80523
964,7.82538
965,7.83814
966,7.84442
967,7.84506
968,7.84089
969,7.83269
970,7.82118
971,7.80706
972,7.79097
973,7.7735
974,7.75523
975,7.73667
976,7.7002
977,7.6749
978,7.65869
979,7.64972
980,7.66443
981,7.6727
982,7.6757
983,7.6745
984,7.67009
985,7.66338
986,7.65517
987,7.62813
988,7.61152
989,7.60346
990,7.60222
991,7.62432
992,7.6397
993,7.6495
994,7.65477
995,7.63833
996,7.62958
997,7.62671
998,7.62806
999,7.65013
1000,7.66281
1001,7.66718
1002,7.64605
1003,7.62879
1004,7.61352
1005,7.59842
1006,7.59984
1007,7.58744
1008,7.54396
1009,7.49865
1010,7.48079
1011,7.47325
1012,7.49542
1013,7.50213
1014,7.49502
1015,7.49115
1016,7.48952
1017,7.48917
1018,7.48915
1019,7.4885
1020,7.48627
1021,7.4815
1022,7.47318
1023,7.4603
1024,7.44175
1025,7.41641
1026,7.38307
1027,7.37178
1028,7.34799
1029,7.3602
1030,7.37931
1031,7.35827
1032,7.3615
1033,7.35738
1034,7.32741
1035,7.31781
1036,7.29677
1037,7.24561
1038,7.24161
1039,7.2195
1040,7.21023
1041,7.23185
1042,7.2065
1043,7.19903
1044,7.16004
1045,7.11794
1046,7.10115
1047,7.09159
1048,7.0895
1049,7.09534
1050,7.07842
1051,7.05471
1052,7.022
1053,7.00931
1054,6.99907
1055,6.99192
1056,6.9886
1057,6.94053
1058,6.91048
1059,6.87837
1060,6.87363
1061,6.86594
1062,6.83829
1063,6.8071
1064,6.77069
1065,6.7406
1066,6.71529
1067,6.69343
1068,6.67383
1069,6.65545
1070,6.63735
1071,6.60062
1072,6.59124
1073,6.57741
1074,6.55872
1075,6.53475
1076,6.48698
1077,6.44357
1078,6.40152
1079,6.38935
1080,6.35793
1081,6.32302
1082,6.31376
1083,6.28152
1084,6.24249
1085,6.22616
1086,6.18415
1087,6.11475
1088,6.07617
1089,6.01757
1090,5.98441
1091,5.95766
1092,5.90534
1093,5.87354
1094,5.79432
1095,5.76068
1096,5.70503
1097,5.65605
1098,5.61145
1099,5.5692
1100,5.52755
1101,5.48495
1102,5.44005
1103,5.37352
1104,5.31283
1105,5.25444
1106,5.19503
1107,5.13148
1108,5.0922
1109,5.00976
1110,4.95969
1111,4.89054
1112,4.81586
1113,4.74453
1114,4.65441
1115,4.58849
1116,4.52539
1117,4.46227
1118,4.39663
1119,4.30816
1120,4.22354
1121,4.13848
1122,4.06233
1123,3.99172
1124,3.89239
1125,3.79019
1126,3.67995
1127,3.56998
1128,3.48709
1129,3.39871
1130,3.30385
1131,3.20173
1132,3.07357
1133,2.94734
1134,2.81988
1135,2.68815
1136,2.54915
1137,2.39986
1138,2.26845
1139,2.13646
1140,2.00348
1141,1.86901
1142,1.73238
1143,1.59269
1144,1.44872
1145,1.3302
1146,1.1886
1147,1.07102
1148,0.959407
1149,0.853413
1150,0.752213
1151,0.654461
1152,0.558218
1153,0.460888
1154,0.390516
1155,0.327901
1156,0.271368
1157,0.218624
1158,0.166703
1159,0.111914
1160,0.0811426
1161,0.0539854
1162,0.0275251
1163,-0.001800782
1164,-0.006883572
1165,-0.007804981
1166,-0.007045939
1167,-0.007609144
1168,-0.0130513
1169,-0.0275156
1170,-0.0244037
1171,-0.0242274
1172,-0.029806
1173,-0.0130189
1174,-0.0240048
1175,-0.0171715
1176,-0.014269
1177,-0.01115441
1178,-0.007965581
1179,-0.004824794
1180,-0.001838987
1181,0.000900301
1182,0.003316926
1183,0.00535014
1184,0.006954589
1185,0.008100318
1186,0.008772766
1187,0.008972768
1188,0.008716556
1189,0.008035757
1190,0.006977393
1191,0.005603884
1192,0.003993044
1193,0.002238085
1194,0.000447612
1195,-0.001254372
1196,-0.002728469
1197,-0.003819884
1198,-0.004358427
1199,-0.004158512
1200,-0.003019157